time,Euler_X,Euler_Y,Euler_Z,Acc_X,Acc_Y,Acc_Z,Gyr_X,Gyr_Y,Gyr_Z
0,-13.7206068,8.731636047,173.8388824,0.267828465,-0.966193616,6.441700935,-59.7255249,4.651342392,-5.761223793
0.008333,-14.19673061,8.640990257,173.8135529,-1.261626959,0.037814282,11.93392563,-58.57396698,-10.06711769,-5.756663799
0.016666,-14.67878532,8.645195007,173.7786713,-2.124747992,-1.261314988,10.91077995,-59.06358337,1.268305421,-4.099801064
0.024999,-15.1242094,8.646221161,173.7501068,-2.074180841,1.301486492,6.796382427,-54.84170532,0.75701791,-3.473299265
0.033332,-15.60203934,8.635401726,173.703186,-1.610292077,-0.181991845,14.31955433,-58.33952332,-0.029712604,-5.929688454
0.041665,-16.07649422,8.669419289,173.6743622,-0.929314673,-1.212357759,5.753802776,-58.32586288,4.626136303,-2.401290417
0.049998,-16.51992607,8.584598541,173.6517334,-0.452595681,0.690671563,10.24727058,-54.65106583,-9.265899658,-5.654101849
0.058331,-16.95995331,8.580900192,173.6240082,-3.305768251,-0.586861908,12.39645481,-54.22137451,0.287200332,-3.503293514
0.066664,-17.36215782,8.599791527,173.5870361,-1.584389925,1.142024159,9.280988693,-49.44787216,3.209303856,-3.743374348
0.074997,-17.76898575,8.578745842,173.564209,-2.811817408,0.414921165,14.09704685,-50.33164597,-1.825940371,-3.57096529
0.08333,-18.16579056,8.607129097,173.5466919,0.231503919,-0.515382111,6.546989918,-49.14893723,3.629558325,-1.146137118
0.091663,-18.51411247,8.534986496,173.5128784,-0.529999197,0.094790205,7.738873005,-43.12184143,-7.190492153,-6.759147167
0.099996,-18.83468819,8.49023056,173.5413055,-1.865921259,0.373330444,16.74148941,-40.81874847,-6.418654442,1.255342603
0.108329,-19.17165756,8.494738579,173.4963684,-1.876685023,1.078638196,6.225311756,-41.57332611,2.015420914,-5.099443436
0.116662,-19.46824455,8.442034721,173.508667,-2.646108866,0.532816231,9.88439846,-37.65223312,-6.701948166,-0.935382009
0.124995,-19.73236275,8.425643921,173.4899292,-1.253781796,-0.302185625,10.38081074,-33.30688858,-1.343058228,-2.981423378
0.133328,-19.96539879,8.391829491,173.5008545,-1.265630245,0.583696544,8.735628128,-29.99972153,-4.50736618,-0.379398346
0.141661,-20.18800545,8.299365997,173.4989624,-0.456054747,0.626002729,12.92639351,-28.62836647,-10.57940578,-4.246408463
0.149994,-20.38401794,8.306134224,173.4969788,-3.577942133,-0.115926266,5.929896832,-25.33095741,0.59311074,-0.159243777
0.158327,-20.52237892,8.21941185,173.5142975,0.352247775,0.056602933,11.64696884,-18.85464478,-10.70316887,-1.946938872
0.16666,-20.67367554,8.226571083,173.4915161,-3.146592379,0.721775651,14.88522816,-19.6067028,1.503184557,-2.447773457
0.174993,-20.80623817,8.242215157,173.4784241,-3.067995787,-0.178586021,5.455018997,-17.64636612,2.073280573,-1.028872728
0.183326,-20.89792061,8.201788902,173.4720154,-1.289820433,0.5119403,14.0047102,-12.73555374,-4.514458179,-2.656862736
0.191659,-20.96020508,8.233779907,173.4470825,-3.082810879,0.840534031,10.78779411,-9.017543793,4.406250954,-1.626222372
0.199992,-21.0255394,8.223155022,173.4313965,-0.686645329,0.33978346,10.51637173,-9.411489487,-0.773652315,-2.414371967
0.208325,-21.07968903,8.218855858,173.4168396,-1.575977564,-0.673045218,10.29042721,-8.228802681,-0.094285995,-2.039430857
0.216658,-21.08784294,8.219470978,173.4076996,-0.941452444,-0.779469848,6.114104748,-2.662753582,0.206694081,-1.20525229
0.224991,-21.09063339,8.197994232,173.3968506,-0.406418651,0.168457106,15.6619978,-2.133281469,-2.175340176,-2.366857529
0.233324,-21.10066795,8.255943298,173.3565216,-4.17188406,0.440212458,8.879754066,-2.351950407,7.960686207,-2.1868155
0.241657,-21.09526443,8.240188599,173.3606873,-1.787365198,-0.478932083,10.06631374,-1.41677475,-2.181180477,-0.456727445
0.24999,-21.06087112,8.273237228,173.3283539,-0.812551737,-0.319918215,9.941068649,2.84270668,4.830038548,-2.376616955
0.258323,-21.02838707,8.240920067,173.3208618,-2.14346981,0.217019394,12.13271046,2.027559042,-3.535455704,-2.462475777
0.266656,-21.03156662,8.259380341,173.3159027,0.051257573,-0.666803122,11.90628338,-2.137123823,2.02676487,0.026139328
0.274989,-21.01258659,8.232193947,173.3038635,-2.734622002,-1.071262598,4.003969669,0.47666809,-2.768258333,-2.740953684
0.283322,-20.97031975,8.236495972,173.2942047,-1.727246523,-0.832393646,13.77900791,3.396793604,0.641777515,-1.105203032
0.291655,-20.90961266,8.276943207,173.2653351,-2.249751568,0.29672268,11.79776096,5.77128458,5.521698952,-1.708751082
0.299988,-20.89778709,8.2608881,173.2661591,-1.476562262,0.162727922,16.56571198,-0.436210454,-2.085229635,-0.815224349
0.308321,-20.89518547,8.308409691,173.2505035,-1.495782137,-1.935256124,5.427596569,-1.439673662,5.753584862,0.051394962
0.316654,-20.86415863,8.232203484,173.2523346,-0.08097858,-1.303183794,11.32194424,1.849668145,-8.872079849,-3.274549723
0.324987,-20.82626152,8.269209862,173.2441101,-4.053538322,-0.199921727,13.28221989,2.666557312,4.261376381,0.42400527
0.33332,-20.80386925,8.25025177,173.2529907,0.152510345,0.529793859,10.05311584,0.692647338,-2.751788378,-0.043031916
0.341653,-20.81798744,8.285158157,173.226593,-3.039211988,-1.047147512,10.80338192,-3.274216413,4.793512344,-1.685929179
0.349986,-20.83259773,8.255079269,173.2360992,-0.121466689,-2.196890116,3.763869524,-3.75868392,-4.025737762,-0.448658973
0.358319,-20.83718681,8.224596024,173.2326202,-1.434815049,-0.854637086,14.00986195,-2.52617836,-3.508151531,-1.931159616
0.366652,-20.83911324,8.238928795,173.2326965,-3.72927928,-1.228200078,10.04231167,-2.073728561,1.353161812,0.401772112
0.374985,-20.86149406,8.235425949,173.2158051,-0.6236341,1.057492137,16.62055206,-4.437358856,0.082336955,-2.273622036
0.383318,-20.89417458,8.277448654,173.20224,-3.052322626,-0.878329635,10.21692848,-5.530574322,5.035105228,0.07291092
0.391651,-20.95207024,8.227435112,173.2292023,1.239202499,-1.473740339,10.93805885,-9.463231087,-6.985771656,0.594698608
0.399984,-21.01129532,8.258903503,173.1998901,-3.528349161,-1.431492686,6.311049938,-8.443962097,4.520053387,-2.117247105
0.408317,-21.05112648,8.250367165,173.2129974,-2.844092369,-0.932630956,9.259641647,-7.062152386,-1.751706362,0.836420119
0.41665,-21.10777855,8.253006935,173.2002563,0.581921875,-1.26384747,11.76904392,-8.420807838,0.5875265,-1.51713109
0.424983,-21.19128036,8.199966431,173.2097473,-1.763304949,-0.434411705,10.59973717,-12.24537563,-6.578454971,-1.49525702
0.433316,-21.29631805,8.179712296,173.215683,0.214381665,-0.991793215,13.08213902,-14.54950523,-2.772126913,-0.444612026
0.441649,-21.38161087,8.193595886,173.1716919,-6.487550259,-0.26701647,7.362548828,-11.55184364,3.220158577,-4.507081985
0.449982,-21.47659492,8.190498352,173.192749,0.200829521,-1.116457462,14.48530483,-13.60059834,-1.511675596,1.973718047
0.458315,-21.56794548,8.164289474,173.1463165,-1.395055175,-1.541191101,6.200256348,-12.24304485,-1.141191363,-6.53324604
0.466648,-21.67477036,8.11703968,173.1807251,-1.180916548,-0.658623934,14.23908138,-15.24603081,-7.027727604,1.490377307
0.474981,-21.777565,8.17342186,173.1094513,-2.456563234,0.121055052,9.176542282,-13.20526791,9.182077408,-5.61272049
0.483314,-21.89954758,8.159043312,173.1281891,-2.123100996,-1.01350081,12.05906105,-16.79945755,-2.681067944,1.204676151
0.491647,-22.03041649,8.18836689,173.0958099,0.787850976,-1.890033126,6.220830917,-17.24117661,4.464908123,-2.502998114
0.49998,-22.13175964,8.118412018,173.1135712,-2.730044127,-0.390092164,7.530416965,-14.30583477,-8.823259354,-1.421231627
0.508313,-22.22160149,8.137184143,173.0945587,-3.053362608,-1.269549012,13.82278061,-12.54698181,2.700470924,-1.492926002
0.516646,-22.30242348,8.140768051,173.0902252,-2.699485302,1.151647091,11.42700577,-11.46741676,0.342833757,-0.534466624
0.524979,-22.42008591,8.140544891,173.0686798,-0.079463571,-1.413039088,14.96318436,-15.8526268,0.708784401,-2.638215303
0.533312,-22.54788208,8.158240318,173.0470734,-0.677988291,-1.673981071,6.030091286,-16.8123951,2.690609932,-1.776603818
0.541645,-22.67790794,8.114667892,173.0368195,-1.36923933,-0.244189441,12.12016582,-17.53033447,-4.593990803,-3.393041372
0.549978,-22.74506378,8.205156326,173.0047607,-5.350437164,-0.215190828,2.493961573,-9.356854439,11.23585129,0.459788382
0.558311,-22.81115913,8.142883301,172.9938049,1.849236012,-0.30468443,15.96336079,-9.85267067,-6.629990101,-4.34860611
0.566644,-22.88183403,8.182311058,172.9764557,-3.894040585,-0.331359327,10.69137478,-10.02748775,4.910210609,-0.281987131
0.574977,-22.97680473,8.112600327,172.9974518,2.049601793,-0.978675783,12.17137527,-13.87154675,-8.915830612,-1.220493078
0.58331,-23.06066895,8.155806541,172.9487305,-5.28187561,-0.650187314,5.769027233,-11.08023262,6.784276485,-3.519601107
0.591643,-23.11200142,8.121376991,172.9564056,-0.500743628,-0.989895344,10.683465,-8.410717964,-4.397350311,-1.043037534
0.599976,-23.15213203,8.143972397,172.913147,-1.71981287,-0.366873354,12.86585045,-5.923855305,4.259839058,-3.878455877
0.608309,-23.22790527,8.074505806,172.9311676,0.695780396,-1.025373936,13.08159542,-11.52766228,-8.743932724,-1.575429201
0.616642,-23.32135582,8.086121559,172.8886108,-3.026470661,-1.105060458,7.675455093,-12.34065819,3.027538776,-4.313975811
0.624975,-23.35021019,8.046771049,172.8912811,-2.636842966,0.325080127,8.65146637,-5.64466095,-4.701953888,-1.837232351
0.633308,-23.37930298,8.068426132,172.8503876,-3.288501263,-0.853159726,14.31790638,-4.644347668,4.061610699,-3.650156975
0.641641,-23.41628265,8.028933525,172.8622284,1.036270618,-0.467991322,9.091949463,-6.779985428,-5.148307323,-0.852697849
0.649974,-23.48373795,7.993527412,172.8402405,-1.372811675,-1.109498501,10.53526211,-9.570118904,-3.108492613,-4.308980465
0.658307,-23.49896812,7.972864628,172.8537598,-2.94543004,0.039658409,6.255088806,-4.202015877,-3.152369738,0.223087206
0.66664,-23.50993347,7.98463726,172.8160553,-2.088321924,-1.468478918,16.54189301,-2.530558348,2.83192277,-3.765139341
0.674973,-23.51869583,7.977630138,172.8335571,-1.896214843,-0.244393632,9.628136635,-3.498904467,-1.840664506,1.307568192
0.683306,-23.56461716,7.97644186,172.8130951,0.740395188,-1.091812372,9.657075882,-7.012126923,0.588704765,-2.5058918
0.691639,-23.56221199,7.917167664,172.8372498,-1.318255067,-1.415383101,7.148388386,-2.275005102,-7.90657568,-0.475630701
0.699972,-23.55741501,7.924946308,172.8175507,-3.710455656,-0.124091141,16.35351563,-0.941681802,1.540965199,-1.993735194
0.708305,-23.5527668,7.98907423,172.8050079,-3.141790867,0.703298032,6.950558186,-1.403762817,7.410954952,1.444912076
0.716638,-23.57400131,7.953023911,172.7870331,0.6249488,-1.581684351,10.91118431,-4.090951443,-3.363276958,-3.906836748
0.724971,-23.54686737,7.983377934,172.7860413,-2.709077358,-1.264870763,6.348587513,1.095892072,3.146670103,1.080216169
0.733304,-23.52032661,7.927745342,172.7995148,0.855756342,0.116576381,17.90638733,1.118432879,-7.010129929,-1.417901635
0.741637,-23.50040436,8.000246048,172.7651367,-4.997517586,-0.249730006,6.64685297,0.779325962,9.367601395,-0.541715562
0.74997,-23.48062706,7.98062706,172.7693481,-1.099565864,-1.371960402,11.27179623,0.459711492,-2.610705376,-0.697757483
0.758303,-23.42958832,8.033994675,172.7388763,-0.931274474,-1.616805077,9.691836357,4.446208477,7.076431751,-1.04395926
0.766636,-23.40859795,7.953349113,172.7706757,-0.211831748,-0.607760549,13.98761559,0.146065205,-10.63372517,-0.598553479
0.774969,-23.39758492,8.029405594,172.7226563,-2.996991158,-0.770571887,4.919653416,-0.073743396,10.40410614,-1.880494714
0.783302,-23.34902573,8.006296158,172.7207947,-2.237406969,-0.381286621,11.46207714,4.01693964,-2.709320307,-1.523560405
0.791635,-23.28968811,8.096927643,172.6768646,-2.204945803,-1.587947726,11.48621941,5.660836697,11.81227493,-0.7601282
0.799968,-23.26168442,8.027985573,172.7093201,1.15589571,-0.906606913,9.664733887,0.971560895,-9.375631332,0.053879548
0.808301,-23.22362709,8.042135239,172.6898499,-1.884005666,-0.488180161,8.35847187,2.68791914,2.234495878,-1.728704691
0.816634,-23.15085793,8.023852348,172.7085419,-4.338788033,0.040074915,12.28359795,6.575469494,-3.141970396,0.958728075
0.824967,-23.08392334,8.109358788,172.6725616,-1.979343176,-0.381380349,14.49301434,6.42547226,10.87077236,-0.176046669
0.8333,-23.02222061,8.08088398,172.6833038,-1.345414281,-1.551693797,8.751386642,5.382050037,-3.894311905,-0.385494262
0.841633,-22.95829391,8.11186409,172.6713562,-0.205384701,-1.898117661,8.643334389,5.653433323,3.73328805,-0.126713634
0.849966,-22.8402729,8.113577843,172.667984,-2.36173749,0.84837693,9.794698715,12.37747765,0.094657406,-0.509544015
0.858299,-22.76011276,8.167214394,172.6416168,-3.005728006,-0.381296396,14.48023415,7.842374802,6.90381813,-0.667225242
0.866632,-22.65813255,8.162631035,172.6625519,-1.12742281,-2.141315937,2.217317581,10.03866768,-1.71863842,1.861655831
0.874965,-22.54561043,8.156936646,172.6503296,1.701861501,-1.848598123,13.23374367,11.4831562,-0.316899329,-1.880648255
0.883298,-22.44241714,8.117305756,172.6689911,-3.790537119,0.440940797,9.843209267,10.22662544,-5.492306709,0.009080246
0.891631,-22.35360718,8.17108345,172.6560974,-2.131752253,-1.833341599,13.31490707,8.639772415,6.306059361,0.764264882
0.899964,-22.20890427,8.1546278,172.6748199,-1.591460466,-0.367562622,9.230757713,15.20426559,-2.921329498,1.090846419
0.908297,-22.09424782,8.148524284,172.682373,0.466883689,-0.857031822,15.81587315,11.3917141,-1.260527611,0.277799159
0.91663,-21.99653244,8.100660324,172.7110748,-2.717881441,-1.755422354,5.548093796,9.397082329,-6.85449791,0.783373058
0.924963,-21.89067841,8.102258682,172.7075806,-1.15162015,-1.323812366,14.7775135,10.51632309,0.09061037,-0.589127541
0.933296,-21.75138283,8.087128639,172.7306976,-5.471356869,0.041029688,6.219341755,14.48253536,-2.958265781,1.655307531
0.941629,-21.66447639,8.111339569,172.7406464,2.348058462,-1.82994616,13.18039036,8.008995056,2.016647339,1.889959216
0.949962,-21.56651115,8.007137299,172.7668304,-2.44420433,-1.071312428,6.571850777,9.472928047,-13.0221262,-1.933029771
0.958295,-21.46022987,8.069301605,172.7739868,-4.014713287,-1.839776039,14.67760181,10.3794651,6.386795521,3.241520166
0.966628,-21.35920715,8.061676979,172.7715454,-1.795559287,0.236872062,11.50347996,10.32055283,-0.998212397,-0.821858406
0.974961,-21.30652809,8.09412384,172.7901154,-0.89263761,-2.373988628,13.63141251,3.746914625,2.578802824,3.187832594
0.983294,-21.25866318,8.054150581,172.7905273,-1.040088177,-1.872389197,3.93463397,3.893812418,-4.73822403,-1.916277647
0.991627,-21.1846447,8.095046997,172.8171082,-3.005883217,-0.466406733,14.45248699,6.170174599,3.186986923,4.44175148
0.99996,-21.10901451,8.134620667,172.802063,-2.383222818,-0.574828207,7.166938782,7.487514496,4.821815014,-0.172563076
1.008293,-21.08891296,8.136237144,172.8521118,0.83883822,-2.217007399,10.45165539,-0.707670152,-2.205462694,5.329771519
1.016626,-21.05422592,8.128399849,172.8312378,-2.369700909,-1.208064318,5.105342865,2.673524141,-0.236265689,-2.872072697
1.024959,-20.99588966,8.187494278,172.8695526,-4.459993362,-0.912717879,15.32729721,4.075340748,4.739953041,6.509385109
1.033292,-20.95348358,8.280893326,172.8253784,0.813170075,-0.627142787,10.40104294,4.005106449,12.09211159,-1.106996298
1.041625,-20.93788338,8.249207497,172.8690491,-2.146600485,-2.208347797,11.39992237,-1.161016345,-5.648706436,3.19661808
1.049958,-20.93004227,8.329047203,172.8357391,-1.943413138,-1.881131768,7.377561569,-0.326146126,10.10882568,-0.489360064
1.058291,-20.87504578,8.357102394,172.8404236,-4.085336685,0.685078263,10.09303284,4.237965107,2.701443911,1.434896708
1.066624,-20.84198189,8.428389549,172.8047485,0.430910259,-1.794050455,11.93317127,2.749701262,9.250542641,-1.132430911
1.074957,-20.82182503,8.410593987,172.8156128,-1.901512623,-0.36518696,6.690154076,-0.060577668,-2.701302767,0.159435809
1.08329,-20.79190826,8.46500206,172.7832947,-2.410233021,-1.433347821,12.83540344,2.315539837,7.213750362,-1.485702515
1.091623,-20.7162571,8.512782097,172.7875519,-4.219430447,-0.504667878,8.151792526,6.712607861,4.934518814,2.213877201
1.099956,-20.6727314,8.548717499,172.7740326,2.542788744,-2.027441502,13.70613003,3.622326851,4.34915638,-0.196512416
1.108289,-20.63094902,8.527854919,172.765564,-3.348657608,-1.750675321,6.806397915,2.870472431,-2.231717348,-2.119424582
1.116622,-20.58452034,8.591773033,172.7677155,-1.74900353,-0.734465539,11.46377659,3.689487219,6.837553501,2.719629765
1.124955,-20.47943115,8.63690567,172.7520752,-1.902456641,-0.893015742,5.481514454,10.59354877,5.476055145,-0.131042451
1.133288,-20.4343071,8.582529068,172.78508,1.179610014,-0.555365801,14.0197258,2.978281975,-7.734576225,1.168073177
1.141621,-20.35105324,8.586956024,172.7745972,-3.819010973,-1.378196836,2.563607693,7.875085354,0.685347378,-1.269416094
1.149954,-20.26522636,8.585246086,172.7939911,-1.248482943,-1.548368931,19.74162483,8.109786987,-1.241880417,1.866061091
1.158287,-20.16736603,8.638504028,172.7724457,-4.051585674,-0.58921802,7.526548862,9.825429916,6.633690834,-0.482649088
1.16662,-20.11963654,8.578597069,172.8191223,2.00137496,-2.04268527,12.56319904,3.044955969,-8.907759666,2.503522396
1.174953,-20.03476524,8.573464394,172.8033447,-3.895572901,-1.080078602,7.82199955,8.158376694,-0.180810884,-2.264195681
1.183286,-19.94297028,8.583537102,172.8357086,-2.574866295,-0.523535311,14.62415791,8.592616081,-0.428398103,3.80316329
1.191619,-19.86032486,8.624958038,172.8176422,-1.678962469,-1.338852525,4.20110178,7.928106308,5.155288219,-0.619915843
1.199952,-19.81949234,8.535131454,172.8612976,1.378201365,-2.49822402,13.30896282,2.275043726,-12.14901257,0.993819535
1.208285,-19.71702576,8.574297905,172.8491211,-5.807950497,-0.406091601,4.129659176,10.19763088,4.665236473,-0.063190326
1.216618,-19.63878059,8.580147743,172.875885,-0.217976347,-1.191187859,20.60383606,7.066725731,-0.659617901,3.006432772
1.224951,-19.58418846,8.604602814,172.8634644,-2.282757521,-1.955953479,4.77588892,4.451280594,3.010761499,-0.700472534
1.233284,-19.56150055,8.558075905,172.9138489,0.008446499,-2.699666977,10.96624565,-0.023744395,-7.513320923,3.541026831
1.241617,-19.48855782,8.63170433,172.878952,-3.757576466,-0.277977198,8.906112671,7.058502197,9.462808609,-1.246542573
1.24995,-19.44571304,8.618714333,172.9174805,-1.022260427,-1.009208441,13.66901779,2.604007244,-3.245041847,3.570483446
1.258283,-19.397789,8.653378487,172.9102631,-0.883077979,-2.937834501,1.279415488,3.554423332,3.959819794,0.277210057
1.266616,-19.36964417,8.57207489,172.9429169,-1.407226324,-0.153253511,14.99973965,0.944614768,-10.7413311,0.197472975
1.274949,-19.29378891,8.679079056,172.9091034,-5.715160847,-2.528683424,7.072480202,7.383701801,13.1946249,0.167401865
1.283282,-19.2450695,8.647233963,172.9386444,2.272511244,0.649369419,20.8794632,3.467206955,-5.014755249,1.827281117
1.291615,-19.21166039,8.657271385,172.9334869,-3.3744874,-2.737653255,3.720005035,1.766933918,1.090128899,-0.477474958
1.299948,-19.18185997,8.632707596,172.953186,-1.98922956,-0.964464366,12.59454727,1.37731576,-3.802330494,1.016872287
1.308281,-19.10156631,8.733603477,172.9292908,-3.048202276,-1.099836946,9.003712654,7.731798172,12.11713505,0.988952935
1.316614,-19.05854034,8.647052765,172.9849854,0.33026275,-0.670073926,12.1416254,2.310929537,-12.22470284,2.626983404
1.324947,-18.99752617,8.69890213,172.9899597,-2.720682859,-0.495129555,4.293197155,4.89061594,5.43735218,2.290540695
1.33328,-18.94638443,8.660244942,173.0080719,-2.616132736,-2.392607212,14.09443378,3.96571064,-5.336213589,0.302798659
1.341613,-18.85340118,8.785416603,173.0007935,-4.455943584,-1.155307412,7.767214298,8.948450089,14.23850918,3.744840384
1.349946,-18.81469536,8.709319115,173.034668,3.580998898,-2.534013033,18.6769104,2.182166576,-10.18995762,0.633376122
1.358279,-18.79272461,8.771173477,173.020462,-4.787849903,-0.895936549,3.746569395,0.549463809,7.320561886,0.497671813
1.366612,-18.74331665,8.783930779,173.0274658,-2.778428316,-0.681168854,7.934528351,3.95715642,0.929912031,1.060211658
1.374945,-18.65244102,8.86230278,173.0217133,0.954643905,-3.13491559,8.492402077,8.663825035,8.873065948,2.063803434
1.383278,-18.60421371,8.747755051,173.0580902,-1.164554596,0.729918778,13.38994598,3.275613308,-14.65493298,-0.522812307
1.391611,-18.53268623,8.857240677,173.04422,-3.48059082,-1.579203606,3.920801401,6.486869812,12.72844315,2.320585728
1.399944,-18.44389534,8.838125229,173.0402679,-2.923563957,-0.582961142,17.54901123,8.883440971,-2.277694941,-1.393158436
1.408277,-18.34034729,8.92902565,173.0532227,-1.337881446,-1.204139233,10.44740582,9.833292961,9.612241745,4.593874931
1.41661,-18.23992729,8.858422279,173.0814514,1.671165824,-1.365966439,12.64253616,9.682168961,-9.346250534,0.29808569
1.424943,-18.15207863,8.936161995,173.0900269,-4.870898247,-0.022651469,9.554168701,8.025056839,8.293774605,3.576298237
1.433276,-18.02697563,8.926787376,173.1036072,-2.242386818,-1.234637737,3.887081623,12.91481495,-1.819507599,0.96018821
1.441609,-17.91294289,8.92484951,173.1383057,0.561115623,-2.739250898,14.26826382,10.67874146,-1.745302916,3.536006927
1.449942,-17.79197693,8.868632317,173.1579742,-2.255754232,0.273362935,6.270722866,12.30755138,-7.386556625,-0.068979137
1.458275,-17.6790638,8.946718216,173.1728668,-2.541745424,-1.675429106,12.90877151,10.91180706,8.134353638,4.227412224
1.466608,-17.52501297,8.926346779,173.1737976,-0.968327761,-1.513527155,7.366444111,16.62462807,-2.614471197,-0.854491055
1.474941,-17.36532593,8.894461632,173.2250671,-1.141191483,-1.403800726,14.58281612,15.84533882,-5.724245071,4.345110416
1.483274,-17.22189522,8.909690857,173.2272797,-1.661854744,-1.101457715,9.917098045,15.32780361,1.415967941,0.573797405
1.491607,-17.09400177,8.896500587,173.2544098,-3.594856501,-0.090929113,11.91635418,12.47719383,-2.712009907,2.298762798
1.49994,-16.92558098,8.935628891,173.2748718,-1.064652085,-2.133562803,1.709327102,17.98617935,3.52799058,3.473893166
1.508273,-16.73779869,8.809977531,173.3275604,-0.202014565,-0.58574754,17.3897171,19.19343567,-16.49365807,1.302856088
1.516606,-16.55921364,8.885367393,173.322998,-5.090216637,-2.023845434,7.189788342,19.66885757,8.570640564,1.853894949
1.524939,-16.40889359,8.861444473,173.3408661,-0.964639544,-1.079905391,15.13581371,15.33666706,-3.610198975,0.909420907
1.533272,-16.28746223,8.859843254,173.3505554,-0.517681658,-2.894479036,8.353474617,12.54743004,-0.758130252,0.827634454
1.541605,-16.1230793,8.808279037,173.3888855,-3.561410427,-0.940528929,6.754761696,16.6493454,-7.463502407,2.332291842
1.549938,-15.95183182,8.908540726,173.371933,-0.584894001,-1.314370871,10.70973206,19.01730919,11.8668623,1.172351241
1.558271,-15.81612587,8.811946869,173.4036102,-0.8610183,-1.321452141,9.276155472,13.32587337,-12.43228245,0.130312443
1.566604,-15.69160175,8.836554527,173.4331055,-1.008597732,-0.66775161,10.12308121,12.5568285,1.641116977,3.947730303
1.574937,-15.52368164,8.854014397,173.4195099,-5.819406509,-1.776091933,6.604577065,18.02480507,2.198303938,-1.295824409
1.58327,-15.35884666,8.874067307,173.4506836,0.864600301,-1.733551502,15.55248451,17.35985947,1.083828211,3.983770132
1.591603,-15.19430733,8.813175201,173.4539185,-0.929805279,-0.647478819,12.49993229,17.30712318,-7.405207634,-1.86359024
1.599936,-15.03505516,8.864970207,173.4885254,-3.943953991,0.315047175,12.41540337,16.62739754,4.679530621,5.361996174
1.608269,-14.87733173,8.919115067,173.4858398,-0.461559057,-2.228858948,2.290153265,16.59368706,6.101555347,1.062337875
1.616602,-14.71028614,8.824572563,173.5408478,0.340088457,-1.613772869,6.825901031,17.18458366,-12.88486099,3.18847394
1.624935,-14.4844532,8.891801834,173.538147,-4.776870251,-1.611326456,9.383289337,24.77107048,7.633445263,1.412741423
1.633268,-14.24678898,8.884614944,173.5844421,0.039610267,0.801742435,17.31979179,25.81833267,-2.449337006,4.88272953
1.641601,-14.05065632,8.872146606,173.594574,-0.885141313,-1.471829414,12.68337727,20.96286392,-1.999063373,0.489526659
1.649934,-13.82758236,8.848593712,173.6452332,-3.355238676,-1.55556047,3.445756197,23.99047089,-4.442765713,4.929730415
1.658267,-13.56642151,8.860362053,173.6523438,-1.633308649,-0.804993927,13.07504177,28.82352829,0.915261388,0.842004597
1.6666,-13.29023647,8.820272446,173.7147217,-0.50966984,-1.621400118,2.542428017,30.14981079,-6.648308277,5.855201721
1.674933,-13.02314663,8.731613159,173.7487488,0.387682617,-0.825541139,13.0407362,29.04542732,-11.53550816,1.200117588
1.683266,-12.72354221,8.77057457,173.7685547,-5.438706398,0.035710432,9.516018867,33.74782562,3.783520937,3.110813618
1.691599,-12.40832996,8.676076889,173.8114319,1.409039378,-1.796266317,11.72706127,34.66031647,-12.4341898,2.187932253
1.699932,-12.06692505,8.585843086,173.8517456,-1.243710279,-1.859869003,10.67774391,38.40008163,-11.84698486,2.158809185
1.708265,-11.71202469,8.530502319,173.8812866,-3.273659706,1.711205482,11.20208549,39.67549515,-7.476576328,1.755743265
1.716598,-11.38381195,8.457098961,173.9264832,-0.207925752,-1.770207763,7.456478119,36.74122238,-9.955496788,3.270698786
1.724931,-11.00003815,8.245627403,173.9737244,0.674844086,-2.259682655,4.536855221,42.84196091,-26.23989296,0.276032388
1.733264,-10.59838486,8.15929985,174.0004883,-4.447389603,-0.451673537,15.40961742,45.89950562,-11.02236462,0.960318089
1.741597,-10.20109558,8.015897751,174.0413971,1.218429685,-0.510843098,12.43372917,44.59625626,-18.06217003,1.373476624
1.74993,-9.842344284,7.75601387,174.0944519,-2.139463663,-2.174844265,13.87515163,40.3345871,-32.05741501,0.56183672
1.758263,-9.450131416,7.669644356,174.1397705,-4.029830933,-0.771229267,2.648552179,43.94586945,-11.3774538,3.280561924
1.766596,-9.079972267,7.363957405,174.1773834,4.440165997,-3.363593102,12.23282528,41.98744583,-37.1751709,-1.712085843
1.774929,-8.679334641,7.122992992,174.2224731,-5.198681831,-0.940574229,8.168963432,45.00834274,-29.65291214,0.554255128
1.783262,-8.3250103,6.935766697,174.2564087,0.233555064,-0.184330717,17.05853844,40.17644882,-23.06963348,0.454845667
1.791595,-7.986140728,6.633020878,174.3006134,-1.955251694,-2.398402929,8.430429459,37.64923859,-36.96609116,-0.225252122
1.799928,-7.662133694,6.39208746,174.3385925,-2.554197311,-2.205220222,10.52653599,36.52185822,-29.50970268,0.330667615
1.808261,-7.340556145,6.167819023,174.3677521,-1.125332475,-1.686267018,10.73273945,35.81863403,-27.3969059,-0.350044757
1.816594,-7.048485279,5.793314457,174.4159698,-0.978371441,-2.102882862,5.277543068,32.60369492,-45.55847168,-0.139034435
1.824927,-6.755215645,5.648053646,174.4220276,-2.35236311,-1.797868609,13.08617306,32.73696899,-17.65353203,-1.657883406
1.83326,-6.511350632,5.316263199,174.4488983,0.2613509,-2.233329296,11.84451866,27.11145592,-40.16817474,-1.632501125
1.841593,-6.276032925,5.064539433,174.4868011,-3.461014271,-0.7123124,15.37767506,25.4448452,-30.78597069,0.867952406
1.849926,-6.078367233,4.906687737,174.4924927,-1.702208996,-2.803205013,9.494348526,21.81493187,-19.15554237,-1.582269311
1.858259,-5.875266552,4.51513958,174.5486908,0.63160485,-1.121237516,6.112957478,21.43766785,-47.69484711,1.523551345
1.866592,-5.661921501,4.437087536,174.5343781,-6.304264069,-0.76805675,11.80399799,23.89047241,-9.397585869,-2.86579895
1.874925,-5.505776405,4.098466396,174.5905304,4.212413788,-3.552214146,9.185114861,15.85709667,-41.36523819,2.465924978
1.883258,-5.313746929,3.90248251,174.572937,-6.365708351,-0.238089114,10.40852451,21.34652328,-23.46509171,-4.534594059
1.891591,-5.171145439,3.724193573,174.6317139,1.178531766,-1.233867407,15.38738251,14.26548576,-22.21890259,4.792771816
1.899924,-5.006173134,3.366175175,174.6325073,-2.055501938,-1.644245863,1.772076368,17.94489288,-43.05164337,-3.936608076
1.908257,-4.798264503,3.316680431,174.6710205,-5.147620201,-0.676208913,9.558929443,22.30664063,-6.583296299,3.836949825
1.91659,-4.635282516,2.933464289,174.6869659,6.005625248,-1.23429656,15.58178902,17.60686302,-46.23814392,-2.098322392
1.924923,-4.457772732,2.878167152,174.7012329,-10.57388973,-1.37881434,7.101634502,18.84290123,-7.019352436,0.928862095
1.933256,-4.279668808,2.605848789,174.7118683,6.963881016,-1.333906174,13.46058178,19.46472931,-32.93116379,-1.43726778
1.941589,-4.087229729,2.383008957,174.7296295,-10.18295002,0.278074384,8.834407806,20.63045311,-27.09617233,-0.076817155
1.949922,-3.89166379,2.335115671,174.7536163,5.572867393,-2.006207705,8.601119995,21.50447655,-6.184328556,2.248508215
1.958255,-3.68620491,2.047686338,174.7225952,-5.168788433,-0.875107646,12.14082432,22.42876625,-34.44563675,-6.23197794
1.966588,-3.455318689,1.998685241,174.7953949,-0.68564254,0.071766958,11.46975994,25.55381012,-6.663341999,8.125569344
1.974921,-3.24456048,1.783134937,174.7480469,-2.259907961,-1.370295405,10.11184883,23.11024857,-25.77137756,-7.419606209
1.983254,-3.002650261,1.658804893,174.8495941,-0.416526794,-0.400196463,2.833051682,26.81732368,-15.81240082,11.12938309
1.991587,-2.698180199,1.625610709,174.7946472,-4.138845444,-1.45140636,9.753770828,34.36315918,-3.934043407,-7.018717766
1.99992,-2.396226883,1.395233274,174.9078674,1.49340415,0.171788365,14.02235031,34.03165817,-28.47193718,12.11771965
2.008253,-2.074727774,1.356957555,174.85112,-5.930556297,0.855525911,12.08347607,36.38136292,-4.610260487,-7.214718819
2.016586,-1.755875587,1.313767433,174.9675446,-0.04586355,-2.015812635,6.818103313,36.09305191,-5.898684025,13.56445789
2.024919,-1.362373829,1.17409575,174.9133453,0.464188129,0.272826463,5.775399685,45.001297,-16.86813545,-7.187574863
2.033252,-0.901884735,1.177940249,175.0090485,-7.307384491,1.298498511,13.65114117,53.18065262,-0.016085781,11.26707745
2.041585,-0.431303442,1.130161643,174.9698944,4.328348637,0.376601368,14.00444126,54.20520782,-5.977404594,-4.994430542
2.049918,0.04275981,1.103591084,175.0373993,-6.29216671,-0.092978805,7.705212116,54.8868866,-3.466511965,7.866474152
2.058251,0.574749827,1.184057474,175.0314636,2.416710377,-1.287086487,8.206811905,61.49514389,9.352646828,-0.996448278
2.066584,1.1724751,1.1483078,175.0698853,-5.615677834,0.674716592,9.235926628,69.79257965,-4.470957756,4.451964855
2.074917,1.805735111,1.17113483,175.1080475,2.354750633,0.9765535,7.59587431,73.54420471,2.556146383,4.273999214
2.08325,2.467068911,1.274156332,175.1064758,-7.224298954,-0.389853269,11.80800533,77.52355957,12.09491348,-0.869018793
2.091583,3.16043067,1.295363665,175.1860962,3.753354788,0.354641855,10.88415813,80.63769531,2.704225779,9.185997009
2.099916,3.914533854,1.336471796,175.1468658,-4.98938036,-0.191267923,5.757205963,88.76057434,4.381896973,-5.223317146
2.108249,4.720125198,1.465863466,175.2479095,-1.610516906,0.11151886,10.62606049,94.02723694,16.08798218,10.68669033
2.116582,5.534868717,1.447521567,175.2090912,1.204447031,0.566202641,12.25605679,96.04911804,-2.859084129,-4.660804749
2.124915,6.391733646,1.535821795,175.2849426,-5.560446262,1.059109449,11.35433483,100.2422104,11.17665577,7.718829155
2.133248,7.253824711,1.654683113,175.2862396,1.381830573,-1.014036179,9.550741196,101.6080933,13.92977524,-1.76053381
2.141581,8.13301754,1.705900431,175.3285065,-2.409534931,-0.890569866,12.75778961,103.0139465,6.458395004,3.975123167
2.149914,9.043333054,1.802409291,175.3495483,0.050990518,0.028290734,13.89737415,107.3219986,11.57709789,0.544372082
2.158247,9.96758461,1.891951323,175.4014282,-3.726319313,-0.944441736,9.995013237,108.3756714,11.31376076,4.136703968
2.16658,10.8680439,1.924675345,175.4296112,3.198009491,-0.498948157,8.658797264,106.1052399,4.221382618,2.393916845
2.174913,11.7941885,2.040102959,175.4769592,-5.825637817,0.114375085,12.2348814,108.6127014,14.38527298,2.620479107
2.183246,12.69352818,2.018494129,175.5324554,5.08160305,-1.858237982,13.99110603,105.8456955,-1.372859955,6.832729816
2.191579,13.62264347,2.105280876,175.5513458,-8.540961266,-1.030915618,9.903966904,109.0938492,10.344841,-0.391082317
2.199912,14.48431492,2.139750481,175.6517334,4.86922884,-1.955967784,14.9743185,101.1167526,6.685260773,10.4509716
2.208245,15.33332539,2.103290081,175.6179199,-4.95986557,-0.062722519,10.51462364,99.72209167,-5.583260536,-3.014309406
2.216578,16.1974411,2.237464666,175.7497253,1.171842098,-0.591341496,10.1885128,101.2556534,19.53766251,10.61518955
2.224911,17.03987503,2.136734962,175.6967316,-5.075169086,-2.083181858,12.72934437,99.03281403,-13.71603203,-2.853579283
2.233244,17.84043121,2.284920931,175.8462067,1.869925976,-1.78181839,8.386652946,93.534935,22.08522224,11.54864407
2.241577,18.60079193,2.201987743,175.766098,-3.379293919,-1.672516584,11.09812069,89.32872772,-12.77378368,-6.232961655
2.24991,19.33854675,2.357162476,175.9270325,0.261065245,-1.353176117,8.771922112,85.9234314,23.63095093,11.97475338
2.258243,20.04961777,2.269290686,175.835083,-2.041912556,-1.89072156,17.19732475,83.4913559,-13.96107483,-7.041218758
2.266576,20.70495796,2.42011404,175.9815826,-1.042899847,-0.176305413,13.93358326,76.07949066,22.8309803,9.943719864
2.274909,21.2940712,2.356097937,175.8883209,-0.323223144,-3.414166689,12.83803749,68.89233398,-11.50007439,-7.902051926
2.283242,21.86636162,2.460632324,175.9798584,-1.671672583,-0.954081059,13.16297913,66.37097168,15.45042801,5.369572639
2.291575,22.35112572,2.462460995,175.9083862,-3.301750183,-2.466777325,21.11172485,56.28733063,-3.343307972,-8.234975815
2.299908,22.77872276,2.594481707,176.0310364,-1.131218195,-2.365054131,-0.852482915,48.81668854,20.0206852,7.279314995
2.308241,23.21503258,2.679025412,176.0128021,-0.874376416,-0.232601061,7.108010292,50.21893692,8.159651756,-6.187491417
2.316574,23.6245079,2.775443792,176.1185455,-0.672907531,-0.892698705,12.67867088,46.6883812,15.4034481,6.809495449
2.324907,24.03371048,2.851398945,176.1306,-0.143703863,-1.635946393,15.9077177,46.80466461,8.597473145,-2.569369078
2.33324,24.35434341,2.933446646,176.2135925,-2.150670767,-0.805430472,18.2405262,36.12786102,12.80612183,4.81654501
2.341573,24.66865921,3.067199469,176.2816162,0.016103312,-1.897517562,10.647089,35.07765198,17.660923,0.547440946
2.349906,24.95680428,3.087051153,176.3289948,-2.054558039,0.438467264,16.45977783,32.42425537,4.293423653,3.932416201
2.358239,25.23563004,3.258220434,176.423111,-0.266945511,-2.620528936,0.36566326,30.63618851,23.05969429,1.290971994
2.366572,25.5350399,3.278313637,176.4622803,-0.222774878,0.931333601,8.440499306,33.81570435,3.939870119,2.986123323
2.374905,25.82311821,3.315778255,176.4811554,-0.658533514,-0.760332823,13.29789448,32.24744034,4.707989693,-0.118389085
2.383238,26.07320595,3.388804913,176.528717,-1.397853017,-1.166824341,9.837182045,27.82921219,10.12112713,1.064976692
2.391571,26.31989861,3.361838341,176.5330505,0.10306491,-0.485678852,11.58712101,27.39496422,-2.998532057,1.687710047
2.399904,26.6049881,3.380168438,176.5291595,0.249489412,-0.4068878,9.064200401,32.39103317,1.510562301,-1.615568042
2.408237,26.88510513,3.347401857,176.5311279,-3.313113213,-0.169271618,14.97217655,31.43170357,-3.726439476,1.771059394
2.41657,27.11053848,3.308477402,176.5069122,5.611975193,-1.063197851,8.802915573,25.37359428,-5.730241299,-0.68530941
2.424903,27.41679573,3.216114759,176.4601593,-7.845318794,-0.379260182,9.983056068,34.9171257,-12.73551559,-0.106529735
2.433236,27.68643761,3.146233559,176.4262695,6.276785851,0.520881891,16.46929169,30.73638153,-9.563799858,0.05854138
2.441569,27.92915154,3.067982674,176.3830261,-6.710043907,-1.804054976,9.786888123,27.26638412,-11.03974342,-0.408419251
2.449902,28.17633629,2.9111588,176.2936707,7.096772671,-0.193637282,13.60045815,28.37533951,-21.89499474,-0.818939269
2.458235,28.44833183,2.822123528,176.2480621,-9.95300293,0.826138139,10.35972214,30.78863144,-12.31272316,0.05231712
2.466568,28.69116592,2.633919716,176.1435242,7.994877815,-1.488107204,12.60566139,27.88992691,-26.07824135,-0.425068706
2.474901,28.92444038,2.585704565,176.0862579,-8.756920815,-1.321679115,8.103574753,26.19424629,-8.692222595,-3.426008701
2.483234,29.15662003,2.301892996,175.9463806,8.7093153,0.909369349,18.48984718,26.72984886,-38.16676712,1.651749849
2.491567,29.37806892,2.280437469,175.8920288,-11.55183029,-1.372394323,9.092811584,24.73574448,-5.746069908,-4.62380743
2.4999,29.59708405,2.015633583,175.7458649,8.540358543,-0.196265265,15.68466473,25.09278297,-36.53817749,0.164353997
2.508233,29.78277779,1.985301852,175.6975098,-10.59773922,-1.441310525,12.01190281,20.40295982,-6.350898266,-3.429004192
2.516566,29.90685844,1.70727241,175.5606689,8.872728348,-1.912364125,15.17495155,13.57017136,-37.35662079,2.146386385
2.524899,30.07267189,1.756337881,175.5406342,-11.82222652,-0.261475325,2.025720119,17.90949249,3.582702398,-5.214086056
2.533232,30.23272324,1.482625246,175.4202423,8.241921425,-0.723938882,19.44277573,17.76468849,-35.90626526,3.791897774
2.541565,30.33969116,1.527368188,175.3933563,-9.401751518,-0.646697581,14.13986206,10.86992741,2.69153142,-5.680188179
2.549898,30.41692352,1.341506839,175.3047485,4.811103344,-1.343441606,12.58396912,7.685183048,-24.86766815,1.888013244
2.558231,30.52852821,1.390900135,175.3033905,-8.721458435,0.037198372,5.654159546,11.36284828,4.702914715,-3.331618309
2.566564,30.59819221,1.289069295,175.2480774,2.533991098,-1.772080183,17.05776978,6.665196896,-14.14608002,0.279182434
2.574897,30.63636017,1.345128775,175.2411346,-5.579749584,0.739397883,12.53276157,2.577214718,5.036539555,-4.324374199
2.58323,30.65880966,1.366422892,175.2705994,1.478339672,-3.311271191,5.820832729,0.762779057,3.749142647,1.517553687
2.591563,30.68059921,1.364002466,175.2301178,-1.416076779,0.185274825,14.2634449,0.724024832,-3.058339834,-4.207573414
2.599896,30.70353889,1.47333765,175.3247528,-3.227989197,0.844728589,10.14145184,0.62041533,16.82521248,2.844294786
2.608229,30.68800354,1.438215613,175.276947,3.375530481,-2.178785563,15.42438126,-3.713115931,-6.886514664,-2.955703259
2.616562,30.69089508,1.596883774,175.3823395,-6.404447079,-1.324543476,11.39787865,-1.837335467,22.57487297,0.931782305
2.624895,30.67599106,1.507920623,175.3380127,4.984229565,2.047197104,16.33422661,-3.619803905,-12.23182297,0.699819386
2.633228,30.65346527,1.667902946,175.4319153,-8.987561226,-1.565584898,6.984042645,-4.865784168,22.00682449,-0.323840886
2.641561,30.64334106,1.645957828,175.4019775,7.612300396,-0.703502715,12.07225227,-3.07488656,-4.435898781,-1.919249296
2.649894,30.61722183,1.763473272,175.4700165,-9.775915146,-0.905311465,10.41723061,-5.228096962,16.04098129,-0.383112192
2.658227,30.53207016,1.718774557,175.447464,10.00255489,-0.808789849,18.18445206,-12.08587456,-6.334709167,0.226340219
2.66656,30.47716904,1.868776679,175.5062408,-12.64070415,0.338888586,5.732800961,-8.659124374,18.83337021,-3.285436153
2.674893,30.44036484,1.841195703,175.5167694,10.61683273,-1.190051436,13.41684914,-6.391981602,-2.555429935,2.594043255
2.683226,30.37762451,1.917944193,175.5132904,-12.07955837,0.581861258,15.35394669,-9.365513802,7.480677605,-5.242005825
2.691559,30.31685638,1.918686986,175.5336609,8.134675026,0.518557489,11.30829239,-9.293409348,0.968512714,1.894569874
2.699892,30.28362465,1.953846931,175.507019,-9.565226555,-0.537343979,4.869750023,-5.730212688,1.779101014,-5.110143661
2.708225,30.28162956,1.968533278,175.5264893,7.907753468,0.134840518,12.88028908,-2.226389408,2.355344296,0.957293689
2.716558,30.24383163,1.946800351,175.4444885,-7.820012569,-0.933052242,11.60479927,-6.049749374,-7.460478306,-7.399569035
2.724891,30.21568871,1.972683907,175.4984131,5.683085918,-1.135662913,10.37312412,-5.493561745,5.596364498,3.853572369
2.733224,30.18780136,1.927536011,175.3730621,-5.737765789,-0.004961874,10.79168987,-4.68435812,-12.49606037,-10.48797989
2.741557,30.17310524,1.866048098,175.3860168,2.669382095,-0.006709224,12.630476,-3.69582653,-5.939659119,4.88198328
2.74989,30.1492672,1.882942557,175.2867737,-4.612477779,-1.26382339,11.33577251,-4.322864532,-4.478982925,-11.53083992
2.758223,30.12234688,1.747276664,175.2552338,2.777586699,0.151245743,12.07295132,-4.977051258,-16.31980515,4.734548569
2.766556,30.09401894,1.800672293,175.1834412,-6.432453156,-0.257338405,17.90294075,-4.982379436,0.969691038,-10.88571835
2.774889,29.99050331,1.615237951,175.1504822,5.940499783,-2.014888763,9.80784893,-14.15292358,-21.58643723,7.549659252
2.783222,29.95905685,1.669008136,175.074173,-7.742122173,0.179401889,4.621839523,-5.361111641,0.763598859,-11.37277317
2.791555,29.90897179,1.533740163,175.0902557,3.000641823,0.458640128,19.35409927,-7.903042793,-13.44852448,9.606580734
2.799888,29.80924034,1.51505065,174.9678345,-2.660352707,-2.779327154,12.64356327,-13.42854977,-9.509902954,-11.84046555
2.808221,29.71717262,1.43112576,175.0082703,0.030651681,0.152500778,10.17432594,-12.99187756,-6.677864075,9.044068336
2.816554,29.60828972,1.435492635,174.9129639,-4.618620872,0.197767541,17.15174484,-14.63298225,-5.455782413,-10.41457081
2.824887,29.43005562,1.326220036,174.945282,4.337646008,-2.176434755,10.72823143,-23.28860664,-9.846554756,9.670161247
2.83322,29.30888557,1.328474402,174.835083,-4.185164452,0.039567463,3.491627693,-16.08564186,-6.50048542,-11.87292004
2.841553,29.18819809,1.273416162,174.918045,-3.022681952,1.132059813,17.95260048,-16.50297546,-1.249334812,11.7449379
2.849886,29.02322197,1.324499846,174.8381958,-1.214944839,-2.18106842,14.62849617,-21.43325996,0.443088114,-11.57287598
2.858219,28.86012459,1.324549675,174.9258423,-1.041812778,-0.757830143,7.655621529,-21.59165955,4.741645813,9.036054611
2.866552,28.68156624,1.336330771,174.842453,-0.785679519,0.123610221,18.04577637,-23.04670143,-3.828741074,-9.672299385
2.874885,28.4571209,1.379294753,174.9413605,-4.888922215,-0.771220028,13.09727764,-28.9786377,9.848566055,7.791868687
2.883218,28.2748642,1.500649452,174.9448395,-0.035841979,-0.375805765,7.168810368,-23.73321724,12.75906086,-6.773023129
2.891551,28.06089592,1.522166252,175.0411682,-2.870251656,-1.059838891,10.69400597,-27.7322731,7.373075962,8.807192802
2.899884,27.818367,1.566758275,175.0111237,3.765667439,-2.834051371,13.16896152,-30.85806465,2.787254095,-5.912385464
2.908217,27.57221413,1.655044794,175.1214142,-6.176043987,1.436897159,9.915726662,-31.64662743,15.17182732,6.625372887
2.91655,27.33981895,1.747692466,175.1593628,0.12066564,-0.746532798,15.57162762,-29.87600517,11.7121315,-1.308324933
2.924883,27.04366684,1.84501338,175.2506104,-4.359367371,-0.123622015,14.5726223,-37.60653687,15.02578068,4.238329411
2.933216,26.76579475,1.969392419,175.3118439,2.144111633,-1.377159595,3.981756926,-35.44149017,16.38115692,-0.424530864
2.941549,26.49495506,2.020436525,175.3761444,-3.959984779,-1.035714746,9.328958511,-34.48184586,8.56678009,3.987923384
2.949882,26.21016502,2.079444647,175.4315033,4.137646675,-1.970170021,14.59628105,-36.26734161,9.039646149,2.583032131
2.958215,25.91456985,2.180237293,175.4969177,-5.976985455,0.06935183,9.360525131,-37.46181488,13.94851971,1.572575331
2.966548,25.6368084,2.220272303,175.5815277,2.804229259,-1.64166975,10.63665104,-35.57591248,8.486276627,6.826957703
2.974881,25.32880592,2.32283926,175.613205,-6.940688133,1.608362556,17.79270172,-38.80095673,12.37821007,-2.026345015
2.983214,24.99601936,2.418769598,175.7479095,1.581920743,-1.041182399,8.445796013,-42.45539856,17.03428268,9.499838829
2.991547,24.69706726,2.543325901,175.7809296,-5.601538658,-0.494055331,9.530039787,-37.72608566,14.85595894,-2.847256899
2.99988,24.3756485,2.595781565,175.9094849,2.457096338,0.399543643,16.33013916,-41.11611557,11.87374306,11.18382168
3.008213,24.05140686,2.734960079,175.9212341,-4.193931103,0.091213845,9.416469574,-40.64804077,15.43768787,-5.725867271
3.016546,23.75134087,2.8226583,176.0765991,0.385323584,-1.135289311,9.413690567,-38.76467514,16.9146328,12.53843403
3.024879,23.45282364,2.920473337,176.0455017,-2.32366848,1.083264232,12.78465176,-37.30151749,8.890955925,-8.273228645
3.033212,23.155159,3.038100719,176.2183838,-1.645186305,-0.740220964,8.842923164,-38.65010834,20.90631485,13.22041416
3.041545,22.88984299,3.166100502,176.1787109,-1.555546641,0.020136414,8.372572899,-33.24234772,11.90554905,-10.5374527
3.049878,22.65172577,3.254727602,176.322403,-2.905015707,0.687460184,13.19819927,-31.39127922,16.21755791,11.53519249
3.058211,22.40764618,3.396706343,176.3057404,1.231411338,-0.591623247,14.09759045,-30.83099365,14.59770966,-8.529447556
3.066544,22.1903038,3.53052783,176.4465942,-5.592917442,0.651938021,10.49550247,-28.95436478,21.00788498,9.296197891
3.074877,21.9969635,3.673838854,176.443634,3.766777754,-0.851205409,14.75375462,-24.83271027,15.42599297,-6.954449654
3.08321,21.801548,3.858278275,176.5844116,-5.997062206,2.345562696,14.74343872,-26.41181564,26.56987,7.163349628
3.091543,21.61410332,4.105661869,176.6558228,1.13315475,-1.434366584,5.433165073,-24.73654556,30.37116051,-3.198658943
3.099876,21.49510956,4.275739193,176.7453003,-4.010850906,-0.187480062,9.534968376,-16.91485786,22.66316986,2.240798473
3.108209,21.39487457,4.528261185,176.8525238,-0.149767607,0.550413132,13.76686192,-14.66301441,32.52564621,0.703431726
3.116542,21.32233429,4.749636173,176.9474487,-2.819035769,0.924040377,9.647983551,-11.47649288,28.62296867,0.676638961
3.124875,21.27552414,4.996607304,177.042984,0.585019469,0.081924953,16.84620667,-8.237595558,31.39361191,-0.281603128
3.133208,21.20513535,5.294524193,177.1709595,-3.319644928,1.602701902,10.29890156,-11.67334557,38.60904312,1.083496451
3.141541,21.18719864,5.56507349,177.2835236,-1.069708705,-1.019330621,4.129608631,-5.073801517,34.76881409,0.641214669
3.149874,21.21397781,5.833609581,177.3899384,-2.552288055,-0.260278165,11.9661274,0.095451556,34.38588333,-0.027023049
3.158207,21.28562355,6.142973423,177.516861,0.031295352,0.842808902,10.8793993,5.363000393,39.72780228,0.506099582
3.16654,21.36163902,6.404711246,177.6233215,-3.50835371,0.776857853,15.18385887,5.876410961,33.62218857,0.184947759
3.174873,21.42276764,6.765607834,177.7709198,0.783563554,-0.30673036,11.35766315,3.658629656,46.38241196,0.429948568
3.183206,21.49525452,7.056941986,177.8474884,-3.587138176,0.888826191,8.516242027,5.743498802,35.62051773,-4.522864342
3.191539,21.59464645,7.35035181,177.9806976,0.598993838,-2.817579985,10.06464958,8.275061607,38.22077942,1.666297674
3.199872,21.71977043,7.606465816,178.0489349,-1.815245628,1.144620061,11.62657738,12.10146999,31.30578613,-4.019415379
3.208205,21.829319,7.872223377,178.1609039,0.13831152,0.034086313,16.57686043,9.684175491,34.20557785,0.376542449
3.216538,21.9158802,8.131264687,178.2242737,-1.745964885,-1.149961472,7.807478428,7.481169701,31.40106773,-4.811357021
3.224871,21.98257637,8.382448196,178.3202972,-0.266517818,-0.618837833,11.29290485,4.702175617,31.87787628,-0.847294033
3.233204,22.06976891,8.53967762,178.3579407,-1.438416839,-0.647297263,6.888442039,7.949726582,18.91351891,-3.153856277
3.241537,22.17402077,8.76110363,178.4315491,1.116760731,-0.909291983,15.75444603,9.528233528,27.56679153,-2.073448181
3.24987,22.20940971,8.866270065,178.4273987,-2.292337418,0.49644804,14.37218189,2.473349333,11.2464056,-5.44379425
3.258203,22.22611809,9.065068245,178.506424,-0.272990376,-2.047431231,7.608056068,-1.121519923,25.29741478,-0.506675422
3.266536,22.20867157,9.041836739,178.4456635,0.235590562,-1.295782566,11.03765869,-2.796024323,-5.555958271,-5.83241272
3.274869,22.22787666,9.181974411,178.4942169,-1.321634531,0.169429511,12.0604496,-0.270742565,17.42246246,-1.191805005
3.283202,22.12016487,9.135331154,178.4200592,1.770305872,-1.710262179,16.80403709,-13.35926151,-8.751899719,-6.243215561
3.291535,22.04047394,9.213679314,178.4207306,-3.224234819,-0.822694004,4.675537109,-11.22643852,8.427890778,-3.621392012
3.299868,21.9221077,9.120400429,178.3458557,1.157013178,-0.482704788,15.62375546,-14.6231451,-13.95236015,-4.255447865
3.308201,21.83119965,9.144963264,178.3354492,-3.49723053,-1.05198884,7.141637325,-12.36478615,1.965623617,-2.406944275
3.316534,21.66370773,9.076537132,178.2560883,1.441448331,-0.815236568,18.21694565,-20.44326782,-11.36312008,-5.911921501
3.324867,21.52282524,9.024599075,178.2126617,-3.434478998,0.261735082,6.669686794,-17.7404232,-7.994152546,-2.657733679
3.3332,21.36044312,8.935726166,178.1524506,1.009711623,-0.635480285,18.33257484,-20.20895195,-12.78886127,-2.963517427
3.341533,21.18744087,8.843493462,178.0868835,-2.650818825,0.420225829,7.913847923,-21.20068169,-13.43761921,-3.39957428
3.349866,20.98884964,8.73378849,178.0250244,-0.213685066,-0.573050797,10.53902054,-24.5494194,-15.17375755,-2.327105999
3.358199,20.82927322,8.657069206,177.9713898,-0.18945691,-1.663705349,9.941662788,-19.83590317,-11.17116642,-2.830374002
3.366532,20.64566422,8.517971039,177.9073639,-1.412304044,1.329468846,14.77332115,-22.73797989,-18.55237961,-1.416801333
3.374865,20.45435333,8.448884964,177.8649139,-1.651025295,-0.725995243,6.598540783,-23.87071228,-9.828827858,-1.98195374
3.383198,20.31687737,8.336914063,177.8008423,-2.315178871,0.399663091,10.49136639,-17.22581291,-15.49692917,-2.670925617
3.391531,20.16008759,8.256890297,177.7517395,-1.40187645,1.045246243,18.22317123,-19.6303463,-11.32062531,-2.326593161
3.399864,19.98309517,8.18223381,177.7115173,-2.971400976,-0.766234815,4.912450314,-22.3998909,-10.30725098,-1.634009957
3.408197,19.82902527,8.086923599,177.6472473,0.31022948,0.264964908,12.80653572,-19.06865501,-13.64660645,-3.462944031
3.41653,19.68819809,8.024808884,177.6074066,-2.790485144,0.594008029,9.686843872,-18.08024979,-8.868189812,-2.156130552
3.424863,19.53261948,7.947654247,177.5649872,-0.56224215,-0.622665763,7.748060703,-19.6400032,-10.70119572,-1.818893075
3.433196,19.40838242,7.851650715,177.4982758,-0.556070983,0.041766964,14.32113647,-15.65811539,-13.75723267,-3.856916189
3.441529,19.30039406,7.82789135,177.463501,-2.473362446,1.277629375,10.65842152,-14.0673666,-4.346838474,-3.136156082
3.449862,19.18660164,7.718698025,177.4092407,-1.899751663,0.265093744,9.827972412,-14.62476158,-14.74906826,-1.991507769
3.458195,19.08808136,7.671749592,177.3522949,0.522639811,-0.001993493,12.03725052,-12.58962822,-7.828582764,-4.732947826
3.466528,19.02414703,7.634595871,177.3119202,-3.38769865,0.936629355,7.76958704,-8.879688263,-6.034714222,-3.30413413
3.474861,18.96514511,7.553293705,177.2648163,-1.23004365,0.339357525,11.41277599,-8.018154144,-11.33373833,-2.311608553
3.483194,18.92137337,7.505883694,177.2148743,-1.149303794,0.834138572,14.58585167,-6.317316532,-7.563218117,-3.993311167
3.491527,18.89457512,7.490770817,177.1872559,-3.06373024,0.821632922,9.093513489,-4.475421906,-3.061080694,-2.707373381
3.49986,18.86387634,7.390947819,177.140564,-1.086957812,-0.413139462,9.154075623,-4.807817936,-13.38489914,-1.601914406
3.508193,18.84417152,7.362430096,177.1034698,-0.235224172,0.197402209,12.58349514,-3.487224102,-4.945955276,-3.258412123
3.516526,18.81401253,7.336977959,177.0618896,-1.996149063,0.020910641,9.137298584,-4.831203938,-4.739402294,-3.918773174
3.524859,18.7969532,7.24846983,177.0187683,-0.590574563,-0.569236219,10.25324631,-3.089819908,-11.99092102,-1.628809333
3.533192,18.78815651,7.225453854,176.9794159,-1.497781038,1.166996598,15.69353962,-2.310609341,-4.376525402,-3.767265081
3.541525,18.74716187,7.199488163,176.9542999,-2.232936621,0.114878476,7.00346899,-6.2468009,-4.188926697,-2.022858858
3.549858,18.76579094,7.155083656,176.9279938,-2.194301605,-0.725165904,6.935341358,0.78104198,-6.305865288,-1.473125696
3.558191,18.78018951,7.129560471,176.9044647,-0.137763649,1.558230281,15.81992817,0.37108624,-4.075046062,-1.856007695
3.566524,18.74999619,7.10218668,176.8837128,-2.051611423,0.025531173,10.13642883,-5.166135788,-4.158497334,-1.50475955
3.574857,18.7652626,7.059482574,176.8571777,-0.710163176,0.030717162,7.133424759,0.511785209,-6.142370224,-1.538826466
3.58319,18.80384636,7.022922516,176.8283386,-2.653483152,0.879231095,11.59427643,3.204968214,-5.512541771,-2.059154034
3.591523,18.79592514,6.961936474,176.7980804,0.420505375,0.161349297,11.9171772,-2.22390461,-8.362689018,-1.252305508
3.599856,18.82069206,6.958030224,176.7799835,-2.453783512,-0.462380409,7.627848625,1.38515377,-1.391954422,-2.11115098
3.608189,18.8519001,6.924930096,176.7571259,-1.119037867,0.205269396,10.42510891,2.355754137,-4.910403252,-1.49466753
3.616522,18.86310768,6.884839058,176.7308807,-1.054471493,0.631003916,14.97277832,-0.124664493,-5.815942764,-1.622943521
3.624855,18.87132454,6.905437469,176.7247772,-2.485494375,0.544333816,11.26282883,-0.65160054,1.833479762,-1.685928941
3.633188,18.88837242,6.906875134,176.7079163,-3.544067621,-0.279610842,5.813098907,0.440808177,-0.739201128,-2.179002523
3.641521,18.9352169,6.884971619,176.7036285,1.159207582,0.396074563,13.83817101,3.955158234,-2.924223661,0.167811647
3.649854,18.92411423,6.901731014,176.6683044,-2.368638039,0.714250326,13.16643524,-2.673127413,0.285252929,-4.853001595
3.658187,18.92592239,6.908319473,176.6637573,-0.131153762,-1.020388842,5.950022221,-1.453428626,0.303720802,-0.968243778
3.66652,18.96267891,6.90423727,176.6345673,-1.729732156,1.104076147,12.33297539,2.984686136,-1.845198512,-3.351084948
3.674853,18.95671844,6.877502441,176.5998077,-0.594337106,0.638260961,13.72646809,-1.953623414,-4.648548126,-3.079292297
3.683186,18.96973991,6.904670238,176.5834503,-2.544448614,0.248001769,9.082982063,-0.05168952,2.197995901,-3.121837139
3.691519,18.97920036,6.899650097,176.5805054,-1.180312395,-0.757779419,5.774819851,-0.560695589,-0.952542126,-0.337544382
3.699852,18.99185371,6.886931896,176.5376892,-0.699283183,0.464974195,13.23657703,0.286482424,-3.354952574,-4.548038006
3.708185,18.98631668,6.860010624,176.5314789,-0.659482181,1.045473218,13.70294762,-2.318626165,-3.561429024,0.147781342
3.716518,18.95053673,6.840848923,176.4936371,-1.599369407,-0.766857028,7.176770687,-5.601167679,-3.893440485,-3.736707211
3.724851,18.97273254,6.824389935,176.4823761,-1.856789351,0.201542288,9.443025589,1.076860905,-2.5685184,-0.830029309
3.733184,18.9550457,6.77572298,176.4497681,-0.953806341,0.96873337,14.34902191,-3.507870197,-7.038178444,-1.997116566
3.741517,18.92145729,6.777538776,176.4346924,-1.666298747,-0.168313265,10.8430481,-5.567100525,-0.640919447,-1.97301352
3.74985,18.90986061,6.808208942,176.4304504,-1.945264459,0.099057764,6.834549427,-3.180519819,3.064884186,-1.892584801
3.758183,18.89957809,6.767315388,176.397995,-0.602173686,0.287196428,12.70377636,-2.525486469,-6.159608364,-2.274953842
3.766516,18.8917675,6.778434753,176.3721313,-2.163318872,1.979456663,13.9671011,-2.420315027,0.011692899,-3.56803751
3.774849,18.85971642,6.779716969,176.3621521,-2.344118118,-0.113569312,9.279025078,-5.460494041,-0.500835121,-1.383014917
3.783182,18.8629818,6.8046875,176.3643494,0.623019338,-0.585168898,7.961865902,-1.487982154,2.667812109,-0.94088769
3.791515,18.85730934,6.805470943,176.334259,-2.376867771,0.553882718,10.30530739,-2.011870146,-1.332811236,-3.629153252
3.799848,18.85380173,6.784362793,176.3362122,0.400640965,0.288309425,14.76013851,-2.297417641,-2.574768543,0.816927671
3.808181,18.81354141,6.813381195,176.3130798,-3.163965464,1.98967576,10.77539063,-6.263807774,2.143821716,-3.936318636
3.816514,18.80679893,6.829763889,176.3226013,-0.884570003,-1.280232072,6.760516644,-2.793437481,1.974281311,0.218579113
3.824847,18.82540321,6.834943771,176.3035278,-1.780597448,0.312931538,9.287500381,0.74098134,-0.406113714,-2.562448025
3.83318,18.81246567,6.841425419,176.3027954,-1.203725338,0.878917694,11.40564632,-3.390761375,0.456023067,-0.553754151
3.841513,18.77670479,6.858210564,176.300766,-0.018352836,0.069790736,13.49087906,-6.029718399,1.566989064,-1.086965442
3.849846,18.71489906,6.858399868,176.2899475,-1.718442321,0.029452126,7.771092892,-9.111446381,-0.645760536,-1.448946238
3.858179,18.73360825,6.907201767,176.3000641,-2.785860062,0.701514244,8.236848831,0.330436438,5.672976971,-0.947598696
3.866512,18.73356056,6.904474258,176.3095398,-1.954003572,0.712542832,12.26157665,-1.99050796,-0.199150681,0.951453567
3.874845,18.69299126,6.97155714,176.3150177,-0.487703115,0.939688504,14.7548399,-6.72130394,7.573119164,-2.171139717
3.883178,18.63147545,6.99985981,176.3327484,-1.22348845,0.231670335,8.566954613,-9.490228653,3.6401546,0.692698717
3.891511,18.60806656,7.029447079,176.3291931,-0.831363022,-0.695897341,7.24242115,-4.53169632,2.969573736,-1.745277286
3.899844,18.62318039,7.072478294,176.3401031,-2.767293692,1.605847359,9.622736931,-0.195872039,5.05534029,-0.638690948
3.908177,18.59840202,7.069140911,176.3441162,0.614559352,0.031710945,14.78262138,-4.80820179,-0.485825211,0.368780971
3.91651,18.55433464,7.141471863,176.3422241,-1.894920588,1.6489712,10.45748138,-7.108744621,7.902901173,-3.198987722
3.924843,18.51741219,7.15656662,176.3560944,-0.619007349,-0.601860464,6.805016041,-6.417365551,1.9842453,0.784500003
3.933176,18.52469254,7.183626652,176.3505859,-2.304278851,0.473911524,8.911982536,-0.892758608,2.616814613,-1.874731541
3.941509,18.50901985,7.175031185,176.342926,-0.527431309,0.763807654,11.83670521,-3.543780565,-1.526249766,-0.746091425
3.949842,18.47797394,7.188928604,176.3431854,-0.472344935,0.812458813,11.68304729,-5.579190254,1.339995861,-0.71942699
3.958175,18.41387177,7.187873363,176.3385162,-1.20582521,-0.397115499,8.68401432,-9.405445099,-0.553088248,-0.698013604
3.966508,18.43592644,7.221176624,176.3413544,-2.527585506,0.846468985,8.588803291,0.756273091,3.644636393,-1.163116813
3.974841,18.42832375,7.181624889,176.3394318,-1.013054848,0.68431145,14.45221519,-2.666980028,-4.833047867,1.073018789
3.983174,18.40940857,7.216228008,176.3343506,-0.981108308,1.78255713,12.77269936,-4.041670322,3.49579215,-2.106335402
3.991507,18.36566925,7.184296131,176.3383179,-0.420890868,-0.938461304,7.266469955,-7.095322132,-3.744468212,1.444501877
3.99984,18.36796379,7.185781479,176.3271637,-1.393197775,0.050067943,9.035396576,-1.405760407,-0.501680315,-1.536982059
4.008173,18.36613274,7.133854866,176.3061218,-0.969400227,1.571648479,11.41074371,-1.689079404,-6.959771633,-0.628675759
4.016506,18.36896896,7.112954617,176.3041992,-1.566320181,1.358397007,11.16654873,-1.477915764,-2.70476079,0.352387846
4.024839,18.32952499,7.100824356,176.2872467,-1.641251206,-0.470658451,9.665090561,-6.270903111,-2.273365974,-1.668460131
4.033172,18.35150337,7.099214554,176.2905884,-2.018768311,0.946299672,5.779389858,0.739828765,-0.310828775,0.218015566
4.041505,18.36034012,7.056065083,176.2689972,0.451141089,0.27468887,16.02684021,-0.409674078,-5.980872631,-1.020266294
4.049838,18.35541916,7.012269497,176.2468109,-2.664852858,2.113952398,11.09840202,-2.112867117,-6.072494984,-1.073287725
4.058171,18.35858536,7.018062115,176.2451477,-0.518939018,0.0110512,8.800215721,-1.385294557,0.341322452,-0.618583798
4.066504,18.37724304,6.95591116,176.2229309,-1.378717542,-0.220072433,7.029433727,0.714035213,-8.164460182,-0.382010669
4.074837,18.42057228,6.977414131,176.2096405,-1.11323905,1.476101995,13.27949619,3.604832649,1.693651676,-2.530430317
4.08317,18.42629623,6.875374317,176.193634,-0.793870389,1.085353613,12.24615669,-0.931026518,-12.47170162,1.84139514
4.091503,18.45750427,6.918649673,176.1888428,-3.359166622,0.581089735,11.01376057,2.02187252,4.489548206,-2.39541769
4.099836,18.48209572,6.861662865,176.1901703,-0.910641074,0.08209087,6.030137062,1.084980607,-6.6874156,2.095513344
4.108169,18.53347015,6.865257263,176.1786041,-0.360481828,-0.030322907,12.37198257,4.536652565,-0.28439486,-1.656575084
4.116502,18.51588631,6.80539608,176.163208,-0.780817091,0.660476506,13.8616066,-3.739063263,-7.647129536,0.321983725
4.124835,18.52750397,6.81817627,176.1578674,-1.712977171,0.72976166,9.17642498,-0.322790623,0.997354388,-1.303277969
4.133168,18.5212326,6.771699905,176.1438446,-2.279449224,-0.332532346,8.585997581,-2.401590586,-6.070727348,-0.032709375
4.141501,18.56047058,6.799294949,176.1510468,-2.158738852,0.674834669,9.913613319,2.811995029,3.155405045,-0.451655805
4.149834,18.52494812,6.756295204,176.1497192,0.009195503,0.733423233,13.09926987,-6.093550682,-5.194337368,1.269505858
4.158167,18.50110435,6.78042984,176.1513672,-1.640355587,0.576973319,8.884721756,-4.678593636,2.554033756,-0.94611299
4.1665,18.48333931,6.760452271,176.1439667,-0.524296403,-0.316480696,8.901258469,-3.876330376,-2.807320356,-0.296664089
4.174833,18.48733711,6.720973015,176.1461029,-2.378372669,1.272871971,10.73009205,-1.34869206,-4.666171074,1.528952122
4.183166,18.43520164,6.734813213,176.1374207,-0.93178308,0.256694376,15.02868652,-7.981805325,0.995177031,-1.726091981
4.191499,18.38785934,6.731981277,176.1518402,-1.522017002,0.835511386,5.555074215,-7.681557178,-0.035014667,1.522343874
4.199832,18.36619759,6.758214474,176.1470032,-0.72060883,-0.5916242,11.25020027,-4.379701138,2.552855492,-1.760517359
4.208165,18.3533535,6.694519043,176.1465454,-2.172101736,1.661066413,11.67285156,-3.330874681,-7.526359081,2.141746998
4.216498,18.31283379,6.709053516,176.1634979,0.236842781,1.149324656,16.26331711,-6.949193954,2.03954649,1.148171067
4.224831,18.21832657,6.635885715,176.1379242,-1.394573808,-0.376646161,5.917524338,-12.7830677,-9.546145439,-0.356703877
4.233164,18.19782448,6.684845924,176.1603546,-1.158784747,-0.085964449,7.039202213,-4.621705532,6.163746834,0.483404726
4.241497,18.14657974,6.543566704,176.1286011,-0.247200131,1.107176781,12.76514053,-7.509224415,-17.54244995,1.47608459
4.24983,18.11992836,6.585935116,176.1483002,-4.387339115,2.607486725,13.74840069,-5.317131519,5.309152126,0.428795159
4.258163,18.0161705,6.485331059,176.1286011,0.700504959,-0.744035184,9.141095161,-13.98299503,-12.45917797,1.297348619
4.266496,17.97587013,6.522796154,176.1443024,-3.277145624,0.629734695,3.52054286,-6.898706913,4.600867748,0.170296222
4.274829,17.92725945,6.46360445,176.1242676,1.05770278,0.118630216,13.68696022,-7.362122059,-7.747846603,-0.296664119
4.283162,17.8878727,6.405545712,176.1198578,-2.676193237,1.754921317,12.87870407,-6.514647961,-7.044042587,1.421321034
4.291495,17.81238556,6.407714367,176.1035919,-0.724066734,0.656941056,13.8170929,-10.64087105,-0.601934612,-2.142502785
4.299828,17.74367332,6.36502409,176.1098328,-1.731841087,0.415389329,4.839717865,-10.17748451,-4.903512955,2.052917004
4.308161,17.72241592,6.38554287,176.1016541,-1.270135522,-0.082099237,9.969854355,-4.246968746,1.793982744,-1.892866611
4.316494,17.6978054,6.312358379,176.0914917,-1.991678834,2.847343922,12.69193745,-4.665633678,-8.986089706,1.295094252
4.324827,17.65408516,6.31773901,176.0904541,-0.627979517,0.34219262,14.28061581,-7.03635788,0.321778804,-0.53088063
4.33316,17.55857658,6.260216713,176.0646973,-1.879661679,0.200111762,6.02195406,-12.97281742,-7.760473728,-1.062478662
4.341493,17.50322723,6.28616333,176.0648804,-0.010484557,-0.783693552,8.241839409,-8.446653366,2.719322443,-1.133635044
4.349826,17.43650627,6.217590809,176.0489502,-2.624718666,0.951286256,11.487216,-9.64806366,-8.671597481,0.437273502
4.358159,17.38947678,6.267244816,176.0388184,-2.024083376,0.835365891,12.11419678,-7.312506676,5.068891525,-3.150525808
4.366492,17.27285957,6.24076128,176.043335,-1.863825798,1.808364511,11.98289299,-15.90326595,-3.125782251,1.239101648
4.374825,17.13508415,6.282756329,176.0193787,-0.414343089,-0.458005548,8.855578423,-18.02417946,3.712720871,-4.434543133
4.383158,17.01221466,6.267074585,176.0309753,-1.217274427,-0.151972711,7.022536755,-16.74623108,-1.643742681,1.654410839
4.391491,16.89153671,6.267396927,175.9891052,-0.643559039,-0.229199827,10.97649384,-15.73587799,-1.674326181,-5.006072998
4.399824,16.77767944,6.302669525,175.9939728,-3.898022652,1.989653468,10.01975441,-15.57627583,3.966582537,-0.889326394
4.408157,16.59436417,6.316199303,175.9775085,0.256570071,-0.033188049,14.94507885,-23.58646965,0.735500336,-2.565343618
4.41649,16.38899803,6.381404877,175.9715729,-3.347732544,1.097211123,10.45486355,-26.41659355,7.048568249,-3.119073153
4.424823,16.1744709,6.396861553,175.9532928,1.386146665,-1.299576521,9.288131714,-27.30317879,0.914518476,-2.829939604
4.433156,15.9904108,6.421399117,175.9397583,-2.981496096,0.997299969,8.846835136,-23.7570343,2.128761768,-2.586833954
4.441489,15.76482105,6.441421032,175.9219666,-0.530594885,0.531621814,12.25247192,-28.63645554,1.476213336,-2.912494183
4.449822,15.50329876,6.483653545,175.915329,-1.677790761,0.881693184,12.53010559,-33.14262772,4.413760185,-2.348699808
4.458155,15.18797112,6.517138004,175.8848724,-0.750742614,-0.825751603,8.095067024,-39.23365402,2.659183741,-4.781594753
4.466488,14.92281818,6.548961639,175.8552399,-2.44754982,0.19384256,7.586279869,-33.26676941,2.517279387,-4.624346256
4.474821,14.58417225,6.549097061,175.8240356,-0.830005229,-0.176477641,11.80937195,-42.01773071,-1.188169241,-3.81688571
4.483154,14.18699837,6.601325512,175.758667,-2.087889671,-0.281637937,14.59893322,-48.61746216,3.882370949,-9.327239037
4.491487,13.71368122,6.688168049,175.7407074,-1.373205781,-0.403732896,10.63634682,-58.3575325,9.34260273,-4.801223278
4.49982,13.21699142,6.730942726,175.664032,-1.528347611,-2.314039946,7.046766281,-60.38158417,2.610034943,-10.30589581
4.508153,12.7183857,6.802965164,175.6296387,-2.082351208,-0.036503762,11.91064072,-61.15724945,7.248225689,-6.146080494
4.516486,12.10712337,6.847344875,175.5649261,-1.255502582,0.695947111,17.23129272,-74.28449249,3.290664434,-8.896482468
4.524819,11.42303848,6.98333168,175.5301056,-2.421532631,-0.501079202,8.757394791,-83.39780426,14.87408924,-7.603710651
4.533152,10.73335075,7.09828186,175.4924622,-0.304879755,-1.511097312,4.387378216,-84.06510925,12.42207432,-7.272977829
4.541485,10.03856182,7.143968582,175.441452,-0.611496925,0.294313788,9.821333885,-84.42842102,4.042502403,-7.175899506
4.549818,9.345256805,7.273892879,175.3997803,-3.275197506,2.315080643,15.96241188,-84.42577362,14.27981091,-7.73582983
4.558151,8.551002502,7.38650322,175.38237,-1.325227737,0.515534461,13.32658863,-96.85803223,12.77150631,-4.366725445
4.566484,7.73971796,7.526697159,175.3334961,0.09682364,-0.701234877,7.1040411,-98.45135498,15.57690525,-8.361147881
4.574817,6.952201366,7.617078304,175.2882843,-0.75779295,-0.382865638,7.400425911,-95.60249329,9.814417839,-6.932087898
4.58315,6.185164928,7.704341412,175.2385712,-2.719109297,1.599668384,12.62795162,-93.10730743,9.47287178,-7.291226387
4.591483,5.388320923,7.854698658,175.1809692,-2.150005341,2.581825018,14.66390324,-96.49993134,17.00493622,-8.847462654
4.599816,4.510150909,7.904209137,175.1352844,1.113728285,-0.052213751,10.90815163,-106.4897919,5.197577,-6.142533779
4.608149,3.645839691,7.981434822,175.048584,-0.464664727,0.558098137,7.740210533,-104.0968628,8.256355286,-11.15111256
4.616482,2.81933403,8.032024384,175.0015717,-2.205592871,0.221283346,5.042755127,-100.2524109,5.493085384,-6.140708923
4.624815,2.031602383,8.125306129,174.9229279,-1.646522641,0.400506377,10.88668633,-95.01881409,10.5333643,-10.02170277
4.633148,1.205384135,8.163245201,174.8557739,-0.686095536,1.828092575,13.88771915,-99.86326599,4.0735569,-8.324032784
4.641481,0.349556327,8.145066261,174.7772522,0.324761629,0.735011578,14.64147282,-103.1821899,-2.562907934,-9.516085625
4.649814,-0.527722418,8.201745033,174.6955566,-3.211745024,1.609801292,9.882752419,-105.7396469,6.564622402,-9.912679672
4.658147,-1.405167341,8.216581345,174.6344147,-0.089305326,0.469738185,8.099247932,-106.0666275,1.647843838,-7.443160534
4.66648,-2.243448257,8.217226982,174.5437927,-0.747504711,0.644016266,8.288788795,-100.8986664,0.167659491,-10.97559357
4.674813,-3.071255445,8.154712677,174.491745,-0.134146795,0.463119507,8.746704102,-100.2701874,-7.460980415,-6.738320827
4.683146,-3.878955841,8.137137413,174.4135437,-1.837232113,1.511129498,10.210042,-97.4533844,-1.795137644,-9.620787621
4.691479,-4.707283974,8.132295609,174.3474579,-1.93926537,1.511217117,13.06976414,-100.099678,-0.244490042,-8.089482307
4.699812,-5.555764198,8.059689522,174.2883301,0.141228169,0.658679008,14.32455349,-102.6768265,-8.302419662,-7.995968342
4.708145,-6.426691055,8.009393692,174.2193604,-1.801148415,0.919005573,9.83712101,-105.1817017,-5.400455952,-8.993476868
4.716478,-7.320174217,7.916835785,174.1780396,-0.201806977,0.259435952,10.36986637,-108.3899994,-10.69254303,-6.425961018
4.724811,-8.187642097,7.880104542,174.0906982,-2.141180277,1.740291715,9.638256073,-104.4832077,-3.220099211,-11.09765434
4.733144,-9.045265198,7.772197723,174.0761261,-0.356430054,0.485876143,7.96014452,-104.5366364,-12.79428196,-3.874114037
4.741477,-9.902697563,7.669205666,174.0009155,-0.237535328,0.495264947,10.48576641,-103.5102081,-10.97142696,-11.07063103
4.74981,-10.75277996,7.548281193,173.9778595,-1.2500844,1.709591746,9.478556633,-103.5024033,-14.03645325,-5.519613266
4.758143,-11.59779263,7.465260983,173.9068298,-2.202944994,0.237234682,13.25935936,-102.1184235,-8.388792038,-10.43876934
4.766476,-12.42774582,7.377772331,173.8770447,-1.281268716,2.442782879,13.72208977,-100.9923859,-9.783520699,-5.873191357
4.774809,-13.27387333,7.270586967,173.8334961,-0.8493343,0.796238184,9.503554344,-102.6993103,-11.63993549,-8.130752563
4.783142,-14.07786083,7.156207561,173.7888794,0.552316427,1.11907804,10.83347893,-97.66472626,-12.33318043,-8.626384735
4.791475,-14.87465763,7.008687496,173.7893677,-1.643089414,1.382185698,9.082593918,-97.4575119,-17.40707207,-4.58742094
4.799808,-15.61376476,6.92272377,173.7297668,-1.638633609,2.463530064,10.65688896,-89.6829834,-8.33859539,-9.782865524
4.808141,-16.34172821,6.805190086,173.7510223,-2.430520296,1.912326813,10.47975922,-89.49488068,-14.50862122,-1.662580609
4.816474,-17.04230309,6.709454536,173.6851654,-0.349199682,1.392584682,10.9392004,-84.99436951,-9.001515388,-11.03827095
4.824807,-17.71872711,6.601382732,173.7239075,-2.68705225,1.596870542,10.82883167,-83.54811096,-14.00920582,0.314634472
4.83314,-18.3805027,6.481359959,173.656189,1.184142947,1.435742259,11.00725651,-80.34333038,-11.44399357,-12.3602972
4.841473,-18.99808884,6.376589775,173.7020874,-2.752079725,1.440535903,9.729669571,-76.5671463,-13.91492939,0.938292742
4.849806,-19.5995903,6.248150826,173.6384888,1.072556138,1.566431761,9.930185318,-73.19874573,-12.2922821,-12.47212124
4.858139,-20.15134048,6.158082962,173.6853943,-3.406364679,1.523523808,11.98969936,-68.6593399,-12.31803894,1.365359664
4.866472,-20.68299866,6.037745476,173.6295013,0.024859803,2.507847786,10.64215183,-64.94150543,-11.46003246,-11.50754738
4.874805,-21.15577698,5.982160568,173.6767273,-4.034985065,2.276388645,10.94652557,-59.17045593,-8.495167732,2.663696527
4.883138,-21.62436867,5.895371914,173.6200409,0.694865584,0.617490768,9.969723701,-57.38097382,-7.480736732,-10.32051849
4.891471,-22.04417038,5.848981857,173.6583252,-3.701393843,2.161359072,11.46215057,-52.6902771,-7.121286869,1.95415318
4.899804,-22.4439888,5.783459187,173.587738,0.548893273,2.752609968,12.4045372,-48.97344971,-4.339521885,-10.99634361
4.908137,-22.79704094,5.726041794,173.6206512,-5.221460342,2.191868544,12.7410202,-44.6071701,-8.123492241,0.753943563
4.91647,-23.1228466,5.698225975,173.5512238,1.417654991,1.754703403,7.447446346,-40.12078857,-0.092134535,-9.155899048
4.924803,-23.40475082,5.649313927,173.5787354,-3.145011187,1.560395122,10.73323917,-36.00379181,-6.941875458,0.475797772
4.933136,-23.65496826,5.620387554,173.5125122,1.953813314,1.308686376,10.36901951,-31.0968132,-0.278555095,-8.855849266
4.941469,-23.87607384,5.572557926,173.5263062,-4.208106518,1.726071715,13.2464962,-28.54713821,-6.1670928,-1.028745294
4.949802,-24.06828117,5.556670666,173.4699249,1.753816247,2.153598547,9.62598896,-24.25971794,0.740239024,-7.146682739
4.958135,-24.23464775,5.514233112,173.4698029,-4.7339077,1.263529062,12.62728691,-21.81706238,-4.893396378,-2.319087982
4.966468,-24.35865211,5.501428604,173.4222412,1.87046349,2.647694111,7.643209934,-16.18389893,0.683759391,-6.029259682
4.974801,-24.47138214,5.481543541,173.4087524,-5.363944054,0.034577467,11.69458294,-15.2276392,-1.759903193,-2.673486233
4.983134,-24.55057907,5.492602348,173.3644104,2.735576868,2.078351498,8.952161789,-10.84432507,3.152612925,-4.489253521
4.991467,-24.62611389,5.494970798,173.3350525,-4.366986275,-0.501844943,11.66704273,-10.58439255,1.462764978,-3.29155755
4.9998,-24.65810776,5.52183342,173.2848663,1.5929811,2.712256432,11.34916687,-5.111064911,5.178289413,-4.325553417
5.008133,-24.69496918,5.537185192,173.2529144,-3.728738546,-0.809252262,11.42298412,-5.913840771,3.014219284,-2.921303511
5.016466,-24.6803627,5.594619751,173.1982727,-0.843122721,3.380163908,10.9586916,0.540191531,8.734442711,-3.271399498
5.024799,-24.69637299,5.642352104,173.1475677,-2.370677471,-0.666330576,13.30972004,-3.189587116,7.478268147,-3.330516577
5.033132,-24.67030525,5.721751213,173.0738678,-1.570535064,2.242918253,10.17695141,2.15552783,12.08004761,-4.237338066
5.041465,-24.66206551,5.806943893,173.0289612,-2.441840887,-0.357183456,12.22534561,-0.334470689,11.27237797,-0.82536751
5.049798,-24.62528038,5.925037861,172.9453278,-2.012650013,1.865051985,10.20424175,3.5923841,16.79201698,-3.387073278
5.058131,-24.61250114,6.037181854,172.9115448,-0.847049117,-0.531235456,14.54991245,0.087485433,13.65803719,1.717934251
5.066464,-24.58726692,6.165224075,172.8106384,-2.674863338,2.535262108,8.133546829,2.46569109,18.73150635,-4.773649693
5.074797,-24.58240891,6.316556454,172.7979431,-1.15509665,-0.65143013,14.66862011,-1.121545196,16.88763618,5.953505516
5.08313,-24.5841198,6.420573235,172.6968842,-2.062457561,0.730733395,6.984603405,-0.708182514,16.111166,-5.987841606
5.091463,-24.58739471,6.629530907,172.6820374,-1.211436629,-0.14000468,14.67229462,-2.064200878,23.28157043,8.601456642
5.099796,-24.60960007,6.705809593,172.5910645,0.636535287,0.249430329,8.057336807,-3.246834993,12.5821352,-6.268469334
5.108129,-24.59195518,6.961806774,172.5499573,-4.39012289,0.353582948,13.33203316,0.829018176,29.71600914,8.110509872
5.116462,-24.6177063,7.003446102,172.4976654,2.90511775,0.178707302,11.664464,-4.175478935,6.882891655,-3.802356482
5.124795,-24.62143517,7.288220882,172.4226074,-6.9454422,1.734778166,12.3608942,-1.205227971,34.53587723,5.888143063
5.133128,-24.67427254,7.311243057,172.3986816,4.919292927,-0.075633071,16.03247452,-7.824611187,3.445639849,-1.657138705
5.141461,-24.73316193,7.565707684,172.3102722,-7.736126423,1.439889908,8.806497574,-7.575621605,31.8836441,2.97951436
5.149794,-24.78231812,7.640027046,172.2866211,4.972411633,-1.699111819,10.74117565,-7.371930122,9.022781372,0.958881617
5.158127,-24.80395508,7.827295303,172.2261658,-7.735661507,1.573712707,7.359945774,-3.503875017,23.1611557,2.671143055
5.16646,-24.81673241,7.953882694,172.1794739,4.569407463,0.169498518,16.35484314,-2.612806082,15.86449909,1.115180016
5.174793,-24.86432457,8.004566193,172.1753082,-4.849708557,1.684665442,11.04900742,-7.530740261,5.473622322,1.879764795
5.183126,-24.91584969,8.195317268,172.1172485,2.240676403,0.778879941,15.43563557,-7.04957819,23.41384125,3.155841589
5.191459,-24.96854973,8.191025734,172.1266632,-2.127934456,-0.114631251,8.565848351,-8.373523712,-1.190626383,0.567726672
5.199792,-24.95977592,8.35627079,172.1003723,-1.24105835,0.446804106,8.73783493,-0.340771884,19.04051399,5.318886757
5.208125,-24.96103668,8.341409683,172.0959778,0.122537881,1.595386624,16.12742805,-1.969837308,-1.648532271,-1.452711344
5.216458,-24.9548912,8.416993141,172.1299896,-1.18410182,0.855091274,8.76915741,-1.706138492,6.26599741,7.266514778
5.224791,-24.94164085,8.479237556,172.0787048,-1.620569229,0.443629205,15.50252533,0.600769162,9.087329865,-2.595874786
5.233124,-24.89667702,8.460542679,172.150528,-0.427633077,1.314011812,7.042083263,2.278885841,-5.877724648,6.563686848
5.241457,-24.81210709,8.561155319,172.0990448,-3.504216909,1.128979802,15.05600739,9.168834686,13.27110767,-0.693582416
5.24979,-24.77414513,8.502655983,172.1800079,2.244243383,0.446247846,15.13360691,1.264920592,-10.65572739,5.557533741
5.258123,-24.69092369,8.603640556,172.1323547,-6.103367805,1.69253397,3.368617058,8.940639496,13.12216187,-0.293872178
5.266456,-24.57777405,8.593618393,172.2086945,1.981600165,-1.431013942,15.96632671,10.35930729,-5.121515274,7.511413574
5.274789,-24.47361755,8.594058037,172.1960144,-4.822022438,2.984319687,9.334666252,10.82558823,0.421853632,-1.574378848
5.283122,-24.38596344,8.691289902,172.2346649,0.691242397,-0.249918059,15.3877306,7.97205925,8.472946167,8.780905724
5.291455,-24.31580544,8.628975868,172.2424164,-1.712254643,-1.404416203,4.818865299,6.376805782,-7.443319321,-2.47349
5.299788,-24.16181183,8.759239197,172.2422485,-2.782234907,2.062210321,10.4062624,16.63485336,14.00839424,6.178732395
5.308121,-24.08708572,8.648238182,172.2918854,1.084540009,-0.55266881,16.77059746,6.159161568,-14.81601906,-0.2969971
5.316454,-24.00788116,8.796125412,172.266571,-3.675012589,-0.137790844,9.107599258,8.117935181,17.17769432,4.268677711
5.324787,-23.92453003,8.75357914,172.2796631,1.68014729,0.419454485,9.922943115,7.853824615,-5.547787189,-0.884331465
5.33312,-23.79985046,8.802253723,172.2998657,-4.42812109,0.672863781,10.39927197,12.74394417,4.120370865,4.332867146
5.341453,-23.72775269,8.801607132,172.3056946,1.823310256,-1.16872704,15.61105919,6.632536888,-0.600833058,0.374851525
5.349786,-23.63829422,8.871401787,172.3122711,-6.355192184,1.898583531,8.20435524,8.766357422,7.104454994,3.857671261
5.358119,-23.56043053,8.881479263,172.3226776,2.69710803,-0.959797025,15.19055462,7.236777782,0.362454236,1.38523066
5.366452,-23.48306656,8.878984451,172.3422394,-4.45400238,1.960711956,11.23840141,7.073973656,-1.452660084,1.786452055
5.374785,-23.40481567,8.946105957,172.3291168,0.350048125,-0.69418931,10.67216396,7.716787815,7.759768486,1.544525623
5.383118,-23.30862808,8.894958496,172.3809052,-2.567434788,0.396909535,10.85755062,8.732598305,-8.32155323,2.980946541
5.391451,-23.24411964,8.934592247,172.384964,0.702163398,0.109564394,14.95431328,5.745695591,3.927392483,2.090672255
5.399784,-23.17201042,8.898854256,172.4044342,-2.988819122,-0.322400481,5.669996738,6.443658352,-5.102739811,0.210331276
5.408117,-23.05488968,8.909596443,172.4519501,-0.288591146,0.297933131,13.46493912,11.25168133,-1.276459932,5.455947876
5.41645,-22.99999237,8.863862038,172.464325,-1.527638555,0.2438889,11.63543701,4.509987831,-5.876623154,-1.017755985
5.424783,-22.90497208,8.902293205,172.5011902,-1.788712382,-0.889856577,10.17653561,8.797939301,2.294100761,5.591677666
5.433116,-22.84867668,8.817512512,172.5341492,-0.781139255,0.870559633,13.37679577,4.297390461,-11.14519119,-0.575551927
5.441449,-22.76605988,8.862918854,172.5702972,-2.295734644,0.093055151,9.25970459,7.322892666,3.112168074,5.832681656
5.449782,-22.70041656,8.796678543,172.590332,-1.147983551,-0.599366069,9.540964127,5.658556461,-8.50151825,-1.101437926
5.458115,-22.62184906,8.813982964,172.6513672,-1.341873765,0.055281155,15.51196575,6.379033566,-1.120417833,7.247252464
5.466448,-22.58476448,8.747681618,172.6780701,-0.589160562,-0.072724119,6.749938488,2.113904715,-8.813911438,-0.355576873
5.474781,-22.51379013,8.73309803,172.7372131,-1.80262208,-0.530001462,15.10174561,5.507534981,-4.553750515,5.575233936
5.483114,-22.49276924,8.70824337,172.7615967,-1.263700485,-0.179439127,9.123602867,0.230848312,-4.115029335,1.308925867
5.491447,-22.44028091,8.681623459,172.8254547,-1.505783081,0.092807449,13.30015755,3.203175306,-6.096187115,5.548337936
5.49978,-22.42915154,8.646113396,172.8519287,-0.968902588,-0.022853525,11.54927254,-0.990733027,-5.388339043,1.054141045
5.508113,-22.36969376,8.661844254,172.8861847,-3.689704895,-0.149354622,9.468047142,4.580709457,-0.051766373,4.249825001
5.516446,-22.34525108,8.625795364,172.9397888,-0.755387008,0.335163534,13.59373569,0.11824812,-6.671817303,4.015069962
5.524779,-22.30766487,8.65924263,172.960434,-1.946223021,-0.260690629,10.44490623,2.197150946,2.534849167,3.557215452
5.533112,-22.28307152,8.606629372,173.0059509,-1.201215506,0.345978618,12.85442257,0.283562362,-8.142560005,2.379139662
5.541445,-22.24952507,8.637115479,173.0326233,-2.479721069,-0.192684114,10.62783813,1.604975104,1.93844676,4.081205368
5.549778,-22.22123528,8.608621597,173.0719452,-0.364048988,0.048846241,10.67565441,0.83900708,-5.182784081,2.802876234
5.558111,-22.2186203,8.590906143,173.0973053,-0.940830886,-1.118689179,12.53590584,-2.084383965,-3.352288961,1.747492909
5.566444,-22.18016434,8.599973679,173.1163788,-2.235772133,1.028982043,8.344911575,2.42401576,-0.100792006,2.28562212
5.574777,-22.18181229,8.572106361,173.158371,-2.027378321,-0.901173592,13.24745655,-2.895023108,-5.224842548,3.119749546
5.58311,-22.16627312,8.601570129,173.1687317,-0.83832407,-0.465146065,8.465712547,-0.169310108,2.558132172,2.25088954
5.591443,-22.17926788,8.560954094,173.1973267,-2.233304262,0.548427284,12.52149105,-4.018873692,-6.041527271,1.071072221
5.599776,-22.18201828,8.586924553,173.2193604,-1.075187087,-1.046828032,8.241761208,-2.572898865,1.645676255,3.376353264
5.608109,-22.18453979,8.553954124,173.2562103,-0.674311042,-0.464842588,10.82610512,-2.907420635,-5.561413765,2.323326111
5.616442,-22.2109375,8.540122986,173.2811737,-0.168590382,-0.484946668,11.27793503,-5.462440491,-2.908573151,1.895363688
5.624775,-22.20432281,8.543761253,173.296936,-3.121268988,-0.055214807,10.18102932,-1.436471939,-0.549194813,1.663708448
5.633108,-22.22675705,8.552043915,173.3348389,-1.478451014,0.31992951,14.29943085,-5.217542648,-1.032561064,4.316984177
5.641441,-22.23913383,8.58885479,173.3366852,-2.39979887,-0.245779008,8.830112457,-3.466041327,3.759593248,1.639503121
5.649774,-22.24884224,8.592980385,173.3636932,-1.492536902,0.69958812,14.67426872,-3.49772644,-1.006639481,2.933047533
5.658107,-22.26716805,8.650999069,173.3665009,-2.586826801,-0.599051476,7.185627937,-4.198455334,6.069485664,2.712176561
5.66644,-22.26671791,8.632279396,173.4113464,1.01368928,-0.221210942,12.86731339,-2.603943348,-4.347171307,3.851445913
5.674773,-22.2819252,8.675323486,173.4064789,-1.896440983,-1.073858738,8.982867241,-3.687348127,4.75378418,1.186874032
5.683106,-22.27766037,8.641026497,173.4541779,-1.113506675,0.421037883,11.15323162,-2.196395159,-6.205945492,3.453503609
5.691439,-22.27083206,8.715174675,173.4424896,-1.766512871,0.229554594,11.8269577,-0.917732418,8.51536274,1.855379939
5.699772,-22.28347588,8.660775185,173.4947205,-1.387162209,-0.439900428,9.163600922,-4.312130928,-8.641629219,3.03619647
5.708105,-22.26752281,8.714229584,173.4849701,-0.87948668,-0.551848888,10.50693607,0.145834669,6.127707481,1.12880671
5.716438,-22.2729702,8.676794052,173.5264282,-2.342131615,0.052526291,9.018255234,-3.255261898,-6.274360657,2.628981113
5.724771,-22.27083206,8.684803009,173.5437622,0.958080471,-1.072397947,12.90819168,-2.002725601,-0.13588351,2.033270836
5.733104,-22.26186371,8.631694794,173.5862122,-2.845223904,0.320110857,10.10476112,-1.540235281,-8.060441017,2.026611328
5.741437,-22.28063774,8.646137238,173.6049652,-0.559344769,-0.93635112,11.03062725,-4.53471899,0.51473093,2.482800722
5.74977,-22.2776432,8.599590302,173.6240997,-2.569145441,0.39054814,10.51295948,-1.833799958,-6.282121181,-0.238442898
5.758103,-22.28278923,8.629668236,173.6378937,-1.48909533,-0.536157191,13.28418636,-2.808652163,2.474450588,2.65367341
5.766436,-22.27894592,8.580615997,173.6711426,-2.313807487,-0.082852304,6.629802227,-1.98518002,-7.195652962,1.196914673
5.774769,-22.25831032,8.614879608,173.6923981,0.357886583,-0.411933631,13.23041153,0.152135774,2.60367465,3.661030054
5.783102,-22.25908852,8.5372715,173.7167053,-1.845950127,-0.212040395,10.68647194,-2.377769947,-9.963580132,-1.078077674
5.791435,-22.26144028,8.543941498,173.7562714,-0.743597627,-1.731462836,12.07490349,-2.931779623,-1.28329885,4.415676594
5.799768,-22.23889732,8.472453117,173.7860718,-1.134952068,0.839555383,9.052865028,0.327875078,-9.532083511,-0.195641577
5.808101,-22.24576187,8.44909668,173.804718,-1.341754436,-0.539803088,12.06694412,-3.095454693,-3.675233126,0.756708622
5.816434,-22.21636581,8.382547379,173.8434448,-3.048387289,-0.049505655,8.402330399,0.998865664,-9.384800911,1.014618397
5.824767,-22.20049858,8.394488335,173.8506775,-1.168581367,-0.074210748,14.73448467,-0.165109366,0.755683959,1.104088902
5.8331,-22.20479584,8.295791626,173.8882751,-2.132083893,-1.036403179,7.148350716,-3.01738286,-12.90370941,-0.56369251
5.841433,-22.18789101,8.295936584,173.89505,-0.315783709,-1.041940331,10.0050745,-0.027663372,-0.532519937,0.515960336
5.849766,-22.16474915,8.220383644,173.9169464,-0.852085531,0.435243815,10.91994953,0.550872505,-9.629927635,-1.234964728
5.858099,-22.16422653,8.201653481,173.9256744,-1.579707384,-0.887915909,12.13834572,-2.024856567,-2.718669415,-0.120053917
5.866432,-22.1176548,8.14240551,173.9575348,-2.335929394,0.155952752,7.124006748,3.196848869,-8.264970779,0.60512358
5.874765,-22.06915474,8.182507515,173.9341125,-1.470209479,-0.235847324,13.78536224,4.281509399,5.259255886,-0.997649014
5.883098,-22.02151108,8.132023811,173.949295,-2.713264465,0.316622883,10.85574532,3.609417439,-6.545462132,-0.823139131
5.891431,-21.97081566,8.169788361,173.9348755,-2.042484283,-0.931194007,12.08554173,4.394416332,4.598049641,-0.124587625
5.899764,-21.8956852,8.13065052,173.9573059,0.06726066,-0.55607754,11.49570274,6.784711361,-5.605521679,0.49703142
5.908097,-21.8533535,8.149936676,173.9483337,-1.102665544,-0.297406882,11.45302963,3.298383236,2.300273418,-0.360802114
5.91643,-21.79377556,8.1242733,173.9650269,-2.465876341,-1.046769381,7.458756924,5.01802063,-3.849179268,0.476258278
5.924763,-21.72872734,8.179645538,173.9457245,-1.453347802,-0.683131874,15.10898399,6.200579166,6.774439812,0.101445176
5.933096,-21.67527008,8.163072586,173.9577789,-2.502790213,0.176253974,8.822788239,4.36132288,-2.628251076,0.372059584
5.941429,-21.65129471,8.250963211,173.9351501,-1.263788104,-1.612865925,7.828831196,1.328930736,10.54585552,1.166638851
5.949762,-21.59676743,8.186281204,173.9477997,0.417938262,-0.964912832,9.928496361,4.477766037,-8.022277832,-1.684136271
5.958095,-21.56298637,8.25220871,173.924881,-2.982707024,-0.537352324,15.09315586,2.515688896,8.11073494,0.1497024
5.966428,-21.56627846,8.248466492,173.9291229,-1.462888718,-0.705264628,9.350664139,-2.316730499,-0.855003238,0.080902554
5.974761,-21.56500053,8.358680725,173.8725281,-2.289469957,-1.713130355,8.353792191,-0.797499299,14.52297878,-1.622457027
5.983094,-21.52855873,8.343943596,173.8807678,-1.28827703,0.080695771,12.94695473,2.381598949,-2.257408381,0.040329617
5.991427,-21.53344154,8.45919323,173.8409271,-1.522916913,-0.660995483,14.20149326,-1.816151857,14.35310459,0.446007937
5.99976,-21.5638504,8.400947571,173.863327,0.26004526,-1.971320987,9.382572174,-5.891657829,-7.729607582,-0.315055072
6.008093,-21.5979023,8.519853592,173.8173828,-4.0507164,-0.855090916,7.221853256,-5.205709934,15.02445412,-0.050178293
6.016426,-21.6135788,8.502104759,173.8301239,0.334533513,0.269323677,13.10788155,-3.95511961,-2.787597179,0.398980141
6.024759,-21.659832,8.606836319,173.7801819,-3.421591759,-1.106852174,11.72258663,-6.585831165,13.61813164,-1.103077292
6.033092,-21.74880981,8.567869186,173.8194885,0.704836726,-1.357340693,6.594140053,-13.2326498,-6.321338654,2.382726192
6.041425,-21.8058567,8.648728371,173.762146,-1.763620973,-1.516925693,6.968784809,-7.740112305,11.28703117,-2.949198246
6.049758,-21.8653717,8.63576889,173.7946167,-1.969148993,-0.464558125,16.60312271,-9.57806015,-3.128267288,2.775648832
6.058091,-21.94351387,8.771856308,173.7311096,-2.87279129,-0.350385576,8.971793175,-10.14900398,17.71397781,-1.127897501
6.066424,-22.03520584,8.721467972,173.771759,1.221620202,-0.418729752,13.81279564,-13.59539986,-7.664652348,1.986217976
6.074757,-22.10361671,8.792818069,173.7224426,-2.458466768,-1.829507709,6.643853188,-9.23137188,9.885009766,-2.433609009
6.08309,-22.20079422,8.747175217,173.7634583,0.979092717,-0.143646464,14.90575981,-14.26159954,-7.15971756,2.21861577
6.091423,-22.28667831,8.794053078,173.7199097,-4.741836071,0.314862341,6.754653931,-11.43317127,6.915960312,-2.880449295
6.099756,-22.37028694,8.765794754,173.7592163,-0.718379557,-1.250078559,13.10202599,-12.60220718,-5.160245419,2.803619862
6.108089,-22.43472672,8.800775528,173.7279205,-1.643021584,-0.184558406,4.264649868,-9.084602356,5.046991825,-2.063816071
6.116422,-22.55145836,8.727713585,173.7664795,1.14455092,-1.344828129,14.71157837,-16.56327057,-10.10266685,0.648795903
6.124755,-22.61564827,8.728700638,173.7537079,-2.992508888,-0.604772031,5.577176571,-9.393843651,0.443907619,-1.582396746
6.133088,-22.69390678,8.718138695,173.7849884,-0.614289343,0.054537352,18.01673126,-11.80859852,-2.8510952,2.715275764
6.141421,-22.75718307,8.715140343,173.7796173,-4.005758762,-0.264928788,5.011827946,-9.419866562,-0.334521979,-0.954796433
6.149754,-22.81094742,8.71750164,173.7974854,-0.219992831,-0.940883458,12.73409367,-8.626234055,-0.811484516,1.843289852
6.158087,-22.83180046,8.681049347,173.8066711,-1.09823823,-0.180215746,11.24537468,-4.588815689,-4.701518059,-0.922829628
6.16642,-22.89992332,8.662599564,173.8357544,-1.259118438,-0.281176239,14.17009735,-10.55163193,-3.635428429,2.100610733
6.174753,-22.92041016,8.608606339,173.8582458,-2.13144803,-1.016748905,4.85387373,-4.784893036,-7.251852036,-0.296305478
6.183086,-22.93437767,8.621691704,173.8609314,-1.68566525,1.160019398,15.75274944,-3.573877335,1.068536043,0.684758127
6.191419,-22.94322014,8.572428703,173.8722382,-3.448408127,-0.46324265,5.822329521,-3.184464216,-6.212937355,-1.300793171
6.199752,-22.94955254,8.593689919,173.8669434,-1.676830769,-1.885105371,11.60624695,-2.513960123,2.340410948,0.196192205
6.208085,-22.90776443,8.550741196,173.8873596,0.003183223,-0.133349642,6.623996258,2.731360912,-5.938172817,-0.008196555
6.216418,-22.90978622,8.54137516,173.8867035,-1.403290987,0.112916075,13.71385193,-2.081848383,-1.257530928,-0.729160428
6.224751,-22.86961746,8.529260635,173.8964996,-2.01129818,-0.939490616,6.741263866,2.728466511,-2.039277315,0.276057422
6.233084,-22.82293129,8.550640106,173.8779144,-1.866105318,-0.763105571,15.89879799,4.085099697,2.967960119,-1.257300377
6.241417,-22.76240349,8.585224152,173.8691711,-4.369150162,0.783561289,8.812496185,5.500874519,3.979517221,0.421751171
6.24975,-22.72500229,8.634897232,173.8357086,-1.235157013,-1.247799039,10.83103848,3.238933325,6.780486584,-1.578400612
6.258083,-22.63019562,8.666837692,173.8173523,-0.772485137,-0.71953541,9.493505478,9.79274559,4.126338005,-0.75987196
6.266416,-22.55923653,8.700816154,173.8046112,-1.680871129,-0.204121262,16.62630272,6.897927761,4.091708183,-0.047770556
6.274749,-22.49741364,8.75379467,173.7852936,-2.480745077,-0.8435148,4.85062027,5.849894047,6.50192976,0.086230315
6.283082,-22.42702866,8.822376251,173.7393646,-0.906677246,-1.155617714,12.3167038,7.441102028,9.434093475,-2.109716415
6.291415,-22.30805969,8.902636528,173.7175751,-3.200137138,0.062515654,7.848045826,12.76246166,9.64131546,1.046277761
6.299748,-22.25781822,9.007328987,173.6765594,-0.777673125,-1.072677255,13.51511955,4.948018551,13.21486187,0.045401245
6.308081,-22.18069458,9.016131401,173.6726227,-0.320592612,-1.941404819,3.400610209,7.412439823,0.904425919,-0.263186276
6.316414,-22.09659195,9.137814522,173.6139679,-2.597727537,-1.011591434,13.93229866,9.353591919,15.89108753,-1.154024243
6.324747,-22.02392578,9.220932007,173.5822601,-2.79375124,-0.010532774,12.55487633,7.411646843,10.40582275,0.037793811
6.33308,-21.97291946,9.38312912,173.5087738,-1.672117114,-1.451751828,10.9500246,5.698055267,21.05371857,-0.9996472
6.341413,-21.88610268,9.382236481,173.5167847,-0.158427358,-0.175343186,9.452611923,8.346077919,-0.704135299,0.610502481
6.349746,-21.82275772,9.546057701,173.4442749,-1.384135246,-2.153876781,11.56807041,7.183245182,21.1875248,-0.870602489
6.358079,-21.77091026,9.523357391,173.4519348,-1.903151274,-0.033781607,10.7170763,4.154180527,-3.114947081,-0.401323825
6.366412,-21.7098732,9.73741436,173.3674316,-3.989398241,-1.32426703,8.624100685,7.172439098,27.30933952,0.007159183
6.374745,-21.6705513,9.67195034,173.3974152,3.237849474,-1.524615645,13.523489,2.195946932,-8.859913826,0.162740082
6.383078,-21.62368584,9.782170296,173.3432159,-4.907999992,0.67266345,3.327105522,4.874402046,14.40671635,-1.299589753
6.391411,-21.59308243,9.762048721,173.3500061,0.560352862,-2.380700111,15.7484808,1.620215535,-2.791131973,-0.372635901
6.399744,-21.51679993,9.89107132,173.2866516,-3.699677944,-1.055700779,7.651350975,8.602376938,16.89785576,-1.498433113
6.408077,-21.52140617,9.872531891,173.2885284,2.335924864,-1.605867505,18.12098885,-2.506916523,-2.399490356,-0.841914356
6.41641,-21.49438667,9.861023903,173.2850189,-3.781465769,-1.406207442,0.332026243,1.466299653,-1.385089755,-1.113809347
6.424743,-21.45014954,9.95593071,173.2291412,-0.388849199,-0.717608392,14.21394348,4.549152851,12.76589394,-2.205616474
6.433076,-21.43093491,9.887724876,173.245636,-2.915632248,-0.549242854,9.309206009,0.11573793,-8.581973076,-1.400151014
6.441409,-21.41198158,9.996986389,173.2048798,0.117308803,-2.328156233,8.420449257,1.204624891,13.71387672,0.074908845
6.449742,-21.37889481,9.841050148,173.2635345,0.436615258,-0.021968381,14.00770473,0.909369707,-20.20349121,-0.592278183
6.458075,-21.34248924,10.00749493,173.1962585,-6.436330795,0.012015698,7.300675392,3.843583584,21.24753952,-0.359086066
6.466408,-21.35124016,9.876914978,173.2467651,1.618652225,-2.474368572,16.7039814,-3.946104288,-17.01927948,-0.366206825
6.474741,-21.32345009,9.963602066,173.2039032,-2.018245459,-1.123117208,6.635037422,2.307855368,11.28492737,-1.163244963
6.483074,-21.3385601,9.872868538,173.2424011,0.147739917,-1.365578771,17.02160072,-4.45936203,-12.04927158,0.056440983
6.491407,-21.30280495,9.929904938,173.2291565,-5.912971973,0.356419951,0.518981159,2.65067625,6.696828365,0.802506745
6.49974,-21.28297615,9.938037872,173.2163086,2.635471821,-1.879719257,16.93941307,0.795795798,1.207518935,-1.281070352
6.508073,-21.28409195,9.813609123,173.2473907,-2.953497171,-0.980974317,5.839449406,-2.68821454,-15.49497795,-2.226210833
6.516406,-21.29543304,9.903327942,173.2109222,-1.333283067,-1.745250344,12.88890266,-2.461451292,11.34519768,-0.330039412
6.524739,-21.27803993,9.770118713,173.2575226,-1.894262195,-0.057690207,11.81849861,-0.780030429,-17.14158821,-0.902415276
6.533072,-21.25694847,9.917236328,173.1952057,-2.559758186,-0.901221633,7.461809635,1.960398555,18.87086868,-0.683951378
6.541405,-21.27938843,9.681911469,173.2726593,2.491412401,-2.785266876,13.6990099,-6.190376282,-29.88515091,-1.938256621
6.549738,-21.25669289,9.807079315,173.2077484,-5.117622375,-0.73520422,6.423661232,2.192822218,16.52929115,-1.927292228
6.558071,-21.26739502,9.690840721,173.2535248,0.793797016,-0.288823456,16.68641663,-4.126095772,-15.20932674,-0.244231805
6.566404,-21.26136589,9.740005493,173.2415009,-3.849728823,-1.764740944,-0.830128849,-0.884229004,5.760705948,0.592239499
6.574737,-21.25988007,9.617620468,173.2755585,3.362734318,-1.620408654,16.59682655,-2.41880393,-15.39615536,-1.800066233
6.58307,-21.23053932,9.656450272,173.2547913,-7.713067532,-0.448702365,7.853581429,2.088520527,4.98121357,-0.824470997
6.591403,-21.26549339,9.667474747,173.2559814,1.32645762,-1.367424846,16.69226074,-6.132406712,0.933139503,0.385609537
6.599736,-21.25579453,9.570762634,173.2795258,-0.808113754,-1.741164804,4.329472065,-1.157097578,-12.0771637,-1.835515976
6.608069,-21.26012802,9.613201141,173.263092,-2.756770611,-0.958742917,15.75143909,-2.107129574,5.202289581,-0.195744008
6.616402,-21.27241325,9.590436935,173.2705841,-3.040035486,-0.115215041,7.479455471,-3.472393751,-3.119353056,-0.386288285
6.624735,-21.31854439,9.606888771,173.2551422,0.3989923,-2.609781265,10.98666477,-7.141505241,2.254244566,-1.213602543
6.633068,-21.3150425,9.489954948,173.2942963,-2.207272053,0.118827201,6.14135313,-2.207665682,-15.00748444,-1.007203102
6.641401,-21.33032227,9.61323452,173.253418,-2.594902277,-0.836418092,13.36563873,-2.934239388,15.29156113,0.642699718
6.649734,-21.35511589,9.518586159,173.2610321,-1.415469766,-1.353306413,10.00945854,-4.976590633,-11.15810013,-3.516758442
6.658067,-21.36545372,9.602348328,173.2388306,-1.232421637,-3.280384302,11.32121468,-2.712240458,10.07055855,0.988824725
6.6664,-21.37875557,9.523171425,173.2653809,-0.770310938,0.119830132,12.57300758,-3.975278139,-10.24636078,-0.756414056
6.674733,-21.40453339,9.643030167,173.2196655,-3.345420599,0.27106151,5.172473907,-4.093898773,15.11828041,-0.019261912
6.683066,-21.39464188,9.518102646,173.274231,1.721418619,-2.681480408,7.261058331,-1.750707865,-16.56526947,0.319371194
6.691399,-21.38064766,9.603650093,173.2427979,-2.518649578,-0.866496444,13.01563358,0.394139111,10.66801071,0.050524082
6.699732,-21.39124489,9.516608238,173.2735748,-2.086119413,-0.952767491,11.42278004,-3.73519659,-11.30612469,-0.639638782
6.708065,-21.36528587,9.67648983,173.2291412,-2.484858513,-1.796981573,6.676948547,2.091799974,19.53525352,1.868443727
6.716398,-21.36476707,9.498170853,173.2942047,3.261174679,-0.535933137,19.88237953,-3.086568356,-22.98422813,-0.847805917
6.724731,-21.37523842,9.603932381,173.2502289,-7.686907291,-0.234173983,5.57030201,-2.296419144,13.46905613,-0.450989932
6.733064,-21.37728119,9.523282051,173.292572,1.126430988,-1.90626359,11.06861019,-2.938490629,-11.09027195,0.918026984
6.741397,-21.370121,9.559894562,173.2787628,-0.156056941,-2.135766506,5.638883114,-0.780388951,4.439548969,-0.149561509
6.74973,-21.35116386,9.438786507,173.3390045,-1.338912845,0.407842427,13.36192894,-0.766839266,-16.38476563,1.125502586
6.758063,-21.32658386,9.560096741,173.3003387,-5.113471985,-1.226495981,7.793365955,1.801513433,14.97811794,0.803838909
6.766396,-21.32212257,9.415634155,173.3592072,2.677873135,-2.121392965,17.8237133,-2.479176521,-18.93504524,-0.03521958
6.774729,-21.31497765,9.448522568,173.3374176,-4.40257597,-2.023799419,3.272706747,-0.630135894,4.368905067,-1.197030067
6.783062,-21.3434906,9.398908615,173.3698425,0.010885523,-0.459935457,15.27071667,-5.908128738,-7.194808483,1.188359618
6.791395,-21.33286667,9.447532654,173.3433228,-3.316080332,-1.056882858,3.123661995,-0.121283405,6.329699993,-1.031331539
6.799728,-21.32639885,9.336288452,173.4009247,2.112433195,-2.010776043,15.06335735,-2.200775385,-15.16708755,1.276088595
6.808061,-21.31902504,9.371114731,173.3700714,-4.472690582,-0.666649342,5.140558243,-0.430421591,4.97550106,-2.111996174
6.816394,-21.34288979,9.340307236,173.3848267,-1.056557894,-1.660672307,15.79924583,-5.001717091,-4.332109928,0.060897846
6.824727,-21.31760788,9.38643074,173.3713684,-1.906055212,-1.132176638,5.780976772,1.381414175,5.488810539,0.298469871
6.83306,-21.32130432,9.321105957,173.4116364,0.785304725,-0.976007879,18.97280693,-3.077780724,-9.287516594,1.370118141
6.841393,-21.32055092,9.384928703,173.3815308,-5.843447685,-0.910422921,3.060508728,-1.239754438,8.183709145,-0.764943421
6.849726,-21.33083153,9.397592545,173.3821869,0.312920541,-1.938874006,12.31654835,-3.09489131,1.134211183,0.40392369
6.858059,-21.30765152,9.392907143,173.3801117,-0.290026337,-1.407085776,6.875520229,0.907986283,-0.680621505,-0.666200578
6.866392,-21.30547142,9.382395744,173.4058228,-2.846768141,0.085102819,16.49462509,-2.092734098,-2.535245657,2.158293962
6.874725,-21.28884888,9.486042976,173.3733215,-4.390398502,-1.385425925,2.579689026,0.715879619,12.73966599,0.701458752
6.883058,-21.27311325,9.456548691,173.3788452,1.61789763,-1.662416101,17.26327133,-0.069517031,-3.788985491,-0.895166278
6.891391,-21.25048447,9.496092796,173.3709717,-2.795319557,-1.957127571,9.457198143,0.952247679,4.514086723,0.624052465
6.899724,-21.26508331,9.533786774,173.3762054,-1.541887999,0.093764968,12.62745857,-3.70558548,3.738230944,1.996770382
6.908057,-21.23044777,9.60675621,173.3660736,-2.142657518,-1.365204215,1.556066871,2.439640522,8.349228859,1.824514747
6.91639,-21.20236588,9.551314354,173.3911591,1.941069961,-2.734857321,12.75821972,1.020663142,-7.528920174,0.137791783
6.924723,-21.14891052,9.606336594,173.3766479,-4.740813255,0.570978165,5.919460297,4.786443233,6.530260563,0.555764973
6.933056,-21.13025856,9.633992195,173.3596191,-0.455004632,-1.811369538,17.74682808,0.731350422,3.569330692,-0.903490901
6.941389,-21.06712532,9.64464283,173.3773804,-1.417666554,-1.712936997,4.573922157,5.297139168,0.188174978,2.191208124
6.949722,-21.03769302,9.624378204,173.3762817,0.410130978,-0.703832269,16.97833443,1.706663609,-2.475052357,-1.216573715
6.958055,-20.98475838,9.687371254,173.3575592,-6.032137871,0.052499585,5.430010796,4.80916214,7.604929924,0.409072101
6.966388,-20.95041275,9.687864304,173.3656464,2.047363997,-3.172246218,10.81915665,2.109601021,-0.539896846,0.696182072
6.974721,-20.85944557,9.619467735,173.3937378,-1.744407535,0.301502943,5.916971207,8.43288517,-9.098791122,-0.057529576
6.983054,-20.79736519,9.67864418,173.3848114,-2.388156652,-1.413691282,15.58905888,5.780352116,6.758226871,1.317557931
6.991387,-20.72153091,9.678257942,173.3982544,-2.564556122,-0.787826836,6.658494949,6.909119129,-0.852236807,1.243455768
6.99972,-20.67256355,9.668996811,173.4126282,1.69376862,-2.613721371,16.51200867,3.73779583,-1.893071532,0.976325095
7.008053,-20.59589005,9.651626587,173.4282684,-4.725825787,-0.132923082,6.003138542,6.967367172,-2.847073555,0.761600971
7.016386,-20.55128479,9.731320381,173.4170685,0.856151402,-1.698171854,8.433935165,3.727908373,9.164453506,1.900051117
7.024719,-20.45582962,9.56600666,173.4811554,0.592852235,-1.595451236,5.212746143,8.244317055,-21.4814682,-0.080761723
7.033052,-20.34852028,9.631917,173.4731598,-4.309082508,-0.523366392,14.5684824,11.18908024,7.48984623,1.650261283
7.041385,-20.24821854,9.546648026,173.5142975,-1.896079183,-0.395854831,11.83782578,9.292962074,-11.53112221,0.784295261
7.049718,-20.1320076,9.625963211,173.4899445,-0.508420944,-1.671688676,9.2803936,12.58236885,9.673666954,0.361685902
7.058051,-20.00233078,9.424653053,173.5682526,0.168674812,-0.316217661,14.71282482,12.08512497,-26.11391258,0.185767367
7.066384,-19.86992264,9.53192234,173.5405426,-5.49230051,-0.014034615,8.629887581,14.58773518,12.96578884,1.084929705
7.074717,-19.7292099,9.374219894,173.6022034,0.76016134,-2.344827652,9.484473228,13.74986935,-20.52246857,0.227518573
7.08305,-19.56915665,9.432024002,173.595871,-2.473011971,-1.572113514,3.425163984,17.48347664,6.532105923,1.40579927
7.091383,-19.39490891,9.267157555,173.6557922,1.823564768,-0.713344038,13.11568546,17.81841278,-21.26356888,-0.139264688
7.099716,-19.18365479,9.331617355,173.6371918,-6.437597752,-0.04460445,7.766388416,23.86414146,7.77583313,0.25564301
7.108049,-18.97342491,9.201953888,173.6906128,2.85585165,-1.247775793,17.69490051,22.27444839,-17.01877403,0.661347151
7.116382,-18.72629166,9.174629211,173.7125397,-2.846585274,-1.413340569,4.50572443,27.38884544,-4.194846153,1.17747438
7.124715,-18.50709534,9.010523796,173.7624664,0.731271446,-0.023848349,15.74465275,23.43413734,-20.7954216,-0.910561264
7.133048,-18.21170998,8.991116524,173.7875671,-5.343789101,-0.739621758,6.849023342,33.12995529,-3.399575472,1.86864996
7.141381,-17.93626213,8.846337318,173.8462372,3.05282402,-1.556375384,13.80291843,30.03816414,-18.91930771,0.990541875
7.149714,-17.61445618,8.665902138,173.906311,-3.948274851,0.461187899,1.277732134,35.67477798,-23.04595375,-0.046080079
7.158047,-17.27219582,8.590837479,173.9456024,-0.465317696,-1.91287756,15.49929237,38.43955231,-10.23502636,1.514635921
7.16638,-16.88889313,8.498351097,173.9939423,-3.097344875,-0.440453559,7.566824436,43.2894783,-12.54669285,2.002511501
7.174713,-16.5471077,8.337130547,174.0691833,1.970594406,-0.64642787,17.15374565,37.76869965,-21.34284019,2.760950327
7.183046,-16.16350555,8.185372353,174.1365814,-3.603970051,-2.140548468,5.34106636,43.02563095,-19.97955132,2.328684092
7.191379,-15.75247383,8.099017143,174.19841,-1.376541495,1.155462623,12.75158691,46.34711456,-12.22918034,3.983033895
7.199712,-15.31605244,7.929566383,174.2787476,-1.732180119,-1.628477097,6.059127331,49.18319321,-22.39934921,3.531328917
7.208045,-14.84467697,7.735793114,174.3742981,-0.850334346,-0.528146148,10.94977474,53.07885742,-25.65209198,4.688097477
7.216378,-14.33554935,7.659758568,174.4343414,-2.404656172,-0.255573124,8.833461761,58.28636169,-10.88195896,4.392175674
7.224711,-13.84247971,7.483338833,174.5000153,-1.090864062,-0.499910921,12.77747726,56.20505142,-22.68022156,2.194212198
7.233044,-13.31619263,7.317857265,174.5911713,-0.609147191,-1.657956004,9.421140671,59.9032135,-22.10119247,5.659421444
7.241377,-12.73611736,7.138558388,174.657547,-1.930185318,0.670261681,10.5746069,66.68338013,-22.98859406,2.619284868
7.24971,-12.16204357,6.991889954,174.7328796,-2.292827368,-0.75589782,12.18793106,65.93470001,-19.37360954,4.745222569
7.258043,-11.57137489,6.79313612,174.7954254,-0.406113207,-1.688534379,2.755592108,68.0511322,-25.11802864,2.158893347
7.266376,-10.93115997,6.575051308,174.8792572,-0.806708395,0.174916416,12.78100967,73.81451416,-27.8690052,4.471386433
7.274709,-10.26897144,6.469172955,174.9190216,-3.201665878,-0.916074276,12.76804733,76.99575043,-13.60543346,2.088301659
7.283042,-9.625552177,6.233356476,175.0063171,0.435731381,-0.551922262,11.72868729,74.21021271,-29.92269325,5.146402836
7.291375,-8.951548576,6.013949871,175.0667572,-2.599563599,-0.574864447,10.78750038,78.18099213,-27.39212799,2.637602806
7.299708,-8.214882851,5.877709389,175.1532288,-2.994676113,-0.567954361,8.65331459,85.48506927,-17.95944214,7.543559074
7.308041,-7.48780489,5.647052288,175.2109528,1.988117337,-1.018985033,11.66965008,84.62992096,-28.60740662,2.821030617
7.316374,-6.748869419,5.402338505,175.2734375,-2.380695343,0.986312389,10.39835644,86.11014557,-30.31620789,3.544306517
7.324707,-5.941287994,5.221430302,175.3339081,-2.540066481,-0.82138592,5.604038715,94.31613159,-22.62101364,4.553852081
7.33304,-5.073407173,4.949550629,175.3841095,0.687614739,-0.21361202,13.33444118,101.7715988,-33.30314636,2.621016264
7.341373,-4.188428879,4.697530746,175.4422607,-1.868206501,0.676067591,13.2280035,103.6886444,-30.95178795,4.264929295
7.349706,-3.291945219,4.518875599,175.4943085,-2.095368862,0.543913484,11.04633713,105.2376938,-22.04980469,4.591001987
7.358039,-2.35794282,4.22517252,175.5384827,0.044148237,-1.211829424,6.837018967,109.7544556,-35.71060181,3.316300631
7.366372,-1.366054773,3.999053717,175.5795746,-4.247950077,-0.139785737,5.61593914,116.8359985,-27.53137207,3.812124968
7.374705,-0.318434715,3.807809591,175.6277924,0.984700441,-0.583274126,14.02153397,123.4005814,-23.27946091,5.212555885
7.383038,0.721103132,3.535797834,175.6328735,-2.366072178,0.793978035,18.63697052,122.8686676,-32.8911705,0.501495421
7.391371,1.745454431,3.371986628,175.703598,-1.635163069,-0.381988823,10.66464996,120.4909744,-19.71953201,8.669085503
7.399704,2.767927408,3.220040083,175.7001343,-0.982853889,-1.805456042,5.668791294,120.8840637,-18.48734283,0.081185386
7.408037,3.829394341,2.990446091,175.7667084,-0.92415899,-0.749019682,6.536421299,125.0250549,-27.29641151,9.327366829
7.41637,4.95817709,2.86716342,175.7752533,-3.982805967,-0.654141068,13.08973408,133.5660706,-14.92388344,1.931920052
7.424703,6.006756783,2.65758419,175.8419037,0.570569754,-1.242115617,13.59744549,123.5292282,-24.52190018,10.13376141
7.433036,7.074037552,2.552195311,175.8391724,-2.679611683,-0.930911183,9.633890152,126.2531967,-12.85417366,0.893936634
7.441369,8.101113319,2.411581993,175.9120026,-0.192066848,-2.121318102,15.5994215,120.9551392,-15.82324886,10.65890312
7.449702,9.141307831,2.195014238,175.9042816,-0.376683921,0.83744508,11.01689053,123.0239334,-26.0851059,2.75972867
7.458035,10.18255424,2.152559042,175.9762421,-4.556388378,-0.850021124,7.891714096,122.7107697,-3.825639486,9.137167931
7.466368,11.21308136,1.919826865,175.9823914,3.529745817,-2.765776634,10.92303181,121.800415,-27.55760574,5.687936783
7.474701,12.19465065,1.873322606,176.023468,-5.606811047,-0.189144582,14.95894241,115.713913,-4.716789246,5.732341766
7.483034,13.17238235,1.64846766,176.0343628,2.753595114,-1.445086718,11.80392838,115.448967,-26.28918839,6.97859478
7.491367,14.1281147,1.625023842,176.066452,-6.654950142,-1.741886854,9.343784332,112.670433,-2.076799631,4.180916786
7.4997,15.03917217,1.467407465,176.0951843,5.030861378,-1.668534636,14.24526691,107.3947144,-17.68722343,7.879059792
7.508033,15.92643356,1.410696268,176.0995789,-7.207120419,-0.3539204,12.74615574,104.5558395,-6.670472145,2.100092888
7.516366,16.80439568,1.308205366,176.1420288,4.823383331,-1.82276237,11.69727707,103.3955231,-10.61884212,8.131637573
7.524699,17.64011955,1.195666909,176.1061401,-6.031592846,-1.165173531,18.02125168,98.48065186,-14.42485905,-0.33444798
7.533032,18.37711525,1.099796057,176.138092,4.222146034,-3.785635233,13.13859844,86.51981354,-10.00749779,6.980732918
7.541365,19.07184219,1.073130012,176.1218414,-6.038947105,-2.81762743,8.476905823,81.50727081,-3.910317421,-1.042198062
7.549698,19.69983292,0.937517941,176.1332092,1.24562633,-2.523846388,13.05309868,73.49386597,-15.15102673,6.466923237
7.558031,20.25630379,0.953582048,176.1147156,-3.57929492,-0.408076406,7.087440014,64.91992188,0.801101029,-2.964321375
7.566364,20.77967453,0.90571928,176.1670532,0.788330376,-4.168884754,8.13463974,60.85894775,-3.430064917,7.672603607
7.574697,21.25277328,0.860257089,176.1034088,-0.433935106,-1.672852635,19.14476395,54.99746323,-8.087819099,-5.392271996
7.58303,21.61293793,0.766813457,176.1412048,-1.239262104,-1.658735991,18.5489521,41.31071472,-9.031594276,8.09778595
7.591363,21.90291405,0.800076842,176.1134491,-2.056737423,-3.611323833,7.633405209,32.95670319,2.215133905,-4.792556286
7.599696,22.13573456,0.800622106,176.1967316,1.102455378,-1.352950931,6.709227085,25.95188713,3.555347681,9.016562462
7.608029,22.38990974,0.743539214,176.1335602,-2.294498444,-1.834286571,7.828698158,28.71976471,-9.466542244,-4.637461185
7.616362,22.64171791,0.644751012,176.1912537,1.522708893,-0.164415821,14.43165016,28.2873764,-8.553010941,10.71186924
7.624695,22.73775291,0.67798233,176.1832733,-0.866885066,-0.866030812,18.06305885,9.653635025,3.054023981,-2.641032934
7.633028,22.86576653,0.574405253,176.2199554,-2.07759428,-2.266925335,10.57327843,13.46454906,-10.00366783,8.654885292
7.641361,23.02088356,0.528550148,176.20784,0.619584143,-1.014612675,4.48972702,16.75439072,-5.892044067,0.586450815
7.649694,23.13105011,0.446071029,176.2189026,-1.286921978,1.048742652,12.11421299,11.36082554,-8.836298943,4.879602432
7.658027,23.29093361,0.374588728,176.1934357,1.483563542,-1.256234884,7.670681,17.33450127,-9.345407486,0.353156358
7.66636,23.45840454,0.300814182,176.2014313,-5.046545029,0.416570246,7.67527771,18.2426033,-7.998097897,4.170369625
7.674693,23.65000725,0.142575666,176.1376801,5.396170139,1.713789105,16.14352417,21.15418625,-20.72047424,0.359278351
7.683026,23.85600471,0.067506298,176.1225128,-6.357180119,-1.978575468,6.991107464,22.87509727,-9.231119156,1.740654707
7.691359,24.08692741,-0.033672038,176.1041107,5.376008034,0.691066623,12.0371933,25.8491745,-12.2512722,2.696707249
7.699692,24.35576439,-0.246835843,176.00354,-6.346360207,0.598031461,8.36530304,30.38497543,-28.53043556,-0.7317487
7.708025,24.67602158,-0.315914214,176.02742,5.466699123,-1.069116116,9.542295456,36.58466339,-6.611759186,5.829589367
7.716358,24.96714211,-0.486007392,175.938858,-5.608025074,1.651971698,17.22720337,33.01330185,-23.23855019,-1.297619104
7.724691,25.30413246,-0.689993441,175.9044342,3.736336708,-0.286769956,8.905477524,38.5429039,-24.17340469,6.439879417
7.733024,25.65987968,-0.788978159,175.8378601,-4.879832745,-1.363566875,6.406015396,40.74041748,-14.41164303,-2.319424152
7.741357,26.0160656,-1.011633039,175.7807312,5.080816746,0.769540071,15.49945927,40.78423691,-27.29458809,5.256193638
7.74969,26.3931942,-1.174458504,175.6738892,-7.318649292,0.100735128,12.1416254,43.16551971,-23.44252968,-3.093053341
7.758023,26.77766228,-1.392130375,175.6194458,5.487624168,-1.163955927,9.076688766,44.14361191,-26.54268456,5.633825779
7.766356,27.13496971,-1.499542236,175.535614,-5.542930126,0.221461475,15.16277981,40.77924728,-16.30054283,-3.341664314
7.774689,27.4990139,-1.75590992,175.4622345,2.2787292,-1.110440254,12.19381523,41.58879089,-31.6327858,6.079489231
7.783022,27.86949539,-1.889879465,175.3856659,-2.063241243,-0.04525689,9.587983131,42.32294846,-18.75444221,-0.883564591
7.791355,28.19806099,-2.086144686,175.3344116,-1.254353404,-1.079285145,13.66125011,37.37783051,-23.93764496,5.426653862
7.799688,28.51189995,-2.206530094,175.2607574,-2.298540115,-1.526645541,8.427024841,35.48476791,-17.15948486,-1.13212502
7.808021,28.80325317,-2.381789207,175.2063446,-0.259242922,-1.778389692,11.10953236,32.86696625,-21.84710121,4.143377304
7.816354,29.02635002,-2.413239479,175.1830139,0.190755546,-1.872965574,11.82828712,24.80592918,-4.907793045,-0.844962955
7.824687,29.25080109,-2.615334749,175.0875397,-4.40380764,-1.235991836,9.150533676,24.60863686,-27.01866913,1.59452641
7.83302,29.43241882,-2.683805943,175.0516815,4.053206444,0.26532042,17.22146225,19.74834061,-9.521122932,0.058464512
7.841353,29.58383179,-2.773264647,175.0258942,-6.088385582,-1.779602408,11.07570744,16.20245743,-11.12959385,2.381061554
7.849686,29.71467018,-2.967927694,174.9345703,4.291238308,-0.134897083,16.95285988,13.30461979,-25.96724319,1.824054956
7.858019,29.81113625,-3.008494377,174.9131622,-5.129973412,-1.615504146,10.17746639,9.630171776,-5.764585972,-0.026766878
7.866352,29.88392258,-3.152197838,174.8627625,2.048670053,-2.5517838,12.75129795,6.56000042,-18.21485138,3.12323451
7.874685,29.92640305,-3.263411522,174.779892,-3.196007729,0.39788273,10.91270924,2.733436584,-16.7850132,-2.169807911
7.883018,29.97891998,-3.315034151,174.7648315,0.980491579,-1.118494749,7.604107857,4.350104332,-6.519951344,1.309899449
7.891351,30.02215767,-3.378430128,174.7167511,-3.902168036,-0.36668396,17.2925663,3.049003839,-9.737867355,-1.398563147
7.899684,30.0106144,-3.477657557,174.6895447,0.985639572,-0.527967989,8.112324715,-3.431027174,-12.19270992,2.914708138
7.908017,29.99399376,-3.480779648,174.6700439,-0.807782829,-1.765156031,9.002829552,-3.931093693,-1.764462352,-2.050778151
7.91635,30.00408173,-3.569867134,174.649353,-3.241911411,-0.776291668,12.70459938,-0.793170452,-10.75021839,2.977155685
7.924683,29.95591164,-3.618619442,174.6136475,3.210637808,0.017984804,13.73605824,-7.841286182,-7.47600174,-0.993192017
7.933016,29.92425346,-3.661573172,174.6355743,-5.416015625,-1.427079439,11.22077465,-5.481729031,-3.408588886,4.626225948
7.941349,29.86435699,-3.768698215,174.5381165,3.731821537,0.73355335,17.26025772,-9.727520943,-17.23538971,-3.924281359
7.949682,29.74299812,-3.761036396,174.5869141,-4.619636536,-1.591296554,12.28426552,-16.03120804,3.449379683,4.392137051
7.958015,29.68254089,-3.884442091,174.4848022,3.267973661,-0.111083537,9.607409477,-9.849600792,-19.19772339,-3.491170883
7.966348,29.59085274,-3.905397654,174.516449,-3.568150282,0.079263926,10.40051937,-12.59544373,-0.564665914,4.314680099
7.974681,29.55524063,-4.005959988,174.4139709,1.702718616,-0.960255682,13.23443794,-6.893919468,-16.82735443,-4.928411007
7.983014,29.4397068,-4.083122253,174.4114532,-2.279388666,0.250926942,15.57854176,-15.73472404,-8.458769798,4.07608366
7.991347,29.38518524,-4.199986458,174.3071747,0.985402644,-0.58985734,7.818072319,-9.209446907,-18.6241436,-4.198430538
7.99968,29.28767776,-4.276854038,174.2935638,-2.366595745,-0.379289746,13.51103878,-13.67303467,-9.091364861,2.876312971
8.008013,29.23584366,-4.3640728,174.2074127,-0.05420088,-0.633115292,11.49871731,-8.755921364,-14.4504776,-4.090082169
8.016346,29.10438919,-4.458579063,174.1785278,-2.106852531,-1.31071198,14.91382599,-17.89167786,-11.83898067,2.287492752
8.024679,29.02564049,-4.541903496,174.1018219,-0.11768616,-0.537338495,8.775993347,-11.92363358,-13.4793148,-3.374522448
8.033012,28.90677071,-4.573771,174.0761414,-2.513054132,-0.382500052,12.24119568,-16.35756302,-5.085579395,-1.056766868
8.041345,28.80699158,-4.679420948,173.9912262,0.062025767,-0.339200586,16.55821228,-14.53862,-16.29040527,-2.992563486
8.049678,28.66457367,-4.625041962,174.01297,-3.525627136,-2.145267248,9.146604538,-18.73010445,6.719959736,-1.077565551
8.058011,28.52770996,-4.816469193,173.8953705,4.249334812,-0.726913214,16.25142097,-19.32370758,-27.18818092,-1.568284392
8.066344,28.41627693,-4.664710045,173.9586029,-8.25409317,1.481785655,4.406463146,-14.5962801,19.35921097,-2.257896185
8.074677,28.25718689,-4.861925125,173.8403473,7.634416103,-2.682029963,23.95222282,-22.00469971,-27.83030701,-1.424921393
8.08301,28.09470177,-4.729584217,173.8894501,-9.354459763,-1.015003324,2.013734818,-20.8571701,16.51877022,-2.544878006
8.091343,27.89971161,-4.869354725,173.8067322,7.055403233,-1.616255522,16.75179482,-25.9540062,-19.74482727,-1.072622657
8.099676,27.69221306,-4.832383633,173.8031006,-7.969148636,0.283654332,9.283970833,-26.78861618,3.469027758,-2.674742699
8.108009,27.5184269,-4.788205147,173.8279266,3.191650391,-2.96805501,7.70238781,-22.32496452,5.780328751,-0.041674376
8.116342,27.28877831,-4.876080036,173.7887115,-2.100702524,0.901594162,17.62455559,-29.80628395,-11.77146626,0.471238226
8.124675,27.0757885,-4.733686447,173.8510284,-3.896471262,-1.212281585,8.197511673,-26.64459419,18.30993271,-1.394722223
8.133008,26.83184814,-4.791175365,173.8613586,2.706737518,-0.235104471,15.57486057,-31.02309227,-5.842535019,4.006543636
8.141341,26.60768318,-4.733541965,173.8739014,-4.53321743,0.068542957,6.623374939,-28.47964287,6.556646824,-1.987128258
8.149674,26.38755226,-4.613865852,173.968338,-0.874397814,-0.713347137,10.72912598,-27.34362984,17.63847923,3.479402781
8.158007,26.18093872,-4.636912823,173.9538727,-0.027507976,-0.302304655,15.2213459,-26.63680267,-3.544142246,-0.540665746
8.16634,25.94190979,-4.464328766,174.0661774,-3.26661396,-0.689815879,9.755348206,-29.46742439,24.25326729,2.746656418
8.174673,25.70098877,-4.439312458,174.061264,0.499090016,-1.705672026,16.66208839,-30.65483284,2.146026373,-2.050062656
8.183006,25.43528175,-4.311443329,174.1565094,-1.339266419,0.427036941,6.625300884,-32.86733246,18.50632095,3.436166525
8.191339,25.23531532,-4.286824226,174.1394958,0.15054065,-0.122534722,6.527414322,-25.84392929,1.499009848,-3.316302299
8.199672,24.99987984,-4.160545826,174.234436,-3.303919792,-0.52242744,15.73719311,-29.26539803,18.29036331,3.634011269
8.208005,24.78798294,-4.111755371,174.2238007,1.974486351,-1.102755547,7.358105183,-27.21422195,4.471031666,-3.832762718
8.216338,24.54665375,-4.094024658,174.2542419,-2.47103858,-1.343037486,15.87148762,-30.54955864,3.202486515,2.202147245
8.224671,24.29910088,-4.039940834,174.2528381,1.032239079,-1.093426347,13.00897217,-31.41191483,5.535636902,-3.048480272
8.233004,24.0948925,-4.001736641,174.2612457,-3.916104078,2.215636253,7.613424778,-26.28536797,4.340731144,-1.183352709
8.241337,23.86110878,-4.022425175,174.2459412,4.58833313,-1.459256291,19.42053604,-29.875597,-3.316994905,-0.878312886
8.24967,23.61798096,-4.002717018,174.2193604,-3.076282501,0.170785278,7.128894806,-31.24870682,0.631891012,-4.085371971
8.258003,23.38487053,-4.020878792,174.23909,1.832164168,-0.496321648,12.41168785,-29.49509621,-1.360680461,2.820705891
8.266336,23.13197708,-3.981462479,174.2064667,-5.235482216,-0.30669266,15.21181107,-32.47235107,2.550476074,-5.67555666
8.274669,22.87443352,-3.934424162,174.2966003,-0.636787355,-2.159173965,1.54718554,-31.84434319,9.107138634,7.50898695
8.283002,22.67695236,-3.941310644,174.233139,-1.093942285,0.775752723,13.82741356,-26.07077599,-3.954917431,-6.903988361
8.291335,22.4480629,-3.956428528,174.3271027,-1.465343595,-0.479749143,14.644557,-28.37987709,2.333240986,10.86603928
8.299668,22.23187637,-3.902248383,174.2901154,2.023949385,-0.362171829,11.72579765,-28.09745407,4.078595638,-6.787699699
8.308001,22.02758598,-3.908580542,174.3616638,-5.225306034,1.20640552,15.44882774,-25.61417389,2.218386412,8.005696297
8.316334,21.79434586,-3.779604673,174.3832245,0.86576587,1.46884501,18.66435432,-29.66845703,15.06942081,-3.601621151
8.324667,21.5340538,-3.654972553,174.4815369,-4.013777256,-0.788674533,5.541273594,-32.15625381,17.93968201,5.207572937
8.333,21.41763878,-3.421572924,174.5640411,-2.324869871,-0.060092572,1.360848904,-15.20736504,29.42697906,-1.281891346
8.341333,21.37815475,-3.299904585,174.6609802,-3.10385561,2.505755186,9.446627617,-5.74407053,17.52463722,5.275419712
8.349666,21.36082458,-3.10707283,174.7400665,0.168599918,0.9901281,14.29608917,-3.399036884,24.74727249,0.169886529
