time,Euler_X,Euler_Y,Euler_Z,Acc_X,Acc_Y,Acc_Z,Gyr_X,Gyr_Y,Gyr_Z
0.0,-14.60866165,8.133314133,-149.6660156,1.259232521,-0.322760195,4.309914112,-60.08696365,5.336832523,-6.761488438
0.008332999999765889,-15.08089066,8.067204475,-149.6937408,-2.395198345,-0.790955663,8.0490942,-57.06783295,-7.318340302,-5.535149097
0.016665999999986525,-15.56364822,8.091801643,-149.7356567,-2.027421951,-0.735436082,13.18179512,-58.01666641,3.713037252,-4.46296072
0.024998999999752414,-16.01272392,8.12264061,-149.7735291,-1.679910302,0.485749096,9.661496162,-54.12031555,4.29053688,-3.653368235
0.03333199999997305,-16.48547173,8.098117828,-149.8187866,-0.946074724,0.07479687,9.279769897,-56.75502777,-1.771613479,-6.423069
0.04166499999973894,-16.9599514,8.136296272,-149.8482666,-0.357214838,-1.243945599,4.514166355,-57.31853104,4.894240856,-2.354313612
0.049997999999959575,-17.40734482,8.082994461,-149.8834839,-1.785504818,0.896187603,10.58923244,-53.88254929,-5.324419022,-6.327064991
0.058330999999725464,-17.84627342,8.102244377,-149.9143066,-2.874595642,-0.884502769,13.23394489,-53.037117,2.805341721,-3.102352381
0.0666639999999461,-18.25512505,8.138842583,-149.9621429,-1.06172955,0.786428452,13.14169693,-49.0424118,5.485338211,-4.480271816
0.07499699999971199,-18.66011047,8.122898102,-149.984848,-1.70669508,0.174263686,9.639122009,-49.1109314,-1.473180413,-3.462360859
0.08332999999993262,-19.05875778,8.141564369,-150.005249,0.645172954,0.092045799,4.367978096,-48.28216934,2.452862501,-2.007673264
0.09166299999969851,-19.41602135,8.098056793,-150.0467529,-1.535764813,-0.510201514,6.647154331,-43.06856537,-3.819396496,-6.673287868
0.09999599999991915,-19.7269249,8.055410385,-150.0209656,-1.535671234,0.305819124,14.51869869,-38.53479767,-6.296909332,0.732811451
0.10832899999968504,-20.06703758,8.084778786,-150.0758209,-1.59824419,1.135659575,11.51472378,-40.79931259,5.011855602,-5.214758873
0.11666199999990567,-20.3724575,8.049293518,-150.0719757,-2.430348396,0.283257753,10.86247635,-37.50563812,-4.603472233,-1.483091712
0.12499499999967156,-20.64317322,8.023644447,-150.0834656,-0.41157043,-0.86352545,5.944383144,-33.21152878,-2.931040049,-2.635707378
0.1333279999998922,-20.8806057,7.99234581,-150.0788269,-0.828800321,0.930951476,7.682193756,-29.36044312,-4.156655312,-1.255047321
0.1416609999996581,-21.09594154,7.903494358,-150.0818176,-0.690997124,0.59330219,8.850859642,-26.71343613,-10.35371494,-4.432700157
0.14999399999987872,-21.30273247,7.919660568,-150.0869904,-3.31645155,-0.753003597,9.287941933,-25.51788521,1.581385136,-0.311930329
0.1583269999996446,-21.44675636,7.854282379,-150.0830383,-0.202888489,0.487981826,10.764081,-18.28106499,-8.01026535,-2.692671776
0.16665999999986525,-21.5887394,7.853215694,-150.1023407,-2.749790192,0.660283983,15.07234764,-17.51050758,0.273342371,-2.620925665
0.17499299999963114,-21.72743034,7.890591621,-150.126236,-2.578279018,-0.180739552,10.24011421,-17.19348145,4.676891327,-1.242316246
0.18332599999985177,-21.81920433,7.842480659,-150.1287689,-1.280648232,0.427309245,10.05717182,-11.7592926,-5.699783325,-2.860802889
0.19165899999961766,-21.8824482,7.86313343,-150.1511536,-2.026243448,0.091353342,8.709177971,-8.175731659,2.747754335,-1.800629377
0.1999919999998383,-21.9421463,7.857481956,-150.1720886,-0.102761514,0.347144663,8.588258743,-7.608477592,-0.150637314,-2.999810934
0.2083249999996042,-22.00278091,7.842995167,-150.184967,-1.469686031,-0.409404576,7.988827705,-8.027117729,-1.586007953,-2.315142632
0.21665799999982482,-22.02359962,7.863287926,-150.2016907,-1.394034743,-0.93418473,7.874495983,-3.010722399,2.55224061,-1.369260073
0.2249909999995907,-22.01543617,7.835277081,-150.2158966,-0.814621985,1.2016716,14.17202187,0.246370524,-3.035363674,-3.057494402
0.23332399999981135,-22.02127457,7.899630547,-150.25177,-3.613450766,-0.831063807,13.94750595,-0.899366975,8.307887077,-1.497971654
0.24165699999957724,-22.02178001,7.887296677,-150.2555237,-1.958609581,-0.322601587,7.994509697,-0.979821265,-1.764641404,-1.186246395
0.24998999999979787,-21.99772835,7.897113323,-150.2777252,0.411713362,-0.941925228,5.484635353,2.464768171,1.632510304,-2.446287394
0.25832299999956376,-21.95798874,7.876345634,-150.2937469,-2.081024408,-0.153884009,11.20505619,4.044910431,-2.164249182,-2.897610188
0.2666559999997844,-21.95285606,7.874130726,-150.2902832,0.366847903,-0.592834949,8.310073853,-0.228478953,-0.850956082,-0.156298056
0.27498900000000503,-21.94364929,7.885726929,-150.3240967,-3.299731255,-0.770621836,11.56764793,0.666956306,2.223661661,-3.398547888
0.2833219999997709,-21.90250397,7.87791729,-150.3266602,-1.406116366,-1.039046407,10.57487679,4.191013813,-1.20520103,-1.070956826
0.29165499999999156,-21.84012794,7.915016174,-150.3600922,-1.717270851,0.321837276,13.93067551,7.032989025,5.030878544,-2.198188066
0.29998799999975745,-21.814394,7.880738258,-150.351181,-0.701037824,-0.201787353,11.98672771,2.152940273,-4.661509037,-0.984073281
0.3083209999999781,-21.8209343,7.928079128,-150.3719482,-1.059599996,-1.702735066,6.405292511,-1.460113883,5.60522747,-0.332037359
0.316653999999744,-21.79335976,7.865382195,-150.3763275,-1.197633505,-0.876146913,8.134078026,2.593198061,-7.24186182,-3.71677947
0.3249869999999646,-21.75567436,7.903035164,-150.3842316,-3.565862894,-1.436816812,14.24680519,3.631471157,3.955388546,0.663421512
0.3333199999997305,-21.72338676,7.887372017,-150.3822174,0.211446434,0.592542708,11.04436588,3.052486658,-2.28430295,-0.912840068
0.34165299999995113,-21.73773384,7.896830082,-150.4003296,-1.369920015,-1.40415597,7.303006172,-2.45845437,1.247400403,-1.685724258
0.349985999999717,-21.75861931,7.880969524,-150.3997498,-0.807680011,-1.294471741,5.311517715,-3.304236174,-2.242628336,-1.080997348
0.35831899999993766,-21.7629528,7.849383354,-150.4023895,-1.759338021,-1.073861837,12.38890839,-1.515261412,-4.009934425,-1.795199156
0.36665199999970355,-21.77007675,7.886431217,-150.4121552,-4.078455448,-1.662302971,15.62282562,-1.482603192,4.11014986,0.132054195
0.3749849999999242,-21.78189278,7.859684944,-150.4252319,0.564666092,0.817113996,10.37932968,-2.251491308,-3.017817974,-2.722716331
0.3833179999996901,-21.81851006,7.893274784,-150.4360352,-2.144661665,-1.535058618,8.925024986,-5.004638195,3.768405437,-0.13347578
0.3916509999999107,-21.8678112,7.852602005,-150.4168243,0.509237766,-1.029796839,7.935312271,-7.290631294,-6.006282806,0.248061106
0.3999839999996766,-21.93739128,7.902719498,-150.4547119,-3.35140872,-0.863529146,13.16611385,-8.516094208,6.811120033,-2.373953342
0.40831699999989723,-21.98007774,7.899896145,-150.4457092,-2.540633917,-2.043751001,7.5273633,-6.337422848,-1.34333849,0.815339565
0.4166499999996631,-22.03727722,7.877420425,-150.4532013,1.593937159,-0.969788671,7.207994461,-7.530482769,-2.61636591,-2.273468256
0.42498299999988376,-22.11156273,7.839134693,-150.4516296,-2.709032536,-0.712204218,10.38523483,-10.0090704,-4.961811066,-1.592539668
0.43331599999964965,-22.20752716,7.81520319,-150.4483185,0.115935691,-0.197713241,13.36710072,-12.361022,-3.257029772,-1.156610966
0.4416489999998703,-22.29906464,7.855076313,-150.502655,-5.816707611,-1.304174781,13.86317158,-11.17976952,6.22522068,-4.168230534
0.4499819999996362,-22.39370728,7.822799206,-150.4725647,1.528252363,-1.168719888,5.01609993,-12.63906479,-5.391848564,1.397141576
0.4583149999998568,-22.49890327,7.811446667,-150.5310211,-1.77386713,-2.071130514,6.322142124,-12.76536751,0.724357843,-6.903805256
0.4666479999996227,-22.59410286,7.772505283,-150.499649,-2.089164734,0.10850171,13.36809826,-12.72279739,-6.196007252,1.213128805
0.47498099999984333,-22.70158958,7.836596489,-150.5795746,-1.568097353,-0.661691785,14.64595032,-12.69785023,10.07908916,-5.756545067
0.4833139999996092,-22.81818962,7.813400269,-150.5564117,-1.576487184,-0.739268661,7.399825573,-15.16017342,-4.081193924,1.02304554
0.49164699999982986,-22.952425,7.826485157,-150.5921783,1.037944078,-0.766320825,4.555599213,-16.63550186,2.415435553,-3.246041775
0.49997999999959575,-23.05195618,7.789848804,-150.5861053,-3.774536848,-1.263418913,9.545711517,-12.83124924,-4.778208256,-1.493258834
0.5083129999998164,-23.14765739,7.811236858,-150.6102448,-2.587762833,-1.640547156,14.68415546,-12.20211124,2.807897091,-1.597099066
0.5166459999995823,-23.22913551,7.831411362,-150.6234436,-1.687910438,0.081767276,11.85033894,-10.35207176,2.393509626,-0.925698519
0.5249789999998029,-23.3425827,7.797861576,-150.6386414,0.684122026,-0.999663115,6.646808147,-14.48644066,-3.669111967,-3.205544949
0.5333119999995688,-23.47065353,7.835810661,-150.6696167,-1.197743177,-1.197194338,10.47336292,-15.65281296,5.192122459,-2.008054256
0.5416449999997894,-23.59572792,7.797254562,-150.6869049,-2.30128479,0.298585355,11.77033806,-15.85188389,-4.107038498,-3.687707424
0.5499780000000101,-23.67418098,7.900968075,-150.7225952,-4.074073792,-1.52186811,7.574457169,-9.619836807,12.65352345,0.66326791
0.558310999999776,-23.73685455,7.818473339,-150.7342682,2.122754812,-0.206001803,6.207707405,-8.466170311,-9.210546494,-5.176176548
0.5666439999999966,-23.80373192,7.852225304,-150.7441406,-3.591318607,-1.421590209,9.863348961,-8.652490616,3.730572939,0.119375169
0.5749769999997625,-23.88565636,7.803986549,-150.7447662,1.564157128,0.480266333,12.07828045,-10.95602989,-5.949496269,-2.379742146
0.5833099999999831,-23.98282623,7.855903625,-150.7926178,-4.971405029,-1.59560895,13.16649818,-11.66923332,7.552627563,-3.108159781
0.591642999999749,-24.03490639,7.828372955,-150.7974091,0.017088557,-0.759443402,7.126979351,-7.314554691,-3.478669167,-1.826499701
0.5999759999999696,-24.08295441,7.824265003,-150.8264008,-1.267465472,-1.520751476,9.866740227,-6.082126617,0.505176783,-3.785348892
0.6083089999997355,-24.14859009,7.769907951,-150.823822,0.467038751,0.191672057,10.9888773,-9.070718765,-6.783264637,-2.318984985
0.6166419999999562,-24.24486351,7.783187389,-150.8633881,-3.06679368,-0.764698029,11.5257473,-11.70137882,2.932254076,-4.076147556
0.6249749999997221,-24.28082848,7.766912937,-150.8768616,-2.934930325,-0.517960489,10.82616711,-5.256399632,-1.824168921,-2.206154108
0.6333079999999427,-24.31513023,7.75373745,-150.8968811,-1.832243204,-2.216771364,6.474281788,-4.581618786,-0.911328912,-3.257311344
0.6416409999997086,-24.34144402,7.722237587,-150.9015656,1.140122294,0.806402326,7.648041248,-4.244253635,-3.912395239,-2.022679329
0.6499739999999292,-24.40833092,7.675921917,-150.9195099,-1.633856177,-1.153897882,9.259928703,-8.528234482,-4.632744789,-4.674291134
0.6583069999996951,-24.43302536,7.698438644,-150.9311981,-3.86679101,-0.917182982,15.36882973,-3.945207357,2.330908298,-0.089982808
0.6666399999999157,-24.45256424,7.6833601,-150.9593353,-0.249061793,-1.404088378,11.00442028,-2.68204093,-0.71205014,-4.232367516
0.6749729999996816,-24.45503235,7.689985275,-150.9548798,-1.829019308,-0.248838782,11.25247002,-1.545588493,-0.193746075,0.851967812
0.6833059999999023,-24.4987793,7.659628868,-150.9649048,1.656523824,-0.769067764,2.440760136,-5.876853466,-3.271168709,-3.03170085
0.6916389999996682,-24.50672722,7.631709576,-150.9582825,-3.082433939,-0.964477777,12.69192123,-2.240631104,-4.072996616,-0.628778338
0.6999719999998888,-24.49450684,7.63093853,-150.9726563,-2.956921101,-0.82133317,13.99245358,0.90716666,0.175265402,-2.031772614
0.7083049999996547,-24.48642731,7.69573307,-150.990799,-2.171455383,0.379834861,9.617658615,0.066994041,7.26543951,1.312050819
0.7166379999998753,-24.50518799,7.634388447,-150.9999847,0.556583583,-1.402056694,3.542303324,-2.89317894,-6.695509434,-4.482849121
0.7249709999996412,-24.4877758,7.676267624,-151.0084839,-2.862994671,-1.723991752,8.130624771,1.034213185,4.298619747,1.189845443
0.7333039999998618,-24.44878769,7.620821953,-150.9991608,0.557038009,0.505355716,14.84515095,3.741509438,-6.964228153,-2.184561014
0.7416369999996277,-24.43144035,7.706911564,-151.0411224,-4.07481575,-0.927789927,13.56667328,1.550519586,10.76747036,-0.219309092
0.7499699999998484,-24.4105587,7.682143688,-151.0382996,-0.826642573,-1.034966469,7.361895084,1.671725631,-3.294912338,-1.359962106
0.7583029999996143,-24.37460327,7.719289303,-151.0661621,-0.034136437,-2.281716824,7.546523571,3.552835703,4.730014801,-1.140089631
0.7666359999998349,-24.33742332,7.652640343,-151.045166,-1.455798626,0.062659666,11.69239616,3.336626053,-8.766985893,-1.459729791
0.7749689999996008,-24.32825089,7.728720188,-151.0961456,-2.445223093,-0.489430815,11.34213734,0.706120372,10.11586857,-1.715769529
0.7833019999998214,-24.2820816,7.712934971,-151.1026154,-2.439697981,-1.071761489,10.25377941,4.854243755,-1.859388351,-1.916815519
0.7916349999995873,-24.23368454,7.763286114,-151.1288452,-0.845611274,-2.110772848,5.958168507,5.009902,6.088439941,-0.3196657
0.7999679999998079,-24.18583298,7.712038517,-151.1078033,0.101724982,0.360726535,7.83845377,4.61247015,-7.083309174,-0.677086651
0.8083009999995738,-24.15605354,7.723312378,-151.127533,-2.067891836,-1.569510818,11.88750076,2.66873455,1.500161886,-1.553144932
0.8166339999997945,-24.08435059,7.732993603,-151.1210327,-4.022497654,-0.329547346,13.86699963,7.710410118,0.294653386,0.742543936
0.8249669999995604,-24.01795578,7.78039217,-151.1452179,-0.480080426,-1.005567074,11.04550171,7.127251148,5.665728569,-0.267643154
0.833299999999781,-23.9556675,7.760615349,-151.1424103,-1.344195724,-1.202526331,6.04811573,6.638710499,-2.753658533,-1.095597625
0.8416330000000016,-23.90019226,7.774788857,-151.1525116,-0.467282653,-0.930446923,6.07901907,5.585120201,1.346450686,-0.375632763
0.8499659999997675,-23.77651978,7.809410572,-151.1722717,-2.746607542,-0.297511786,15.97571564,14.37326431,4.300003052,-0.904054642
0.8582989999999882,-23.69208527,7.832798481,-151.1886292,-1.404051304,-1.103968501,10.67429256,9.152621269,2.649242163,-0.597836375
0.866631999999754,-23.59698296,7.838909149,-151.1740875,-1.383781433,-1.760781407,2.749139071,10.38361454,-0.472044826,1.442811608
0.8749649999999747,-23.48636055,7.795590401,-151.1785583,1.957975149,-0.862306476,6.515160084,12.10169029,-5.248817921,-2.526152849
0.8832979999997406,-23.37215042,7.800300598,-151.1777191,-4.799754143,-0.443378568,19.90411186,12.90180016,0.029084967,-0.117902324
0.8916309999999612,-23.28473663,7.825867653,-151.1849365,-1.047303796,-1.576925278,10.13066292,9.351129532,2.460029364,0.478102475
0.8999639999997271,-23.15151024,7.817272663,-151.1726379,-1.646676898,-0.610458195,9.543348312,14.99686909,-1.974832296,0.502205551
0.9082969999999477,-23.02698517,7.765254021,-151.1536102,1.364468098,-1.105087876,6.037695408,13.37743378,-7.311456203,-0.34727785
0.9166299999997136,-22.9263134,7.769277096,-151.1448669,-4.042993069,-1.056151986,15.85748577,11.14850616,-0.411441475,0.709117353
0.9249629999999343,-22.82740402,7.734022141,-151.1388397,-0.613268256,-1.587740421,9.486421585,10.50799656,-4.862068653,-0.94862324
0.9332959999997001,-22.69104385,7.745015621,-151.124054,-4.864323139,-1.68588984,9.674715996,15.33484936,0.08743421,1.693139672
0.9416289999999208,-22.59435844,7.700803757,-151.0970306,3.519104958,-0.316369981,2.560706139,9.896559715,-6.821276188,0.963543534
0.9499619999996867,-22.49531746,7.65078783,-151.0895386,-4.880261421,-1.551532626,14.36176777,10.97645664,-6.335144043,-1.912973762
0.9582949999999073,-22.39388466,7.689279556,-151.0782471,-2.550212383,-2.181949377,12.72173691,10.71570396,3.065550566,3.059326172
0.9666279999996732,-22.28787613,7.698402882,-151.0894012,-1.409374237,-0.266908169,13.3412447,12.11190891,1.067460418,-1.248130441
0.9749609999998938,-22.23195839,7.685493946,-151.0599365,0.609894216,-2.045850992,4.38999033,4.960721493,-3.437916517,2.678877354
0.9832939999996597,-22.19090843,7.684302807,-151.0715485,-3.392943144,-1.686735988,10.58121395,4.320852757,-0.060423981,-1.767407894
0.9916269999998804,-22.11665916,7.714823246,-151.0485229,-1.518118858,-0.51658988,12.32784557,7.25721693,1.670317054,3.973113298
0.9999599999996462,-22.04202461,7.750514507,-151.0620728,-1.817857862,-2.055305243,6.767421722,8.384962082,4.123879433,-0.318436235
1.0082929999998669,-22.00985527,7.723480701,-151.0087433,1.210929513,-0.574022114,3.669646263,1.713272452,-6.067219257,4.700148582
1.0166259999996328,-21.98064995,7.751354694,-151.0410156,-3.724826813,-1.88819778,13.67420292,3.23537302,4.088634014,-2.739647627
1.0249589999998534,-21.92246819,7.812265396,-151.0096588,-3.442005157,-1.306048751,15.23564053,5.185129166,4.712340832,6.21051836
1.0332919999996193,-21.882761,7.869459629,-151.0454559,2.02978611,-0.726297975,5.262963295,4.560473919,7.503727913,-1.820044994
1.04162499999984,-21.85597038,7.8537817,-151.0093384,-2.976355314,-1.647441626,10.29978943,1.331978679,-4.008807182,3.283988237
1.0499579999996058,-21.85460854,7.935958385,-151.0420074,-2.504506826,-1.285029173,13.1357708,-0.089111932,10.14852715,-0.367846042
1.0582909999998265,-21.80062294,7.977387905,-151.0455627,-3.49492836,-0.772029996,7.301282883,5.243579388,4.107050419,1.453262091
1.0666239999995923,-21.76300812,7.997570038,-151.0648346,1.215772152,-1.952906251,3.241460562,4.043040276,2.649600506,-1.66302979
1.074956999999813,-21.72630692,8.018054962,-151.0735321,-2.873918295,-0.122077867,12.13745213,3.252354383,1.994644523,-0.03370833
1.0832899999995789,-21.70742798,8.067581177,-151.1055298,-1.734447956,-2.155786276,14.32092381,2.011268377,6.477033615,-1.768022656
1.0916229999997995,-21.63969994,8.129880905,-151.1104584,-3.50303936,-0.992532432,8.589643478,6.905227184,6.494040966,2.228015661
1.0999559999995654,-21.59134865,8.121325493,-151.1138763,3.667608738,-1.145209193,4.048202038,5.068045139,-1.255532861,-1.189627528
1.108288999999786,-21.55298233,8.145983696,-151.1399384,-5.18926239,-1.694818616,15.59640884,3.740510464,3.227457523,-1.792663455
1.1166220000000067,-21.50421333,8.188997269,-151.1350098,-0.55827868,-0.661551356,7.907603264,4.976960659,4.136993408,2.005453825
1.1249549999997726,-21.40852356,8.232099533,-151.155899,-1.079778671,-1.942997932,6.010074615,10.52582455,5.049551964,-0.40004313
1.1332879999999932,-21.34365654,8.143006325,-151.1123505,0.710015774,0.363384813,6.635435581,6.249605656,-12.29173565,0.486171067
1.141620999999759,-21.26823044,8.194566727,-151.1421814,-4.767508984,-2.100291729,13.97232437,8.246234894,6.390099049,-1.053872228
1.1499539999999797,-21.18191338,8.165188789,-151.1151886,-0.591713667,-1.130605698,13.22045517,9.105618477,-4.896238804,1.278829217
1.1582869999997456,-21.09420204,8.227375984,-151.1430969,-3.300544024,-1.85060823,10.10335159,9.681501389,7.489690781,-0.393178463
1.1666199999999662,-21.03009796,8.140091896,-151.0915985,1.945899487,-0.934354305,3.281116486,6.021512032,-12.42213917,1.508794188
1.1749529999997321,-20.96159744,8.176088333,-151.1244049,-5.078839302,-1.572113872,19.14581871,7.45900631,4.772687435,-2.099931955
1.1832859999999528,-20.85903168,8.149946213,-151.078537,-0.818240166,-1.118157744,4.185417175,10.73629761,-5.324662209,3.534598112
1.1916189999997187,-20.77869987,8.191672325,-151.1070251,-0.995805681,-1.135587096,7.359219074,8.801372528,5.225137711,-1.389316201
1.1999519999999393,-20.72706032,8.083047867,-151.0569916,0.363365024,-1.729430318,4.689840794,4.555761337,-14.74532318,0.505714715
1.2082849999997052,-20.64301682,8.177825928,-151.0929413,-5.755583286,-1.916421652,18.57903099,9.369729042,11.49194527,0.018019618
1.2166179999999258,-20.55662346,8.13323307,-151.0500641,1.200793386,-0.599602163,10.36503029,8.846529961,-7.251646996,2.450603485
1.2249509999996917,-20.50907326,8.168337822,-151.0720215,-2.148534536,-2.503352404,7.234054565,4.749173641,4.213733673,-0.992321074
1.2332839999999123,-20.47536469,8.118487358,-151.0188751,-0.922947466,-2.124566317,6.560354233,2.350247383,-8.264126778,3.386625051
1.2416169999996782,-20.41840935,8.214529991,-151.0662384,-3.537189722,-1.043921232,18.41658401,6.310822964,12.110425,-1.256916285
1.2499499999998989,-20.36400032,8.161513329,-151.0132599,0.295256644,-1.059642553,0.817312777,4.831754208,-8.604950905,3.246335745
1.2582829999996648,-20.31970978,8.204366684,-151.0337219,-1.439514399,-1.61416769,8.103132248,4.32894659,5.012820721,-0.498504251
1.2666159999998854,-20.27721596,8.13354969,-151.0007477,-2.600059748,-1.259144902,12.23086452,3.744251251,-9.778646469,0.29068321
1.2749489999996513,-20.22194862,8.258446693,-151.0442047,-4.785935402,-2.654731989,17.06759644,6.035803318,15.19117737,0.342859387
1.283281999999872,-20.16094208,8.173475266,-150.9987183,3.307386398,0.448481828,4.934678555,5.748641491,-11.88457108,1.116614223
1.2916149999996378,-20.13360405,8.216776848,-151.0190887,-4.036685944,-1.932423949,11.46587181,2.284418583,5.063537121,-0.496941745
1.2999479999998584,-20.09482002,8.195695877,-150.9971771,-2.544301033,-1.393839955,10.39606571,3.487954617,-3.720570087,1.138027668
1.3082809999996243,-20.03486443,8.285135269,-151.0254364,-1.484409571,-1.807281971,10.19575119,6.336205959,10.58824635,0.497415692
1.316613999999845,-19.96933556,8.178015709,-150.9599609,0.291657507,-0.810643494,0.060712948,5.947921753,-15.18934917,2.475552559
1.3249469999996109,-19.90981102,8.257013321,-150.9753571,-2.58062005,-0.453406692,15.29124832,6.060316086,8.887179375,1.49603796
1.3332799999998315,-19.85766792,8.22147274,-150.9534454,-3.123345852,-2.53871274,11.91446972,5.088793755,-5.345486164,0.563577235
1.3416129999995974,-19.78202438,8.333913803,-150.964386,-2.519113779,-2.081204176,9.318273544,7.913122654,12.4838295,3.335524797
1.349945999999818,-19.73271751,8.23664093,-150.9250793,2.672081947,-1.593025088,7.864077091,4.44613266,-13.01385212,0.012615013
1.358278999999584,-19.71267319,8.336517334,-150.9560547,-4.777678967,-0.988156259,14.72381687,1.591066718,11.88514709,0.54746592
1.3666119999998045,-19.66026115,8.335936546,-150.942749,-2.668369293,-1.570608735,3.416306257,5.265223503,-1.048621178,1.029653788
1.3749449999995704,-19.58687401,8.387909889,-150.947403,2.240661144,-2.674604893,6.459752083,7.541074276,5.433382034,1.495602489
1.383277999999791,-19.5125351,8.282595634,-150.9125061,-2.696288586,1.239293575,9.305337906,7.520430088,-13.74552345,-0.758309543
1.3916110000000117,-19.44460297,8.406783104,-150.9361115,-2.949409485,-1.489613771,16.47194862,7.208243847,14.34839153,2.279577732
1.3999439999997776,-19.35903168,8.379577637,-150.9368134,-2.680447578,-1.78440547,11.21315193,9.489369392,-3.501158953,-1.598174691
1.4082769999999982,-19.26580811,8.440553665,-150.9168854,-0.267604172,-1.504359484,4.900384903,9.476898193,5.486685276,4.606579781
1.4166099999997641,-19.15030098,8.391558647,-150.9013214,0.00798125,-0.246031672,12.14830399,12.79588604,-6.61082983,-0.623604238
1.4249429999999847,-19.05758286,8.465355873,-150.8903046,-3.41823101,-0.978773236,13.60564232,9.571183205,7.315901279,4.067682266
1.4332759999997506,-18.9380188,8.453052521,-150.8782196,-1.949497104,-1.615967989,0.914359331,13.34382629,-2.313759565,0.440782607
1.4416089999999713,-18.82302475,8.418362617,-150.8377838,1.271188378,-2.316465616,7.559069157,11.72590446,-6.116629124,3.128971577
1.4499419999997372,-18.6954155,8.406240463,-150.8337555,-3.811970472,-0.14916493,14.96075726,14.44979858,-1.983643651,-0.444919288
1.4582749999999578,-18.58683014,8.456752777,-150.8130798,-0.91348511,-1.349382401,11.9235754,11.29753208,4.329920292,4.217448711
1.4666079999997237,-18.44874573,8.437529564,-150.8151245,-1.107240438,-1.726426363,6.289437771,15.81406498,-2.560604334,-1.395566225
1.4749409999999443,-18.28473854,8.381014824,-150.7561493,-0.963273406,-1.732680202,7.261376858,17.29093552,-9.241620064,4.378435135
1.4832739999997102,-18.13627243,8.427467346,-150.7676849,-2.469762802,-0.336785495,19.18871689,17.22633362,5.272960186,0.007722693
1.4916069999999308,-18.00043106,8.388510704,-150.7315369,-2.522741556,-1.471553802,6.373472691,14.3022871,-6.377869129,2.52045393
1.4999399999996967,-17.84911156,8.414762497,-150.7109833,-0.975377202,-1.437660336,1.743716955,17.00613022,1.794879794,2.859253883
1.5082729999999174,-17.65355301,8.294789314,-150.6625214,-0.939004362,-0.881403446,11.89476681,21.27295303,-16.04100037,0.8952564
1.5166059999996833,-17.47940636,8.381339073,-150.6700134,-4.877762794,-2.549838543,16.82575226,20.23554993,9.720312119,1.854842663
1.524938999999904,-17.32148361,8.332521439,-150.6500854,0.783638179,-0.824488819,7.899353981,17.24308586,-6.884135246,0.349365443
1.5332719999996698,-17.21516037,8.321875572,-150.6373444,-1.044166446,-2.570411205,7.11047411,11.74590778,-2.119859934,0.631839275
1.5416049999998904,-17.0489521,8.308991432,-150.6126404,-4.724792957,-1.494634986,11.18392849,18.15072441,-2.939310789,2.237365484
1.5499379999996563,-16.88690948,8.362151146,-150.6201324,2.035069227,-1.712472916,7.274596691,18.78331947,5.911139011,0.578869045
1.558270999999877,-16.73210335,8.262047768,-150.5901947,-1.913544297,-0.680735767,5.051030636,16.69555664,-13.10990906,-0.22271584
1.5666039999996428,-16.59941292,8.28567028,-150.5632477,-1.247837186,-0.315533668,15.29877281,14.6660862,1.348218203,3.445102453
1.5749369999998635,-16.44512558,8.327590942,-150.5854187,-5.650739193,-2.640330791,11.58915043,17.53628922,4.993636608,-1.255507469
1.5832699999996294,-16.28191566,8.292757034,-150.5396729,2.042336702,-1.805570483,2.518644094,17.99822044,-5.990428925,3.601887941
1.59160299999985,-16.11772728,8.265550613,-150.5485229,-2.903073072,-1.246819496,16.11180496,18.49798012,-3.414839983,-2.098293543
1.5999359999996159,-15.94603348,8.307899475,-150.5083008,-2.228546858,-0.168306679,12.19302082,19.11530876,3.114141464,5.560967922
1.6082689999998365,-15.79713345,8.332983017,-150.5094757,0.381580204,-1.598409295,0.512833536,16.53879356,2.389898062,0.415706307
1.6166019999996024,-15.6273756,8.25121212,-150.4573364,-0.893964827,-1.076199293,5.023909092,18.67507744,-11.5732584,2.870319605
1.624934999999823,-15.41576767,8.325300217,-150.4639435,-4.408234119,-2.219687462,17.12899399,24.15386391,8.221750259,1.394221902
1.633267999999589,-15.17308617,8.297024727,-150.4163513,0.841172934,0.723371208,12.63162041,27.50459671,-5.213243008,4.122447491
1.6416009999998096,-14.97042084,8.255051613,-150.3985443,-1.030429482,-1.219290495,6.181159019,22.66723633,-5.939277172,0.411480039
1.6499339999995755,-14.75116158,8.279902458,-150.358429,-3.933932066,-1.819325924,13.03708363,24.82649231,1.209261417,4.936621189
1.658266999999796,-14.50672626,8.251020432,-150.3431702,-0.360777736,-1.809389234,6.95388031,28.27707481,-4.260854244,0.444061518
1.666599999999562,-14.22726059,8.199114799,-150.2793121,-0.292920262,-1.534336329,-0.302715153,31.09016418,-8.453550339,5.523087978
1.6749329999997826,-13.94211292,8.116930962,-150.2532349,-0.497580379,0.717702985,16.74639893,32.42859268,-10.85032845,0.314350992
1.6832660000000033,-13.65500259,8.143762589,-150.2245331,-4.633681297,-1.482507348,14.48150444,33.17399216,1.862963557,3.644922495
1.6915989999997691,-13.34543514,8.023991585,-150.1822357,1.478350997,-1.194677472,1.420965075,35.08630753,-15.67403316,1.220455647
1.6999319999999898,-13.0091629,7.9380126,-150.1406555,-1.661778569,-2.334557533,12.81979847,38.86787415,-11.62280846,2.028150797
1.7082649999997557,-12.65311813,7.887125015,-150.1156921,-2.337426424,1.044314861,14.78080845,40.96683884,-7.137852192,1.240332723
1.7165979999999763,-12.32991695,7.762429714,-150.0573578,1.036569357,-1.957387686,-0.591730595,37.03896713,-16.56003761,3.102541685
1.7249309999997422,-11.95135975,7.580461502,-150.0222473,-1.338062167,-1.42739737,10.21908855,43.52314758,-22.73701096,-0.850266278
1.7332639999999628,-11.55902576,7.467686653,-149.9870453,-3.401946068,-1.46804738,16.21913147,45.73690414,-14.55331993,0.909166276
1.7415969999997287,-11.16212463,7.295529842,-149.9465942,1.844158769,-0.149452657,7.337756634,45.67219162,-21.69820023,0.237098709
1.7499299999999494,-10.80600739,7.048176289,-149.890213,-2.868782282,-2.84535265,15.50629234,41.09892273,-30.86915016,0.500644267
1.7582629999997152,-10.44166946,6.961591721,-149.8500671,-2.679201365,-1.257381916,9.356707573,41.7991333,-11.5909977,2.393897533
1.7665959999999359,-10.07516479,6.594839096,-149.8034058,4.13560009,-2.331506491,-3.781568766,42.52810669,-44.74718857,-2.798953533
1.7749289999997018,-9.675757408,6.402578354,-149.7652435,-6.258136272,-1.778559566,22.28293419,46.07620621,-24.00978851,0.179569006
1.7832619999999224,-9.319987297,6.149659157,-149.7229462,1.99364686,0.156745166,9.226468086,41.34574127,-31.21752739,-0.464054197
1.7915949999996883,-8.987923622,5.843026161,-149.6761627,-2.713485479,-2.570661783,7.321808338,37.93309402,-37.70631409,-0.748500943
1.799927999999909,-8.679284096,5.636435032,-149.644989,-2.417394876,-2.449313879,17.81786919,35.86945343,-25.51896858,-0.561618686
1.8082609999996748,-8.378424644,5.345191956,-149.6060791,-0.061336368,-2.46339345,0.225007877,34.32139587,-35.75604248,-0.903364897
1.8165939999998955,-8.078781128,5.013524055,-149.5641937,-2.620041609,-1.758607268,10.18042183,34.7116394,-40.55911255,-1.174671769
1.8249269999996613,-7.803883076,4.829451561,-149.5577393,-0.575673342,-1.76383698,14.64618397,31.59462166,-22.48620224,-2.618520975
1.833259999999882,-7.561257839,4.475422859,-149.5249939,-0.896879256,-2.858753204,3.351274252,28.00309372,-43.07662964,-2.232285738
1.8415929999996479,-7.335760593,4.263499737,-149.493927,-3.316414833,-0.451132953,25.49997711,25.45623779,-26.19225121,0.011513613
1.8499259999998685,-7.156155109,4.027134418,-149.4759521,-0.339001954,-3.265345573,-2.383928061,20.60343552,-28.85920906,-1.877397656
1.8582589999996344,-6.945806503,3.697754383,-149.431015,-0.809459329,-0.472394139,11.8244257,23.56492424,-40.37794495,0.068582244
1.866591999999855,-6.752855301,3.580684185,-149.4402771,-3.956174135,-2.24634409,13.63999176,22.43069458,-14.26690674,-3.208031178
1.874924999999621,-6.598239899,3.216938734,-149.3834229,3.011041403,-1.781096339,0.417548686,16.83505249,-44.64239502,1.296864033
1.8832579999998416,-6.420693874,3.071400881,-149.4055481,-7.053296566,-1.281145811,24.74570274,20.65731621,-17.50108719,-5.049183369
1.8915909999996074,-6.277514458,2.800196171,-149.3349915,3.073003054,-1.285303354,-4.350516319,15.43086433,-33.79223633,4.527359486
1.899923999999828,-6.114955425,2.530709982,-149.3468475,-4.266839027,-1.506916165,15.18546486,18.77780533,-32.44651413,-5.334990501
1.908256999999594,-5.928945541,2.422687769,-149.3023376,-2.369846582,-2.093970537,5.801951408,20.77680779,-13.96419811,3.697967768
1.9165899999998146,-5.758910656,2.033882618,-149.2904358,3.490903139,0.311265081,9.936153412,19.55340004,-47.01062775,-3.762662411
1.9249229999995805,-5.605926514,2.002520084,-149.2700348,-8.986735344,-3.177764654,18.52826691,16.9594574,-4.50216341,1.863807082
1.9332559999998011,-5.431214809,1.665642142,-149.2626495,6.617619991,0.552880764,-5.271659374,20.14300919,-40.77379227,-3.440689802
1.941588999999567,-5.232492447,1.520335674,-149.2411957,-10.90239716,-2.165894747,24.65731239,22.46837616,-18.11416817,0.712934375
1.9499219999997877,-5.055171967,1.378429174,-149.2246704,7.697998524,0.16630663,-0.374818683,20.43447304,-17.58825493,0.014792231
1.9582550000000083,-4.855823994,1.124450922,-149.2459717,-7.744702816,-2.342407465,10.60230446,22.67284012,-30.65387535,-5.441674709
1.9665879999997742,-4.631109715,1.075544596,-149.1828156,1.802652836,0.571149409,17.23397446,26.02626801,-6.925273895,6.632567406
1.9749209999999948,-4.41686964,0.807233095,-149.2208099,-2.862241268,-1.770852923,-2.574001312,24.48305511,-32.25016022,-7.390151978
1.9832539999997607,-4.18321991,0.735115111,-149.1272125,-0.645724297,-0.046457417,17.24599838,27.09195328,-9.921886444,10.11825848
1.9915869999999813,-3.903885126,0.643408298,-149.1790314,-2.867720842,-1.684498549,2.470355988,32.29587936,-11.06018639,-7.180855274
1.9999199999997472,-3.58747673,0.424203426,-149.0668945,0.383831531,0.299970806,10.5876646,37.05082321,-27.57844353,11.27414131
2.008252999999968,-3.281774998,0.39809522,-149.1249237,-5.77572298,0.143817678,21.207201,35.4392128,-3.225014925,-7.426599026
2.0165859999997338,-2.974536419,0.29793939,-149.0045624,1.917591333,-2.193417788,-4.978498459,35.98690796,-13.23983765,13.3352375
2.0249189999999544,-2.580159187,0.177092299,-149.0651855,-1.570319653,1.654269934,9.733398438,46.06413651,-14.64722347,-8.278922081
2.0332519999997203,-2.117340565,0.166163698,-148.9608459,-6.234779835,-1.158605337,15.63063622,54.70925522,-2.274550676,12.02354717
2.041584999999941,-1.640007496,0.072596207,-149.0115814,4.81277132,1.888741374,5.303608894,56.00134659,-11.54106426,-6.852647305
2.049917999999707,-1.17407465,0.059321169,-148.9345703,-6.545290947,-1.370261669,13.71072865,55.10896683,-2.270887375,8.76912117
2.0582509999999274,-0.654665768,0.105618767,-148.9536896,3.248155594,0.77326107,8.763043404,61.04191971,5.07410717,-2.629899025
2.0665839999996933,-0.057542369,0.033983193,-148.9004822,-6.328760147,-1.665443182,1.186530232,70.85631561,-9.08758831,5.897589207
2.074916999999914,0.577494025,0.070930384,-148.8768921,3.052890539,2.240498781,12.84636116,74.91442871,3.925567627,2.317677259
2.08324999999968,1.236585498,0.132769674,-148.8694305,-6.995937824,-1.273402095,13.7319746,78.29904938,6.983335972,0.345550656
2.0915829999999005,1.936423302,0.114548013,-148.7992096,4.557060242,1.319945455,3.050596714,82.67674255,-2.483571529,7.854613304
2.0999159999996664,2.675218105,0.172784522,-148.8333588,-6.381247997,-1.295729637,12.80742455,87.87590027,6.366167068,-4.806620598
2.108248999999887,3.47267437,0.25594002,-148.7342987,0.764245749,-0.32488668,6.776136875,94.36889648,10.05818939,10.59455585
2.116581999999653,4.305157185,0.195396289,-148.7793274,-0.472883344,1.499814272,5.902203083,99.12922668,-8.065249443,-5.32890892
2.1249149999998735,5.163913727,0.288778722,-148.6928558,-5.143258095,-0.592095017,17.73521996,101.7265472,11.47296524,8.672919273
2.1332479999996394,6.018053532,0.360066652,-148.707901,2.671336651,0.069505997,8.344021797,101.7179489,7.886631489,-3.063311338
2.14158099999986,6.898741722,0.375248194,-148.6612244,-3.238874674,-1.205678582,9.58435154,104.3724136,1.870254159,4.564923286
2.149913999999626,7.809778214,0.462626338,-148.646637,0.192312926,0.419222832,16.29722404,108.5228958,10.1729126,-0.038882811
2.1582469999998466,8.728642464,0.49877575,-148.5937347,-2.538106203,-2.664505959,2.750782728,108.9413681,4.620434284,4.851912498
2.1665799999996125,9.641109467,0.523612201,-148.5762482,2.469842672,1.449109077,13.21990204,108.6896973,2.825906754,1.161297321
2.174912999999833,10.56773281,0.595192969,-148.5259857,-4.960717678,-1.605953455,13.43750286,109.8733826,8.921032906,3.638451099
2.183245999999599,11.47281551,0.532958806,-148.4886627,4.285108566,-0.303469062,6.306202412,107.7769699,-6.926390648,5.39032793
2.1915789999998196,12.38145256,0.638690829,-148.4554138,-7.86787653,-2.865362167,20.97154808,107.7405243,12.63905239,0.519807875
2.1999119999995855,13.24130344,0.597454727,-148.3836517,6.429802895,-0.760999978,3.09965086,102.2988358,-3.366023779,9.063234329
2.208244999999806,14.10765553,0.579192817,-148.4064941,-7.394685745,-0.804578424,18.25020409,102.7413406,-3.305188894,-2.564520836
2.216577999999572,14.9750824,0.624171257,-148.3038025,3.996935844,-0.398967087,1.832764626,103.1726532,7.867627621,10.13991261
2.2249109999997927,15.81852341,0.563908696,-148.3406525,-7.433410645,-3.067352295,18.99106407,100.0146942,-8.676181793,-2.757473707
2.2332440000000133,16.60086441,0.652339399,-148.2171478,4.804843426,-1.322183967,5.484213829,92.93464661,13.8764534,10.83484173
2.241576999999779,17.37918472,0.563550949,-148.2936707,-5.911688805,-1.808710814,11.57765865,92.26663208,-13.40441608,-6.08096838
2.24991,18.11406517,0.677073598,-148.1508636,2.913823366,-1.155290842,9.758747101,87.20813751,17.74775696,11.73454094
2.2582429999997657,18.84468651,0.575772822,-148.2462616,-4.660596848,-1.265639186,12.80396557,86.58065033,-15.69251537,-7.414961815
2.2665759999999864,19.48221016,0.700965226,-148.1079102,2.177964926,-2.557968855,17.43852043,75.52638245,19.1901989,10.31799507
2.2749089999997523,20.08170319,0.620494246,-148.2103424,-2.049360991,-2.099446535,8.84753418,70.87507629,-13.78042126,-8.703501701
2.283241999999973,20.64608383,0.705819309,-148.124176,-0.24506712,-2.335166216,15.21459007,66.81414795,12.74637413,5.696232319
2.291574999999739,21.1465416,0.705706596,-148.194046,-4.910434723,-1.994998336,17.77182007,58.96715546,-3.538745403,-8.232234955
2.2999079999999594,21.56804466,0.814270556,-148.0797882,0.272494555,-2.628285646,-1.612593412,49.60494614,16.67522812,7.589862347
2.3082409999997253,22.0183754,0.905018091,-148.1058502,-1.003883123,0.909270525,10.1479187,52.90588379,8.411363602,-7.349766731
2.316573999999946,22.44562149,0.945425212,-148.0177765,0.074185967,-1.528800845,7.507773399,50.3049202,8.035779953,7.51458025
2.324906999999712,22.84348679,1.043750763,-148.0042725,-0.804902911,-1.756527185,21.3781414,46.54411316,10.9738369,-3.45039773
2.3332399999999325,23.16043472,1.101916552,-147.9266663,-1.149852157,-2.24361825,13.85669708,37.06488419,9.611997604,5.409208298
2.3415729999996984,23.47013283,1.236412764,-147.8685303,0.18240425,-0.659113169,11.1267662,35.86834717,17.04252052,-0.383957952
2.349905999999919,23.78220367,1.247899532,-147.8144226,-2.707801104,-1.014104128,10.68586826,36.51368332,3.413266659,4.960624695
2.358238999999685,24.04381752,1.414606214,-147.7322693,0.626187861,-1.608281136,4.957936287,30.02287292,21.74301147,0.499670237
2.3665719999999055,24.35875511,1.425886512,-147.6929779,-0.448193163,0.105385587,5.991651058,36.88055801,2.714612722,3.312065125
2.3749049999996714,24.65563011,1.461618304,-147.6817017,-0.852529168,-0.353085458,13.73766422,34.45593643,3.923273087,-0.949597716
2.383237999999892,24.88906288,1.538306832,-147.6264648,0.13953793,-2.472337246,14.67353725,27.0426178,10.68212986,1.727668643
2.391570999999658,25.14460182,1.480051398,-147.6413574,-0.718287528,0.792204022,5.508839607,29.59346771,-7.629590511,0.935240507
2.3999039999998786,25.42735291,1.51625967,-147.635788,0.954777777,-0.986208797,12.52408028,33.11743164,3.763157606,-1.682882547
2.4082369999996445,25.7033844,1.473096371,-147.6396484,-2.516837597,-0.859347701,14.86191845,32.02713394,-5.410755157,1.415584683
2.416569999999865,25.93431473,1.395640016,-147.6839294,5.244795322,-0.289828032,3.495314121,27.04802322,-11.13164806,-1.16637063
2.424902999999631,26.2346077,1.341666102,-147.7077484,-8.110245705,-1.096820116,17.33744812,35.00562286,-7.608180046,-0.118184231
2.4332359999998516,26.50462532,1.227114201,-147.7676849,7.328305721,0.43756786,8.245983124,31.76823044,-15.9609642,-0.770374537
2.4415689999996175,26.73881531,1.164112568,-147.8005981,-6.461020947,-2.0398283,16.63414001,27.10035133,-9.062245369,-0.540563285
2.449901999999838,26.99556351,0.972155035,-147.9090576,6.414157391,0.382136047,5.048924446,30.25684738,-26.88099861,-1.631987572
2.458234999999604,27.26618195,0.906549037,-147.9391632,-8.696332932,-0.770257056,15.58464527,31.46226311,-9.186374664,-0.019594908
2.4665679999998247,27.50717545,0.68891114,-148.0640411,7.795935631,-0.773725152,8.795773506,28.33017159,-30.53214073,-1.723302841
2.4749009999995906,27.72078514,0.644546151,-148.1161957,-8.091888428,-2.182677746,12.64050484,24.64878273,-8.152042389,-3.470500231
2.483233999999811,27.97716141,0.341999412,-148.2693787,7.477185249,1.751802444,11.28329945,30.12795448,-41.13829422,0.273624688
2.491566999999577,28.18486023,0.318714082,-148.316925,-9.710521698,-2.691070795,13.87537766,23.91255379,-5.683904648,-4.107449532
2.4998999999997977,28.40424156,0.044186641,-148.473114,7.266284943,0.156123802,9.210934639,25.58886147,-38.34220123,-1.320902944
2.5082329999995636,28.57064819,0.019649176,-148.5124359,-8.537044525,-3.248494864,15.80147648,18.94128227,-5.373739719,-3.130982399
2.5165659999997843,28.71463203,-0.278561383,-148.6682281,7.398961544,0.895820975,9.214557648,16.43945694,-40.81844711,0.313147306
2.524899000000005,28.85674667,-0.217112601,-148.6755066,-10.05023003,-1.799376249,12.33041859,16.0370121,5.506562233,-4.701646805
2.533231999999771,29.02885818,-0.515258074,-148.8151703,6.392370701,-0.550258636,8.503097534,19.7506218,-39.87126541,2.216186047
2.5415649999999914,29.12725258,-0.453765005,-148.8259277,-7.624849319,-1.674228907,21.23342514,10.79754257,5.282258034,-5.097284794
2.5498979999997573,29.21745872,-0.680084229,-148.9413452,2.997140646,0.195036471,0.022442481,9.889140129,-30.91561508,0.713344216
2.558230999999978,29.31809807,-0.584561586,-148.9100189,-6.732040405,-1.811299562,17.39307785,11.13155079,11.29389477,-2.704043865
2.566563999999744,29.4005127,-0.736508131,-149.0040894,2.141553164,-0.48942253,4.440403461,8.960260391,-21.87533569,-1.328841448
2.5748969999999645,29.4329319,-0.633612931,-148.9745483,-4.530389786,-1.517430902,24.66230774,2.962683678,11.9474926,-3.35436368
2.5832299999997304,29.43841934,-0.666235149,-148.9875183,1.41115582,-1.763283968,-5.872125149,-0.158526525,-4.624061108,0.136357397
2.591562999999951,29.4805584,-0.611317039,-148.990509,-2.140977859,-0.412233561,22.35209084,4.093961716,5.010951519,-3.929556847
2.599895999999717,29.50398636,-0.551709831,-148.9329681,-1.057604551,1.284677625,5.500671864,2.083346844,9.173291206,2.054838419
2.6082289999999375,29.49434471,-0.556353271,-148.9575806,1.16212666,-2.077963591,18.57357788,-2.129747152,-2.492521524,-2.668721914
2.6165619999997034,29.47747803,-0.417379886,-148.8705902,-4.881702423,-1.330114484,9.223945618,-2.732604265,19.20326614,0.445444465
2.624894999999924,29.49154472,-0.490612507,-148.9046783,3.613885641,1.550868034,11.78790474,0.729659975,-10.22228432,0.391603291
2.63322799999969,29.45610619,-0.32866326,-148.8121643,-6.779332161,-2.235672235,12.38977528,-4.971903801,21.93039322,-0.329296738
2.6415609999999106,29.44598389,-0.364332825,-148.8517303,6.789499283,-1.23882103,4.780883312,-2.156206131,-6.621740341,-2.401103973
2.6498939999996765,29.40297508,-0.216740772,-148.7679291,-8.471739769,-1.531693101,18.84131622,-5.908079147,19.91514015,-0.375812203
2.658226999999897,29.34635162,-0.301503032,-148.817337,8.958259583,1.325827837,6.27002573,-7.71803093,-12.33366585,-0.545736909
2.666559999999663,29.28550529,-0.112123616,-148.7305603,-12.1118803,-1.212421775,18.16509438,-8.063723564,24.46326256,-2.481098652
2.6748929999998836,29.25233841,-0.179786682,-148.7490845,10.16927147,0.239610881,1.81335628,-4.869036198,-8.735940933,1.661582828
2.6832259999996495,29.19157982,-0.04849093,-148.7166748,-11.32715416,-1.362574697,24.63201904,-8.080729485,15.19755745,-4.730745316
2.69155899999987,29.13403511,-0.104358517,-148.7332001,9.021471977,0.738302231,-1.630858421,-7.777840614,-7.386557579,1.167202353
2.699891999999636,29.09599876,-0.011248468,-148.7227325,-10.21150589,-1.237584949,16.07830811,-5.359599113,9.920636177,-4.772315979
2.7082249999998567,29.09432411,-0.03463845,-148.7362976,9.261226654,0.8417418,4.182379246,-1.062427044,-3.810168028,-0.424043596
2.7165579999996226,29.06148148,-0.024059344,-148.7879486,-8.984983444,-1.854750156,18.99547958,-4.74227047,-2.355075121,-6.468105793
2.724890999999843,29.01216125,-0.019410545,-148.7579346,6.963964939,-0.381248653,7.635887146,-6.763977051,1.668319225,2.510080099
2.733223999999609,28.99084091,-0.05279481,-148.8669281,-6.750185013,-0.742169321,7.802366257,-3.362201691,-10.29735851,-9.929742813
2.7415569999998297,28.98545456,-0.10515637,-148.8546753,3.321708202,0.425245106,17.32117081,-1.483397126,-5.349763393,3.960613728
2.7498899999995956,28.95401955,-0.117993735,-148.9660797,-3.972573519,-1.96438241,4.486530781,-4.596373081,-8.274091721,-11.38127899
2.7582229999998162,28.92604637,-0.209920779,-148.9780579,1.898127675,0.606715202,17.6147213,-4.180986404,-10.91742706,3.71064496
2.766555999999582,28.89796448,-0.187410906,-149.0611115,-4.959080696,-1.605157614,12.42991066,-4.203680515,-2.905550957,-10.46367168
2.7748889999998028,28.80578041,-0.367109835,-149.0974884,4.690251827,-0.557862759,7.4281497,-11.88954544,-21.56381798,6.21520853
2.7832219999995687,28.76547813,-0.290725231,-149.1572418,-7.310575962,-0.950089574,10.8285408,-5.675782204,4.12872076,-11.13258839
2.7915549999997893,28.72119522,-0.449530125,-149.1580048,4.311285496,0.428938597,13.01176834,-6.107946873,-17.32462883,8.718870163
2.79988800000001,28.61639404,-0.461960584,-149.2748718,-3.759325981,-2.98013401,12.73320866,-13.48666859,-8.489609718,-12.02263546
2.808220999999776,28.52167702,-0.530869961,-149.2267609,0.680683851,0.363342822,12.53381252,-12.09535122,-5.072592258,8.659828186
2.8165539999999964,28.41420174,-0.528093815,-149.3227386,-3.8285954,-1.197850823,15.39703846,-13.80205345,-5.648580551,-10.71666718
2.8248869999997623,28.24493217,-0.662573814,-149.3065948,4.908865452,-0.556427062,3.412980795,-21.0545826,-13.86325264,8.996685028
2.833219999999983,28.11922264,-0.622937977,-149.3967896,-5.651680946,0.060271803,10.5392065,-16.00431824,-1.370105982,-12.21904564
2.841552999999749,28.00588799,-0.674865305,-149.3097992,-1.206189632,-0.313321412,19.13159943,-14.23778057,-1.165115118,11.77567482
2.8498859999999695,27.83864975,-0.639859855,-149.4048615,-0.759211659,-1.639836192,8.81555748,-20.99766541,-2.081311464,-12.47941494
2.8582189999997354,27.66461754,-0.636280179,-149.3132782,-0.408346713,-1.832909107,5.969735146,-21.49878311,4.916360855,9.160001755
2.866551999999956,27.49962807,-0.601459622,-149.390564,-1.670924306,1.543322206,17.87983513,-20.69966507,-1.041962028,-10.58831501
2.874884999999722,27.28904343,-0.554833055,-149.2792053,-4.207060337,-2.699453831,16.083498,-25.86058807,10.53482342,8.923532486
2.8832179999999425,27.09320831,-0.443763107,-149.2932281,0.4014377,0.595838487,3.306646585,-24.31317711,10.63471699,-8.021461487
2.8915509999997084,26.88061333,-0.420833528,-149.1859436,-1.712745547,-2.338053226,7.126191616,-26.12814713,7.707392216,9.861063957
2.899883999999929,26.65189362,-0.37720421,-149.2304382,1.672516584,0.395359367,11.01485538,-28.28430748,1.818163753,-7.559150696
2.908216999999695,26.40451813,-0.263799906,-149.091156,-5.762185097,-1.594260931,16.7054348,-30.29562569,19.05456734,8.510864258
2.9165499999999156,26.17284393,-0.150278851,-149.061615,0.473641753,1.129156232,16.78802872,-28.58663559,13.33161736,-3.288229942
2.9248829999996815,25.89019966,-0.057569109,-148.9563293,-3.514257908,-2.503838301,12.89596653,-34.58123398,14.94816589,6.106223583
2.933215999999902,25.59963036,0.063332513,-148.9167175,3.351527691,0.65314275,1.744786382,-35.66868973,14.68118954,-2.453360319
2.941548999999668,25.32659149,0.127671286,-148.8293152,-4.229777813,-3.474005222,7.2103405,-33.46029663,10.88566494,5.783816338
2.9498819999998886,25.05107689,0.205515265,-148.7872925,3.549166441,1.745687723,15.01384544,-33.87670898,10.14807606,0.153339773
2.9582149999996545,24.75422859,0.30706501,-148.7000275,-6.22914505,-3.275283813,9.821443558,-36.33627319,14.86827564,4.003599644
2.966547999999875,24.47987556,0.389586776,-148.6172638,1.937097788,1.583766103,13.57219887,-33.78216553,12.68793583,4.471596718
2.974880999999641,24.1852684,0.486933053,-148.5672913,-6.014170647,-2.129124165,15.74176025,-36.05371857,12.51493835,0.285227656
2.9832139999998617,23.85605812,0.590929866,-148.4452057,2.875611305,0.936148643,8.30799675,-40.44412613,16.91109657,7.868309021
2.9915469999996276,23.54639244,0.731201053,-148.3924408,-6.04095459,-2.952612162,11.99164772,-37.87631607,17.35570908,-1.333837628
2.9998799999998482,23.23548698,0.784375608,-148.279068,3.672893286,1.789927363,10.02476501,-38.28972244,10.8066473,9.520581245
3.008212999999614,22.91345787,0.922973514,-148.2544708,-4.226552963,-1.856035829,10.27685738,-39.32373047,15.85402012,-4.170798302
3.0165459999998347,22.60640335,1.025552273,-148.1057129,1.404404521,0.537613809,8.956770897,-37.95092773,17.80492973,11.26245689
3.0248789999996006,22.32085991,1.129849315,-148.1278229,-2.9904778,-0.440731883,10.30891991,-34.84510422,9.950000763,-7.598112583
3.0332119999998213,22.02645493,1.251752615,-147.9566345,-0.386717439,0.077581197,10.47266388,-36.55615997,20.84465408,13.0646019
3.041544999999587,21.7509079,1.401844859,-147.9893951,-2.778567791,-0.391557723,9.670207977,-33.59764099,14.64315033,-10.72976494
3.049877999999808,21.51890373,1.50462532,-147.8409119,-1.736705303,-0.350995868,11.15423965,-29.09272575,17.58187103,11.57875919
3.0582109999995737,21.28139687,1.645172119,-147.8624725,0.157278821,0.699840546,13.927495,-29.04782486,14.15176392,-8.931154251
3.0665439999997943,21.06299591,1.79575789,-147.7096252,-4.614064693,-0.526345491,12.45727062,-27.5595417,23.02078247,10.13603973
3.07487699999956,20.88295555,1.942273974,-147.722702,2.588724136,1.101962447,10.02480412,-22.16657257,15.24948311,-8.124584198
3.083209999999781,20.70368767,2.117705822,-147.5737762,-4.973056316,0.374419928,13.3559494,-22.94400406,25.56868553,8.789830208
3.0915430000000015,20.51208305,2.377792597,-147.510437,1.750624299,0.658723831,7.747237682,-23.90170097,31.28164482,-4.243798256
3.0998759999997674,20.39403343,2.560027599,-147.40802,-4.724526405,-2.44107604,8.103936195,-15.49298668,24.32855988,3.428071022
3.108208999999988,20.29618645,2.802265882,-147.3118896,0.965766668,1.382778406,8.24107933,-12.88999081,30.66007423,0.332460254
3.116541999999754,20.22857285,3.034365892,-147.2085571,-3.339494944,0.055638596,9.41560173,-9.542413712,29.96436882,1.536484241
3.1248749999999745,20.19770813,3.268573999,-147.1255341,1.253998995,0.956262648,13.63016796,-4.860996723,29.2117157,-0.742531717
3.1332079999997404,20.13865471,3.557389021,-146.9968262,-2.208386421,0.663587749,10.39633179,-8.804878235,37.39797211,2.091366291
3.141540999999961,20.11112404,3.852467537,-146.8843689,-1.085955977,-0.200197875,7.652114868,-4.783054829,37.28572464,0.092172928
3.149873999999727,20.13710213,4.113656521,-146.776062,-2.288241625,-1.732342362,8.364008904,1.415994763,33.43899536,0.956731081
3.1582069999999476,20.20542717,4.429680824,-146.6536865,0.178958461,1.250177383,11.74246407,6.497073174,40.05563736,0.300519437
3.1665399999997135,20.30316162,4.688910484,-146.5433197,-3.340231895,0.270391643,12.12332535,9.877437592,33.30242538,1.186977863
3.174872999999934,20.37812996,5.035198689,-146.4117126,1.551101685,0.870463252,12.99064732,7.048192024,43.84635544,-0.058323719
3.1832059999997,20.45464325,5.345351696,-146.3231506,-4.253827572,-0.338639289,10.66832161,7.424052238,38.12034225,-3.498601437
3.1915389999999206,20.55014801,5.62633419,-146.1976776,0.675822794,-2.032912493,7.487730026,9.411999702,36.25021362,1.864833713
3.1998719999996865,20.67234039,5.903032303,-146.1208649,-1.877521515,-0.374020487,12.47979164,12.93959618,33.85535431,-3.537330151
3.208204999999907,20.79504395,6.141448975,-146.0210114,0.890800595,0.756591916,10.71611786,12.85870361,30.39937592,0.64912945
3.216537999999673,20.89887619,6.426923752,-145.9477692,-2.242494822,-1.383005738,15.0337677,10.70131969,34.67089081,-4.459673882
3.2248709999998937,20.96431732,6.656394482,-145.8630676,0.747833788,-0.862708926,8.611180305,6.088444233,28.75810814,-0.770015657
3.2332039999996596,21.05351257,6.8455863,-145.8117676,-2.339733124,-0.912457764,10.17390156,9.183489799,22.933218,-2.866951704
3.24153699999988,21.14959908,7.028805733,-145.7577209,2.200918913,-0.706317902,10.69231892,10.13785076,22.26586342,-2.274110079
3.249869999999646,21.21187782,7.164608002,-145.7483215,-2.815647602,0.111856356,17.8143959,6.536612988,15.14886475,-5.275509357
3.2582029999998667,21.21956825,7.331368923,-145.6838226,1.279729128,-2.420515537,5.523053646,-0.66225642,20.87787819,-0.452398866
3.2665359999996326,21.21251488,7.336223602,-145.7326202,-0.929409921,-1.36635685,8.624893188,-0.895089388,-2.01076889,-6.058842182
3.2748689999998533,21.21999359,7.457080364,-145.6958008,0.172352165,-0.707435369,12.01984501,-0.282525033,14.55709553,-1.531705856
3.283201999999619,21.13996506,7.419428825,-145.7653656,0.734988272,-0.847382307,12.96836376,-9.320713997,-7.656429768,-6.520207405
3.29153499999984,21.04464149,7.522254944,-145.755661,-2.781593323,-1.69326663,15.13069534,-12.20096016,11.38725948,-3.734787226
3.2998679999996057,20.93151283,7.411407471,-145.8355713,1.130974054,-0.084016904,5.845978737,-13.1257143,-16.27721405,-4.545939445
3.3082009999998263,20.84031487,7.474634647,-145.8346863,-3.034982204,-1.12622726,18.3568306,-11.56877518,6.591888905,-2.98016572
3.316533999999592,20.68165207,7.370419502,-145.9276123,1.451673388,-0.600311339,8.105257988,-18.39756203,-16.06661415,-6.339142323
3.324866999999813,20.52890396,7.369996071,-145.9503937,-3.335396051,-0.41119799,15.159132,-18.59263992,-1.530066967,-2.896382093
3.3331999999995787,20.36702347,7.234929085,-146.0284882,2.226427555,-0.965358615,5.862058163,-19.03190041,-18.88733292,-3.48000288
3.3415329999997994,20.2007637,7.178969383,-146.0811462,-2.551085472,0.249989823,14.0858736,-19.77243042,-8.996798515,-3.933758736
3.3498659999995652,19.99865723,7.056578636,-146.1470184,-0.041733257,-0.183910176,6.562125683,-24.07206917,-16.93990707,-2.750432968
3.358198999999786,19.82771301,6.991812706,-146.1973419,-0.312013865,-1.874485493,11.07219887,-20.39093781,-9.869681358,-3.372269154
3.3665320000000065,19.65289497,6.862640381,-146.2570801,-1.307419538,1.228589296,13.57949352,-20.91213989,-17.44622612,-1.895992637
3.3748649999997724,19.45965385,6.795176506,-146.2982483,-1.49933064,-0.21840623,8.071601868,-23.22069931,-9.787051201,-2.295702696
3.383197999999993,19.3146019,6.701803684,-146.3578033,-2.450718641,-0.184729367,11.65694809,-17.36474228,-13.37734795,-3.410050154
3.391530999999759,19.16618538,6.600604534,-146.4098053,-0.686599672,0.14497456,13.0771122,-17.70689774,-14.02413177,-2.240785599
3.3998639999999796,18.98370934,6.556442261,-146.4426727,-2.774892569,-0.381920546,10.20868683,-22.24433327,-6.740900517,-2.403486967
3.4081969999997455,18.82225227,6.451478004,-146.5111847,0.754919648,-0.151303351,7.310326099,-19.06847572,-15.0759058,-4.038137436
3.416529999999966,18.68254471,6.385087967,-146.5514069,-2.224266768,0.486054301,10.04514217,-17.02396584,-9.538384438,-2.414193392
3.424862999999732,18.52051544,6.322096825,-146.5894623,-0.369089425,-0.631622612,8.171459198,-19.56772041,-9.119516373,-2.282741308
3.4331959999999526,18.39243698,6.217806816,-146.6615753,-0.92969507,0.419689476,9.552442551,-15.22259808,-15.04747391,-4.630620003
3.4415289999997185,18.28424263,6.196005821,-146.692749,-1.820443988,0.695323765,12.37433052,-13.21082687,-4.159573078,-3.102960348
3.449861999999939,18.17307091,6.108100414,-146.7426758,-1.960163593,0.411134809,10.37454414,-13.49693871,-12.33397388,-2.791517019
3.458194999999705,18.07114792,6.051674843,-146.8017426,0.418614745,0.082715333,10.11635113,-12.11630249,-9.131527901,-4.990166187
3.4665279999999257,18.00440025,6.021791458,-146.8381958,-2.786691189,0.825630009,11.10509777,-8.34824276,-5.208681107,-3.458895445
3.4748609999996916,17.94359016,5.951196194,-146.8813934,-1.372805953,0.099570349,11.75048256,-7.395957947,-10.15100002,-2.687548399
3.483193999999912,17.89890289,5.888696671,-146.9384308,-0.857972085,0.597540915,10.8661747,-5.455295086,-9.683590889,-4.603007317
3.491526999999678,17.87090302,5.878530025,-146.9627686,-1.954437137,0.128644139,10.56801033,-3.705201387,-2.551049709,-2.791925907
3.4998599999998987,17.83316612,5.783612728,-147.009903,-1.035421729,-0.349718034,6.979049206,-4.751032352,-13.01918125,-2.297546387
3.5081929999996646,17.81134415,5.74371767,-147.0528107,0.419016808,0.492487907,10.17163277,-2.749509335,-6.62128067,-3.81508708
3.5165259999998852,17.78109932,5.71703577,-147.0924072,-1.964405894,-0.25980112,10.17903614,-3.951508284,-4.947645664,-3.955914021
3.524858999999651,17.75874901,5.639411926,-147.133316,-1.2112993,-0.315814674,9.310011864,-2.849199772,-10.85359764,-2.213146925
3.5331919999998718,17.75599289,5.606982708,-147.1786346,-0.916111469,1.217001319,13.31805515,-0.595684648,-5.808771133,-4.400577068
3.5415249999996377,17.71736145,5.587285995,-147.1994781,-1.898298144,-0.299077362,10.03234959,-5.050052166,-3.500031948,-2.055260897
3.5498579999998583,17.71523476,5.552800179,-147.223938,-2.119678736,-0.822797298,7.087182522,-0.765507042,-5.28414011,-1.956031084
3.558190999999624,17.73823357,5.514643669,-147.2545013,0.721575797,1.32095468,13.06014824,2.453241825,-5.963301182,-2.491189241
3.566523999999845,17.71496391,5.478149414,-147.2754364,-2.009037733,0.171751395,10.08837795,-3.349215031,-5.38495779,-1.480272293
3.5748569999996107,17.71545792,5.437371254,-147.303299,-0.572374165,-0.201167017,5.810967445,-0.287955254,-6.160863876,-2.089378834
3.5831899999998313,17.76164055,5.403877735,-147.3296967,-2.222097397,0.218032449,10.15255928,5.044787407,-5.240646839,-2.210124254
3.5915229999995972,17.75639915,5.334050179,-147.3620911,0.443874121,0.424364001,10.65218067,-0.93602097,-9.647037506,-1.540952325
3.599855999999818,17.76516914,5.335622311,-147.3790131,-1.999306321,-0.590074599,9.213786125,0.444932103,-0.890632629,-2.414679527
3.6081889999995838,17.80183983,5.313959599,-147.3997192,-1.474117517,0.569498658,11.73381901,3.957309961,-3.714525461,-1.974370956
3.6165219999998044,17.81921959,5.263860703,-147.4278412,-0.992186427,0.243802667,12.42227554,1.599903584,-7.203465939,-1.79184401
3.6248549999995703,17.83207321,5.283456326,-147.4364166,-1.742322445,0.698532164,12.35561752,0.96000874,1.443682313,-2.107129335
3.633187999999791,17.8406601,5.29586792,-147.4464111,-3.264605045,-1.418594718,7.144177914,0.34360218,0.599667728,-2.02534318
3.6415210000000116,17.88040161,5.261153698,-147.4606781,1.908708096,0.798852801,8.541696548,4.245110989,-4.969443321,-0.758437455
3.6498539999997774,17.88537025,5.275938511,-147.4949799,-1.941147089,0.686438084,13.58827114,0.178006142,-0.023257727,-4.875311375
3.658186999999998,17.87728882,5.276855946,-147.5011749,-0.132621378,-0.987582326,4.694001198,-1.586673856,-0.601191759,-1.152743101
3.666519999999764,17.915411,5.276766777,-147.5293579,-1.869259596,0.655045867,11.83119202,4.0903759,-1.497946143,-3.633737564
3.6748529999999846,17.9234314,5.256713867,-147.5625458,-0.935745537,1.017513752,13.0598278,0.639548957,-3.986368656,-3.447394133
3.6831859999997505,17.92699051,5.274655819,-147.5782166,-1.906309366,-0.891765714,8.579234123,-0.19748576,1.019459486,-2.876990795
3.691518999999971,17.93001938,5.287530899,-147.5792389,-0.956771433,-0.29560554,9.574781418,-0.317693353,0.956422746,-1.007561564
3.699851999999737,17.94044495,5.262462139,-147.6250305,-0.320272058,0.176546484,9.560316086,0.959086657,-4.999002934,-4.710073948
3.7081849999999577,17.94772911,5.222508907,-147.635498,-0.197711498,1.13657248,12.33146858,0.294166684,-5.420382023,-0.129172593
3.7165179999997235,17.90496063,5.211123466,-147.6709137,-1.835674405,-0.599160135,7.916075706,-5.542331219,-3.055880785,-4.039518833
3.724850999999944,17.91870117,5.195536613,-147.6809082,-1.270108223,-0.566840947,8.097290993,1.058802962,-2.618953466,-0.977234364
3.73318399999971,17.91381645,5.154139996,-147.7132416,-0.899376929,1.108068824,14.0491848,-1.032945275,-6.367724895,-2.580506325
3.7415169999999307,17.87570572,5.149240494,-147.7313843,-1.44192946,-0.143881932,10.56202126,-5.080352783,-1.697865248,-2.300516844
3.7498499999996966,17.86316299,5.182970047,-147.7336884,-1.362754583,-0.163374454,9.285676956,-2.278309584,3.315647602,-1.937665582
3.7581829999999172,17.8483963,5.138860703,-147.7674713,-0.90555644,0.198910639,9.109367371,-2.108794212,-6.748351574,-2.63906002
3.766515999999683,17.85812759,5.149773121,-147.7956848,-1.480074048,1.949039698,13.63026047,0.673718393,-0.239416257,-4.043488503
3.7748489999999038,17.82143784,5.149893761,-147.8037262,-1.994437218,-0.900312364,8.857657433,-5.023822308,-0.751470387,-1.336371422
3.7831819999996696,17.80773544,5.173074722,-147.8114624,1.300829291,0.269282162,6.296016693,-2.357918262,1.914292455,-2.163429022
3.7915149999998903,17.80770302,5.186427116,-147.8324738,-2.747061253,-0.181768119,11.15126896,-0.486542404,0.288326621,-3.302033663
3.799847999999656,17.81098366,5.156151295,-147.836792,0.477702558,0.51312983,12.12076378,-0.354859561,-4.06974268,0.186945468
3.808180999999877,17.78108215,5.194050312,-147.8550262,-3.244410753,1.870350122,14.6679821,-4.104809284,3.198180437,-3.884014368
3.8165139999996427,17.75630951,5.203547478,-147.8470154,-0.16885893,-1.605858207,3.955634594,-3.85686326,0.924840391,0.131926104
3.8248469999998633,17.77123833,5.215060711,-147.8667908,-1.253879547,-0.07506758,8.937113762,1.293736696,0.126137301,-3.093328714
3.833179999999629,17.7660656,5.217180729,-147.8683777,-0.883426189,0.919490814,9.094617844,-1.401047349,-0.267002761,-0.690841556
3.84151299999985,17.74052238,5.220858574,-147.8782349,0.077269509,0.446316093,12.19248486,-3.676231623,-0.405268371,-1.67547822
3.8498459999996157,17.68112946,5.236256123,-147.8824463,-2.393966436,0.24066031,9.800661087,-7.878171444,1.154600143,-1.474201918
3.8581789999998364,17.68341637,5.283293247,-147.8714294,-2.008733511,-0.553193152,6.988605022,-0.565536678,5.311687946,-0.881334543
3.8665119999996023,17.69015694,5.297896862,-147.8584137,-1.749187469,0.454556465,12.99247551,-0.132476807,1.690168023,0.515985966
3.874844999999823,17.65670013,5.350191593,-147.8626251,0.364339173,1.372173309,12.34601688,-4.689479828,5.359842777,-2.807320356
3.883177999999589,17.60455704,5.374671459,-147.8454742,-0.86133343,0.341781288,9.257484436,-7.247036457,2.968242168,0.632402778
3.8915109999998094,17.55977821,5.408828735,-147.85112,-1.132338047,-0.57336992,5.687145233,-6.03376627,3.238856316,-2.303334713
3.8998439999995753,17.57489967,5.46336937,-147.8340149,-2.25485754,0.112393916,10.15959263,0.823279917,6.40405798,-0.459058315
3.908176999999796,17.55739021,5.46105814,-147.8361969,0.676109731,0.900232315,12.24899006,-2.802325487,-0.807181418,-0.586079359
3.916509999999562,17.52490616,5.528968811,-147.8371735,-1.624259949,1.734567046,12.65974998,-4.684075832,7.281885147,-3.000810385
3.9248429999997825,17.48114967,5.534193993,-147.8249359,-0.433453619,-0.861535907,4.132679462,-6.120547295,0.573771775,0.781964242
3.933176000000003,17.48358345,5.571854115,-147.8276672,-1.875857592,-0.045759812,9.565499306,-0.472813189,3.760387659,-2.100572109
3.941508999999769,17.47128296,5.564129353,-147.8348999,-0.366342902,0.695854306,8.832665443,-2.121703863,-1.607190728,-0.967398345
3.9498419999999896,17.44724655,5.576646328,-147.8370972,-0.213023365,0.760708153,13.35927868,-3.655586481,0.902453363,-1.133609056
3.9581749999997555,17.38420868,5.579709053,-147.8397522,-1.34221065,0.21985355,9.130641937,-8.266020775,-0.205887228,-0.835971773
3.966507999999976,17.39464188,5.61831665,-147.8333588,-1.995103359,0.092019252,9.969395638,0.380230516,4.197161674,-1.088886738
3.974840999999742,17.39029312,5.581219673,-147.8357544,-0.997188509,0.359017789,11.38475323,-1.226742625,-4.795778751,0.633452892
3.9831739999999627,17.38006592,5.608406067,-147.8460236,0.169068217,1.685150266,12.38778591,-1.906441808,2.294920206,-2.576740742
3.9915069999997286,17.33249283,5.56751585,-147.8432007,-0.461708754,-0.809882998,5.326538086,-6.474586964,-5.044620991,1.359334588
3.999839999999949,17.32715607,5.57945013,-147.8549347,-1.429515004,0.647853792,11.28642845,-1.302022815,0.498260915,-2.195242167
4.008172999999715,17.33130074,5.526648045,-147.8722382,-1.260411143,0.690329313,6.310404301,-0.036577132,-7.125035286,-0.508877993
4.016505999999936,17.34215546,5.515982151,-147.8737183,-0.907156706,1.256039739,15.71579647,0.523823917,-1.727628827,-0.222101033
4.024838999999702,17.29118347,5.491373062,-147.8934937,-1.448538661,-0.645205081,6.858840466,-6.627940655,-3.983193398,-1.800680757
4.033171999999922,17.30620766,5.502058506,-147.8859253,-1.655375242,0.540804982,9.556119919,0.91933322,1.041000843,0.050575305
4.041504999999688,17.31115723,5.436131954,-147.9149933,0.650308132,0.581116796,8.601786613,0.187713951,-9.044875145,-1.385269284
4.049837999999909,17.32256317,5.41310215,-147.9302673,-2.495078325,1.844313264,14.55733585,0.745182037,-3.633532286,-1.35330224
4.058170999999675,17.31243134,5.389996529,-147.9398651,0.321552992,-0.816523194,4.724063396,-1.847631454,-3.447419882,-0.693146765
4.066503999999895,17.32947731,5.360135078,-147.9562225,-1.953398228,0.567419946,12.01617718,1.432463408,-4.455621719,-1.231686115
4.074836999999661,17.36739922,5.357172012,-147.9761047,-0.370582044,1.068061829,9.704490662,4.031514168,-1.507551432,-2.58601284
4.083169999999882,17.39915848,5.268175125,-147.9880829,-1.254216909,1.607990503,12.83787251,3.148335695,-11.07124043,1.39281249
4.091502999999648,17.4143486,5.297578335,-147.9957733,-2.362854242,-0.770449638,10.64379501,1.166433811,2.631695986,-2.358020782
4.099835999999868,17.43495941,5.250052929,-147.9920197,-0.658914387,0.171526477,4.876260757,1.635071874,-5.75877142,1.702565312
4.108168999999634,17.47332764,5.249074936,-148.0100708,0.300922483,0.087097429,11.77796555,4.056744576,-1.217239738,-2.447901487
4.116501999999855,17.47851181,5.182780266,-148.0272675,-1.164258718,1.254353642,10.19784641,0.013255368,-8.657302856,-0.00151124
4.124834999999621,17.48558426,5.197760582,-148.0317993,-1.595177174,0.415932119,13.09339142,0.154364184,1.092741609,-1.484037519
4.133167999999841,17.47270966,5.157600403,-148.0416565,-2.402630091,-0.625716507,6.825776577,-2.235405445,-5.402528763,-0.109321564
4.141500999999607,17.50421524,5.193649769,-148.0342102,-0.873287261,-0.148220152,12.07189274,2.954922438,3.935256243,-0.877287626
4.149833999999828,17.47940636,5.127039909,-148.0450134,0.239911973,1.54745996,6.731659889,-3.657508373,-8.464018822,0.738932312
4.158166999999594,17.45622635,5.161496639,-148.0428314,-1.637908578,0.689001381,12.68089104,-3.550773144,3.56387496,-1.419438243
4.1664999999998145,17.43271446,5.123130322,-148.0515137,-0.579355478,-1.113226891,2.565577269,-3.524903536,-5.156376839,-0.042442791
4.17483299999958,17.44197464,5.121893406,-148.0405731,-2.660814762,1.056696653,17.58456421,0.247062132,-0.20773147,0.865184903
4.183165999999801,17.39159203,5.111198425,-148.0553131,-0.26345399,0.30036056,9.156838417,-6.685443878,-2.204566002,-1.729780674
4.191498999999567,17.34768677,5.129467964,-148.0335999,-1.043165326,0.650078833,12.00060558,-6.250385284,2.410440207,1.395322561
4.1998319999997875,17.30782318,5.12876606,-148.0487823,-0.178317636,-0.257733703,4.851095676,-5.417231083,-1.072826505,-2.1387887
4.208165000000008,17.30851936,5.09817791,-148.0371552,-2.673130035,0.753399849,14.14484692,-0.788457334,-3.548724174,1.990930319
4.216497999999774,17.26508331,5.080359459,-148.0332947,1.787844181,1.01753819,10.19569874,-6.050210476,-2.356586456,0.644108415
4.224830999999995,17.18028831,5.036643505,-148.0480499,-2.073691607,0.410730064,9.867817879,-10.76965904,-5.989760876,-0.55862093
4.233163999999761,17.13596725,5.069709301,-148.03302,-0.379491597,-0.523881912,7.036395073,-6.27366972,3.867916107,0.115481786
4.241496999999981,17.09974098,4.942501545,-148.0596771,-1.645429134,1.085666776,9.385253906,-4.817986488,-15.98228455,1.017871261
4.249829999999747,17.07557297,4.984962463,-148.0417023,-2.532912016,1.514960408,17.60839081,-3.883707047,5.048757553,0.124318689
4.258162999999968,16.97403526,4.873037338,-148.0629272,0.293018848,-0.423062354,2.901599407,-12.71713829,-14.04234219,1.079806805
4.266495999999734,16.91910744,4.930700779,-148.0473785,-2.13765049,0.759008884,10.83711338,-7.547208786,6.708509445,-0.672834814
4.274828999999954,16.86858368,4.842040062,-148.0723419,0.734544873,-0.009199629,2.778243303,-6.559114456,-11.50391674,-0.189801484
4.28316199999972,16.84258652,4.824841499,-148.0660706,-3.012148857,1.565043807,20.54154778,-3.979351044,-2.211225748,0.882679284
4.291494999999941,16.76368141,4.79856205,-148.0897217,-0.284765959,0.636315465,6.957920551,-9.983174324,-4.292229176,-2.221241236
4.299827999999707,16.6972065,4.789966583,-148.0746002,-1.370983243,0.636445165,13.08654308,-8.924717903,-0.920985579,1.595113873
4.308160999999927,16.65675163,4.780366421,-148.0943756,-0.669915855,-0.221497729,3.79163003,-5.408241272,-2.238888979,-2.360889673
4.316493999999693,16.65289497,4.731534958,-148.0940399,-2.451291323,1.910131097,13.99164486,-1.262858391,-6.053206921,1.2842592
4.324826999999914,16.60020828,4.711454868,-148.1079254,0.874950111,0.319006354,9.180878639,-6.938564777,-3.24150753,-1.327688336
4.33315999999968,16.51960182,4.676514149,-148.1266937,-2.275880098,0.66266948,9.333910942,-10.28449917,-5.111167431,-1.38875246
4.3414929999999,16.44275475,4.686736107,-148.1325684,0.385569811,-0.770402014,7.33174324,-9.917985916,0.519367039,-1.451046348
4.349825999999666,16.3862648,4.641381741,-148.1404114,-3.40899992,0.624122441,11.80837822,-7.500106335,-5.936791897,0.205234095
4.358158999999887,16.33257866,4.688453197,-148.1513824,-1.066875696,0.065943792,10.61995316,-7.088766575,4.592901707,-3.277188063
4.366491999999653,16.23256302,4.662456512,-148.14888,-0.93932879,1.546504617,11.48359394,-12.82322979,-3.363353729,0.730095387
4.374824999999873,16.09041405,4.695521832,-148.1773682,-0.460446596,0.00365568,7.400327682,-17.53368759,2.406368017,-4.805538654
4.383157999999639,15.97161007,4.680623531,-148.1627502,-1.129321218,-0.219429106,6.153384209,-15.19723606,-1.688080788,1.741243243
4.39149099999986,15.83948517,4.69776392,-148.2033234,-1.37137568,-0.02684667,9.650396347,-16.21146011,0.190966979,-5.656265259
4.399823999999626,15.73204136,4.747461319,-148.1909027,-3.073622704,0.421545208,13.19511127,-13.81360817,5.691010952,-0.62698549
4.4081569999998464,15.55509853,4.75677824,-148.2138672,0.850194097,1.038363218,12.99940395,-21.7599659,-0.121642031,-3.372703791
4.416489999999612,15.35888577,4.823143005,-148.2170105,-2.759983778,0.982419848,12.3575592,-24.3131752,7.123336315,-2.917309523
4.424822999999833,15.13294029,4.834846497,-148.2381287,1.22302711,-1.163130641,3.520415783,-27.6559391,0.23435761,-3.23382473
4.433155999999599,14.94672871,4.883582592,-148.2455139,-2.665697336,0.250763386,11.48986721,-23.06895828,4.967204571,-2.804273367
4.4414889999998195,14.72807407,4.910539627,-148.2640991,-0.517209768,0.880680144,10.81340504,-26.80436707,2.101047516,-3.404082775
4.449821999999585,14.48076153,4.954554081,-148.2691956,-1.146018147,0.50940603,13.71711826,-30.42176819,4.504125595,-2.355768681
4.458154999999806,14.16552734,4.988986492,-148.3013153,-0.808592796,-0.38641265,5.697835922,-38.25219727,2.597171545,-5.170393944
4.466487999999572,13.89078331,5.027982235,-148.324646,-2.06848526,-1.233239889,6.011870861,-33.52396774,3.410423517,-4.2710495
4.4748209999997925,13.5591383,5.050506115,-148.3538666,-0.804245949,0.159869418,10.94273663,-40.24768066,1.340740681,-4.461391449
4.483154000000013,13.17630577,5.119024754,-148.4150543,-1.999499321,-0.686391115,16.44553185,-46.08852386,5.85531044,-9.449929237
4.491486999999779,12.71392727,5.203987122,-148.4332428,-0.245490044,-0.211713508,11.22495461,-56.04814911,8.992966652,-4.829424858
4.49982,12.20189285,5.264489174,-148.5076141,-1.934856296,-2.050037622,4.653938293,-61.43094635,4.720041752,-10.67750931
4.508152999999766,11.70720863,5.356572628,-148.538147,-1.770567775,-1.189368606,9.600823402,-59.7810936,9.598134041,-6.285395622
4.516485999999986,11.1211729,5.433871746,-148.5990601,-1.278017163,1.222977757,19.07169342,-70.43917847,7.200692654,-9.402053833
4.524818999999752,10.44125271,5.573409557,-148.6305084,-1.692732453,-0.88602525,8.115552902,-81.98834229,15.28880787,-7.250513077
4.533151999999973,9.744441032,5.694057941,-148.6691895,0.256144762,-1.154458642,1.513781905,-83.96389008,12.99219799,-7.517210484
4.541484999999739,9.054363251,5.783196926,-148.7131042,-1.839075923,0.307869881,9.692818642,-83.04346466,9.240200043,-7.348718643
4.549817999999959,8.379515648,5.937334538,-148.7510529,-2.726593018,1.1630826,17.00654984,-81.31891632,17.14380264,-7.713774204
4.558150999999725,7.60300827,6.065338135,-148.7610626,-0.315773875,0.689490259,12.63772774,-93.75234222,14.50290966,-4.348127842
4.566483999999946,6.782617569,6.221410275,-148.8138733,0.416456342,0.10658095,5.702621937,-98.5732193,17.34103012,-9.029150009
4.574816999999712,5.987624168,6.342066288,-148.8462067,-1.098588586,-1.081155777,7.076526165,-95.66789246,13.43217659,-6.494363308
4.583149999999932,5.225821972,6.478929043,-148.8924713,-2.926552773,1.467353225,14.48625469,-91.59868622,15.35386562,-7.531129837
4.591482999999698,4.444246769,6.63649416,-148.9427643,-0.644403577,0.942756295,12.10928249,-93.78816986,17.8224144,-8.642159462
4.599815999999919,3.583863974,6.702866554,-148.9911804,1.270996451,1.168900013,8.289848328,-103.3755875,7.089280605,-6.745828629
4.608148999999685,2.721600294,6.809808731,-149.0701904,-1.10375917,1.018975377,8.500443459,-103.0372543,11.79947567,-11.23950386
4.616481999999905,1.892026424,6.909908772,-149.1115875,-2.21024847,-0.983202457,8.672833443,-99.75996399,11.35098362,-5.843195915
4.624814999999671,1.088982701,7.021492481,-149.1885223,-0.478525043,0.35534811,9.115369797,-95.92565155,12.67206764,-10.63516903
4.633147999999892,0.276967853,7.071727753,-149.2543793,-0.201702923,1.057903647,9.716012001,-97.27547455,5.481966019,-8.346442223
4.641480999999658,-0.566000521,7.089132786,-149.3303223,-0.305307508,1.351243258,13.06057739,-100.7119217,1.656474829,-10.18054771
4.649813999999878,-1.435131431,7.196752071,-149.4088898,-2.869057894,1.404349446,16.92471695,-103.9271317,12.6235733,-9.561246872
4.658146999999644,-2.320381403,7.223005295,-149.4676208,0.609023452,0.646187603,5.683134556,-106.0306702,2.943552971,-7.975352287
4.666479999999865,-3.162447929,7.235953808,-149.5608368,-0.389675885,0.926732719,3.833495855,-100.4440842,1.629989386,-11.44241714
4.674812999999631,-3.992822409,7.208306789,-149.6087799,-0.321090758,-0.297716916,7.8338871,-99.62399292,-3.376728296,-6.872718334
4.6831459999998515,-4.802798271,7.230473995,-149.6952209,-1.72256875,1.417151332,13.30861473,-96.69651031,2.988168716,-10.49062729
4.691478999999617,-5.627933502,7.243718624,-149.7552032,-1.22683382,0.627364993,13.30614853,-98.82226563,1.817486644,-7.845502853
4.699811999999838,-6.470654488,7.189401627,-149.8202362,0.540536046,1.307786465,10.26245594,-100.9501495,-6.118937969,-8.817268372
4.708144999999604,-7.339782715,7.17989397,-149.8883209,-1.849029541,0.402256846,11.56747055,-104.0122452,-0.578170002,-8.891016006
4.7164779999998245,-8.236227036,7.127014637,-149.93927,-0.158943534,1.237335324,12.59920692,-107.6159668,-5.917589188,-7.303128719
4.72481099999959,-9.109560013,7.108905792,-150.0277405,-1.646295071,0.890614629,7.636728287,-104.2376251,-0.988462746,-11.34073448
4.733143999999811,-9.966733932,7.018663406,-150.0447083,0.322955489,0.11946179,4.909949303,-103.4134216,-10.7978096,-4.221573353
4.741476999999577,-10.83321762,6.941043377,-150.1300812,-0.417824268,1.014437795,8.281553268,-103.5280304,-7.805680275,-11.96864796
4.749809999999798,-11.6801548,6.859045029,-150.1573181,-1.326632619,0.642886639,13.05583,-102.0434418,-9.469696045,-5.536696434
4.7581429999995635,-12.53250122,6.804214954,-150.2413635,-1.845380664,1.08364594,14.37078667,-101.8927002,-4.845182419,-11.3303051
4.766475999999784,-13.36590195,6.731414795,-150.2694702,-0.299466461,1.018364668,10.71577835,-100.4141312,-8.216249466,-5.655264854
4.774809000000005,-14.21919918,6.658634186,-150.3329926,-0.410565376,1.938918948,9.505066872,-102.3433228,-7.242211819,-9.403817177
4.783141999999771,-15.02848434,6.548820019,-150.3720093,0.394801438,0.32094568,6.360453129,-97.37958527,-12.02895737,-8.26112175
4.791474999999991,-15.82158375,6.451119423,-150.3942871,-2.266727686,2.616217375,12.29686737,-95.72538757,-11.21976757,-5.490712166
4.799807999999757,-16.57232475,6.378465652,-150.4528198,-0.910718918,0.725762248,9.890460014,-90.10726929,-6.877574444,-9.56670475
4.808140999999978,-17.30445671,6.29403019,-150.4547882,-2.011980295,2.365824938,12.68999958,-88.69522095,-10.29205036,-2.904162407
4.816473999999744,-18.01439476,6.201847076,-150.5156403,0.225540251,0.574329853,8.009505272,-85.20018005,-8.791605949,-10.7047205
4.824806999999964,-18.69123459,6.119919777,-150.4911652,-2.311201811,2.198462963,11.30283165,-82.32151794,-10.70205021,-0.757981062
4.83313999999973,-19.36657906,6.007004738,-150.5581207,1.332958817,0.597088397,6.585107803,-80.99436951,-10.65840244,-12.40138531
4.841472999999951,-19.98853493,5.923678875,-150.5331421,-1.938598633,2.425077915,10.48275852,-75.82266235,-11.15861702,-0.189059645
4.849805999999717,-20.59693718,5.811971188,-150.5972748,0.428455204,1.232152939,9.066778183,-73.0247345,-10.370821,-12.26095581
4.858138999999937,-21.14712906,5.74026823,-150.5672455,-3.182711601,1.781532288,12.10720158,-67.26148224,-10.07353115,0.649336278
4.866471999999703,-21.67639732,5.65166378,-150.6306915,-0.243772879,1.634894609,11.83796406,-63.55819702,-7.585607529,-11.36700058
4.874804999999924,-22.16103745,5.606591702,-150.5912933,-3.007273436,2.430658102,11.51930809,-59.41040802,-7.227848053,1.913479209
4.88313799999969,-22.6305027,5.537088871,-150.6523438,0.654440582,0.24596487,9.875226974,-56.42618942,-5.384460449,-10.3533802
4.89147099999991,-23.05714798,5.495728016,-150.6290894,-2.951826334,2.581192493,11.2410202,-52.34611893,-6.457159042,1.035060883
4.899803999999676,-23.44995308,5.442678928,-150.7023315,0.58501178,2.368400574,11.78468513,-47.09909439,-2.846234083,-10.98532677
4.908136999999897,-23.80786514,5.395614624,-150.68367,-4.555104733,1.821216106,11.62042141,-44.0429306,-6.880968571,0.172396898
4.916469999999663,-24.13446617,5.376840115,-150.7561188,2.198821068,1.36743319,7.213526249,-39.17503357,1.005859613,-9.257408142
4.9248029999998835,-24.43144417,5.330589771,-150.7416534,-3.039970398,2.054886818,8.251561165,-36.68395996,-6.594290733,-0.315926373
4.933135999999649,-24.67743683,5.311696053,-150.8087311,2.659692526,0.866389453,11.6618309,-29.57152939,0.816262305,-8.665430069
4.94146899999987,-24.90109825,5.259872913,-150.8037262,-4.742239475,2.325435638,9.186746597,-27.78093529,-6.735754013,-1.658727765
4.949801999999636,-25.08400917,5.257513523,-150.8625641,2.315621376,1.268724918,11.078269,-22.10076714,2.26290369,-6.925734043
4.9581349999998565,-25.26167488,5.210740089,-150.8732452,-4.98690176,1.78071022,8.309955597,-22.08929062,-5.382501125,-3.142253399
4.966467999999622,-25.38126945,5.211224556,-150.9240112,3.016958475,1.037124515,9.449771881,-14.59699249,2.195767641,-5.891095638
4.974800999999843,-25.50871849,5.189775944,-150.9504852,-5.53365469,1.105430365,10.51959991,-15.89719677,-1.824323297,-3.541655302
4.983133999999609,-25.5865097,5.208300114,-150.9951477,3.476475477,0.836617827,9.408524513,-9.645783424,3.853853941,-4.286773205
4.99146699999983,-25.66944122,5.205986977,-151.0379028,-4.82712841,1.685485244,10.49331665,-10.38001633,1.099222183,-4.308494091
4.9997999999995955,-25.69333839,5.237947941,-151.0840759,1.899772406,0.951955259,12.85826874,-3.160848141,5.39608717,-3.742829323
5.008132999999816,-25.73228455,5.249068737,-151.1293335,-4.204790592,1.156172752,8.682366371,-5.069441319,2.701238632,-3.907528162
5.016465999999582,-25.71405792,5.317902565,-151.1802521,-0.132734954,1.044559836,14.58340549,1.953380108,9.629506111,-2.328846455
5.024798999999803,-25.73101044,5.351432323,-151.2429047,-2.783690453,1.64414227,8.579891205,-2.238761187,6.007473946,-4.570989132
5.0331319999995685,-25.69817352,5.443850994,-151.3110809,-0.995785058,-0.082472749,14.18978596,3.912997484,13.07444286,-2.959750891
5.041464999999789,-25.69371414,5.513284206,-151.3674774,-2.369134188,1.170151591,7.45955801,0.278593242,9.580018044,-2.067350388
5.04979800000001,-25.65307999,5.648931503,-151.4475861,-1.193462372,-0.390695542,14.13871479,5.015998363,18.36196327,-2.002675056
5.058130999999776,-25.64045906,5.737225533,-151.4896393,-0.677516103,0.986131549,7.149598598,1.101271272,10.85870743,0.485376984
5.066463999999996,-25.60226822,5.890654087,-151.5935974,-2.448930502,0.530860782,14.86637497,5.051013947,21.51428795,-3.659533024
5.074796999999762,-25.59731674,6.00407505,-151.6057281,0.004539257,0.680723727,5.881941319,-0.173331559,12.04408455,4.981265068
5.083129999999983,-25.5891552,6.144997597,-151.7169189,-2.957369566,0.038491346,15.43484402,1.594960451,20.52995682,-5.091778755
5.091462999999749,-25.593647,6.312907696,-151.7268829,0.431697309,0.017532077,4.533387184,-1.335757256,17.8274765,8.044985771
5.099795999999969,-25.60611916,6.420182228,-151.8347626,-0.723044813,0.720157385,12.88281727,-0.856745243,16.71702194,-6.474358082
5.108128999999735,-25.59269524,6.643764973,-151.8635101,-2.598190784,-0.987864196,7.467238903,1.082471013,24.8621254,8.820049286
5.116461999999956,-25.60198784,6.710465908,-151.93396,1.036769867,1.325933099,13.75061703,-0.928106368,10.39424515,-4.546962738
5.124794999999722,-25.60319138,6.992576122,-152.0088501,-4.32827425,-0.042289469,14.73154545,0.009464469,33.60615158,6.829441071
5.133127999999942,-25.63596344,7.019382954,-152.0455017,3.168154955,2.176653147,11.28866577,-4.192947865,4.334965229,-2.976630211
5.141460999999708,-25.68909836,7.294140816,-152.1394501,-6.184829712,-0.25323239,17.00480843,-5.87972784,33.8434906,4.317219734
5.149793999999929,-25.73951721,7.333266735,-152.1548767,4.381454945,-0.269687146,1.095923662,-6.611086369,4.574613571,-0.048769511
5.158126999999695,-25.76549339,7.567617416,-152.2345123,-6.967066765,-0.548083901,19.07963181,-2.785422087,28.73961639,3.7724545
5.1664599999999155,-25.77634811,7.641679764,-152.2654419,5.260858059,1.751268744,2.903999805,-1.609035254,9.15177536,0.119016565
5.174792999999681,-25.80079651,7.750085831,-152.2922668,-5.172180176,-0.079598747,19.055933,-3.402774572,12.44205284,2.779106379
5.183125999999902,-25.85115623,7.883956909,-152.3343353,3.580576181,2.070113659,10.29538536,-6.153514862,16.18598557,2.066442013
5.191458999999668,-25.90199471,7.908949375,-152.3320465,-3.258286476,-1.266777515,8.392109871,-7.036307812,1.935117006,1.514070272
5.1997919999998885,-25.9058876,8.075865746,-152.3713684,0.12366949,1.05613482,13.60719395,-0.608338356,19.60704994,4.116144657
5.208124999999654,-25.89278984,8.046076775,-152.3642731,-0.469615132,0.9914428,4.515833378,0.557942152,-4.206549168,-0.88817364
5.216457999999875,-25.87836266,8.154419899,-152.3524017,-1.43868947,1.542642355,20.09823227,0.73378396,10.62835884,6.514789104
5.224790999999641,-25.87282562,8.165748596,-152.3782806,-0.677743733,-0.426355749,5.263380527,0.212764606,1.962652087,-2.299389839
5.2331239999998616,-25.82170868,8.199169159,-152.3338165,-1.599388719,1.455925465,12.31463242,4.578686714,0.855195463,6.06889677
5.241456999999627,-25.74020576,8.272585869,-152.3752594,-1.916544914,0.350792795,14.22518635,9.601534843,9.478816986,-0.739969671
5.249789999999848,-25.68744278,8.213118553,-152.297348,1.066673636,1.511542082,8.570916176,4.195137978,-10.89660358,4.807779312
5.258122999999614,-25.61444664,8.326084137,-152.3504791,-4.991166592,0.410517424,14.39794159,8.782904625,14.35743523,0.040841907
5.266455999999835,-25.50899315,8.279111862,-152.2601624,2.530663013,-1.17751658,3.404847145,10.29278755,-10.16327,6.809430599
5.2747889999996005,-25.39686775,8.333566666,-152.3006439,-5.039642334,2.058531523,20.15786362,13.26690769,7.39074564,-1.706010818
5.283121999999821,-25.30819893,8.365036964,-152.2318115,2.205732346,-0.281195194,4.558790207,8.642051697,-0.539000332,8.571354866
5.291454999999587,-25.23940468,8.348215103,-152.2484131,-3.021111965,-0.655954301,11.14740753,7.654263496,-1.559189677,-2.81981945
5.299787999999808,-25.09883499,8.446026802,-152.2334137,-0.816365719,0.607473493,8.405334473,15.81030369,9.413453102,6.172712803
5.3081209999995735,-25.00406265,8.352499962,-152.1962891,-0.054556213,0.354680032,12.19161701,9.832243919,-12.59260082,-0.963582098
5.316453999999794,-24.93146896,8.487242699,-152.2182159,-2.308523893,-0.590750396,14.54522896,8.299796104,15.30360126,4.036074638
5.32478699999956,-24.84719849,8.433094025,-152.2026978,0.420303732,1.403240323,3.784477234,8.949448586,-7.223496437,-1.279123664
5.333119999999781,-24.72251129,8.505895615,-152.1927185,-4.072314262,-0.129003093,18.30853653,13.99074078,6.982685089,4.306509018
5.341453000000001,-24.64027977,8.466508865,-152.1743927,1.779851675,-0.493350953,6.369592667,8.653655052,-5.754034042,-0.216260999
5.349785999999767,-24.55353928,8.572417259,-152.1778564,-5.532196522,0.425792754,18.36957169,9.673563957,11.27470875,4.483401299
5.358118999999988,-24.47876358,8.551111221,-152.1619873,2.611793041,0.128773645,5.176713943,7.794681072,-3.666523695,0.452693164
5.366451999999754,-24.38358116,8.576766968,-152.1502228,-4.261146545,0.855570257,17.21473694,10.41619587,1.772415519,2.113469362
5.374784999999974,-24.31899834,8.605365753,-152.1512604,1.507866859,-0.724507809,4.237170696,6.875616074,2.626778126,1.088335991
5.38311799999974,-24.218256,8.587001801,-152.1127167,-3.017623186,-0.275859356,14.78127575,10.60256481,-4.34110117,2.832973242
5.391450999999961,-24.15644264,8.59086132,-152.1016235,1.811772466,1.063497186,9.056872368,6.323885441,-0.668300986,1.178446889
5.399783999999727,-24.08039284,8.575278282,-152.0865021,-3.388329744,-1.23139596,9.063091278,8.058276176,-2.892282248,0.442370623
5.408116999999947,-23.97165489,8.573040009,-152.0413818,0.455811083,0.506359756,10.42441273,11.34594345,-2.980370522,4.581068516
5.416449999999713,-23.90286636,8.53118515,-152.0265503,-2.108211756,0.288476616,13.29041958,7.193797588,-5.756390572,-0.860510409
5.424782999999934,-23.82297325,8.566386223,-151.9953766,-0.917143822,-0.803323567,11.54636955,8.13527298,1.815447211,4.886645317
5.4331159999997,-23.75424194,8.481110573,-151.9596863,-1.077958941,0.496767908,10.6580162,6.815731525,-11.52423,-0.686256647
5.4414489999999205,-23.68258286,8.516522408,-151.9248657,-1.27785182,-0.077589847,10.24444294,7.083014965,1.669779301,5.306104183
5.449781999999686,-23.61588478,8.459562302,-151.90802,-1.430934668,-1.02886796,9.209986687,6.90953064,-7.515397072,-1.341981292
5.458114999999907,-23.540308,8.452703476,-151.8404694,-0.170862705,-0.109415457,11.98290062,6.976998806,-4.522987843,6.838527203
5.466447999999673,-23.50392151,8.397768021,-151.8215485,-1.192929745,0.256248146,7.907754898,3.237857342,-7.393908501,-1.001337409
5.4747809999998935,-23.43209839,8.371419907,-151.7580261,-1.481400371,-1.098202229,11.64767075,6.609280586,-6.460320473,5.472110271
5.483113999999659,-23.41022682,8.352740288,-151.7357483,-1.362717628,0.072164416,11.6663456,1.439737678,-3.561659098,1.103858232
5.49144699999988,-23.36153603,8.324808121,-151.6763916,-1.186429739,0.020684024,11.89845371,3.9090271,-6.436115265,4.967125893
5.499779999999646,-23.34127998,8.292823792,-151.6514587,-1.187604308,0.133129805,12.27782631,1.201013088,-5.149229527,0.76616019
5.508112999999867,-23.29190636,8.310791969,-151.6188507,-3.270467997,-1.035195589,10.24337959,4.455993176,-0.122999571,4.255562782
5.5164459999996325,-23.25457382,8.273928642,-151.5657196,-0.41246587,0.589661837,12.62888145,2.762968779,-7.008387566,3.616281748
5.524778999999853,-23.23142624,8.294088364,-151.5446014,-1.249596119,-0.472854674,9.461079597,1.508793712,0.659425735,3.113935471
5.533111999999619,-23.19360733,8.251272202,-151.5043793,-1.035126328,0.447158486,11.5687418,3.047364473,-7.056825638,1.933836579
5.54144499999984,-23.16870117,8.266070366,-151.4724274,-1.962865829,-0.992982388,8.039370537,1.530642748,-0.438566953,4.054951668
5.5497779999996055,-23.13489723,8.250013351,-151.4430084,-0.337854981,0.368758529,10.91215515,2.754234552,-3.598288059,2.022845745
5.558110999999826,-23.13404465,8.219968796,-151.4148865,-1.032869577,-0.84309864,10.7629509,-1.287115335,-5.204172134,1.517528296
5.566443999999592,-23.09936905,8.244959831,-151.401535,-1.901054382,0.001566212,10.59525394,3.133991003,1.683534026,2.204424858
5.574776999999813,-23.09680367,8.216727257,-151.3630371,-1.613057017,-0.538390398,11.87145805,-1.266547322,-5.506370068,2.787841082
5.583109999999579,-23.08808136,8.238611221,-151.3522644,-0.308145821,-0.804752231,8.58346653,0.065815777,1.461996436,1.776462436
5.591442999999799,-23.09200859,8.205201149,-151.33078,-2.008945942,0.588399172,12.32481194,-1.747992396,-5.273023605,0.657837629
5.599775999999565,-23.10325432,8.210518837,-151.2974854,-0.549396634,-1.536844611,5.970496178,-2.716440916,-1.41656971,3.455706358
5.608108999999786,-23.10379219,8.189776421,-151.2737274,-0.823959172,0.102777436,10.76072884,-1.386934042,-3.997050285,1.544141412
5.616442000000006,-23.12903786,8.164420128,-151.2433014,-0.490517199,-0.326939255,9.308719635,-4.345019341,-4.670883656,1.698902488
5.624774999999772,-23.12668419,8.186246872,-151.2400208,-3.18424201,-0.430282384,12.77287865,-0.692762554,1.639503002,1.346962929
5.633107999999993,-23.13553429,8.189190865,-151.1981049,-1.097885132,0.081020474,13.52659416,-2.574538231,-2.083769321,4.286401272
5.641440999999759,-23.15984917,8.229362488,-151.2055359,-2.045854092,-0.115459785,9.830885887,-3.713654518,4.156614304,1.058956504
5.649773999999979,-23.16150665,8.227976799,-151.1741486,-0.90122956,-0.107813977,11.71240997,-1.535112143,-2.071397543,2.932150841
5.658106999999745,-23.18671036,8.287913322,-151.1765289,-1.926197886,-0.697500885,7.7647686,-3.911908865,6.079091072,2.589919806
5.666439999999966,-23.18470573,8.259376526,-151.1300201,1.06401372,-0.190291688,7.520866871,-1.359705925,-5.774012089,3.296616077
5.674772999999732,-23.19748878,8.30643177,-151.1431427,-1.682500124,-0.399445802,12.50473022,-2.238504648,5.158642769,0.819412172
5.6831059999999525,-23.19382668,8.28326416,-151.0975189,-1.711428165,-0.127619445,10.2335844,-1.145929813,-5.141340733,3.45219779
5.691438999999718,-23.18471718,8.344193459,-151.110321,-0.653383613,0.2076502,12.59370232,0.378027707,6.65630722,1.549443603
5.699771999999939,-23.19449615,8.308958054,-151.0652161,-2.096674919,-0.642712057,9.909477234,-2.754093647,-6.447384834,2.827824354
5.708104999999705,-23.18782043,8.334177971,-151.0702972,0.307232052,-0.828402758,6.417005539,-0.053431299,2.33669734,0.747333765
5.7164379999999255,-23.18321037,8.315030098,-151.0346832,-2.333608866,-0.237304121,10.98043728,-0.863635242,-4.228833675,2.550704002
5.724770999999691,-23.1886692,8.294312477,-151.0127869,1.220428467,-0.918780148,6.768323898,-1.983156562,-4.006988525,1.562045693
5.733103999999912,-23.16991425,8.26879406,-150.97966,-3.309239388,-0.252436399,13.13249016,0.881936491,-4.816807747,1.980479717
5.741436999999678,-23.18992424,8.270929337,-150.9636993,0.02120289,-0.494216174,10.40596581,-3.631612062,-1.224616647,2.030939817
5.749769999999899,-23.19241905,8.250016212,-150.953949,-2.876539707,-0.080830485,13.79475117,-1.264984727,-3.214689255,-0.352964193
5.7581029999996645,-23.19526672,8.255802155,-150.9373627,-0.335992098,-0.814462781,9.924646378,-1.587237477,-0.871678114,2.315283775
5.766435999999885,-23.19518661,8.230462074,-150.9152069,-2.371493816,-0.430107594,9.490950584,-1.169136286,-4.282700062,0.787983537
5.774768999999651,-23.18314362,8.225664139,-150.8881836,1.432453036,-0.190284386,7.161062717,0.009259545,-2.560987949,3.036990166
5.783101999999872,-23.17544937,8.178261757,-150.8765106,-2.519356012,-0.228073418,13.93673134,-0.073333554,-6.228126049,-1.395258546
5.7914349999996375,-23.18609428,8.160406113,-150.8322906,-0.353772044,-1.778443456,6.891531467,-3.010646105,-4.822751045,4.343393326
5.799767999999858,-23.16137695,8.118153572,-150.818222,-1.621209383,0.966073453,12.88816833,1.930506706,-5.771553993,-0.889300644
5.808100999999624,-23.1679554,8.07695961,-150.7977295,-0.958572686,-0.722583413,10.75147152,-2.119552135,-6.307786942,0.69823122
5.816433999999845,-23.145998,8.034284592,-150.77005,-2.944788456,-0.875323951,10.80570889,1.372756243,-6.454940319,0.578766406
5.824766999999611,-23.13202477,8.009789467,-150.7548218,0.08024133,-0.647108138,9.065552711,0.429666013,-4.242613792,0.968128502
5.833099999999831,-23.13285828,7.938519955,-150.7310791,-2.44863987,-0.663335323,9.397327423,-1.291674852,-9.425014496,-1.196466684
5.841432999999597,-23.12685394,7.904908657,-150.7191772,0.452676117,-1.143392086,4.833926678,-0.464104325,-5.092570782,0.17485556
5.849765999999818,-23.09806061,7.853943348,-150.7114716,-1.0256778,0.804109454,13.39638042,2.531160355,-6.437139511,-1.988509893
5.858098999999584,-23.09988785,7.820053577,-150.7032623,-1.557446718,-1.097982526,11.51197815,-1.338138819,-4.94572401,-0.25155738
5.866431999999804,-23.05498314,7.787796497,-150.6833801,-2.839498043,-0.132791191,9.886745453,4.268215179,-4.940012455,0.227185458
5.87476499999957,-23.00880051,7.79899025,-150.7058258,-0.259234965,-0.288422853,11.81059933,4.92265892,1.453979254,-1.474124789
5.883097999999791,-22.95605278,7.772033215,-150.7008667,-3.00600028,0.186401501,13.58181286,5.452898979,-3.661375046,-1.150130272
5.891431000000011,-22.91556931,7.775865555,-150.7059326,-0.89890027,-1.765289307,5.627793789,3.959281445,-0.163290739,0.072706006
5.899763999999777,-22.83773232,7.752426147,-150.6972046,-0.13265574,-0.101813167,10.97111511,8.401943207,-3.446472406,-0.5685848
5.908096999999998,-22.78849983,7.747837067,-150.7035522,-1.017099619,-0.054172829,9.265758514,5.034772396,-1.01893425,-0.495123148
5.916429999999764,-22.73187256,7.757688046,-150.7016907,-3.060528517,-1.155164123,11.62538528,5.968103886,0.551231146,0.233204812
5.9247629999999845,-22.67094803,7.783857822,-150.7147827,-0.438172996,-1.384518147,11.23300648,6.547933102,2.690864801,0.197780311
5.93309599999975,-22.60682487,7.789170742,-150.7124329,-2.681516647,-0.005858676,11.46436787,6.859146595,0.029008124,0.073474437
5.941428999999971,-22.5918541,7.840299129,-150.7282562,0.253225058,-1.778409243,3.96186161,1.081112742,5.594648361,1.01510489
5.949761999999737,-22.53849411,7.794559002,-150.7264404,-0.36058417,-0.558683753,8.545639038,5.576974392,-5.604599953,-2.336812258
5.9580949999999575,-22.50079918,7.844182968,-150.7467651,-2.715238571,-1.156344652,14.39587402,3.879441977,5.621364117,0.476565629
5.966427999999723,-22.48993111,7.873805523,-150.7589722,-2.034141064,-0.10649921,14.97005177,0.706504643,3.387111425,-0.41021201
5.974760999999944,-22.50176048,7.956982613,-150.8114166,-1.330958009,-1.97001195,6.913715839,-1.527684212,10.80932236,-1.531756878
5.98309399999971,-22.46450615,7.959445953,-150.8143616,-1.406266928,-0.020369882,11.46217251,3.722068548,-0.045695793,-0.640176535
5.991426999999931,-22.46601295,8.033384323,-150.842865,-0.342054546,-1.550217032,8.239211082,-0.680570304,8.696865082,0.669620216
5.9997599999996964,-22.48309135,8.009840965,-150.8387451,-1.304024816,-1.026318073,11.90318298,-2.917435884,-3.249652386,-1.056049347
6.008092999999917,-22.52872276,8.128627777,-150.8877869,-3.044320107,-1.304433942,10.06588554,-5.628166199,14.59347153,0.500463843
6.016425999999683,-22.53864861,8.115011215,-150.8828888,0.343175888,-0.061634526,9.591757774,-2.073088169,-2.185508966,-0.516229391
6.024758999999904,-22.58489609,8.195890427,-150.9246826,-2.155815363,-2.282493114,8.834290504,-5.809565067,10.08441448,-0.487669438
6.0330919999996695,-22.66029167,8.174592018,-150.8963776,-0.067301787,-0.144601613,5.893944263,-10.32896709,-4.105194092,1.690526843
6.04142499999989,-22.73229027,8.257435799,-150.9618835,-1.73038435,-1.648354173,11.59109211,-8.493834496,11.37445068,-2.935647726
6.049757999999656,-22.77654076,8.26008606,-150.9369965,-2.137966633,-0.375918835,15.91826439,-6.535778999,-1.302714348,2.419559002
6.058090999999877,-22.85999107,8.384813309,-151.0020905,-1.367547631,-0.852843821,10.76260948,-9.866555214,15.98432446,-0.896600962
6.0664239999996425,-22.94274521,8.329613686,-150.9611511,0.858719289,-0.298789889,4.672650337,-11.44223785,-8.447498322,1.471422672
6.074756999999863,-23.02408218,8.410320282,-151.0136871,-2.340005398,-2.305922985,11.02362919,-9.641173363,10.90009975,-2.389039993
6.083089999999629,-23.09693336,8.361899376,-150.9781342,0.329823226,0.505471468,10.48795986,-10.34110928,-7.799817562,1.99981904
6.09142299999985,-23.19849968,8.434123039,-151.0387115,-4.522178173,-0.5843274,17.03147316,-12.09842396,10.00370407,-2.833190918
6.099755999999616,-23.27600479,8.378533363,-150.9844818,0.519852877,-1.642731667,0.488836139,-11.05057049,-9.121332169,2.852952003
6.108088999999836,-23.34810638,8.428623199,-151.038147,-1.065090537,-0.211690903,9.747843742,-8.695828438,7.213211536,-3.026168108
6.116421999999602,-23.4523735,8.33778286,-150.9896545,0.668930233,-0.96884501,5.723213673,-14.15868282,-12.74316216,0.524259508
6.124754999999823,-23.53489685,8.382089615,-151.0315399,-3.815055132,-1.020633578,17.30559921,-10.15268898,6.039004803,-2.019093275
6.133087999999589,-23.60031319,8.342998505,-150.9860077,0.430109918,0.228788078,10.95849419,-9.442254066,-6.913027287,2.649267912
6.141420999999809,-23.67150688,8.375008583,-151.0159302,-4.424415112,0.025457073,15.21904087,-8.987983704,4.158765793,-1.38122201
6.149753999999575,-23.72970009,8.334079742,-150.9761047,1.165539026,-1.549636722,0.103771165,-8.475878716,-6.85103941,1.928585529
6.158086999999796,-23.75449944,8.328090668,-150.9945221,-1.497002125,-0.051365159,16.19356346,-3.627052069,-0.582313955,-1.914331079
6.166419999999562,-23.81128883,8.282925606,-150.9473572,-0.609221518,-0.743934274,6.132212162,-8.430490494,-7.670643806,2.511027575
6.174752999999782,-23.84163475,8.269673347,-150.9552612,-3.442531824,-0.507206023,12.39824104,-4.486742973,-1.906032205,-1.070828795
6.183086000000003,-23.85225105,8.252836227,-150.9364929,-0.314437121,-0.199852765,9.475489616,-2.39503336,-3.199729919,0.793106258
6.191418999999769,-23.86470795,8.239206314,-150.9508362,-3.842779875,-0.097205482,14.05941868,-2.223751307,-1.627272487,-1.811899781
6.1997519999999895,-23.88228226,8.227061272,-150.9358063,-0.110735856,-2.296432018,3.141149998,-3.16507411,-2.509247065,0.615394711
6.208084999999755,-23.84026527,8.193558693,-150.9368591,-0.074972369,0.535994351,7.911119461,4.092783928,-4.426422119,-1.378404498
6.216417999999976,-23.8301487,8.164754868,-150.924118,-1.239347935,-0.108092174,9.216496468,0.199189097,-4.224966049,-0.442614019
6.224750999999742,-23.80066872,8.180171967,-150.9373169,-3.093722343,-0.761034846,13.31256104,2.790453196,1.511278272,-0.293795288
6.2330839999999625,-23.749506,8.1822052,-150.9457703,-1.404247284,-1.105268717,11.60472488,5.487761021,0.176469296,-1.249616146
6.241416999999728,-23.6833744,8.241359711,-150.9737091,-4.17903614,0.531930923,15.94350147,7.445995808,7.029994488,0.18991676
6.249749999999949,-23.64662743,8.25703907,-150.9897614,-0.169901639,-1.577910185,2.878578663,3.888100147,2.035934687,-1.417696834
6.258082999999715,-23.56357956,8.298647881,-151.0248871,-0.94997555,-0.516936481,10.45177937,9.602405548,5.442449093,-1.447716713
6.266415999999936,-23.47926331,8.307656288,-151.024292,-0.978467286,-0.73404634,8.054930687,9.30950737,0.510863185,0.068684585
6.2747489999997015,-23.41166306,8.396479607,-151.069397,-3.222164631,-0.386872292,13.52937126,7.937148571,11.13124371,-0.34738031
6.283081999999922,-23.34388924,8.436841965,-151.1031952,-0.588788807,-1.240970492,7.581674576,7.929104328,5.585837364,-2.18935132
6.291414999999688,-23.2271347,8.536273003,-151.1422119,-2.822044849,-0.975274146,11.90834141,13.73447037,12.00673866,0.805939257
6.299747999999909,-23.16692162,8.59804821,-151.1656799,0.623012841,-0.93601495,5.566540241,6.84764576,7.457496166,-0.066930003
6.3080809999996745,-23.0904274,8.641108513,-151.1921844,-1.817778468,-1.304217339,7.401747704,8.6858778,5.205261707,-0.519123793
6.316413999999895,-23.00638199,8.738202095,-151.2406158,-2.071058512,-1.280030489,11.53937721,10.16845608,12.51848507,-1.154075146
6.324746999999661,-22.92115021,8.860157013,-151.2972717,-2.899293423,-0.219230711,20.28126717,10.30134296,15.3271122,-0.156374946
6.333079999999882,-22.87306976,8.966362953,-151.3453217,-0.373979568,-1.671825767,3.379683733,5.864750385,13.50419712,-0.715456903
6.341412999999648,-22.78408623,8.998053551,-151.3599091,-1.013114929,-0.001849022,8.103169441,9.987850189,3.422996998,0.165122196
6.349745999999868,-22.71915245,9.133922577,-151.4223633,-0.837463021,-1.961026192,10.98235035,8.176848412,17.44569588,-0.946984172
6.358078999999634,-22.64925003,9.151578903,-151.437561,-2.963013887,-0.395107448,14.13026714,7.712946892,1.902305484,-0.568303108
6.366411999999855,-22.60910416,9.327513695,-151.5045776,-2.035433054,-2.51401782,7.00962925,5.311127186,22.08786964,0.369856924
6.374744999999621,-22.54472923,9.253334045,-151.4800262,2.431060791,-0.732815802,4.271841526,6.294045925,-10.05492115,-0.518150449
6.383077999999841,-22.50620079,9.391433716,-151.5465698,-4.289872646,-0.245644212,15.24560928,5.119966984,17.87263107,-1.35660708
6.391410999999607,-22.46808434,9.358727455,-151.5393524,0.076947212,-1.768612266,8.095314026,3.484470844,-4.652544022,-0.54102385
6.399743999999828,-22.40272141,9.508636475,-151.6146088,-2.34846735,-1.575923204,15.90619755,8.525074959,19.57416534,-1.794559598
6.408076999999594,-22.39264488,9.429884911,-151.592926,2.27796936,-1.078889012,2.882879257,-0.159986526,-10.39530849,-1.103256345
6.416409999999814,-22.37757492,9.491253853,-151.6278687,-5.121991158,-1.413169146,15.3020525,1.699645281,7.931640148,-1.445334554
6.42474299999958,-22.33618355,9.520225525,-151.66362,1.421127081,-1.033684254,4.53777504,4.708856583,4.088736057,-2.328820705
6.433075999999801,-22.30264473,9.500320435,-151.6680603,-3.664461136,-0.736088753,15.32461739,3.315032721,-2.461835384,-1.821120977
6.441408999999567,-22.30022621,9.549658775,-151.691391,1.261295438,-2.462942362,0.017763074,-0.201481566,5.819617748,-0.115340896
6.449741999999787,-22.24653053,9.432776451,-151.6511383,-1.803990126,0.334356219,15.03391361,4.85065794,-15.23824406,-1.334937215
6.458075000000008,-22.22079468,9.58816433,-151.7200928,-4.04113102,-1.038358569,17.67726326,3.489338636,19.61394119,-0.236163318
6.466407999999774,-22.21681595,9.44192028,-151.6635132,0.785691023,-1.845082641,2.648334026,-1.443413615,-19.23055649,-0.865146577
6.4747409999999945,-22.21266365,9.549586296,-151.7245941,-1.541340828,-1.472328305,14.19577503,0.744362712,13.96625614,-1.560445189
6.48307399999976,-22.20437622,9.43783474,-151.674942,-0.393089294,-0.968611479,6.06627512,-0.786100984,-15.08947563,-0.054020427
6.491406999999981,-22.1830616,9.552269936,-151.7179565,-5.665016651,-0.757611752,16.65426826,2.461285114,13.94174099,0.643493712
6.499739999999747,-22.16156006,9.45772934,-151.6911469,4.137689114,-1.609297514,-3.976323605,1.252036691,-12.15549183,-1.770711899
6.508072999999968,-22.14942741,9.424834251,-151.70401,-4.539965153,-0.802539825,19.43673897,0.76124227,-3.773258686,-2.735754013
6.5164059999997335,-22.17602348,9.460929871,-151.7186737,-0.090780996,-2.092184067,7.937636852,-3.70153904,4.214143753,-0.40011999
6.524738999999954,-22.14862633,9.376729012,-151.7011871,-2.77915597,-0.027045406,15.39540672,1.997385502,-10.83159542,-1.728653669
6.53307199999972,-22.14386559,9.460002899,-151.7409821,-0.252996057,-1.73518908,4.512941837,0.553818226,10.57984543,-1.023596048
6.541404999999941,-22.15272141,9.253152847,-151.6805878,-0.206837699,-1.687695146,8.363331795,-3.180674791,-26.36584663,-2.603124619
6.5497379999997065,-22.15296555,9.403395653,-151.757019,-3.758827686,-1.639178991,18.01538658,0.660168707,19.65707397,-2.008156776
6.558070999999927,-22.14234734,9.253584862,-151.7021027,0.870579004,-0.35497278,2.844827414,-0.733848035,-19.78023911,-0.625576615
6.566403999999693,-22.15129089,9.330485344,-151.7270966,-3.363432169,-1.67595768,8.644489288,-1.388727188,9.21081543,0.310611039
6.574736999999914,-22.1368866,9.161269188,-151.6821442,2.07917738,-0.711697817,4.478366852,-0.080454342,-21.50402832,-2.570389271
6.58306999999968,-22.11804771,9.271166801,-151.7296906,-7.722098351,-1.947333217,27.52495766,2.376374245,13.88595486,-0.676625848
6.5914029999999,-22.14669991,9.205360413,-151.7043152,3.642581701,-0.676866651,-1.96102488,-4.864348412,-9.118770599,-0.076509729
6.599735999999666,-22.1476841,9.167051315,-151.7059631,-3.211611509,-1.882812262,11.30320549,-0.884331465,-4.637175083,-2.342677832
6.608068999999887,-22.14883041,9.171234131,-151.710434,-1.366343379,-1.336866498,10.2600174,-0.995266795,-0.020593846,-0.152046114
6.616401999999653,-22.1538105,9.191617966,-151.7224884,-2.921781778,-0.625976503,14.51122665,-1.165755033,2.350708008,-0.825956583
6.624734999999873,-22.20856094,9.140925407,-151.7162476,1.288773298,-2.163011312,-1.135779381,-7.637883663,-6.61072731,-1.432553053
6.633067999999639,-22.19953156,9.101740837,-151.7094269,-3.976642609,-0.651124418,14.2993288,0.155440003,-5.111039162,-1.455708265
6.64140099999986,-22.21545029,9.182021141,-151.7406769,-0.666822195,-0.925964952,12.3446207,-2.254334211,9.636626244,0.349544674
6.649733999999626,-22.24306488,9.106863976,-151.7421722,-1.733324766,-1.322253585,9.577005386,-4.083037376,-8.734633446,-4.001917362
6.658066999999846,-22.2662487,9.15258503,-151.7543182,-0.358689606,-3.148506165,5.022122383,-3.503233433,4.912695408,0.951863587
6.666399999999612,-22.26538849,9.12441349,-151.7506714,-2.562689543,0.284862578,19.70406151,-0.764405549,-3.745287418,-1.307171226
6.674732999999833,-22.29945755,9.204636574,-151.7828522,-0.669512212,-0.76854825,2.621868849,-4.413333416,9.676354408,0.245192289
6.683065999999599,-22.27934837,9.098644257,-151.7379913,0.509743214,-1.649155855,0.358866245,0.759039581,-14.2370348,-0.332370371
6.691398999999819,-22.27649498,9.173243523,-151.7728577,-2.400558949,-1.301175952,19.01749229,0.060206264,9.148060799,-0.246767566
6.699731999999585,-22.27205467,9.116168022,-151.7521515,-2.897856474,-0.706249774,13.26590347,-0.660463154,-7.719414234,-0.754313707
6.708064999999806,-22.26946259,9.219742775,-151.7838745,-0.21568422,-2.292207003,3.223203659,-0.032273933,12.22481728,1.415327311
6.716397999999572,-22.25118256,9.058498383,-151.7277069,1.377696157,-0.098111495,13.67621613,0.325621039,-20.88129425,-1.597483158
6.724730999999792,-22.26634789,9.194108963,-151.7839355,-6.300505161,-1.211576104,17.98774529,-1.704089761,16.87037086,0.215044379
6.733064000000013,-22.26005363,9.086610794,-151.7317047,0.781694531,-1.885749221,-1.695682287,-1.037914753,-14.73492432,0.413196117
6.741396999999779,-22.26502609,9.119075775,-151.7535553,0.35786432,-1.37271142,8.11770916,-1.120827675,3.90820694,-0.792171419
6.74973,-22.22304916,9.017637253,-151.6992035,-2.529880762,-0.075067468,11.89887142,3.210885525,-14.15837193,0.927606821
6.7580629999997655,-22.22042847,9.13435173,-151.7406769,-3.649235249,-2.115909576,17.05914688,0.146884859,14.11937618,0.944486797
6.766395999999986,-22.20615387,8.954369545,-151.670639,2.838226318,-1.560456634,0.757102787,-0.405140519,-23.58608246,-0.907845616
6.774728999999752,-22.21112823,9.033332825,-151.7177582,-4.940067768,-2.282678366,15.58272934,-0.658388436,10.18733311,-1.417671204
6.783061999999973,-22.22545242,8.969519615,-151.6815186,0.485176504,-0.074041449,10.45715809,-3.197143555,-9.164645195,0.652663529
6.7913949999997385,-22.24104118,9.025732994,-151.715744,-2.378319979,-2.502464056,5.81967783,-2.178874731,7.07363987,-1.007382154
6.799727999999959,-22.21818161,8.883481026,-151.6477509,1.188278317,-0.944966376,2.394053698,0.673744202,-19.30312347,0.577383459
6.808060999999725,-22.21581459,8.962620735,-151.7024841,-4.659311771,-0.948127568,22.18192291,0.360584438,10.55443573,-2.25502634
6.816393999999946,-22.2322731,8.896728516,-151.6728058,-0.312618554,-1.728956342,6.246865749,-3.32580328,-9.102068901,-0.162086874
6.8247269999997116,-22.22753906,8.955884933,-151.6986847,-1.669187546,-1.654382586,8.801766396,0.108335406,7.04582262,-0.004892319
6.833059999999932,-22.21691895,8.873544693,-151.6529541,0.938164353,-0.317912579,9.730974197,-0.373506784,-11.64961052,0.85424763
6.841392999999698,-22.21884155,8.984996796,-151.705246,-6.03956604,-1.407908678,17.36165619,-0.205298126,14.02639675,-0.501321912
6.849725999999919,-22.22436714,8.935666084,-151.6788025,0.950762391,-2.167586327,-2.872293711,-1.955314159,-7.117991447,0.236406624
6.858058999999685,-22.20594406,8.956501007,-151.6989136,-1.059366584,-0.863665462,12.2475071,1.651055336,2.545658112,-1.153152943
6.866391999999905,-22.18366623,8.937752724,-151.6669922,-2.702769279,-0.916541576,13.13189888,1.278777957,-3.964878798,2.228553772
6.874724999999671,-22.18175125,9.067733765,-151.7181396,-3.258656263,-1.21096909,13.11542511,0.244961783,16.04579735,0.426080078
6.883057999999892,-22.16362572,8.992507935,-151.6945801,2.068794012,-1.76630044,0.36176303,0.934420168,-9.866603851,-1.24805367
6.891390999999658,-22.14712906,9.076114655,-151.7246704,-4.134346008,-2.59473443,18.61041641,1.610251904,9.970123291,0.584632158
6.899723999999878,-22.14616585,9.096857071,-151.7115326,-0.404501617,0.448268861,8.857302666,-0.931871414,1.266227007,1.954302192
6.908056999999644,-22.12687492,9.175442696,-151.7292328,-1.559837937,-1.869859576,4.515189648,1.711889029,8.85539341,1.721801758
6.916389999999865,-22.08692551,9.083333969,-151.690033,1.311055064,-1.455518126,2.090967894,3.249332905,-12.44222069,-0.281628579
6.924722999999631,-22.03442955,9.199336052,-151.7355042,-4.943938255,-0.549322128,22.73568535,6.228729725,14.2565136,0.345395207
6.933055999999851,-22.01292038,9.175477982,-151.7319183,0.833506405,-1.678192377,6.059615612,1.713579178,-3.265916824,-1.105484486
6.941388999999617,-21.95993805,9.20772171,-151.7293396,-1.894830227,-2.203493834,7.301358223,5.375416279,2.824059248,1.79759419
6.949721999999838,-21.91489029,9.171331406,-151.7245789,0.144663364,0.248254031,12.29352665,4.518081665,-4.714427948,-1.53470242
6.958054999999604,-21.8683815,9.267360687,-151.7591705,-5.677073479,-1.066004038,16.08465004,5.309921265,11.57080936,0.565370321
6.966387999999824,-21.83170128,9.199586868,-151.7248383,2.876361847,-2.833924294,-6.407774925,2.943421125,-9.514842987,0.321138442
6.97472099999959,-21.74044228,9.198606491,-151.7284393,-2.971379519,-0.2327483,15.90711021,10.10308743,-0.566049039,-0.457419097
6.983053999999811,-21.67217064,9.216259003,-151.7215271,-1.135493398,-1.363681555,11.82153416,7.260906219,1.214358211,1.117485166
6.991386999999577,-21.60252953,9.235507965,-151.7225037,-1.902211547,-1.274568915,9.515800476,7.4490695,1.558152556,0.769771934
6.999719999999797,-21.5547142,9.188239098,-151.6939697,1.62267375,-2.009686232,6.467136383,4.391496658,-6.970401287,0.631992817
7.008052999999563,-21.47834587,9.232850075,-151.7065735,-5.977586269,-0.904348791,20.28264618,8.474764824,4.889001846,0.626152873
7.016385999999784,-21.4372654,9.239520073,-151.6923523,3.17890811,-1.373989582,-1.928978443,3.859207153,-0.324020058,1.434614778
7.024719000000005,-21.34041023,9.119133949,-151.6514893,-1.316150546,-1.145754218,6.449313641,9.915235519,-15.83526421,-0.757233858
7.0330519999997705,-21.24147224,9.156514168,-151.6470337,-3.385701895,-1.581806302,15.52772427,10.99085236,3.535494566,1.694087267
7.041384999999991,-21.12755203,9.107720375,-151.6261444,-2.251770973,-0.005544398,16.00406647,12.34541035,-6.978266239,0.214480847
7.049717999999757,-21.02943802,9.113796234,-151.622757,1.107216239,-1.918351054,1.245219827,10.91242218,0.082772419,0.21125342
7.058050999999978,-20.89083672,8.955058098,-151.5639496,-1.925063491,-0.177651107,14.4034729,14.60379887,-20.88952255,-0.316361576
7.0663839999997435,-20.7678833,9.062124252,-151.5906067,-3.296344757,-1.134139776,14.50929737,14.45812607,12.67862797,1.190537214
7.074716999999964,-20.62154961,8.895899773,-151.5291595,-0.212278306,-2.208827734,0.900366306,15.50273132,-21.81020355,-0.329450488
7.08304999999973,-20.48320198,8.937620163,-151.5331573,-1.005462885,-1.242065549,5.896641254,15.87853718,4.400821686,0.889057457
7.091382999999951,-20.28652,8.775523186,-151.4797058,0.002625117,-0.020606866,11.37679672,21.71454811,-21.00115395,-0.963326454
7.099715999999717,-20.09831238,8.847819328,-151.4960632,-5.645018578,-1.36854279,20.79461861,22.08927917,8.358454704,0.750612795
7.108048999999937,-19.88458443,8.667649269,-151.4312592,3.73929882,-0.40638417,-0.229930863,23.55708885,-23.51821899,-0.260240853
7.116381999999703,-19.6430912,8.671998024,-151.421814,-3.183163166,-1.500415444,14.40617371,28.01283836,-0.340285361,0.803224564
7.124714999999924,-19.40856743,8.490474701,-151.3660889,0.133585557,0.026523322,9.508296013,26.23462677,-23.32270813,-1.104256392
7.13304799999969,-19.13874435,8.486912727,-151.3458252,-4.433557034,-2.064849138,12.91795921,31.22323036,-1.650121689,1.70466733
7.14138099999991,-18.85139465,8.267725945,-151.2684479,3.470517874,-0.739791572,-1.23831439,32.23430252,-28.40485001,-0.027304824
7.149713999999676,-18.53900337,8.151950836,-151.2316742,-5.06223774,0.144064069,15.55550289,36.06188202,-15.01231861,-0.741891742
7.158046999999897,-18.20905876,8.022271156,-151.179184,0.67664665,-1.743192315,8.528440475,37.80816269,-17.28927612,0.903838098
7.166379999999663,-17.83449554,7.942358494,-151.1385651,-2.464735031,-1.197013855,13.55403709,43.47623062,-11.06519032,1.196763158
7.174712999999883,-17.49220657,7.735259533,-151.0502167,2.506353378,-0.341894448,6.121302128,38.74243927,-27.39406776,2.285473108
7.183045999999649,-17.12278557,7.621107101,-150.9931335,-5.303572178,-1.670018196,15.70831203,42.61986542,-15.55012131,1.980816364
7.19137899999987,-16.7066021,7.48345232,-150.9183807,0.370774895,0.05710844,6.040567398,47.88780594,-18.89392471,3.449669123
7.199711999999636,-16.28412437,7.304985523,-150.8366089,-2.168281078,-1.097725391,5.348042965,48.63923645,-23.75045013,2.826345682
7.208044999999856,-15.8175745,7.105252266,-150.740509,-1.153526664,-1.120426297,9.911553383,53.66776276,-26.68983269,4.094512463
7.216377999999622,-15.3175993,7.022916317,-150.6827393,-1.268881559,-0.108836681,14.60466576,58.3504715,-11.81703472,3.550335884
7.224710999999843,-14.82817173,6.814819813,-150.6100006,-0.80828315,-0.486476541,8.898258209,56.88619614,-26.81962967,1.447990417
7.233043999999609,-14.31470585,6.628465652,-150.5127106,-1.079055905,-1.706891418,7.04067564,59.38269043,-25.03857231,5.285862446
7.241376999999829,-13.73888493,6.453736305,-150.44841,-2.001278162,0.277453661,13.34492874,67.35554504,-22.67702293,2.040349245
7.249709999999595,-13.16373825,6.266654015,-150.3617859,-1.095139623,-1.561021328,7.504437923,67.07169342,-24.69080162,4.40273571
7.258042999999816,-12.58648968,6.049760342,-150.2982025,-0.933012187,-0.939508438,2.495462418,67.58368683,-27.54700661,1.31966424
7.266375999999582,-11.95420742,5.838419914,-150.2160034,-1.006031275,-9.62317E-05,15.78927803,74.05939484,-27.32054901,3.772933245
7.2747089999998025,-11.30255318,5.683831692,-150.1672974,-2.203565359,-1.239496469,12.62144661,76.75680542,-19.7960434,1.56051743
7.283041999999568,-10.65652847,5.428492546,-150.076416,0.421136081,-0.325594276,8.12874794,75.67520142,-32.60020065,4.394648075
7.291374999999789,-10.00326443,5.211452961,-150.0158386,-2.979347706,-0.808880448,14.11674023,76.87063599,-27.36448669,1.99081409
7.29970800000001,-9.288779259,5.045985222,-149.9242859,-2.122993708,-1.870476365,7.665482998,83.9635849,-21.86112785,7.035367966
7.3080409999997755,-8.558979988,4.771787167,-149.8642578,2.387708187,0.313923776,5.912665844,86.12146759,-34.04608154,1.414851308
7.316373999999996,-7.81242609,4.51540947,-149.7921906,-3.227463007,0.287328005,13.40079212,88.09502411,-32.13315582,3.728373289
7.324706999999762,-7.029837132,4.319280624,-149.7315674,-1.828937531,-0.932382464,9.136372566,92.51997375,-24.69106483,3.471000195
7.333039999999983,-6.178979397,3.996616125,-149.6750946,1.159997463,-0.712113023,5.426890373,100.8206787,-39.69305038,1.834113479
7.341372999999749,-5.300261974,3.740327835,-149.6134949,-2.177445889,0.934720635,17.85579109,104.1170883,-31.75998688,3.565218687
7.349705999999969,-4.409480572,3.514291525,-149.5563354,-1.173530459,0.007531844,9.746131897,105.6700516,-28.06017876,4.099614143
7.358038999999735,-3.488224268,3.186173677,-149.5084381,-0.032761525,-0.617739141,3.437307835,109.3941422,-40.09257126,2.111137867
7.366371999999956,-2.51693058,2.959530592,-149.4629364,-4.27801609,-1.286204457,11.77738285,115.4725342,-27.8989048,3.594553471
7.374704999999722,-1.486951113,2.704820633,-149.412796,1.672505498,0.112482816,8.075037003,122.4772568,-31.18792152,4.006135464
7.383037999999942,-0.435513377,2.393373966,-149.4026642,-3.043094873,-0.580596685,13.33804512,125.3298721,-37.84247208,0.161333665
7.391370999999708,0.583209038,2.220846415,-149.3322601,-0.625384331,0.120207667,18.2918148,121.0816727,-21.14385986,7.49668169
7.399703999999929,1.585003734,1.996937037,-149.3371582,-0.372675389,-1.822234631,-0.345391661,119.4473343,-27.32852173,-0.503326416
7.408036999999695,2.645438433,1.756850362,-149.2651062,-2.022916317,-0.236065686,8.810684204,126.1419144,-28.94246674,8.709263802
7.416369999999915,3.754908562,1.597183228,-149.2610474,-3.140877247,-1.721587896,14.79781246,132.3340149,-19.55616188,1.129131675
7.424702999999681,4.803440094,1.346360445,-149.196228,0.947554827,-1.235732913,7.160587788,124.8351669,-29.88783836,9.576340675
7.433035999999902,5.856071472,1.239167452,-149.1967926,-2.679251671,-0.798740268,18.87799644,125.4849472,-13.31423569,0.169325292
7.441368999999668,6.886809349,1.002142191,-149.1241913,0.145666972,-2.41040802,0.59553504,122.6868515,-27.81227112,10.85921669
7.449701999999888,7.93696785,0.821117759,-149.1340332,-1.707150578,1.163361669,22.79940605,125.2484283,-22.14712524,1.20748508
7.458034999999654,8.966273308,0.677245915,-149.0655212,-2.137759209,-2.208231688,-1.896631718,122.5745773,-16.39320374,9.755659103
7.466367999999875,9.985965729,0.47633329,-149.0652618,1.930233479,-1.275775552,19.81720352,121.5741043,-24.22845078,3.574143648
7.474700999999641,10.96472073,0.34169507,-149.0277557,-4.044608116,-1.948144197,5.530631065,116.583107,-15.60504913,6.490636826
7.483033999999861,11.95047569,0.133083597,-149.0213013,1.562681198,0.380360037,17.78432846,117.497673,-24.83354568,5.305274487
7.491366999999627,12.89074898,0.046463221,-148.9931641,-5.504926682,-4.295942783,6.672064781,111.990387,-9.877829552,5.107393742
7.499699999999848,13.79591179,-0.116506048,-148.980545,4.959434986,0.27401334,14.52154541,107.8317032,-19.13326836,5.558155537
7.508032999999614,14.69996738,-0.236132443,-148.9768219,-6.78772831,-2.261819363,9.537138939,107.6540451,-14.25672436,3.544803858
7.5163659999998345,15.57465363,-0.356877118,-148.9545898,5.089022636,-0.302527785,12.33135891,104.1850204,-13.74273396,5.934274673
7.5246989999996,16.41255188,-0.487201095,-148.9821472,-6.180571079,-3.751974344,17.20300674,99.6916275,-16.39784241,0.704897285
7.533031999999821,17.14040947,-0.616644859,-148.9726563,4.432953835,-2.08560729,11.28512096,86.56282043,-14.99762058,5.147996902
7.541364999999587,17.82477951,-0.653773844,-148.9833679,-5.622045994,-4.577552319,8.752537727,81.28135681,-5.089449883,-0.311522126
7.5496979999998075,18.46940422,-0.802802384,-148.9852905,0.723344624,-0.976140261,11.16793919,76.55835724,-17.51756668,4.927398205
7.558030999999573,19.02961731,-0.815051317,-149.0037842,-2.775440454,-2.543067455,7.266958714,66.37007904,-2.562073708,-2.053347588
7.566363999999794,19.54659081,-0.875240386,-148.9680176,1.515942574,-2.594340324,8.833440781,61.30566025,-5.851412773,6.012872219
7.57469699999956,20.02389908,-0.940384269,-149.0320587,-1.26980114,-2.406983852,17.96389198,56.33221054,-10.41401005,-5.009237289
7.583029999999781,20.39137077,-1.036698341,-148.9962463,-1.183775067,-2.0995121,16.7276535,43.37585068,-9.814393044,7.598258495
7.591363000000001,20.67690849,-1.008894205,-149.0241852,-1.619871855,-3.594042778,7.982371807,33.38651276,1.490762711,-4.731850624
7.599695999999767,20.90263367,-1.025553942,-148.9529419,2.636100531,-0.815756559,5.018428326,26.44283295,0.711448669,8.273594856
7.608028999999988,21.17532539,-1.079550624,-149.0118713,-3.89626193,-2.002367496,9.270571709,31.77811432,-9.042679787,-4.694351196
7.616361999999754,21.41871452,-1.187710643,-148.9607239,2.298645496,-1.550882101,12.86605644,28.53191757,-10.31537342,10.00665855
7.624694999999974,21.52071762,-1.174366236,-148.9788208,-0.457680345,0.505115569,17.26519966,11.38344193,0.237508044,-3.03239274
7.63302799999974,21.6475029,-1.26405251,-148.9302063,-2.171831846,-3.326109171,10.48378849,14.54114151,-8.314868927,8.958388329
7.641360999999961,21.78576279,-1.295433521,-148.9410858,0.480876297,-1.044410586,7.37544632,15.75397301,-4.440176964,-0.242515609
7.649693999999727,21.91096115,-1.415872335,-148.9417877,-0.598508596,1.10055697,4.68654871,14.22524261,-13.89849377,4.875991821
7.658026999999947,22.07066917,-1.469555855,-148.9631653,1.45188868,-1.136720061,10.59645081,18.29380798,-7.392244816,-0.388388783
7.666359999999713,22.21896172,-1.54676044,-148.9526215,-4.566785812,-0.730081797,14.2938633,17.03177071,-8.558027267,4.23891449
