time,Euler_X,Euler_Y,Euler_Z,Acc_X,Acc_Y,Acc_Z,Gyr_X,Gyr_Y,Gyr_Z
0.0,-6.533675194,-4.44974947,-132.0898438,-3.359226465,-0.010723904,7.339045525,4.710824013,-43.24908066,-1.261797786
0.008333000000000368,-6.525762081,-4.748504639,-132.0897369,-0.27483663,-0.609547257,8.42946434,2.318116426,-36.7033577,-4.357767105
0.016666000000000736,-6.544811249,-5.12705946,-132.0446777,-1.370446563,-2.954675674,12.3253994,-0.480101407,-46.98719406,-0.129416183
0.024999000000001104,-6.488462925,-5.420312881,-132.0606842,-3.895737648,0.83895421,6.083976269,7.929100037,-35.99619675,-6.204350948
0.03333200000000147,-6.467122555,-5.676888943,-132.0281067,1.062656283,-0.332767248,9.807229042,4.305346966,-32.11447906,0.097436629
0.04166500000000184,-6.469965458,-6.037078381,-132.0251312,-2.100126505,-2.217742443,10.40631485,1.06240356,-44.07122421,-4.810963631
0.04999800000000221,-6.400819302,-6.238544941,-132.0151062,-2.879184961,1.054747581,8.082508087,9.765561104,-25.41754723,-1.831201434
0.058331000000002575,-6.380646229,-6.502757072,-131.9917603,1.704532385,-0.597911894,12.73745537,4.097948551,-32.90073395,-1.058342695
0.06666400000000294,-6.375239372,-6.767757893,-131.9868164,-4.358922482,-2.35697341,4.561268806,2.053238869,-32.94174194,-3.260016203
0.07499700000000331,-6.308514118,-6.86900425,-131.9617767,-1.71276927,0.423876673,9.538012505,9.702672958,-13.68682861,1.309732914
0.08332999999999657,-6.264001369,-7.117973328,-131.9788361,-0.602253556,-0.901226819,15.89682007,6.458993435,-30.55682182,-5.586072445
0.09166299999999694,-6.226420879,-7.25930357,-131.927887,-2.403486967,-2.575605631,2.673036814,6.641440868,-18.60243607,3.888140202
0.09999599999999731,-6.128863335,-7.412619114,-131.9754639,-1.140770793,0.767138064,12.64701462,12.31371403,-18.97560883,-7.921960831
0.10832899999999768,-6.097872257,-7.592704773,-131.8943024,0.172208026,-0.701405704,15.62260532,6.35748291,-23.59883308,7.007469177
0.11666199999999805,-6.004974365,-7.687083244,-131.9562683,-4.167863846,-1.46313715,-1.01055634,11.49446774,-11.79009438,-8.837540627
0.12499499999999841,-5.949038506,-7.782835007,-131.8977356,0.709366858,-0.384744018,13.54469872,8.992698669,-13.46903038,5.410239697
0.13332799999999878,-5.925844669,-7.961647034,-131.9501648,-1.893083692,-2.931877375,13.34531593,3.288177729,-21.78175354,-8.712929726
0.14166099999999915,-5.825510025,-7.916482925,-131.9202423,-3.336675882,0.572008014,6.062999725,13.90348816,3.946232319,3.797439575
0.14999399999999952,-5.779494762,-8.130437851,-131.9340057,2.38971734,-1.040734768,12.21119976,6.628327847,-26.70586777,-4.539652348
0.15832699999999988,-5.763406754,-8.154234886,-131.9290619,-4.091998577,-1.454360008,4.812116146,3.38112998,-3.982872486,0.002612652
0.16666000000000025,-5.657515526,-8.194505692,-131.9172363,1.227098584,-0.814990103,12.45099258,14.24377155,-6.282519341,0.602549374
0.17499300000000062,-5.665035248,-8.368191719,-131.9196014,-1.542796373,-0.603268921,6.073210239,0.391103923,-22.05651665,-2.653418064
0.183326000000001,-5.647222996,-8.309414864,-131.8944244,-3.503919125,-2.764842749,6.976509571,3.942594767,5.641715527,3.375521421
0.19165900000000136,-5.549262524,-8.448217392,-131.9082031,1.395455837,0.474666864,21.44394112,12.88132668,-17.4999218,-3.548174858
0.19999200000000172,-5.567005157,-8.480715752,-131.8603058,-3.596758842,-2.903142929,-3.984021664,0.056940451,-5.791213036,4.963680744
0.2083250000000021,-5.517953396,-8.485063553,-131.9057007,-1.267974973,0.222372815,11.84711552,6.44946003,-1.081087232,-5.70819664
0.21665800000000246,-5.51866436,-8.607582092,-131.8400421,0.745775938,-0.957942128,20.02434158,2.426872253,-16.75031853,6.021652222
0.22499100000000283,-5.475830078,-8.528217316,-131.8727264,-2.918379068,-0.454650432,-1.576754928,5.891889572,8.474393845,-3.266212225
0.2333240000000032,-5.511637688,-8.642428398,-131.8267975,2.413023472,-1.655880809,13.58415413,-2.10765481,-15.24773312,3.82046628
0.24165699999999646,-5.561103344,-8.632628441,-131.8387451,-4.386158466,-1.410247207,8.742349625,-4.784060478,0.224560007,-1.590733647
0.24998999999999683,-5.503619194,-8.607056618,-131.8248749,-0.578920364,-1.188838243,12.13735485,8.486405373,1.513877988,1.611237764
0.2583229999999972,-5.562499046,-8.702706337,-131.8022919,0.876366258,-2.531579256,4.89551878,-5.2917099,-12.76517868,1.265881538
0.26665599999999756,-5.581840038,-8.64098835,-131.8387146,-3.718482971,0.184341401,4.055700779,-1.641424537,6.393237114,-3.902137041
0.27498899999999793,-5.57460928,-8.747445107,-131.8352203,3.496160984,-0.898704767,20.25759888,2.27482605,-14.1618166,-1.153985381
0.2833219999999983,-5.620797634,-8.728104591,-131.8880463,-6.526769161,-1.059400082,-7.044289589,-5.139688015,1.839435101,-6.303470612
0.29165499999999867,-5.67566824,-8.633978844,-131.9218903,2.82246685,-0.640024602,18.01870728,-5.830991268,10.55188751,-3.178585768
0.29998799999999903,-5.641475677,-8.711844444,-131.9584808,-3.786595345,-0.998451233,5.757957935,4.786814213,-10.28492451,-5.564450264
0.3083209999999994,-5.701206207,-8.584302902,-131.9742889,1.008374691,0.089631014,2.621735096,-6.086877823,14.33229542,-0.649026394
0.31665399999999977,-5.798410416,-8.513997078,-132.0199127,-4.373662472,-3.186139345,6.17964983,-11.13485432,7.513296127,-4.867947578
0.32498700000000014,-5.871979713,-8.392204285,-131.9971466,1.107604027,-0.904227734,12.62238312,-7.077381134,12.83214569,3.845798731
0.3333200000000005,-5.890210629,-8.313154221,-132.0244751,-1.299144626,0.347799569,2.701341152,-1.297143459,8.685403824,-2.549167395
0.3416530000000009,-6.01012373,-8.210549355,-131.9826202,0.70332998,-3.472506523,-1.189845443,-12.30214977,10.64866066,5.924958706
0.34998600000000124,-6.123342991,-7.992863178,-132.0045471,-3.414956093,1.225116253,10.21758747,-12.6109581,24.81598282,-0.158923611
0.3583190000000016,-6.229361534,-7.881568909,-131.9653931,0.467111647,-1.30326426,9.611539841,-10.70709801,11.69548798,5.76860857
0.366652000000002,-6.30052948,-7.719703674,-131.9762421,-2.753870487,-2.110661268,1.404382467,-7.367617607,18.00604439,0.504190803
0.37498500000000234,-6.453054428,-7.540659428,-131.928894,1.804621696,1.912559748,-0.233130917,-16.19462204,19.27689934,7.649849415
0.3833180000000027,-6.62443161,-7.372585773,-131.9587402,-2.956103563,-1.776650429,6.629893303,-19.6650219,19.3597908,-1.525648952
0.3916510000000031,-6.776409149,-7.197295666,-131.9134064,1.164032698,-2.01821804,8.537302017,-16.18278694,19.18045998,7.518497944
0.39998400000000345,-6.892068863,-6.99327898,-131.9396362,-2.044468403,1.250708461,2.408149481,-12.91446209,23.22741508,-0.5251562
0.4083169999999967,-7.038113117,-6.852895737,-131.8997192,2.802242279,-1.29376483,1.464146018,-15.58277321,15.06317425,6.465958118
0.4166499999999971,-7.148386002,-6.680612564,-131.9238434,-2.691176653,-0.161216632,8.468836784,-12.22338772,19.41529083,-0.639600515
0.42498299999999745,-7.293068409,-6.59468317,-131.8800964,3.845782042,1.061277509,5.778867245,-15.40359688,8.119458199,6.131536961
0.4333159999999978,-7.391541004,-6.475502014,-131.9143066,-3.637901306,-2.899537325,4.327477455,-10.9179287,13.62313843,-2.510899782
0.4416489999999982,-7.442217827,-6.501816273,-131.8596649,6.429850101,1.811390519,6.670714855,-3.986970901,-5.428488731,5.707159519
0.44998199999999855,-7.473455429,-6.444059372,-131.9089355,-5.365273476,1.449831367,4.399427414,-3.048875093,6.552454472,-5.217812061
0.4583149999999989,-7.493368149,-6.566929817,-131.8654175,7.460945129,-1.003563643,8.088737488,-0.431331038,-16.37829781,2.929654837
0.4666479999999993,-7.496478558,-6.631094933,-131.8921814,-5.926461697,0.147849113,6.663126469,0.599706113,-8.671814919,-4.510192871
0.47498099999999965,-7.433439255,-6.831161022,-131.8873291,6.898366451,-0.091271959,10.61976719,9.000258446,-24.9634304,-2.83994174
0.483314,-7.341981411,-6.994995117,-131.8663483,-4.707387447,-0.984378219,3.445544481,12.62032032,-21.27269745,-0.387863755
0.4916470000000004,-7.226741314,-7.306969643,-131.8878174,4.752055168,1.452268004,5.216889381,14.84754372,-38.26205063,-7.619746208
0.49998000000000076,-7.157546997,-7.524115086,-131.848877,-2.715421915,-0.563240409,9.918146133,10.27333927,-27.51676369,1.039067864
0.5083130000000011,-7.035062313,-7.926017284,-131.8609009,2.932224035,-2.620800972,9.790530205,15.87215424,-48.76545715,-7.672109127
0.5166460000000015,-6.851336479,-8.266763687,-131.8302155,-1.347359419,1.611038566,6.045214176,23.89961815,-42.47995377,-1.660663962
0.5249790000000019,-6.669062614,-8.712535858,-131.8275909,1.733491302,0.811481714,6.562581062,23.28750992,-54.24245071,-6.282102585
0.5333120000000022,-6.508339882,-9.08555603,-131.80159,-2.020364523,-0.624248624,8.352770805,21.1016922,-46.2712059,-2.404119015
0.5416450000000026,-6.295229912,-9.532873154,-131.793869,0.926825404,-0.614296556,8.678427696,27.0512352,-54.89857864,-5.406351566
0.549978000000003,-6.049919128,-9.918662071,-131.7837372,-2.130838871,0.35883826,7.339648724,31.0112381,-47.240242,-4.080678463
0.5583110000000033,-5.865396976,-10.41018391,-131.7420349,1.991596222,-2.289270878,14.29148674,24.39347458,-60.26017761,-1.517764211
0.5666439999999966,-5.559937,-10.7230463,-131.7707825,-4.843004704,0.582331181,4.102101326,37.34711075,-38.48032379,-7.439276695
0.574976999999997,-5.306515694,-11.21123219,-131.7046814,2.303893328,-0.387987703,8.356244087,33.28857422,-60.14086151,1.911828637
0.5833099999999973,-5.064782143,-11.50184441,-131.7343445,-4.518055439,-2.72947526,8.428811073,29.63242722,-35.88901138,-6.94760704
0.5916429999999977,-4.789885044,-11.97204304,-131.6548767,2.399150372,-0.989748538,13.76313972,36.25499725,-58.50001907,4.131694794
0.5999759999999981,-4.512688637,-12.19231129,-131.6914063,-5.336844921,0.82253933,1.014862061,33.71504593,-27.08155251,-6.710236549
0.6083089999999984,-4.355368614,-12.54612446,-131.6018372,1.543820143,-3.837134123,17.66916847,22.54807854,-44.22623444,6.891294479
0.6166419999999988,-4.05994606,-12.73472309,-131.6391907,-6.044031143,-0.357963413,4.783801556,35.79613113,-23.74380493,-6.340314865
0.6249749999999992,-3.905992746,-12.93768406,-131.5601654,2.993854046,-0.07802166,10.08876705,21.94883347,-26.02335739,7.238025665
0.6333079999999995,-3.718680859,-13.09522152,-131.5862427,-6.745914936,-3.420825243,2.417752743,23.10282898,-20.17193031,-4.616572857
0.6416409999999999,-3.556650162,-13.1695776,-131.5255737,3.435575485,-0.262086719,21.91762161,22.43462372,-10.87910175,6.193500042
0.6499740000000003,-3.404253721,-13.25,-131.5516052,-6.067378044,-1.742759466,0.403530717,18.94119644,-10.53184795,-3.915919065
0.6583070000000006,-3.307413816,-13.24802589,-131.4903259,3.723789454,-2.699432373,12.16860104,14.67419338,-1.266406417,6.864462852
0.666640000000001,-3.247101307,-13.28267288,-131.4923248,-5.905841827,-0.651243985,8.13999176,8.51834774,-5.676179409,-0.784295142
0.6749730000000014,-3.200053692,-13.17386532,-131.4503174,1.92334497,-2.239885092,8.925678253,8.166870117,11.6774044,5.338289261
0.6833060000000017,-3.203938961,-13.1914072,-131.430954,-2.994919777,-1.944677949,4.727488041,1.403275967,-3.780341148,1.825449824
0.6916390000000021,-3.235157013,-13.01084042,-131.392807,0.545717001,-1.481765389,14.04963684,-1.362255096,19.82655144,5.349970341
0.6999720000000025,-3.271085739,-13.00628376,-131.3680267,-3.442451954,-1.452394247,14.28365517,-2.274966478,-0.702739418,2.630863667
0.7083050000000028,-3.345545053,-12.75188351,-131.3490601,-0.977296472,-1.929573417,-1.609670997,-7.06119585,29.26620674,3.680562735
0.7166380000000032,-3.469939232,-12.71774578,-131.3191376,-0.228293613,-0.823946953,15.85475922,-12.78674316,2.305051088,3.418169022
0.7249709999999965,-3.564521313,-12.42838287,-131.3165436,-1.384503841,-1.628747463,5.604868412,-9.915959358,33.5565033,2.137663841
0.7333039999999968,-3.700667381,-12.34922314,-131.2843933,0.694707751,-1.326527476,17.87220955,-14.15618515,7.65819788,4.038060188
0.7416369999999972,-3.835507393,-12.08769798,-131.3026428,-2.993984699,-1.495156169,-3.838451862,-15.28829575,29.8626461,-0.398493886
0.7499699999999976,-3.990285873,-11.90910912,-131.274353,1.243081927,-1.988978028,24.21693802,-16.50204468,20.07224846,4.480546951
0.758302999999998,-4.088060379,-11.80045986,-131.2779388,-1.10109818,0.801544607,-0.162161291,-10.45520782,11.95142555,0.203018486
0.7666359999999983,-4.264019489,-11.46132088,-131.2757263,0.298820287,-2.774325609,15.45302486,-19.70249176,38.96728134,2.890904427
0.7749689999999987,-4.402565002,-11.53110123,-131.2804871,0.640290201,-0.146503821,5.279403687,-15.37288666,-9.391577721,-1.484460592
0.783301999999999,-4.547993183,-11.06763554,-131.2940979,-4.447516441,0.089002728,8.893643379,-16.40843582,53.96150589,2.40879488
0.7916349999999994,-4.641207695,-11.18781662,-131.3210297,5.120181084,-0.853763282,20.10194969,-10.44929409,-15.74181175,-4.655607224
0.7999679999999998,-4.787484646,-10.74562836,-131.3260956,-7.477250576,-1.70923841,-8.045303345,-16.3029232,51.84907532,3.470455408
0.8083010000000002,-4.939882278,-10.71816349,-131.3842621,8.595038414,0.689507782,28.01496696,-18.22205925,2.782141924,-6.848850727
0.8166340000000005,-5.110989571,-10.4882412,-131.3710175,-8.8357687,-2.469458103,-5.754693508,-18.87625504,25.72086143,3.6303339
0.8249670000000009,-5.186261654,-10.24686337,-131.4658203,5.512570381,0.385724813,22.64735603,-9.713630676,28.76888275,-8.839466095
0.8333000000000013,-5.290220261,-10.29399109,-131.4073944,-2.006530285,-2.29213047,4.311355114,-9.860393524,-7.8966012,6.005642414
0.8416330000000016,-5.354635239,-9.915896416,-131.5191803,-0.539544106,-1.645489454,8.48683548,-8.718551636,44.76503372,-9.28739357
0.849966000000002,-5.430037022,-10.06354618,-131.4378815,4.471552849,1.50089407,18.54466248,-5.989930153,-19.62708282,7.605893612
0.8582990000000024,-5.568681717,-9.833713531,-131.5268402,-6.4573946,-0.892723799,-12.27761269,-17.11569023,27.37759399,-8.117811203
0.8666320000000027,-5.696824074,-9.727890015,-131.5020142,4.617902279,-0.245142281,25.31064987,-13.51134396,10.7149992,3.818058252
0.8749650000000031,-5.785704136,-9.74105835,-131.5504761,-3.565300226,-2.825758696,9.783456802,-10.28364182,-2.081604719,-6.15613842
0.8832980000000035,-5.852359295,-9.523864746,-131.5702667,-0.622058332,-1.415434957,5.331122875,-7.035836697,24.52577209,-0.038408566
0.8916309999999967,-5.875711918,-9.604771614,-131.6009979,3.044736624,-0.32200253,20.22087097,-2.048408985,-10.93913651,-4.964359283
0.8999639999999971,-5.978974342,-9.506743431,-131.6155243,-4.101127148,-0.850843549,-2.937762499,-11.31502914,10.79376602,-0.790212214
0.9082969999999975,-6.064680099,-9.352560997,-131.6621246,1.124744058,0.982778847,14.19696617,-9.835677147,17.89623642,-3.84025383
0.9166299999999978,-6.176363945,-9.411195755,-131.6447906,-1.319101691,-3.707165956,8.01243782,-11.69739532,-8.873117447,0.932691157
0.9249629999999982,-6.254960537,-9.223677635,-131.6960144,-2.827452898,-2.549175262,8.453931808,-9.060412407,21.94236946,-3.888384104
0.9332959999999986,-6.28466177,-9.224087715,-131.6989136,3.605924606,2.072638988,21.12060547,-2.253168821,-1.674953341,-0.709757686
0.9416289999999989,-6.403618336,-9.16010952,-131.7263336,-3.60682106,-3.457504272,-5.842196941,-13.43965054,6.320416451,-2.738610506
0.9499619999999993,-6.533552647,-9.032071114,-131.7755585,-0.227732494,1.502956271,11.70056438,-15.16016197,14.84050846,-4.360428333
0.9582949999999997,-6.617734432,-9.031930923,-131.7652283,0.04468843,-2.732620955,19.63031006,-8.541284561,-1.207186103,0.923879921
0.966628,-6.691896439,-8.88476181,-131.8410187,-2.220534086,-3.621840954,4.936139584,-8.951166153,16.90619659,-7.240519524
0.9749610000000004,-6.79455328,-8.892976761,-131.8234406,2.526734829,1.930877447,9.983500481,-10.6263361,-2.307471275,1.659085393
0.9832940000000008,-6.943851948,-8.785323143,-131.8777924,-4.372048855,-2.62321496,7.840140343,-17.54664421,11.90975285,-5.224832058
0.9916270000000011,-7.070486069,-8.714055061,-131.8693237,2.387371778,-1.892683864,18.54463577,-13.67202282,6.673457146,1.666257501
0.9999600000000015,-7.115895748,-8.712244987,-131.8943024,-3.00551486,0.441607773,-1.622180104,-4.53578186,-0.503230035,-3.208067656
1.0082930000000019,-7.264146805,-8.526368141,-131.8961182,0.721555591,-2.667128325,11.54716492,-16.45729637,21.07271576,2.283920288
1.0166260000000023,-7.370858669,-8.670889854,-131.9070435,0.332502931,0.745391846,14.15702915,-11.6326189,-18.73311996,-3.870504379
1.0249590000000026,-7.516257763,-8.351965904,-131.9333191,-3.699932814,-2.499339819,-0.40079996,-16.54898262,37.26894379,1.571333051
1.033292000000003,-7.592830181,-8.425394058,-131.9534302,3.603364468,-0.121478789,25.374897,-8.173747063,-10.1212225,-3.903750658
1.0416250000000034,-7.680966854,-8.299370766,-131.9648132,-4.194393635,-1.236703753,-2.317087173,-9.411044121,13.46499538,0.290081292
1.0499579999999966,-7.780816555,-8.111750603,-132.0085449,0.861646593,0.535341322,13.8479147,-11.36433887,21.92441368,-2.411312819
1.058290999999997,-7.854652882,-8.178366661,-132.0039673,-0.18253769,-3.244617701,9.134962082,-7.416871548,-9.077929497,-0.844053209
1.0666239999999974,-7.899735451,-7.907530308,-132.0554047,-2.2866745,-0.39210695,8.824305534,-4.908780098,31.3208065,-1.985681176
1.0749569999999977,-7.903323174,-7.962377548,-132.0488892,2.224546194,2.614805222,12.89952469,1.043498516,-7.710948944,-0.429947823
1.083289999999998,-7.97436142,-7.729958057,-132.090744,-3.289834738,-3.615379572,3.932660103,-7.842123508,26.59082031,-1.461305857
1.0916229999999985,-7.965223312,-7.739973068,-132.0937195,1.323097229,0.316249222,15.90292645,2.414064646,-2.864990473,-0.904169679
1.0999559999999988,-7.920439243,-7.49502039,-132.1341705,-3.929330349,-0.273095459,5.08368206,6.097524643,28.69270706,-0.996560991
1.1082889999999992,-7.848479748,-7.443487167,-132.1537476,3.6692276,-0.200873822,19.70220184,9.696755409,5.361700058,-1.755407691
1.1166219999999996,-7.790180206,-7.303648472,-132.1555634,-3.937293053,-1.823328376,-6.617847443,8.327651024,14.921525,1.686031938
1.124955,-7.734258652,-7.121322155,-132.217514,2.776735067,-1.136521816,19.12358665,7.143992424,21.59137535,-4.650022984
1.1332880000000003,-7.67663908,-7.160388947,-132.1920776,-1.476643682,-0.823294401,7.420032978,8.654460907,-6.785710335,1.989662528
1.1416210000000007,-7.636511803,-6.811185837,-132.2610779,-1.568762541,-0.71026063,6.696604252,5.166270733,40.89105988,-2.944604158
1.149954000000001,-7.566778183,-6.904554844,-132.2296753,1.655643225,-2.68618989,16.69133377,10.18470955,-12.68572235,1.929904938
1.1582870000000014,-7.49147892,-6.610646248,-132.2775726,-4.578074455,-1.576826572,3.201300383,9.727016449,34.6293602,-1.331109166
1.1666200000000018,-7.419854641,-6.576206207,-132.2561188,5.571994305,0.317541361,15.96813583,10.24938488,2.026547432,2.690852642
1.1749530000000021,-7.429895401,-6.452373981,-132.2861023,-5.638474941,-1.994791746,-5.215455532,-0.246421784,14.11254978,-1.918391228
1.1832860000000025,-7.378792763,-6.243690491,-132.2793732,4.751412392,-0.39507845,23.67649269,7.57756567,22.99288368,3.641936302
1.1916190000000029,-7.286007881,-6.255839348,-132.2949371,-3.589922667,-1.365980864,6.529326439,12.28712559,-2.950260878,-2.406061172
1.1999520000000032,-7.246387005,-5.994289398,-132.2990112,-0.175379798,-0.205350205,3.18969202,6.069452763,30.11117363,3.190921783
1.2082849999999965,-7.205997467,-6.070007324,-132.3015289,2.223178148,-2.712325335,17.66409111,6.182252407,-10.06177235,-1.734532118
1.2166179999999969,-7.144724846,-5.845816612,-132.324173,-3.466495991,-0.761715531,3.489098072,8.427394867,25.28249359,0.298841417
1.2249509999999972,-7.046708584,-5.815951824,-132.3321991,3.321043968,0.101059958,18.04179764,13.03229237,2.58906126,-0.802378714
1.2332839999999976,-7.055759907,-5.783335686,-132.3351135,-3.582513571,-2.495041132,-8.170122147,0.236752376,2.174597263,-0.241401374
1.241616999999998,-7.062347412,-5.626261711,-132.3856659,3.453571796,-2.614789009,23.59064674,-0.030954812,17.69524002,-4.054311752
1.2499499999999983,-7.022641659,-5.804465771,-132.3623657,-0.778377235,-1.36487031,6.224183559,6.410348892,-22.65053749,-0.155670583
1.2582829999999987,-7.01205349,-5.521022797,-132.429245,-3.052563906,0.371123016,1.465696216,1.844892859,33.65119553,-4.067557335
1.266615999999999,-7.01695776,-5.745947838,-132.4099426,3.476079941,-1.552247524,21.29891014,1.00231123,-28.82170868,-1.38436079
1.2749489999999994,-7.000883579,-5.522899151,-132.4500732,-5.208302975,-1.976059079,-2.024084568,2.822971582,26.06654549,-1.784429431
1.2832819999999998,-7.000308514,-5.626847267,-132.4557953,5.95630455,-0.624241114,21.77662277,1.362293124,-14.04952431,-2.578930855
1.2916150000000002,-6.977952957,-5.588694096,-132.4682312,-6.437319279,-2.338069439,-3.521314859,3.89761591,2.974427462,-1.29460752
1.2999480000000005,-6.989934921,-5.482255936,-132.4967499,2.364403963,-0.167155668,19.83976746,-0.400824368,12.00741673,-2.12261343
1.308281000000001,-6.946013451,-5.598784924,-132.5017548,-1.290541768,-1.017322779,4.199719429,6.578915119,-14.89241505,-2.58592391
1.3166140000000013,-6.959424019,-5.404835701,-132.5372772,-0.6374318,-3.416050673,7.252296448,-0.655174077,21.85702133,-1.772569895
1.3249470000000017,-6.95420599,-5.539676666,-132.5312042,2.428284645,2.059327126,12.29936504,2.061895132,-17.23460579,-1.533998489
1.333280000000002,-6.997373104,-5.39627552,-132.5760956,-5.78007555,-3.894031763,1.618209243,-4.324157238,15.96886444,-3.613054752
1.3416130000000024,-7.009095669,-5.429868221,-132.550293,4.528566837,-1.240849495,17.85868645,0.255143374,-6.146558285,2.187865496
1.3499460000000028,-6.998729706,-5.39058876,-132.5643768,-3.589085817,-0.873336196,7.115886688,2.451641083,3.798335314,-1.389559627
1.3582790000000031,-7.065834522,-5.30147028,-132.5633392,0.69846189,-1.282659888,7.912233353,-6.674236774,9.512870789,1.137758613
1.3666119999999964,-7.136365891,-5.309615135,-132.5511322,-1.347884893,-2.960627794,7.860575199,-6.961501122,-2.918678284,0.942655146
1.3749449999999968,-7.207448006,-5.211510658,-132.5571442,-0.785598338,-0.835813224,7.57859993,-7.230400562,10.6846981,0.462900549
1.3832779999999971,-7.203831196,-5.160281181,-132.5373993,1.157568812,0.473043382,19.30483246,2.02022028,4.03352499,2.726123095
1.3916109999999975,-7.32105875,-5.107002735,-132.5168457,-3.07480526,-2.22748661,-8.338886261,-12.48077965,4.260108471,2.862775087
1.3999439999999979,-7.406716824,-4.95752573,-132.5216827,1.356752276,-1.937566757,19.58458328,-8.964306831,16.77904701,1.431272626
1.4082769999999982,-7.442834854,-5.049913883,-132.4732056,-0.35762316,0.143423736,11.34954548,-2.459774256,-12.82864952,4.020948887
1.4166099999999986,-7.50267601,-4.703165531,-132.5051575,-2.827825308,-1.583357096,5.46735096,-6.136474609,39.98123932,1.235325098
1.424942999999999,-7.569978237,-4.918368816,-132.4449005,5.567247868,-1.02939105,12.2510128,-6.10373497,-27.63223267,3.460459948
1.4332759999999993,-7.63181591,-4.588763237,-132.4803619,-6.573058128,-2.5638237,-0.832676113,-6.405066013,37.98723984,0.636898756
1.4416089999999997,-7.720148563,-4.727943897,-132.4311676,8.053365707,0.777743518,20.98417854,-8.747814178,-19.11951065,3.210924625
1.449942,-7.785413265,-4.620269775,-132.4519196,-6.894853115,-1.971003294,-3.617708683,-6.66898632,12.05318832,-1.01277411
1.4582750000000004,-7.826908588,-4.592608929,-132.4391479,6.106207848,-0.583604753,23.56399536,-3.489644766,1.99565649,1.668306351
1.4666080000000008,-7.828356743,-4.62799263,-132.4263458,-4.748802185,-0.008336945,-2.390258551,1.32082355,-6.19366312,0.547837257
1.4749410000000012,-7.900570393,-4.505931854,-132.4422607,0.452399909,-1.967432499,6.532175541,-7.451861858,13.68558598,-0.176981598
1.4832740000000015,-7.894104004,-4.581233501,-132.4358673,0.601664662,-0.305532724,20.31902122,2.202107191,-10.83094311,-0.876557708
1.491607000000002,-7.886501789,-4.464923859,-132.4530792,-1.497526169,-1.46745646,3.738627434,2.112713814,12.33328247,-0.515781105
1.4999400000000023,-7.872162819,-4.461026669,-132.4690857,-1.208685994,0.225346401,9.141670227,2.93784976,-0.359380513,-2.127556562
1.5082730000000026,-7.808718681,-4.482491493,-132.4611664,1.60767591,-0.696374297,13.47424126,9.055068016,-3.766637564,0.294077039
1.516606000000003,-7.766914845,-4.337901115,-132.5043488,-4.628689766,-2.609040022,3.221496105,5.981103897,16.1120491,-3.159196377
1.5249390000000034,-7.73358345,-4.334579945,-132.5030975,4.732009411,-0.796110928,17.13384247,5.378093243,-0.711601853,-0.095169693
1.5332719999999966,-7.691018581,-4.33311224,-132.5056915,-5.12279129,-1.382885575,-1.987056136,6.448255539,-1.567603827,-0.675152719
1.541604999999997,-7.649053574,-4.103333473,-132.5315094,1.872891188,-0.537739336,15.11138344,6.17357254,25.95550919,0.226609275
1.5499379999999974,-7.581842899,-4.230201244,-132.5041199,-0.396252215,-1.184416294,14.01856899,9.671912193,-16.61120605,0.936764061
1.5582709999999977,-7.531641006,-3.98281908,-132.5204773,-0.940496087,-2.564342976,0.666980386,7.250216961,28.60105515,1.668845415
1.566603999999998,-7.550049305,-3.997256041,-132.4899902,0.67084837,-1.01533711,10.44680786,-0.594160557,-3.978646755,2.999093771
1.5749369999999985,-7.556443214,-3.903509617,-132.5010529,-1.344337583,-2.06085372,13.110116,0.50836581,10.23949623,-0.127418041
1.5832699999999988,-7.511518478,-3.778619051,-132.4895325,-2.423814058,-0.560118318,10.11956501,6.849145889,12.8943119,2.945663452
1.5916029999999992,-7.508630276,-3.656518221,-132.5026093,2.09779501,-1.016280055,8.22834301,1.609112144,12.94167137,-0.029648481
1.5999359999999996,-7.511906147,-3.582757473,-132.4839172,-3.651873112,-1.293249846,5.269124508,1.114552379,7.397058964,3.079318523
1.608269,-7.50398922,-3.407679796,-132.4955444,1.969820738,-2.787738562,15.42523289,2.231974363,19.92563057,1.071776867
1.6166020000000003,-7.517808437,-3.367705584,-132.4720154,1.241336584,-0.807145417,5.076642513,-0.127802238,2.59651494,3.030138493
1.6249350000000007,-7.576678753,-3.34718442,-132.4695282,0.033740629,-2.055306196,8.383301735,-5.680404663,1.315956831,0.323354095
1.633268000000001,-7.588316441,-3.200493813,-132.4769592,-1.304991126,-0.853146911,11.6993494,-0.080928184,15.78252029,1.050849795
1.6416010000000014,-7.629859447,-3.226904869,-132.4538269,1.881967306,-0.97636342,7.057576656,-3.462160826,-5.294500828,1.935975075
1.6499340000000018,-7.669108868,-3.192685604,-132.4509735,-0.921106458,-0.614704013,8.35381794,-3.325150728,2.938772678,0.591458321
1.6582670000000022,-7.720550537,-3.20697546,-132.4240875,0.821488917,-2.736139536,9.764426231,-4.626686573,-3.217058897,2.667979002
1.6666000000000025,-7.713797092,-3.141901255,-132.4319458,-3.291370869,-0.18271412,14.18420792,2.123650551,6.082637787,-0.277210057
1.674933000000003,-7.768218517,-3.216177702,-132.3901062,3.463136435,-2.697621107,7.794211864,-4.885313511,-10.59457207,3.47441721
1.6832660000000033,-7.786742687,-3.243875504,-132.40065,-1.636799455,0.922022104,11.64644337,-0.929322898,-4.908520222,-2.09730649
1.6915989999999965,-7.815113544,-3.305883408,-132.3552094,2.445600748,-1.528137445,18.359972,-1.730844021,-9.893486977,3.99402833
1.699932000000004,-7.799879551,-3.409054041,-132.355896,-0.969161749,-1.948453069,10.24106693,3.189946413,-13.34218979,-2.058783293
1.7082649999999973,-7.796452522,-3.500245333,-132.2954407,-0.579249382,0.218637317,7.033602715,2.215042591,-12.91087055,5.394410133
1.7165980000000047,-7.783917427,-3.48494792,-132.3194733,-2.123970509,-1.066914678,14.00487518,2.68867445,0.430882603,-2.993727207
1.724930999999998,-7.751369953,-3.611867189,-132.2569275,1.445096612,-1.886963844,17.09638786,5.737539768,-17.19014168,5.069417477
1.7332640000000055,-7.728621483,-3.687308073,-132.2746429,-5.075607777,-2.013635397,6.685540199,3.950996399,-10.46960163,-3.715537071
1.7415969999999987,-7.698256969,-3.719310284,-132.232193,1.545653701,-1.311693311,13.4710722,5.329477787,-6.279368877,4.130475044
1.7499300000000062,-7.626807213,-3.773582697,-132.2493134,-1.237237453,-1.479223967,14.58032417,9.806897163,-7.267873764,-3.195132732
1.7582629999999995,-7.585976124,-3.787735224,-132.2259674,0.250191689,-0.943037689,12.46455097,6.451176167,-3.140190363,2.251952648
1.766596000000007,-7.560916901,-3.744080067,-132.2346039,-3.849539995,-3.496438503,12.17134571,4.294456959,3.537556648,-0.729275703
1.7749290000000002,-7.532705784,-3.686173201,-132.2059784,0.547637403,-0.866002858,15.36692047,4.974822044,5.35258007,4.017438889
1.7832619999999935,-7.507821083,-3.622053146,-132.2110291,-0.916125894,0.233843222,12.90255356,4.305496693,5.906796932,0.017725052
1.791595000000001,-7.513464928,-3.539324999,-132.2007751,-0.272509724,-2.972014189,10.30013752,0.750240982,7.882549763,2.126903534
1.7999279999999942,-7.494483948,-3.380639791,-132.221283,-3.425987959,-1.97223568,13.64444256,3.496293068,18.11357307,-0.244577602
1.8082610000000017,-7.453999996,-3.243967056,-132.2417908,2.303509712,0.693622053,13.20188999,6.082793236,15.49466991,-0.598207831
1.816593999999995,-7.411725044,-3.131140709,-132.2646484,-0.169409916,-3.147208929,13.17564774,6.275436878,11.97229958,-1.354493618
1.8249270000000024,-7.378108025,-3.112088442,-132.2898254,3.316261053,-1.812916875,16.28351402,5.235805988,1.569025755,-2.993394852
1.8332599999999957,-7.373767376,-3.041302681,-132.3249664,-1.533071041,-1.196080327,13.85936832,1.648967981,7.16071701,-3.476556778
1.8415930000000031,-7.383099079,-2.999215841,-132.3814697,-0.844043136,-3.723326921,9.463024139,-0.124395557,4.079118729,-6.456107616
1.8499259999999964,-7.425230026,-2.966598511,-132.4019012,-1.101030827,-1.166884422,4.500702381,-3.817123413,3.10984993,-2.219051123
1.8582590000000039,-7.495590687,-2.989785194,-132.439743,2.088477612,-0.9565413,16.456213,-7.312441826,-3.256581545,-5.151240826
1.8665919999999971,-7.530794144,-3.036523819,-132.4461212,0.235431179,-1.40476346,18.12416458,-2.904718637,-7.262980938,-1.882941008
1.8749250000000046,-7.567258835,-3.122968435,-132.489975,1.091781259,-1.563092351,13.33657742,-3.29300499,-10.67922783,-6.868393421
1.8832579999999979,-7.628072262,-3.254031181,-132.477478,-1.10898757,-2.227262259,14.20644474,-5.858041763,-17.58542061,-0.986596525
1.8915910000000054,-7.662672997,-3.363317013,-132.5155945,0.207354739,-0.333742917,16.75192261,-3.058276176,-14.18784237,-6.662378788
1.8999239999999986,-7.685889721,-3.473040581,-132.4980774,-1.674892545,-3.539146662,13.68554688,-1.294274569,-14.41601276,0.023949312
1.908257000000006,-7.711783886,-3.560132742,-132.5363007,-1.604900241,-1.286673903,7.971883297,-2.022999763,-10.83114719,-6.230753422
1.9165899999999993,-7.765441895,-3.636937141,-132.4939728,-0.118298478,-0.442081541,12.85054398,-4.763774395,-11.6151228,3.386663198
1.9249230000000068,-7.810545921,-3.714779377,-132.5045929,-0.475272983,-1.969712615,15.81683254,-4.126927376,-10.17111874,-2.817937613
1.933256,-7.836388588,-3.783981085,-132.4671783,-1.46703887,-1.091378927,14.60924244,-1.454901338,-10.63878345,2.912236214
1.9415889999999933,-7.86686945,-3.844305754,-132.4704895,-0.664631009,-1.740886092,13.30481052,-2.332727194,-8.924372673,-1.778511882
1.9499220000000008,-7.881297112,-3.904747009,-132.4474945,-0.504113972,-1.87052536,15.91574764,-0.178544044,-8.64955616,1.438623667
1.958254999999994,-7.858267784,-3.944743395,-132.4376221,-0.662329674,-1.611687422,16.40261078,4.212081909,-6.00427103,0.217772245
1.9665880000000016,-7.845256329,-3.968112946,-132.4129791,0.341827452,-1.008686662,12.12666607,3.115382433,-4.990972042,2.142374516
1.9749209999999948,-7.853039742,-3.989954472,-132.4060516,-0.785809219,-1.071975708,12.61216545,0.490205139,-3.797297478,0.169745535
1.9832540000000023,-7.876569748,-3.987845659,-132.3804169,-0.354396284,-2.41618681,16.01019287,-1.262845755,-1.980659008,2.679197788
1.9915869999999956,-7.874404907,-3.946380377,-132.3759003,-2.672235966,-1.20010972,16.36871529,1.643537402,3.040589094,0.82272929
1.999920000000003,-7.868292809,-3.935690403,-132.3411102,1.4617275,-1.388263106,13.15507221,2.387298107,-0.387428105,4.005042076
2.0082529999999963,-7.857452393,-3.874034166,-132.3440399,-2.645827055,-2.436014652,12.57781219,2.643875599,6.289421558,0.36976707
2.0165860000000038,-7.831115246,-3.792908192,-132.3208466,-1.251344204,-0.800437391,15.67385864,4.688634872,7.448851585,3.683045626
2.024918999999997,-7.806231976,-3.685990095,-132.3101196,-0.918598115,-0.04785442,12.27756596,4.437001228,11.4481039,2.722768068
2.0332520000000045,-7.809481144,-3.558907509,-132.3119659,-1.283923388,-2.491410732,10.9525032,0.937788427,13.31261539,1.454273939
2.0415849999999978,-7.820011616,-3.436761379,-132.3185272,-0.176951051,-3.231329918,13.62660503,0.028611105,12.798769,0.817965031
2.0499180000000052,-7.829603195,-3.351229668,-132.3163605,-1.447812915,-1.440046668,16.80527878,0.230989203,9.044823647,1.356632471
2.0582509999999985,-7.812810898,-3.258074999,-132.3226776,1.55333674,-0.985873997,14.5828228,3.338252544,10.08962727,0.477475047
2.066584000000006,-7.789218903,-3.171428442,-132.3341675,-0.557788908,-1.165725231,10.81296825,4.096049786,8.654744148,-0.349416673
2.0749169999999992,-7.76107502,-3.089682102,-132.3564911,-0.711021841,-2.415922165,10.49411201,4.598293781,8.993595123,-1.617756844
2.0832500000000067,-7.723033428,-3.002814054,-132.3636322,-0.599249065,-0.23176685,13.03730488,5.858002663,8.613888741,0.158065483
2.091583,-7.7070508,-2.916275501,-132.3806763,0.139917448,-0.529674292,10.77861214,3.151371002,8.73138237,-1.02801466
2.0999159999999932,-7.687455654,-2.844079971,-132.3849335,0.544547558,-1.499933362,13.69780254,3.692445993,7.565547943,0.359316498
2.1082490000000007,-7.647125244,-2.781060219,-132.3988953,-0.119310968,-1.067662597,16.99538422,6.124210835,6.630501747,-0.946330845
2.116581999999994,-7.594396114,-2.71322751,-132.4067688,-1.037425399,-2.115050554,16.27483177,7.618442535,6.363267899,-0.251211613
2.1249150000000014,-7.533150673,-2.684920311,-132.4117126,0.006515528,-2.498779535,11.38054562,8.688707352,2.357534409,-0.435736597
2.1332479999999947,-7.480820179,-2.63990283,-132.420517,0.436330765,0.233256549,13.63899708,7.566649914,3.658993959,-0.731504142
2.141581000000002,-7.427704334,-2.606836081,-132.4380493,-1.21563518,-2.883065462,13.25414467,7.609220028,2.375950813,-1.964829445
2.1499139999999954,-7.371018887,-2.537169933,-132.4463196,-1.705205917,-2.186978579,13.6499052,8.12560463,7.330768585,-0.200290531
2.158247000000003,-7.330181122,-2.477773905,-132.4442139,-0.907244086,-1.013077378,12.09330463,6.278535366,5.948828697,0.867093086
2.166579999999996,-7.329340458,-2.412706137,-132.4481049,0.33344987,-2.128616571,14.05908775,1.416416287,5.967374325,0.13829127
2.1749130000000036,-7.320734978,-2.357344151,-132.4292297,1.434886575,-1.750518441,15.60640621,2.493289471,5.21231699,2.797330379
2.183245999999997,-7.291140079,-2.302351475,-132.4486847,-2.050957441,-1.074121356,13.1175909,4.79267931,5.005995274,-1.868161321
2.1915790000000044,-7.241312981,-2.24987483,-132.4361877,0.20792003,-2.174294472,8.781183243,7.373569965,4.220739365,1.888179183
2.1999119999999976,-7.202683926,-2.193762779,-132.4621735,-1.472601533,-1.070757747,9.954548836,5.881233692,5.98404932,-2.538588524
2.208245000000005,-7.178620338,-2.166027069,-132.4570007,0.917534471,-1.034315109,15.87023926,4.277321339,2.136739492,0.738023043
2.2165779999999984,-7.136898041,-2.121097565,-132.4769897,-0.160395578,-1.548658848,11.62419796,6.25448513,3.809759617,-2.098536491
2.224911000000006,-7.072385311,-2.052513599,-132.4729614,0.623082519,-0.406386763,6.513611317,9.125736237,7.01960659,1.199130416
2.233243999999999,-7.01627636,-2.039870977,-132.4967041,0.172066659,-0.735019863,17.15423012,7.966282845,0.018775232,-3.026949167
2.2415770000000066,-6.962247372,-2.054773331,-132.4900513,0.012426305,-3.209156036,10.40453911,7.844308376,-3.703472853,0.186907068
2.24991,-6.88175869,-1.96152854,-132.5060577,-0.593621135,0.650888026,4.732932091,10.95774651,10.25204849,-0.85199362
2.258242999999993,-6.829484463,-2.066686153,-132.4807281,2.814940214,-2.129716873,16.84767723,7.747641563,-13.98090553,1.215370059
2.2665760000000006,-6.775127888,-2.011507511,-132.489975,-3.984079838,-2.773206472,3.282180071,7.816082478,4.87577343,-0.703226089
2.274908999999994,-6.733711243,-1.963937521,-132.4857635,3.071565628,-1.385196447,14.23828125,6.354661942,4.521194458,0.876416743
2.2832420000000013,-6.711940289,-2.115547657,-132.4688416,-2.143544674,-1.931451678,4.692913532,4.023665428,-20.13795662,-0.499132037
2.2915749999999946,-6.688918114,-1.977981806,-132.480835,-0.087676443,-2.644253016,10.75961399,4.050968647,14.7361021,0.113086872
2.299908000000002,-6.668428421,-2.212687254,-132.4432983,3.540157318,-0.710983694,15.3647337,3.990214109,-29.58626938,0.89941895
2.3082409999999953,-6.647422791,-2.14641571,-132.4514313,-2.566371441,-1.763831973,6.893239021,3.850050926,6.924220085,-0.3409127
2.316574000000003,-6.659641743,-2.318950653,-132.4146729,1.969412327,-1.427364469,7.820215225,0.045721438,-22.89446259,1.595716357
2.324906999999996,-6.633050919,-2.302558661,-132.4185944,-2.014642477,-2.397240162,9.366343498,4.539354801,0.918961942,-0.533992767
2.3332400000000035,-6.643042088,-2.429596424,-132.3780212,0.459786475,-0.158098161,7.552160263,0.345254302,-17.52345657,2.68762517
2.341572999999997,-6.626078129,-2.471996307,-132.3670807,0.45474267,-2.459764957,12.87482452,3.435817242,-7.023872852,0.33224231
2.3499060000000043,-6.632598877,-2.516775608,-132.3304291,-3.039108276,-2.008461714,-1.7462852,0.775368571,-6.934093952,3.448265553
2.3582389999999975,-6.649300098,-2.558726311,-132.3205109,2.510133982,-0.242836103,16.02758026,-0.601947308,-6.959400177,0.216491506
2.366572000000005,-6.661251545,-2.641159058,-132.2757874,-0.789442539,-3.009917021,9.010826111,0.175303817,-11.53543472,3.884142876
2.3749049999999983,-6.672413349,-2.725713491,-132.2358551,-0.324066639,-1.175813794,4.777616501,0.251941651,-11.72287941,3.280363798
2.3832380000000057,-6.721408844,-2.719547033,-132.2204742,-0.470508993,-1.389546156,8.495706558,-4.442750931,-1.297527552,1.534420848
2.391570999999999,-6.771439075,-2.778173685,-132.2003632,1.029650211,-1.763084888,11.33725739,-4.521668434,-8.358296394,1.271157622
2.3999040000000065,-6.808485031,-2.867729902,-132.1506042,-1.808912754,-1.823599219,4.023207188,-2.800955534,-13.19303703,4.267691135
2.4082369999999997,-6.901734352,-2.852163553,-132.1555939,1.799969435,-2.124191761,5.494176388,-9.866667747,0.110832803,-0.757118344
2.416569999999993,-7.012546539,-2.961909294,-132.1235352,0.518641114,-1.701267362,10.57717323,-11.7360754,-14.62779617,1.925653338
2.4249030000000005,-7.093670845,-2.998944759,-132.1197052,-3.281229734,-2.629857779,4.913395405,-8.344593048,-5.5558424,-0.386685312
2.4332359999999937,-7.175163269,-3.081273079,-132.1021729,3.075813293,1.02282548,10.41388798,-8.310935974,-11.87292862,0.471455693
2.441569000000001,-7.281408787,-3.127912045,-132.0981293,-1.426854134,-2.524618626,5.13317728,-11.35677528,-6.702873707,-0.520058692
2.4499019999999945,-7.392059326,-3.162234306,-132.0710602,0.395590574,-2.570661306,10.91014099,-11.7437315,-6.305726528,2.30023551
2.458235000000002,-7.475256443,-3.307312965,-132.0532837,-0.519436777,0.303346902,4.726018906,-8.501330376,-19.34740067,-0.532097518
2.466567999999995,-7.608214378,-3.291573524,-132.0555115,-0.134346887,-1.916739345,5.925756931,-14.60450745,0.818989635,-0.311968595
2.4749010000000027,-7.695629597,-3.383674622,-132.0330811,-0.404970497,-1.315442085,14.38060951,-8.966815948,-12.40068626,0.895858109
2.483233999999996,-7.779124737,-3.404892206,-132.0289307,-1.049222589,-0.766121387,-0.987240851,-8.628321648,-4.397055149,-0.245550886
2.4915670000000034,-7.888742924,-3.446201563,-132.018158,1.865692616,-1.421014428,14.06607246,-11.71153355,-6.175015926,0.30703786
2.4998999999999967,-7.949937344,-3.547368526,-131.9913635,-1.725893855,-0.956285059,7.545981407,-5.784476757,-14.27462387,1.111427546
2.508233000000004,-8.031943321,-3.474995136,-131.9949188,-1.67478466,-0.977126837,4.239997864,-8.506807327,6.854548931,0.38500759
2.5165659999999974,-8.075876236,-3.587673903,-131.9809418,2.923966169,-0.675982177,14.15890694,-3.801934242,-14.71165371,-0.53248167
2.524899000000005,-8.11103344,-3.588648081,-131.9548645,-4.213574886,-1.33370924,-0.58510077,-2.656132221,-1.645471215,2.781757116
2.533231999999998,-8.163426399,-3.575695515,-131.9530334,3.343754053,-0.790993512,14.19103527,-4.915486813,-0.292911589,0.03808837
2.5415650000000056,-8.159928322,-3.653689384,-131.9286499,-1.833303928,-0.909202158,10.18177223,1.971015453,-10.76941681,1.266982555
2.549897999999999,-8.174168587,-3.659536362,-131.9364319,0.584486902,-1.030931115,5.642925739,-0.409379452,-2.364565134,-1.425752163
2.5582310000000064,-8.151548386,-3.646691084,-131.9280701,-0.841023088,-1.979200125,12.34990597,4.137032032,-0.41890806,0.810818732
2.5665639999999996,-8.144621849,-3.703739166,-131.929657,0.027436692,-0.628245592,2.594112158,2.185329676,-7.839197636,-1.453697562
2.574896999999993,-8.120157242,-3.651985645,-131.9403229,-0.378297716,-1.931362987,10.3571806,4.220815659,5.238930225,-0.680608571
2.5832300000000004,-8.07629776,-3.754765034,-131.9320984,0.577159345,-0.516361117,10.3113966,6.687365532,-14.15280247,-1.162284493
2.5915629999999936,-8.045622826,-3.724369049,-131.9309387,-1.077528715,-2.019990444,8.716404915,5.056147575,2.50356102,0.353194684
2.599896000000001,-7.982870102,-3.69363904,-131.9434204,-1.79558301,-0.817626476,7.839396,8.792240143,2.057335377,-1.363433003
2.6082289999999944,-7.931132317,-3.72875905,-131.9332123,2.554001093,-0.185744196,11.86362648,7.648615837,-6.150887012,0.22891441
2.616562000000002,-7.82887125,-3.716354132,-131.9099426,-1.70705688,-1.884796858,6.982758045,13.81873035,0.003944593,2.66805625
2.624894999999995,-7.77123642,-3.711293936,-131.9084167,-0.486967295,-1.587770581,2.793848038,8.29598999,-0.514090478,-0.029750934
2.6332280000000026,-7.713938713,-3.669333458,-131.9072723,0.337032884,-2.152957678,15.62838173,8.242712021,3.166533947,0.420713812
2.641560999999996,-7.640657902,-3.721510649,-131.8913879,-0.351329446,-1.482300997,4.673836708,10.28445053,-7.549297333,0.750907063
2.6498940000000033,-7.618113041,-3.674341202,-131.8853607,0.359155059,-2.106982946,7.935743332,4.111724854,3.710862398,1.073518276
2.6582269999999966,-7.575008392,-3.631633282,-131.8963165,-1.882971168,-1.713348866,10.52602482,6.45430088,3.450468063,-1.013030291
2.666560000000004,-7.546504498,-3.639135599,-131.8779602,1.436457157,-1.663938046,11.09863281,4.926590919,-2.270740271,1.763924241
2.6748929999999973,-7.516818047,-3.55177474,-131.8878632,-1.816699743,-0.99818182,9.374526978,4.855153561,9.458568573,-0.096117422
2.6832260000000048,-7.524788857,-3.531262636,-131.8795319,0.451859355,-3.283599138,4.789836884,0.469918787,0.507315576,0.916349292
2.691558999999998,-7.535189629,-3.500326395,-131.8733368,1.264428139,-1.868312716,11.25453949,0.163726181,2.493520021,0.929489315
2.6998920000000055,-7.543617249,-3.454688311,-131.8644714,-1.777342081,-0.233057603,7.612071991,0.423198372,3.485841036,1.376713872
2.7082249999999988,-7.598281384,-3.443290472,-131.8547516,1.06400454,-4.145495415,4.523851871,-5.12137413,-0.600973964,0.941348732
2.7165580000000062,-7.645055771,-3.356650352,-131.8608704,-1.234999657,-0.673157632,9.62441349,-4.289783001,9.312491417,0.358240724
2.7248909999999995,-7.698431015,-3.399264574,-131.8384705,1.193661809,0.07421048,10.69023514,-4.880548954,-6.515966415,1.681062222
2.733224000000007,-7.737256527,-3.330449581,-131.8356018,-1.190556765,-3.884771824,11.81374359,-3.265289783,6.33470726,1.054589272
2.7415570000000002,-7.795064449,-3.275714159,-131.8203888,-0.670636296,-1.087275982,3.935050726,-5.465630531,5.172359943,2.397697687
2.7498899999999935,-7.870746613,-3.285309076,-131.8152008,1.772446394,-1.161488295,10.64059639,-7.669939041,-3.027948141,0.063139088
2.758223000000001,-7.943084717,-3.25232029,-131.7959747,-0.053556874,-2.594501734,10.76022053,-7.174817562,1.80700767,2.427820206
2.7665559999999942,-8.046086311,-3.250319242,-131.7825165,-1.151098847,-1.312820673,2.358977795,-10.90332794,-1.075887561,1.335270166
2.7748890000000017,-8.146976471,-3.246357918,-131.7831116,0.583629012,-1.408249736,10.05384064,-10.74372578,-0.609477997,-0.299238324
2.783221999999995,-8.236510277,-3.210294008,-131.7784882,-0.721269846,-1.062546372,10.22773743,-9.33453083,2.406457424,0.763585925
2.7915550000000025,-8.327383041,-3.243906498,-131.7667084,0.124543808,-1.707375526,6.732487202,-9.459043503,-5.284640312,0.519251823
2.7998879999999957,-8.431428909,-3.18991518,-131.7775574,0.490239292,-0.784145057,6.234697819,-11.18093395,4.802874088,-0.742902577
2.808221000000003,-8.545791626,-3.191756725,-131.7752228,0.020956861,-1.569713473,10.49839783,-12.32917118,-2.05266118,-0.160844624
2.8165539999999964,-8.660726547,-3.239182472,-131.7667084,-0.35814324,-2.004778624,7.459625244,-12.36869431,-6.870596886,-0.137868643
2.824887000000004,-8.794750214,-3.191626549,-131.7876434,0.529099405,-2.011639595,4.006586552,-14.85798931,4.931382179,-1.907018661
2.833219999999997,-8.927156448,-3.203420639,-131.7875519,-1.2892946,-1.042057991,10.48255348,-14.50779152,-3.192239285,-0.615138829
2.8415530000000047,-9.032678604,-3.205147505,-131.7899475,-0.30157122,-1.11667645,6.078100681,-11.31248951,-1.249731421,-0.611680806
2.849885999999998,-9.181351662,-3.205755949,-131.7958527,3.083151817,-1.027239203,6.355235577,-16.49804306,-1.751745224,-1.11907351
2.8582190000000054,-9.340624809,-3.195065498,-131.7993622,-2.420898676,-1.810066819,9.197444916,-17.75462532,-0.448851109,-0.622182667
2.8665519999999987,-9.442183495,-3.188430548,-131.8075714,-1.007677436,-1.562352419,7.790204048,-10.87602139,-0.144169733,-1.136541963
2.874885000000006,-9.570241928,-3.268837214,-131.7990265,2.600907326,0.272667319,5.23449707,-13.94340611,-10.7764101,-0.877966404
2.8832179999999994,-9.700501442,-3.132194519,-131.8200836,-2.712874889,-1.549016595,5.370604515,-14.38812351,14.79957581,-0.159820065
2.891551000000007,-9.813595772,-3.209903955,-131.8027954,1.507582545,-1.730587959,16.75217056,-12.0909586,-10.63076782,0.165365532
2.899884,-9.85533905,-3.186994076,-131.8069153,-2.079064608,1.211035967,-0.973841429,-3.653396606,1.006741881,-0.435224235
2.9082169999999934,-9.970047951,-3.199206352,-131.8220673,2.956588268,-1.722771525,4.277389526,-12.48752022,-2.915630579,-2.462002277
2.916550000000001,-10.07493591,-3.131362438,-131.8243256,-3.156283379,-1.255268455,8.617584229,-11.23546791,6.97306633,0.857052386
2.924882999999994,-10.10608482,-3.160939932,-131.826828,2.014030457,-1.52463901,13.75968456,-2.38848877,-4.531836987,-1.214793444
2.9332160000000016,-10.14145088,-3.172803164,-131.8131104,-1.007722497,0.654900253,0.569280684,-2.772369623,-3.473277807,0.943090558
2.941548999999995,-10.24511147,-3.147253275,-131.8236389,1.548156857,-1.469742656,5.879207134,-11.14261627,2.150750637,-0.992513239
2.9498820000000023,-10.30569077,-3.126862526,-131.8194427,-1.931946993,-1.678331971,10.50448036,-5.864904404,0.538001418,0.508980453
2.9582149999999956,-10.32348061,-3.129575014,-131.8158417,1.1906358,-1.42121315,7.380835533,-0.733092189,-2.17530179,-0.055646922
2.966548000000003,-10.37337971,-3.16549468,-131.7967072,-0.360255599,-0.034287374,3.136851788,-4.496233463,-5.743108749,1.182404518
2.9748809999999963,-10.41357994,-3.180356503,-131.8119049,1.126318812,-1.021159291,8.4140625,-3.557907104,-2.517123938,-2.407648563
2.983214000000004,-10.45446873,-3.137625456,-131.8110352,-1.808789015,-0.670159101,7.46352005,-3.525812387,3.2508564,0.607415915
2.991546999999997,-10.44451141,-3.181699991,-131.802887,0.861380875,-1.255165219,8.409885406,2.616391659,-6.470297337,-0.29572919
2.9998800000000045,-10.43600941,-3.191836596,-131.8041534,0.183543697,-0.448596001,10.58019352,2.386298895,-2.943062544,-0.793644249
3.008212999999998,-10.39147949,-3.188166857,-131.8022003,0.109515861,-0.827395737,2.603782654,6.727194309,-1.37990272,-0.112612985
3.0165460000000053,-10.3908596,-3.201744795,-131.7891541,-1.866248488,-0.963375926,4.204174042,1.528042793,-2.975516081,0.946446002
3.0248789999999985,-10.2985611,-3.237055302,-131.7870636,2.582137346,0.326409012,14.49557781,12.45702171,-5.304004192,-0.811984122
3.033212000000006,-10.23603344,-3.211059332,-131.7934418,-2.202837229,-1.783150673,5.223318577,8.832941055,1.433141947,-0.616726696
3.0415449999999993,-10.14362907,-3.233016491,-131.7894592,1.085971832,-0.480824739,8.176336288,12.48220253,-3.768815279,-0.289684266
3.0498780000000068,-10.05569267,-3.295811892,-131.7917633,0.491266966,-1.065154552,6.048377037,11.9044733,-9.141453743,-2.013522387
3.058211,-9.943377495,-3.204361916,-131.8150635,-1.612765312,-0.363665104,10.09301186,14.68589878,9.525090218,-1.258978128
3.0665439999999933,-9.774841309,-3.351355553,-131.7861176,1.761983275,-0.166396111,10.3124609,21.79014969,-19.06344795,0.101893507
3.0748770000000007,-9.655464172,-3.256344318,-131.81073,-2.338529348,-2.578967094,0.496068358,15.52284431,10.64430618,-1.278086782
3.083209999999994,-9.51461792,-3.327198267,-131.8121033,2.085528612,-0.512559474,13.9714489,18.25296783,-10.12189102,-1.993825555
3.0915430000000015,-9.388056755,-3.387085915,-131.7986755,-0.920083344,-1.39875865,4.239255905,16.64946175,-8.4451828,0.111473188
3.0998759999999947,-9.251256943,-3.283533096,-131.8213348,-1.006529331,-1.042082071,11.41247368,17.62008858,10.93705177,-1.072532415
3.108209000000002,-9.078976631,-3.414938688,-131.7955017,1.315945983,-0.403487623,9.249637604,22.21723747,-17.8297596,0.13839379
3.1165419999999955,-8.935009003,-3.365385056,-131.8011932,-0.808759212,-1.631318092,3.880563974,18.60229111,4.889374733,-0.040662609
3.124875000000003,-8.793107986,-3.35656786,-131.7999878,0.042674407,-2.013505459,13.59909534,18.40442276,-0.067224577,0.009784641
3.133207999999996,-8.67168045,-3.443406105,-131.7870331,0.522488177,-1.575181603,0.9588117,16.02509117,-12.30343151,-0.450362444
3.1415410000000037,-8.569849968,-3.407291174,-131.8045502,-0.895184934,-1.20593214,10.59016991,13.46133327,3.508740902,-1.720572472
3.149873999999997,-8.420547485,-3.43299365,-131.7932434,-0.904637933,-0.801836014,13.4324522,19.36073112,-5.014103889,0.48595345
3.1582070000000044,-8.299451828,-3.424741745,-131.8024597,0.661051512,-2.685594082,5.796357632,15.8272953,-0.628330112,-1.343402743
3.1665399999999977,-8.202850342,-3.412860394,-131.7982483,-0.235548511,-0.734211147,4.252793312,12.98900604,0.247612849,0.405473411
3.174873000000005,-8.130340576,-3.448160172,-131.7910919,0.027472716,-1.788860559,10.93952465,10.12051964,-5.406307697,-0.04844933
3.1832059999999984,-8.042677879,-3.406800747,-131.7793427,-0.20427607,-2.27069068,13.02755356,11.96827888,2.950965405,1.698351979
3.191539000000006,-7.98148489,-3.39020586,-131.7779236,-1.858578324,-1.632725477,-1.320529222,8.719622612,0.857385278,0.149151683
3.199871999999999,-7.951919556,-3.398150921,-131.7619324,2.266644239,-0.740513086,12.95264339,5.027280331,-2.975823402,1.373076677
3.2082050000000066,-7.867702007,-3.334623814,-131.7580566,-2.76911974,-1.013290644,13.1587038,11.49981976,5.724628448,1.119470239
3.216538,-7.808820248,-3.332692862,-131.7444153,1.102024317,-1.986131072,4.823992252,8.528567314,-1.085134387,1.352559805
3.224870999999993,-7.763187885,-3.258976936,-131.756424,-0.176041991,-0.859215319,7.35535574,6.759675026,7.868360996,-0.521954179
3.2332040000000006,-7.734688282,-3.308171034,-131.7336273,0.621155679,-1.318242908,10.34675503,4.944086075,-7.983791828,1.522074819
3.241536999999994,-7.702915668,-3.264885426,-131.7342377,-0.32374081,-2.800935268,11.83180618,5.175842285,4.065030098,0.32965517
3.2498700000000014,-7.698549747,-3.196760654,-131.7353058,-1.595570803,-1.759985447,0.280958891,1.882466912,6.357094288,0.578164458
3.2582029999999946,-7.712866783,-3.231136084,-131.7383118,1.471506,-1.511939168,13.10427284,-0.365758479,-5.805838108,-1.296964169
3.266536000000002,-7.688351154,-3.166764736,-131.7372131,-0.890915334,-0.933617115,12.29096603,4.316357136,6.545718193,0.869526565
3.2748689999999954,-7.696532249,-3.177838087,-131.7279205,-0.547133505,-1.293016672,2.959831238,0.446712255,-2.557773352,0.628701389
3.283202000000003,-7.721565723,-3.029366016,-131.7509155,-0.956687629,-2.326075315,8.570752144,-1.783686042,16.26189423,-0.72622782
3.291534999999996,-7.737307549,-3.059496641,-131.7280884,0.587420523,-0.454046696,12.65522003,-0.377489805,-5.041816235,1.924269438
3.2998680000000036,-7.728840828,-2.973029613,-131.7240601,0.717557311,-1.70395565,12.88055706,2.416498423,8.451646805,1.486214757
3.308200999999997,-7.760671139,-2.879760265,-131.7152863,-3.098089933,-1.98696661,-0.861533523,-2.395046234,9.186748505,2.164223433
3.3165340000000043,-7.796472549,-2.789865494,-131.7262726,1.329267502,-1.648614168,13.71447468,-2.99546957,9.775724411,-0.142120585
3.3248669999999976,-7.791329861,-2.695610046,-131.7193604,-1.586598992,-0.165620685,8.990204811,2.023473501,10.0021801,2.059666634
3.333200000000005,-7.796622753,-2.660763741,-131.7055511,2.52331233,-1.435482383,9.191447258,0.817273319,2.155873299,1.81384635
3.3415329999999983,-7.799772263,-2.480845213,-131.7230988,-3.611997604,-1.383226395,3.041489363,0.893962681,20.58514404,0.550885558
3.349866000000006,-7.803829193,-2.445993662,-131.7155609,2.445873499,-1.437042356,16.39890289,0.925391078,2.260276794,1.0741328
3.358198999999999,-7.756019592,-2.277152777,-131.7268982,-1.603828788,-0.060341366,9.951250076,7.055136204,18.49888802,1.008048534
3.3665320000000065,-7.739454746,-2.290178299,-131.7046356,2.742228031,-1.620370269,9.830235481,3.461353779,-3.001334906,2.136022091
3.374865,-7.709009171,-2.077651978,-131.7222748,-3.364853144,-2.432605982,5.423079014,4.939145088,24.46504211,1.036736846
3.383197999999993,-7.666996479,-2.067394972,-131.7126312,0.673355222,-0.461910665,10.13592148,6.455094337,-0.691315353,0.924699426
3.3915310000000005,-7.604100227,-1.859562397,-131.7280121,-1.067879677,-1.207924843,9.543595314,8.852104187,23.87253189,1.187732816
3.399863999999994,-7.567918777,-1.881022811,-131.7072906,2.294343233,-1.279485464,8.057858467,5.795068264,-4.640058041,1.735928297
3.4081970000000013,-7.520985126,-1.676617384,-131.7233582,-1.407911181,-1.37070322,9.384402275,6.946046352,22.81369019,0.92416209
3.4165299999999945,-7.470868587,-1.648595214,-131.7134857,-0.681523979,-1.726329327,8.247776031,7.415373325,2.087662697,1.315829158
3.424863000000002,-7.406597614,-1.475354433,-131.7337952,0.472998559,-1.94858253,11.63753986,9.013167381,19.83725929,-0.019761391
3.4331959999999953,-7.36478281,-1.463774204,-131.7168427,0.672180533,-0.846950471,7.317659378,6.445232868,-0.640547991,1.81425643
3.4415290000000027,-7.320436478,-1.380507708,-131.7329102,0.842642605,-1.57030344,12.89037514,6.641336441,9.064519882,-0.933728576
3.449861999999996,-7.273296833,-1.296333551,-131.7259369,-1.865510106,-1.605164051,4.881028175,7.05167675,8.15877533,1.738950729
3.4581950000000035,-7.238207817,-1.22495985,-131.7440491,0.374349385,-2.211698055,10.35628033,5.539796829,7.017686844,-1.458538651
3.4665279999999967,-7.218185902,-1.119447351,-131.7450104,-0.651507378,-1.721918464,4.70727396,3.768135548,11.48263073,1.182916522
3.474861000000004,-7.200741768,-1.11604917,-131.7570648,0.933662474,-1.394656301,11.97679806,3.431129217,-0.505945146,-1.680613995
3.4831939999999975,-7.171132565,-0.99956584,-131.7579498,-0.575929523,-1.392685533,11.73234272,4.932891369,12.13123417,1.26032269
3.491527000000005,-7.170508385,-0.927958369,-131.7715759,-1.20904541,-1.877750039,4.354624271,1.413726807,7.637475014,-0.844693601
3.499859999999998,-7.170713425,-0.892068803,-131.7570343,2.643498659,-2.215349197,11.59585571,1.384398103,2.306433916,1.890637755
3.5081930000000057,-7.1822052,-0.771321952,-131.775238,-2.602875233,-1.314826131,7.205644131,-0.025960032,12.90601635,-0.739700794
3.516525999999999,-7.253218651,-0.733865976,-131.7575378,0.591279507,-2.976959229,5.388088703,-7.127763748,3.099988937,2.375080585
3.5248590000000064,-7.31652689,-0.600211322,-131.7764893,-0.480563968,-1.823071361,8.482151031,-6.257417679,15.10540962,-0.517855942
3.5331919999999997,-7.379844666,-0.509517312,-131.7696991,-1.857363224,0.175715864,8.554103851,-6.199837208,8.945311546,1.81937933
3.541524999999993,-7.42810154,-0.402528554,-131.7773743,0.838132381,-3.691840649,15.59312153,-4.431762695,11.75808907,0.446686715
3.5498580000000004,-7.448038101,-0.235226005,-131.7751617,-1.524204612,0.862101078,5.637926579,-1.003015161,18.1283226,2.47871542
3.5581909999999937,-7.501740932,-0.143415555,-131.7830811,1.270410419,-0.940638006,7.604599476,-5.058824539,9.302759171,0.106657684
3.566524000000001,-7.516012192,0.025695175,-131.7831268,-0.820738614,-3.219888926,13.20628166,-0.346317381,19.0276413,2.352847576
3.5748569999999944,-7.548753262,0.111151569,-131.7804413,0.531334043,0.600566566,3.472975492,-2.562486887,9.031477928,1.366955161
3.583190000000002,-7.586081028,0.272575974,-131.8027344,-0.610290229,-2.305123329,10.69921017,-3.079280376,17.81455231,-0.485786974
3.591522999999995,-7.582051277,0.373026609,-131.8035736,-1.093824506,-1.947538137,8.328676224,1.850936294,10.86952972,1.196313024
3.5998560000000026,-7.604514122,0.528460979,-131.8279572,1.328550339,-0.050807241,10.90579319,-1.281416535,17.13841248,-0.820616364
3.608188999999996,-7.603171825,0.646893919,-131.8421936,-1.707608819,-1.481068969,10.60767269,1.5704602,12.57910156,-0.194219962
3.6165220000000033,-7.592819214,0.757831872,-131.8620911,1.697323442,-1.34576571,10.12877274,2.637959242,12.41883469,-0.904426098
3.6248549999999966,-7.556801796,0.929178536,-131.8675995,-1.172983527,-1.711168408,8.310706139,5.699041843,19.376791,1.76249063
3.633188000000004,-7.54874754,0.971005321,-131.8833466,1.126175165,-0.694690108,8.004165649,2.388476372,3.494473696,-1.600057244
3.6415209999999973,-7.550887108,1.144623995,-131.9027863,-0.926529467,-3.320803165,7.403671265,1.152538538,19.86750793,0.129479989
3.649854000000005,-7.534358025,1.196926832,-131.9066925,-0.788172722,-0.401507527,8.047329903,3.384947062,4.557054043,-0.020683495
3.658186999999998,-7.530474663,1.370105386,-131.9505157,0.952391863,-0.641672909,10.26350784,1.978572249,19.56582451,-2.867962837
3.6665200000000056,-7.5213027,1.439994335,-131.9588013,-1.473276615,-4.104118347,11.02929211,2.493213177,7.350851059,-0.182744801
3.674852999999999,-7.495541096,1.551065087,-131.9716949,0.972066879,0.98622185,11.12416458,4.498167515,12.32331753,-0.089355268
3.6831860000000063,-7.495326519,1.725744843,-131.9792938,-1.363832235,-1.833899021,4.101969719,1.450969934,19.17825508,1.451994658
3.6915189999999996,-7.516018867,1.757421255,-131.9753723,1.824919224,-3.192580938,9.384526253,-1.13085568,2.614854813,0.664894283
3.699852000000007,-7.526830196,1.926510811,-131.9742126,-1.438349962,0.112642609,9.095464706,0.09508007,18.37719345,2.414680243
3.7081850000000003,-7.537550926,2.055751801,-131.9852448,-1.683855772,-1.673056006,5.235061169,0.15599072,13.83330345,0.342744142
3.7165179999999935,-7.518855095,2.139246941,-131.9765167,2.310204029,-0.906948805,11.73322582,3.572725296,8.703206062,2.052494287
3.724851000000001,-7.505548954,2.328412056,-131.9838715,-2.789142132,-1.034314871,8.2188797,2.99842906,21.52662277,1.799400568
3.7331839999999943,-7.46228981,2.473730087,-131.974884,0.597993076,-0.468630314,9.061753273,6.54308033,15.43967342,2.963567257
3.7415170000000018,-7.422848225,2.542329788,-131.984436,1.17450273,-3.248933554,8.88049221,6.151053905,7.217119694,-0.36606589
3.749849999999995,-7.380269527,2.718576431,-131.9759979,0.190394089,-0.570097804,3.033263922,6.482682705,19.2072773,2.766722679
3.7581830000000025,-7.397750854,2.835268259,-132.0003204,-0.849274158,-1.566164613,6.724868298,-0.589524448,13.16879082,-1.38779211
3.7665159999999958,-7.368398666,2.949375868,-131.9792175,0.567490578,-0.955735147,8.038560867,4.820932865,11.62120628,3.331746817
3.7748490000000032,-7.397176266,2.996630907,-131.9550171,-0.398786873,-2.902446985,4.53215456,-2.236903906,4.157523155,3.308923721
3.7831819999999965,-7.443956852,3.100817204,-131.9681702,2.29687953,-0.859393299,6.483453274,-4.101543903,10.97557354,-0.907986343
3.791515000000004,-7.542105198,3.12174058,-131.9640198,-1.505949259,-4.108194351,8.169569016,-10.43912125,1.331837893,0.524579585
3.7998479999999972,-7.572268009,3.203460932,-131.9848633,1.728526115,-0.060811169,4.843278885,-2.047128201,8.429568291,-2.126865149
3.8081810000000047,-7.722577572,3.226107121,-132.0024261,-1.115100265,-2.358249664,4.102277756,-16.55234146,1.879880071,-2.020335674
3.816513999999998,-7.826338291,3.251582146,-132.0357361,0.658491611,-1.67379725,4.926035881,-10.78645134,1.956517935,-4.485168457
3.8248470000000054,-7.979822636,3.308230877,-132.0435333,-0.03016774,0.386802942,3.977935553,-16.99928856,5.767764091,-0.287071615
3.8331799999999987,-8.168471336,3.325769424,-132.0730438,-0.230646059,-3.240448713,6.112641335,-20.98745537,0.975134254,-4.15541172
3.841513000000006,-8.33767128,3.350983858,-132.0844269,-0.269536138,-0.591997445,8.723081589,-18.85957336,2.097217083,-1.210362434
3.8498459999999994,-8.478940964,3.333712101,-132.0891418,1.357319355,-2.179341555,3.645984411,-15.4694767,-3.565258503,-1.822388887
3.858179000000007,-8.650880814,3.366643429,-132.0990143,-0.789032578,0.95276022,2.103822947,-19.19804573,2.990821838,-0.879093826
3.866512,-8.881298065,3.296048641,-132.1038513,1.478585243,-1.944197178,5.928767204,-26.16761017,-9.872078896,-2.817964792
3.8748449999999934,-9.060791969,3.32076025,-132.1287994,-0.982783258,-0.771775126,8.457433701,-19.9997406,2.301285744,-2.78763628
3.883178000000001,-9.175768852,3.237431526,-132.131073,1.58675015,-1.575991035,4.377616405,-12.33124542,-11.40633965,-2.828721285
3.891510999999994,-9.301449776,3.252328157,-132.1662445,-0.47890687,2.87612772,0.015217652,-13.47694397,1.347974896,-4.169600964
3.8998440000000016,-9.496090889,3.193878174,-132.178299,-0.515208483,-2.23361659,5.262720585,-21.82790947,-8.256893158,-3.517950535
3.908176999999995,-9.660028458,3.204852819,-132.2199707,0.725383341,-0.800233901,10.79400063,-18.02793121,1.035455704,-5.0006814
3.9165100000000024,-9.696579933,3.125222683,-132.2135925,-1.874136686,-1.759059072,8.213277817,-2.981023073,-11.11566925,-1.807455897
3.9248429999999956,-9.707539558,3.145335436,-132.2492371,2.488086939,0.864014268,0.427096277,0.285368174,2.006132364,-4.099750042
3.933176000000003,-9.777562141,3.06313014,-132.261322,-2.523220539,1.442278624,3.330060482,-6.906507492,-11.13759613,-3.488953829
3.9415089999999964,-9.857467651,3.116436005,-132.293045,2.021677732,-1.717305303,8.086136818,-8.017320633,5.858437538,-2.951541662
3.949842000000004,-9.840665817,3.042132616,-132.3062134,-3.030665159,-2.096466303,10.33533669,3.513659,-10.17147732,-3.475736618
3.958174999999997,-9.728164673,3.104202986,-132.3103485,1.772981048,1.288657665,6.097484589,14.89381027,6.330610275,0.482546687
3.9665080000000046,-9.634160042,3.029322863,-132.3185577,-3.112014771,-0.539044678,4.601210594,12.77535725,-10.24950027,-3.447535992
3.974840999999998,-9.518718719,3.113007069,-132.3284912,1.911402225,-0.151163608,8.214018822,15.2850666,9.006786346,0.199995965
3.9831740000000053,-9.348975182,3.082443476,-132.3370667,-2.104612827,0.762169003,4.296183586,21.83335114,-5.101063728,-2.002841711
3.9915069999999986,-9.180930138,3.17655015,-132.342926,1.278345227,0.593635023,6.789463043,21.57178307,10.1643486,0.827647626
3.999840000000006,-9.000464439,3.155572891,-132.3434143,-0.911084831,-1.006212115,5.28051424,23.06370735,-4.126108646,-0.840723515
4.008172999999999,-8.806951523,3.284071684,-132.3656158,0.493075937,0.628115296,5.454314709,24.77341461,14.00080299,-0.626281321
4.016506000000007,-8.56658268,3.273327112,-132.3420563,-1.38975513,-3.250683546,12.83718014,30.05062294,-2.794374943,2.298674822
4.024839,-8.269535065,3.369680643,-132.4002075,1.244668365,0.568892419,7.848459721,37.4187851,11.36387253,-5.496322632
4.033171999999993,-7.994796276,3.401966572,-132.3812103,-2.469776392,-2.21394825,5.476230621,34.26635361,1.946556091,1.877602339
4.041505000000001,-7.695272923,3.505334139,-132.4283905,3.191538572,0.769647062,5.205229282,37.65208054,11.96542454,-4.20303297
4.049837999999994,-7.436874866,3.536741972,-132.4072113,-4.127177238,-1.757172346,10.05514145,32.25321579,1.760493517,2.642187357
4.0581710000000015,-7.119568348,3.617433548,-132.4543304,3.183443308,-1.437572002,7.708435059,39.82934952,8.679114342,-4.736168861
4.066503999999995,-6.843767643,3.62528944,-132.4149323,-3.327819109,-1.491753221,2.331669331,34.16576004,-0.731376767,4.501936436
4.074837000000002,-6.561363697,3.71945715,-132.4643402,4.229391098,0.252063543,10.79243755,35.63697433,10.81910896,-4.855606556
4.0831699999999955,-6.330158234,3.739124775,-132.4180145,-3.367679596,-2.311964035,10.41761112,28.81957054,0.14748688,4.856872082
4.091503000000003,-6.05936861,3.832113028,-132.4933777,2.173070431,-2.081636667,5.99818325,34.46051025,10.97338104,-8.063127518
4.099835999999996,-5.826805592,3.82439065,-132.4488525,-1.68315208,-3.412145138,7.715729713,28.98780441,-3.047801733,4.28754425
4.108169000000004,-5.533893108,3.969910383,-132.4918365,0.092451125,0.133608952,11.54658604,36.86849213,16.7923069,-3.688673258
4.116501999999997,-5.276422501,3.927908659,-132.4594727,0.719332039,-0.647019744,7.620008469,32.07548141,-6.958791733,2.467216253
4.1248350000000045,-5.090970993,4.040973663,-132.4716034,-1.612603068,-3.334442854,3.163905144,23.72330475,12.54965019,-0.516088724
4.133167999999998,-4.904907703,4.038787842,-132.4656677,1.090662003,0.256613851,9.50519371,23.72197151,-1.893879175,-0.242528543
4.141501000000005,-4.755687237,4.098661423,-132.4659271,-1.255178571,-1.709190249,8.584574699,19.27715111,6.067348003,0.274661511
4.1498339999999985,-4.620291233,4.190578938,-132.4633484,0.199121505,-2.366334915,7.838929653,17.67188263,9.394947052,0.304399669
4.158167000000006,-4.508569717,4.173845291,-132.4560089,1.235304832,-1.604261041,7.187434196,14.7097435,-3.165625334,0.421610415
4.166499999999999,-4.41003418,4.219921112,-132.4511719,-1.070441961,-3.681525469,12.70459747,13.2336235,3.892954826,0.117543742
4.174833000000007,-4.314860821,4.244290352,-132.4358673,0.720457196,-1.255529046,3.845715046,12.65243435,1.682138205,1.752577305
4.183166,-4.302960396,4.262494087,-132.4425964,-0.839662671,-1.10802865,4.018594742,2.948710918,0.670785666,-1.553516269
4.191498999999993,-4.311627388,4.265861034,-132.4221649,0.40159896,-4.123772621,15.21794224,0.144489899,-0.875481725,2.173060417
4.199832000000001,-4.2554636,4.321620464,-132.4239502,-0.425045609,-0.32891652,9.257766724,8.218864441,5.124050617,-0.630430281
4.208164999999994,-4.259585381,4.293282509,-132.4321594,2.052378178,-1.238980532,3.26844573,0.94577992,-4.412192822,-1.530335426
4.216498000000001,-4.325880051,4.321421146,-132.4216461,-1.859262347,-2.882548332,6.827826977,-6.582896709,1.711082101,0.61901927
4.224830999999995,-4.372732639,4.274842739,-132.4627228,1.36741972,-1.102333903,11.28726578,-3.88725543,-6.294046402,-5.626027107
4.233164000000002,-4.429897308,4.287755013,-132.4442902,-1.573154449,-1.362006664,8.030776024,-5.552333832,-0.179671064,1.423152566
4.241496999999995,-4.507080555,4.289700508,-132.4767914,1.209190488,-1.62309432,7.198260307,-7.603470802,-0.559120357,-4.15753603
4.249830000000003,-4.611570358,4.258656025,-132.4490509,-0.821129441,0.216951445,5.921773911,-11.3127985,-5.527053833,2.111560822
4.258162999999996,-4.764987469,4.247324944,-132.4628143,0.318666816,-4.324207306,11.84017467,-16.92226601,-2.314157009,-2.051073074
4.266496000000004,-4.879535675,4.199405193,-132.4454803,1.063324332,0.118524298,4.259042263,-12.42381477,-7.444458008,0.663869739
4.274828999999997,-5.073622704,4.137512684,-132.4673157,-0.606176198,-1.627513885,4.890408039,-21.73408508,-8.266909599,-3.547304153
4.283162000000004,-5.261752605,4.140640259,-132.4615326,-1.109673738,-2.575564623,15.87892818,-21.14802933,-1.218994737,-0.184691504
4.291494999999998,-5.389099121,4.081550121,-132.4704742,1.879018068,-0.95071876,10.0695591,-13.83800316,-8.056254387,-2.019823551
4.299828000000005,-5.555862904,4.056463718,-132.4909973,-1.388550878,-0.455651134,0.614001513,-18.39413643,-4.340090275,-3.073619366
4.308160999999998,-5.704323292,4.041036606,-132.484787,-0.597492397,-3.432265997,15.92232132,-16.50155067,-3.009941816,0.260804176
4.316494000000006,-5.797450066,3.9172647,-132.4912262,0.975279152,1.547208428,7.391654968,-9.642468452,-16.22127914,-3.145108461
4.324826999999999,-5.96919775,3.881245136,-132.4738617,-0.431490839,0.570439696,-1.51865232,-19.3853569,-5.607201576,1.329456091
4.333160000000007,-6.134307861,3.864006281,-132.4793091,-1.166438103,-3.496797085,16.37602425,-18.29014206,-3.49722743,-1.78806603
4.341493,-6.253395557,3.862308502,-132.4385223,1.383591056,0.790224671,16.51880074,-13.25341034,-1.824310303,4.535872459
4.349825999999993,-6.284546375,3.794905186,-132.4348907,-1.91933012,-0.740024388,8.170516968,-2.286979914,-9.5925951,-1.367018938
4.358159000000001,-6.332467079,3.720864773,-132.3844452,1.923217773,-2.580763578,2.887414932,-4.780347347,-10.58991337,4.728363514
4.366491999999994,-6.421175003,3.646769047,-132.378418,-0.030901302,0.652180791,10.59414959,-9.25261879,-10.47879887,-0.614703298
4.374825000000001,-6.496822357,3.638836145,-132.3571625,0.879558921,-1.789892554,9.495298386,-7.800955296,-2.786815882,2.078697443
4.383157999999995,-6.511917114,3.472935438,-132.3443146,-0.800594449,-1.22347331,8.851551056,-0.53990978,-21.04918098,-1.024966717
4.391491000000002,-6.555530071,3.42135334,-132.3335724,1.349985003,-0.135723174,8.604859352,-3.943861723,-7.391614437,0.274994373
4.399823999999995,-6.602791786,3.368505239,-132.3392792,-3.158163548,-3.564023018,14.51359844,-4.162250042,-7.712536812,-2.274659634
4.408157000000003,-6.60268259,3.232805729,-132.3282471,1.921817541,0.130352005,11.0848217,1.304584384,-17.42396736,-0.857193232
4.416489999999996,-6.620559692,3.133558512,-132.3275909,1.228887558,0.707137227,10.85644531,-0.678943813,-13.32635784,-2.195101738
4.4248230000000035,-6.607886314,3.094471216,-132.3260803,-2.732230186,-2.149046898,5.344107628,2.876990795,-5.774229527,-0.657811999
4.433155999999997,-6.60964632,2.903687716,-132.3024292,1.953230023,-1.28645432,8.021021843,1.103359222,-24.54660606,-0.711883962
4.441489000000004,-6.640623093,2.954377651,-132.3237762,-3.217786312,-1.524886012,9.240832329,-2.219870567,5.242978096,-2.136854887
4.4498219999999975,-6.605996609,2.739701509,-132.2926178,1.694258451,-2.691517591,15.03197956,5.432654858,-27.49473572,-0.151956558
4.458155000000005,-6.581855297,2.733386993,-132.28302,0.232682958,0.51185751,7.203700542,4.210058212,-1.980454326,0.757156849
4.466487999999998,-6.534793854,2.576187611,-132.2542114,-0.108231544,-1.520030856,12.29132366,6.927167892,-20.67027473,0.932358503
4.474821000000006,-6.501296997,2.496287107,-132.2302094,-0.067980736,-0.633175671,7.283533573,5.330784798,-11.38513279,1.425944686
4.483153999999999,-6.443815231,2.442976713,-132.2180939,-1.537693501,-1.683255792,12.37371922,8.202907562,-7.615561008,0.423095971
4.4914870000000064,-6.407988071,2.345902681,-132.193161,-0.159463897,0.251774669,7.112183571,5.541819572,-13.00648785,1.368645668
4.49982,-6.386439323,2.293185949,-132.1838226,-0.125385404,-3.238744259,16.77700424,3.996153831,-7.884305,-0.459557801
4.508152999999993,-6.260776997,2.227916479,-132.1574554,0.073814332,-0.399001718,9.625279427,16.32318687,-9.227747917,1.981389642
4.5164860000000004,-6.168453217,2.090943813,-132.1507263,0.569576621,-0.861600697,6.921863556,12.4868679,-17.95680428,-1.323014259
4.524818999999994,-6.100253582,2.061499596,-132.1311035,0.665218294,-3.665881872,6.942376137,9.466125488,-4.860135078,1.664643764
4.533152000000001,-6.067197323,1.938269138,-132.1116333,-1.775633216,-1.234767675,6.408454895,5.337213993,-16.41807747,-0.137202695
4.541484999999994,-6.076259136,1.818969011,-132.103714,2.249562263,-1.441730618,13.53972244,0.249098465,-15.43190098,-0.865620434
4.549818000000002,-6.090351105,1.783735037,-132.0854034,-2.259147882,-4.22044611,7.842437267,-0.304694146,-5.903530598,0.846601725
4.558150999999995,-6.121827602,1.63051343,-132.0740662,0.088033587,-1.378062367,9.172053337,-2.450962543,-19.5218792,-0.902043998
4.566484000000003,-6.161393166,1.612704873,-132.070694,-1.010216475,-2.089695215,8.748856544,-3.298998594,-3.630446672,-0.717749298
4.574816999999996,-6.199115753,1.495330811,-132.0695648,0.153606385,-0.389690787,11.24871731,-3.08173871,-15.53640652,-1.724542737
4.583150000000003,-6.262996674,1.371564984,-132.0359039,1.944931149,-0.907149196,12.80247307,-6.399781227,-16.29773903,2.105541468
4.591482999999997,-6.346168995,1.366582394,-132.0402832,-1.872377515,-1.038274288,5.120822906,-8.601530075,-1.632254362,-0.885163844
4.599816000000004,-6.448460579,1.267258167,-132.0056,-1.481063128,-3.065770626,8.832483292,-10.92461491,-13.81922817,2.45876193
4.608148999999997,-6.539890289,1.309741139,-132.0244598,-1.166404247,-2.53174901,13.11599731,-9.554251671,4.225324631,-1.967211723
4.616482000000005,-6.653301239,1.27340126,-131.990509,-1.021286249,-1.735814571,7.569268227,-12.25079155,-6.315946579,3.197912216
4.624814999999998,-6.764843464,1.200691819,-132.0166168,1.716745853,-0.513011098,14.46737385,-11.86468124,-9.815133095,-4.472771168
4.633148000000006,-6.853565216,1.272193909,-131.9778595,-1.44783771,-1.276363373,6.023215294,-9.38071537,6.873580456,5.333473682
4.641480999999999,-6.99761343,1.252245307,-131.9969788,-0.977459133,-1.04148376,5.489558697,-15.86903477,-3.195824862,-2.86312151
4.649814000000006,-7.110253334,1.289972067,-131.9616547,0.579864442,-1.885410786,14.42506123,-12.15906429,2.459607124,4.417917728
4.658147,-7.19907999,1.324913025,-131.9688873,-2.159507513,-0.742245913,6.669173241,-9.273287773,3.174243927,-0.637448609
4.666479999999993,-7.32139492,1.40533042,-131.9358826,-0.569780529,-2.208890915,7.454256535,-13.32100582,7.561451435,4.80282402
4.674813,-7.385978699,1.6100595,-131.9780731,-1.784751773,-0.050270271,10.66323757,-6.16397953,23.50030518,-2.22263813
4.683145999999994,-7.46272707,1.622489333,-131.9431915,1.192290545,0.019351702,11.18015099,-7.961199284,-0.15738669,4.045102596
4.691479000000001,-7.542045116,1.801169157,-131.9584656,0.29288435,-3.500525475,12.28528976,-8.09634304,20.40341187,0.683157623
4.699811999999994,-7.581411839,1.882537603,-131.9404755,-1.447263718,0.454253554,5.711776733,-3.345488548,7.885778904,3.070199251
4.708145000000002,-7.672227859,2.076612711,-131.9775543,-0.48173517,-1.594557524,10.06038189,-9.377363205,22.57754898,-1.615580201
4.716477999999995,-7.712654591,2.188594818,-131.9617615,0.498316735,-1.939628601,14.91623878,-3.473688126,11.55440426,3.329133987
4.7248110000000025,-7.736194134,2.234168291,-131.9749451,1.389822721,1.675615072,4.430988312,-1.313715696,4.125300884,-1.188667059
4.733143999999996,-7.767245293,2.37609148,-131.9754486,-0.335958421,-1.793879271,6.537646294,-2.356599808,15.78900146,1.940790772
4.741477000000003,-7.777965069,2.492799997,-132.0108948,-2.161108971,-2.529878855,12.71746922,0.261060357,13.3555975,-2.616276979
4.7498099999999965,-7.791738033,2.539654732,-132.0130157,2.590503931,-0.168613464,7.3935709,-0.194834664,4.103553772,0.162394226
4.758143000000004,-7.810323238,2.644378185,-132.0533905,-0.339862198,-1.694860697,9.168811798,-0.643826663,12.01228333,-3.388981819
4.766475999999997,-7.795238018,2.67492795,-132.0529175,-0.876387537,-1.630554676,8.425557137,3.254441738,2.126288176,0.203428224
4.774809000000005,-7.816818714,2.780498981,-132.087677,0.292706072,0.268348753,9.15011692,-1.023839474,12.02206707,-2.704619884
4.783141999999998,-7.835011482,2.882905483,-132.1014709,-1.966611266,-2.603022814,14.22475433,-0.62786895,10.98169327,-0.886265397
4.7914750000000055,-7.807797432,2.894022465,-132.1042938,1.966402292,-0.46665445,10.28147125,4.650111198,0.271843851,-0.453897029
4.799807999999999,-7.816987038,2.975114346,-132.1044769,-0.321873486,0.086457036,3.672240973,0.371483207,8.223270416,0.393357784
4.808141000000006,-7.824697018,3.067665815,-132.1316528,-0.242772013,-3.463951826,11.05403042,0.61399895,10.35117531,-2.011627436
4.8164739999999995,-7.811579704,3.053730011,-132.1221771,-0.395345062,-1.760153413,8.94088459,2.985595465,-3.223974466,-0.023219304
4.824807000000007,-7.857369423,3.062444687,-132.1245575,1.977710128,-0.659420848,4.739275932,-4.113069534,-0.019889453,-0.44147414
4.83314,-7.878654957,3.109534264,-132.1164856,-2.69124341,-1.735669374,10.74061489,-1.132367015,4.05127573,0.841478884
4.8414729999999935,-7.856050491,3.114060402,-132.0967407,1.865743399,0.818045795,11.01692104,3.951200962,-0.880041122,2.1188097
4.849806000000001,-7.867161274,3.133965731,-132.0798798,-2.380216599,-2.504570961,11.36913586,0.003739678,0.604239762,1.980210781
4.858138999999994,-7.829561234,3.234830141,-132.0815887,0.969311118,-0.872309327,8.772368431,5.891684532,10.92185974,1.15261507
4.866472000000002,-7.821573257,3.242557764,-132.0856628,-1.136729002,-1.283700585,6.38418293,2.43038106,-0.496493548,-0.703994513
4.874804999999995,-7.857779503,3.245094776,-132.0662994,3.833302498,-2.247340918,9.107619286,-3.108633041,-1.109928846,2.039482117
4.883138000000002,-7.866426468,3.277898312,-132.0856628,-3.943790674,-1.715843916,10.22144127,0.568533599,2.815081358,-2.675112247
4.891470999999996,-7.878992081,3.30645442,-132.0883942,1.228012323,-2.432360172,3.178321123,-0.121706039,2.344188929,-0.153390855
4.899804000000003,-7.922391891,3.284833193,-132.0912323,-0.026841417,0.345106959,11.7754631,-3.711336613,-3.920271635,-1.619959474
4.908136999999996,-7.939873219,3.287640095,-132.0920105,1.322739482,-0.838399053,11.24664402,-0.726355612,-0.747974098,-0.34583056
4.916470000000004,-7.944899082,3.31900692,-132.0907593,-4.728705406,-1.620716572,4.543771744,0.83535713,2.236404896,0.320152342
4.924802999999997,-7.978693962,3.350001097,-132.0896454,3.456351757,-0.989748538,12.47480011,-2.695987701,2.569594145,0.350607634
4.933136000000005,-7.95155859,3.366960764,-132.0865326,-1.201104045,-0.345944732,12.99114323,4.710791111,0.566407561,-0.246011943
4.941468999999998,-7.909296989,3.32526207,-132.0836029,0.214298368,-1.460899591,5.836357117,6.418029785,-6.100144863,-0.643083751
4.949802000000005,-7.898321629,3.422545195,-132.0946655,-1.826731801,-0.862241387,6.843866825,2.837596655,10.28094006,-0.050498467
4.958134999999999,-7.86081171,3.455025673,-132.1160431,1.827717662,-0.668836057,11.59673977,6.022957325,3.115844011,-2.301221609
4.966468000000006,-7.796784878,3.392432928,-132.0842743,-1.082552433,-1.289832473,7.336605549,8.929303169,-9.347084999,1.841996789
4.974800999999999,-7.739059448,3.409322262,-132.0701752,1.030007958,-0.743155777,9.450691223,8.194788933,0.683874488,1.647456288
4.983134000000007,-7.659924984,3.500522137,-132.0658112,-2.959191799,-1.352677226,10.31077003,10.93525505,9.38615799,1.114398599
4.991467,-7.574112892,3.427305698,-132.04599,2.064610243,-0.982681572,10.72434711,11.52159214,-10.11889267,0.890453398
4.999799999999993,-7.481618404,3.434306145,-132.0176086,0.987799525,-0.386623442,11.02990818,12.33507538,-1.071840525,3.134286404
5.008133000000001,-7.401142597,3.491435289,-132.0439758,-2.069599628,-2.239917755,5.171204567,11.21593666,6.111402988,-2.543199301
5.016465999999994,-7.339121819,3.49458909,-132.033432,-0.271722555,-2.32359767,5.383811951,8.835015297,-1.165332317,0.395739913
5.024799000000002,-7.303719521,3.481316328,-132.0463562,1.161192298,-1.341490746,12.64248753,5.710104465,-2.477984905,-2.039366961
5.033131999999995,-7.251992702,3.516773462,-132.0445862,-0.957382262,-1.917340875,6.558877468,7.667646408,2.810726881,-0.131413832
5.041465000000002,-7.220313549,3.510413647,-132.0529022,-0.901024699,-1.731066465,5.708685875,5.229529858,-1.726924419,-1.380952954
5.049797999999996,-7.233745098,3.517153263,-132.0411377,0.4613083,-1.282504797,16.09984779,-0.255207419,-0.821819842,1.157404661
5.058131000000003,-7.207803249,3.5975914,-132.0545197,-0.49999094,-1.343917847,12.44643307,4.580260754,8.681485176,-0.677739859
5.066463999999996,-7.176614761,3.583671808,-132.0321045,-1.300274611,-1.345734477,4.682610035,5.051511288,-3.367669821,1.551710367
5.074797000000004,-7.169615269,3.60500288,-132.0077209,1.619954944,-0.427152991,8.638593674,2.023165703,1.079537511,2.918229818
5.083129999999997,-7.151966095,3.703782082,-132.0102539,-1.893519044,-1.578540444,9.981445313,3.613579512,10.42358494,0.283293456
5.0914630000000045,-7.12473011,3.691453934,-131.9934082,-0.07900171,-0.87216562,7.784804344,4.505748749,-2.814658642,1.517745972
5.099795999999998,-7.117878437,3.734576225,-131.9734192,1.312926412,-1.095014572,8.253363609,2.142169714,3.463505983,2.140043974
5.108129000000005,-7.118008137,3.814749479,-131.9863129,-1.299053192,-1.272422433,7.562835693,1.453377366,8.643241882,-0.639087975
5.1164619999999985,-7.10409832,3.795113087,-131.9712219,0.155556813,-1.897895575,12.76219082,3.025938034,-3.929595232,0.612282753
5.124795000000006,-7.073329449,3.785775423,-131.9752045,0.804584086,-0.923804402,15.46788502,5.091444492,-2.149098635,-0.912827373
5.133127999999999,-7.067492008,3.864241838,-131.9976959,-1.030102968,-1.923716068,4.301597595,2.357175827,8.307977676,-2.390768766
5.141461000000007,-7.053783417,3.829950809,-132.0023041,-0.516242683,-1.391697288,7.734190941,3.048606634,-5.110616684,-1.354083776
5.149794,-7.073805809,3.859291792,-132.0218811,0.417070538,-1.317487955,11.4423027,-0.767031074,2.417906761,-2.769936085
5.158126999999993,-7.078531265,3.942868471,-132.0232391,-1.195584655,-1.190429091,8.656633377,0.811510265,8.877484322,0.773780465
5.166460000000001,-7.053966522,3.860795736,-132.0358429,0.857138216,-0.0218374,9.364731789,4.531106949,-10.94620514,-3.60946846
5.174792999999994,-7.058215141,3.928735018,-132.0298615,0.855379343,-1.042049766,7.861090183,0.808692515,6.906929493,1.413265347
5.1831260000000015,-7.031242847,3.922523022,-132.0401917,-2.202790737,-2.018375874,11.36836529,4.79805851,-1.946156979,-2.188723803
5.191458999999995,-7.004682541,3.90371871,-132.0396729,1.427718639,-0.394160181,10.41690826,4.550855637,-3.344207525,-0.51455164
5.199792000000002,-6.970191002,3.921203852,-132.071106,-0.674158573,-0.810795546,14.89798927,5.872652054,1.180560112,-4.32935667
5.2081249999999955,-6.88725853,3.778713942,-132.0501862,2.372706413,-1.600014687,13.11427498,11.15016365,-18.37136841,0.123588726
5.216458000000003,-6.786326408,3.761247396,-132.0672607,1.115686059,-0.704995394,9.232631683,13.71837044,-3.194518089,-3.119980812
5.224790999999996,-6.694391251,3.616877317,-132.0750427,-1.243238211,0.966608584,4.58616209,12.53059196,-18.50151634,-3.292621851
5.233124000000004,-6.57967186,3.504775763,-132.0777893,1.064438701,-2.101135731,15.86155796,15.15505123,-14.42224026,-2.180348396
5.241456999999997,-6.404056072,3.41948247,-132.0843048,-3.364070654,-0.307054162,11.0304327,22.48995209,-11.17691803,-2.232371569
5.249790000000004,-6.282996655,3.313631535,-132.0783997,1.742751837,-2.595025778,9.04498291,15.95017052,-14.04863262,-1.553849697
5.258122999999998,-6.111947536,3.229544163,-132.0656586,-2.099864244,0.720248818,10.97262383,21.80720329,-11.29213047,0.126483157
5.266456000000005,-5.939519405,3.051450491,-132.0591278,2.249717236,-0.862635374,16.69324303,22.11219978,-22.68712425,-2.295844316
5.274788999999998,-5.714586735,3.033796787,-132.0483856,-2.951959848,-2.11090827,6.764974594,28.29178619,-3.333707571,0.763586462
5.283122000000006,-5.506101608,2.880462408,-132.0440674,0.870157599,-1.782136917,16.14169693,26.44585609,-19.7162075,-2.073513031
5.291454999999999,-5.325606823,2.862892389,-132.0489044,-1.386079311,-0.679882288,4.157790661,23.05725288,-3.140754938,-1.076374769
5.299788000000007,-5.160032749,2.746213436,-132.0474701,1.336243629,-3.348091125,22.43593025,21.29545784,-15.35831738,-1.431516528
5.308121,-5.041587353,2.673341751,-132.04216,0.439425796,-1.002906442,0.693341076,15.55125141,-9.862596512,-0.442601264
5.316453999999993,-4.950477123,2.673857689,-132.0579987,-1.09783864,-2.752507687,21.73130226,12.45786858,-1.168150067,-2.211571693
5.324787000000001,-4.894902706,2.539747715,-132.0639038,0.526422381,-4.040014744,16.06100464,8.140256882,-17.36590385,-2.408673525
5.333119999999994,-4.813486576,2.631823778,-132.0761871,-5.332783222,-2.056055784,7.139489651,11.20474434,10.03701687,-0.833500087
5.341453000000001,-4.826548576,2.452474117,-132.0649719,3.903920412,-3.220076799,15.07353115,-0.259254605,-22.65466309,-0.767671883
5.349785999999995,-4.88520813,2.479377508,-132.0661926,-5.859717369,-3.053495646,6.328371048,-5.588065624,1.830290914,-0.194757864
5.358119000000002,-4.875441551,2.489398479,-132.0246735,5.933481216,-0.35832423,21.47057533,2.323595285,-0.321061641,4.764299393
5.366451999999995,-4.931086063,2.377326012,-131.9879761,-1.880781531,-2.246476412,13.75898552,-5.41281414,-15.17475986,2.909623861
5.374785000000003,-5.063681126,2.477113008,-131.977951,0.187023252,-3.244715452,3.832605124,-14.512146,10.43700981,1.919351935
5.383117999999996,-5.161039352,2.481008291,-131.9389038,-1.930125475,-1.040341377,16.75168991,-10.5179615,-1.047301888,4.403419495
5.3914510000000035,-5.320357323,2.389454365,-131.9437256,2.749963045,-0.655764461,13.03497124,-17.72696686,-11.98466206,-1.877511501
5.399783999999997,-5.530409336,2.407763481,-131.9264069,-3.764807224,-5.218131542,3.299619675,-23.83959961,0.602139652,1.950908899
5.408117000000004,-5.709105015,2.392936945,-131.9480591,3.694538593,0.040501934,15.43148327,-19.96805573,-2.612409115,-3.057046652
5.4164499999999975,-5.923689842,2.275790453,-131.9302673,-2.446096659,-3.589024067,19.98905373,-24.37722778,-15.58920479,0.374582857
5.424783000000005,-6.182140827,2.229233742,-131.973114,-0.407977968,-3.300758123,4.07713747,-29.44636726,-6.109960556,-5.997872829
5.433115999999998,-6.404919147,2.206208467,-131.9571228,0.339500129,-0.13750428,12.73728848,-25.33834457,-4.307099819,0.998520195
5.441449000000006,-6.624039173,2.017524958,-131.9975433,0.847926676,-0.458813548,19.96393967,-24.74846077,-23.043293,-7.684239388
5.449781999999999,-6.867339611,1.968984604,-131.9854279,-0.90504241,-2.89506793,5.981061935,-27.7854557,-7.332732201,0.425350279
5.4581150000000065,-7.073573112,1.932969213,-132.0339203,0.20880644,1.110166311,5.633094788,-23.18308449,-4.680222511,-6.599089146
5.466448,-7.286710739,1.810096145,-132.0087585,1.472342014,-1.317866564,20.58776474,-24.21173286,-16.38176346,0.816428661
5.474780999999993,-7.504116535,1.744794726,-132.0472717,-2.54887414,-3.703166723,8.87334919,-24.4876461,-8.545516014,-5.924435139
5.4831140000000005,-7.650549412,1.73999846,-132.034256,0.82572633,1.63841939,6.457389355,-16.25281334,-1.873079896,1.170084238
5.491446999999994,-7.81734705,1.577730536,-132.0605164,0.405571014,-2.204791069,14.50667667,-18.55725861,-19.96804047,-6.041697979
5.499780000000001,-8.003679276,1.495149612,-132.044281,-1.117095351,-3.369446754,7.920576096,-20.95454407,-11.45388699,0.229811057
5.5081129999999945,-8.099452972,1.434298754,-132.0608063,-0.155616671,2.705533028,12.32057285,-10.0753479,-8.048236847,-3.286396265
5.516446000000002,-8.234970093,1.328576446,-132.0414581,0.24541609,-3.65430665,13.81942177,-14.85688782,-14.25623417,0.158577785
5.524778999999995,-8.380491257,1.273572922,-132.043869,-2.372836828,-2.763553381,8.376041412,-15.99946213,-7.85654068,-1.578029156
5.533112000000003,-8.481989861,1.231876373,-132.0263062,-0.005068561,1.160774469,14.80944157,-10.85893917,-6.353701591,1.051054716
5.541444999999996,-8.546144485,1.230025649,-132.0140381,-2.984047651,-1.803357482,14.96030521,-6.363023758,-1.534074903,1.122620702
5.549778000000003,-8.618860245,1.260916948,-132.0116882,0.639540792,-1.275466681,11.42161179,-7.278529644,2.255256891,0.492100775
5.558110999999997,-8.697899818,1.265325904,-131.9854431,-0.065687209,-0.203184351,12.07886696,-8.186885834,-1.047225237,2.891898394
5.566444000000004,-8.761370659,1.324811339,-132.0072327,0.169790134,-1.568007827,15.73325253,-6.106293201,6.083868027,-1.841445923
5.574776999999997,-8.802726746,1.391740322,-132.0135651,-3.112487793,-1.826768517,11.30583763,-3.498072147,6.686340332,0.136549488
5.583110000000005,-8.872655869,1.483896613,-132.0623779,-0.799021602,-2.023221254,7.150802135,-6.877128124,10.73077679,-4.38942194
5.591442999999998,-8.965465546,1.553230047,-132.0570068,-1.088990927,-2.849025011,13.75737572,-9.787313461,7.024344921,1.626939416
5.599776000000006,-9.034399986,1.605367422,-132.1039124,1.27390027,-0.667781353,20.26217079,-6.668730259,5.688255787,-4.921839714
5.608108999999999,-9.08457756,1.678653955,-132.1079712,0.938817561,-0.002153714,14.74505043,-4.640338898,7.665623188,0.603240848
5.616442000000006,-9.161328316,1.763541937,-132.1556854,-0.808776617,-3.505102634,12.54505062,-7.592252254,9.59691143,-4.37551403
5.624775,-9.246147156,1.850026131,-132.1503906,-1.99374187,-1.846334815,13.90696716,-8.75506115,8.77812767,1.946528554
5.633107999999993,-9.302343369,1.930593729,-132.1748657,0.373746485,0.418568939,18.86691284,-5.279286861,8.918544769,-1.638709307
5.641441,-9.334976196,1.997990489,-132.1672974,-0.250370562,-2.031276464,16.06939125,-2.579340458,6.737235069,1.906134367
5.649773999999994,-9.346100807,2.061718225,-132.206543,-0.504564047,-3.576133966,11.8303566,0.268975109,6.945249557,-3.745045185
5.658107000000001,-9.357073784,2.097132444,-132.1922302,0.572852075,0.76780957,15.08245754,-0.011257456,2.81777072,2.083128691
5.666439999999994,-9.354932785,2.121802092,-132.2299957,-0.146891102,-0.054879721,16.07714844,1.861949921,2.294471741,-4.329663754
5.674773000000002,-9.337806702,2.163808107,-132.233017,-0.735960543,-3.9803195,10.79674435,3.497572422,3.673106194,0.11943917
5.683105999999995,-9.342383385,2.192760944,-132.2668304,-0.77735281,-0.489516884,10.72256374,0.972316384,2.990820885,-3.737462997
5.691439000000003,-9.373945236,2.21501565,-132.2642212,1.138176084,0.023075147,17.17122078,-2.431623459,1.487316132,0.441819906
5.699771999999996,-9.386060715,2.231925964,-132.29599,-0.55742991,-2.303646564,18.16492653,0.124075353,1.263447642,-3.767098188
5.708105000000003,-9.362774849,2.27726984,-132.2937927,-1.513884306,-1.154884577,15.02847195,4.153015614,4.228628635,0.844373226
5.716437999999997,-9.308082581,2.280824661,-132.3022614,-1.359838367,-2.713214159,14.22592354,8.026706696,-0.76849103,-1.270939708
5.724771000000004,-9.223264694,2.283905029,-132.2915955,0.952387333,-0.447824568,15.88336849,11.5504837,-1.197785616,0.980589688
5.733103999999997,-9.11303997,2.287727833,-132.3034363,1.260729432,0.742878556,16.07383728,14.65134335,-0.417371184,-1.628565907
5.741437000000005,-8.982588768,2.294914246,-132.300415,0.19274947,-1.16000247,13.59737492,17.00882721,-0.302696258,0.194360822
5.749769999999998,-8.824430466,2.268617868,-132.3003998,-0.318880081,-1.210919261,12.42490864,20.39270401,-4.466804028,-0.827199221
5.7581030000000055,-8.641597748,2.241020203,-132.3067322,-0.158975601,0.875819147,13.1236248,23.33895874,-4.254718304,-1.554310799
5.766435999999999,-8.434696198,2.200036764,-132.305191,-0.608523369,-2.235655546,10.83906078,26.23173714,-6.238211155,-0.883320332
5.774769000000006,-8.208078384,2.185699463,-132.3157806,0.430460811,-0.964830458,10.38429928,28.6508503,-2.865197659,-1.838219762
5.7831019999999995,-7.983909607,2.138505697,-132.3091125,1.25768137,-0.019271094,13.18983841,28.23940659,-6.8160429,-0.307383865
5.791435000000007,-7.755774498,2.07896781,-132.3186035,0.162293941,-2.756187916,16.17864609,28.78650284,-8.018504143,-2.405908346
5.799768,-7.528058529,2.002569675,-132.3038177,-1.150278211,-2.372113466,12.76946354,28.66660118,-10.6637907,0.208500028
5.8081009999999935,-7.312204361,1.956845641,-132.3180389,-1.13861227,-0.686439157,10.77772522,27.33068848,-6.317716599,-2.70149684
5.816434000000001,-7.09291935,1.94708097,-132.312027,-1.935656309,-2.860911369,10.39396477,27.69505119,-2.592559338,0.23301287
5.824766999999994,-6.89662838,1.92493093,-132.3251343,0.602173746,-1.931467295,14.25465679,25.01292992,-3.789103508,-2.211572886
5.833100000000002,-6.718992233,1.850846648,-132.3048859,-0.599876523,-1.42114532,12.86495399,22.60605812,-10.21287441,1.056587696
5.841432999999995,-6.532812119,1.834064603,-132.3181305,-0.633738875,-1.526307702,8.431887627,23.76187515,-2.91458106,-2.111343861
5.8497660000000025,-6.344778538,1.821390748,-132.3005219,-0.598263741,-1.693270326,13.44738007,23.90221405,-3.088322639,1.609009981
5.858098999999996,-6.195428371,1.7576406,-132.3020935,1.801824808,-1.766872525,11.68386078,19.2968235,-8.681729317,-1.323603153
5.866432000000003,-6.062921524,1.735728979,-132.2781982,-1.183824539,-1.596673846,6.196965694,17.22391319,-4.241961479,2.0788517
5.8747649999999965,-5.942050457,1.717759252,-132.2787323,0.702833474,-1.985554099,16.63928223,15.91568947,-3.475762606,-0.610681891
5.883098000000004,-5.84765625,1.63602984,-132.2501984,-0.576132834,-2.265486479,14.13357544,12.59539223,-11.20480728,2.097242594
5.891430999999997,-5.770183086,1.69728148,-132.25914,-1.943344355,-1.969067454,0.248194128,10.69686413,6.32438612,-0.623693883
5.899764000000005,-5.721914768,1.660135388,-132.2317352,1.692543626,-1.618245602,15.94094467,7.105106831,-6.103039742,2.52861166
5.908096999999998,-5.702561378,1.589678526,-132.2368622,-2.442868233,-2.433503389,12.15495682,3.707891226,-9.448975563,-1.754792809
5.916430000000005,-5.670483112,1.722530127,-132.2291107,0.264627665,-1.154556751,6.21067667,5.234602928,14.43744087,2.195012331
5.924762999999999,-5.661901951,1.599924445,-132.2296295,1.465182781,-2.688585043,15.94692039,2.447107315,-15.970644,-1.832916498
5.933096000000006,-5.692305565,1.608798146,-132.214035,-2.619219303,-1.98617506,4.67576313,-2.33390522,-0.221960142,1.667256355
5.941428999999999,-5.703637123,1.704748273,-132.2334137,0.837388337,-0.78305769,13.89484119,0.075715691,10.59082127,-1.47085917
5.949762000000007,-5.739647865,1.566915631,-132.2082367,1.341159701,-1.713374734,11.87247086,-2.988144875,-18.09335136,1.031280637
5.958095,-5.791919708,1.638875127,-132.2235565,-2.536453962,-1.607914686,3.509352207,-4.85360384,7.678816319,-1.259439349
5.966427999999993,-5.842907906,1.622067332,-132.2138977,2.717584372,-1.222000837,19.53910637,-4.729194641,-3.436700106,0.461363584
5.974761000000001,-5.880137444,1.5678159,-132.2057648,-2.709808826,-1.554085732,6.109984875,-3.076000452,-7.901747704,-0.02047858
5.983093999999994,-5.926667213,1.672433138,-132.2124329,0.186392933,-2.052591801,5.21625948,-4.192935467,11.47233295,0.195897669
5.991427000000002,-6.022618771,1.598333836,-132.2057343,-0.011215718,-1.397275209,14.44072723,-10.17012024,-10.02406788,-0.426131278
5.999759999999995,-6.06300354,1.679293752,-132.2219849,-1.501343608,-0.903407037,9.833303452,-3.368080139,8.539274216,-1.24952662
6.008093000000002,-6.133850574,1.647611141,-132.2211914,1.815251946,-2.418859959,14.16510296,-7.136445999,-4.887874603,-0.60755682
6.016425999999996,-6.226621151,1.625174999,-132.2251892,-1.805731058,-0.233233348,1.467574239,-9.69802475,-3.956490755,-1.070278168
6.024759000000003,-6.278586388,1.675250888,-132.2252808,0.856670976,-1.761745691,19.74885178,-4.812645912,4.646652699,0.319742501
6.033091999999996,-6.352900982,1.595056295,-132.2226105,-1.49804163,-2.159655333,9.98621273,-7.559237003,-10.69736576,-1.039003253
6.041425000000004,-6.417197704,1.759183764,-132.24263,-0.923098803,-0.91365087,1.982735157,-6.277294636,18.7430687,-0.496442437
6.049757999999997,-6.509439945,1.595329881,-132.233963,1.805731297,-1.316136479,18.53630447,-9.67515564,-20.97946548,-1.513200164
6.0580910000000046,-6.570137501,1.708011866,-132.2496033,-2.881348372,-1.317599177,2.576293945,-5.861857891,12.54992867,-0.624283195
6.066423999999998,-6.60934639,1.664945483,-132.2476959,3.578594685,-0.409834892,16.59935188,-3.288496256,-6.483641148,-0.673667192
6.074757000000005,-6.705521584,1.604763627,-132.2400513,-1.308688641,-1.635826826,0.82657361,-10.19949913,-8.37689209,-0.227006137
6.0830899999999986,-6.769571781,1.759174705,-132.2567596,-0.351443917,-1.135302305,14.3910799,-6.199735165,17.33927727,-0.322060645
6.091423000000006,-6.822556496,1.55723238,-132.2289886,1.517254829,-1.520829439,10.10783672,-5.086337566,-25.55591202,0.141185746
6.099755999999999,-6.902981758,1.794220328,-132.2587433,-3.845733881,-1.53467226,0.979853213,-8.12334156,27.3419075,-0.460813224
6.108089000000007,-6.972728729,1.623748779,-132.2297058,5.341014385,-1.078178287,24.16374969,-7.105481148,-21.82647514,0.687255859
6.116422,-7.015676022,1.723111987,-132.2460022,-6.057356834,-1.297222018,1.526313424,-3.669739008,10.75457287,-0.838571668
6.124754999999993,-7.099359989,1.71069324,-132.2285156,4.4655509,-2.561954975,11.13024807,-8.680114746,-3.055663109,1.557191849
6.133088000000001,-7.156588078,1.686467052,-132.2269745,-4.859698772,0.31262365,2.268806696,-5.504921913,-4.005720615,-0.47935763
6.141420999999994,-7.214972973,1.779650927,-132.2311859,3.124202013,-1.380046606,20.50782967,-5.623464584,10.06114483,0.598220468
6.1497540000000015,-7.223369122,1.683972001,-132.214386,-1.23973012,-0.301361799,5.042280197,0.357011259,-12.96335316,0.225251615
6.158086999999995,-7.271907806,1.786629319,-132.2019501,0.518105447,-1.98088479,10.26165962,-4.501689434,10.93415356,2.733500004
6.166420000000002,-7.299396992,1.749313116,-132.1976776,-1.939571977,-0.165164515,11.70152378,-1.890471578,-5.817006111,-0.420931578
6.1747529999999955,-7.286572933,1.876147389,-132.2004242,-0.052841555,-2.403853893,6.468882561,2.971251726,13.82477379,1.279149532
6.183086000000003,-7.376266956,1.785072207,-132.1944733,1.584597707,-1.903384089,1.971148133,-9.419086456,-12.02802372,-0.987492979
6.191418999999996,-7.399534225,1.910553932,-132.1927032,-0.782725275,0.257951111,18.94996262,-1.372295618,13.59514046,1.816151857
6.199752000000004,-7.415139675,1.768330455,-132.1817169,1.24134779,-1.857594013,12.76877022,-0.547004938,-18.19250107,-1.192048311
6.208084999999997,-7.418515205,1.961100578,-132.193634,-3.412383318,-1.770180941,-3.647597551,1.009047508,22.02650833,1.267469645
6.216418000000004,-7.44718504,1.782507896,-132.1839142,4.175753117,-0.015826395,20.49235535,-2.055222988,-22.70967865,-1.941085815
6.224750999999998,-7.449244976,1.959759474,-132.1945496,-4.148497581,-1.655227542,4.381213665,1.16275847,20.1587944,1.193111539
6.233084000000005,-7.444725513,1.839004993,-132.1784363,4.788476467,-1.212808609,13.0784111,1.90021801,-15.92400074,-0.289991617
6.241416999999998,-7.494985104,1.969303012,-132.187973,-5.987781525,-1.377637506,-5.957991123,-4.570822716,14.35186386,0.571684182
6.249750000000006,-7.516672611,1.913231611,-132.1788483,4.795855522,-1.591154933,25.63922119,-1.27199018,-7.911431313,-0.094401278
6.258082999999999,-7.501803398,1.897631288,-132.1688538,-2.945377588,-0.710569263,5.497380257,3.113436222,-3.111092567,0.642661214
6.266416000000007,-7.514927864,1.915427089,-132.1602478,3.287332058,-0.859421253,9.893068314,-0.187278464,0.681236207,0.98368907
6.274749,-7.529093266,1.885494709,-132.1470032,-3.888183832,-1.725677729,3.29705286,-0.383970201,-4.867332458,0.803262472
6.283081999999993,-7.549269199,1.989733577,-132.1577759,0.356366336,-1.547941089,15.23836803,-0.956192255,11.27123737,0.031172527
6.291415000000001,-7.515521049,1.921889305,-132.1516724,-0.121734209,-0.226212963,10.00368404,5.447430611,-9.471619606,-0.65550673
6.299747999999994,-7.538192272,1.971406698,-132.1555328,1.265629172,-1.562199354,6.562330723,-1.336896777,4.85374403,0.021131746
6.308081000000001,-7.509364605,1.948734522,-132.1448517,-0.990429401,-0.452095151,8.096745491,4.782921314,-3.961741447,0.612129092
6.316413999999995,-7.524972439,1.992921829,-132.1503448,0.601723671,-2.583794355,6.089607239,-0.427668065,4.043104649,-0.281231493
6.324747000000002,-7.534872532,1.986311436,-132.1528778,-0.877190471,-1.140464067,10.80657768,0.190365002,-1.844314575,-0.706479013
6.333079999999995,-7.53542614,1.945401192,-132.152359,1.661044836,-2.285651922,15.35057163,1.354685664,-6.172684669,-0.914005458
6.341413000000003,-7.546297073,1.98887217,-132.1520538,-3.188270092,-0.33723858,-2.05013752,0.117569327,3.873077154,0.394126236
6.349745999999996,-7.564416885,1.95236516,-132.1473389,2.531167746,-1.889298439,19.04112816,-0.826148748,-5.514911652,-0.317296356
6.358079000000004,-7.552816391,1.977483273,-132.1447296,-2.957135439,0.568618059,6.753892422,2.750021219,1.848246694,0.407804281
6.366411999999997,-7.521874905,1.923431873,-132.1409912,3.957093477,-2.558501482,13.69832134,5.121106148,-7.782950401,-0.733322859
6.374745000000004,-7.545059681,1.923120856,-132.1285095,-4.000376701,-0.581966162,-5.662575722,-1.464429855,-1.330877066,1.177972913
6.383077999999998,-7.555538177,1.979535222,-132.1427002,1.945316434,-2.473446608,20.35061073,0.220615417,5.641535759,-1.097326636
6.391411000000005,-7.559145451,1.890232205,-132.115387,-1.009032845,-1.108591437,7.373324394,0.88079685,-12.34717751,1.516849637
6.399743999999998,-7.545253754,1.926242709,-132.1297607,2.335007906,-0.552138329,13.4916954,3.091791868,3.414044857,-1.442222476
6.408077000000006,-7.538358688,1.78676033,-132.0960693,-1.960164189,-0.901531041,1.471874833,2.064764023,-18.22241974,1.509395838
6.416409999999999,-7.55069828,1.92070508,-132.1260529,-0.451981097,-2.209848881,10.54671192,0.056120798,15.1184206,-1.769572616
6.4247430000000065,-7.550665855,1.788202286,-132.091568,-0.129887238,-1.093391776,10.98610687,1.237910509,-17.4039669,1.709468722
6.433076,-7.559725285,1.86978519,-132.1099091,0.127304822,-1.37473619,9.236228943,0.407163888,8.704947472,-1.227959156
6.441408999999993,-7.542263031,1.74226594,-132.0795135,-0.909666777,-0.561606407,6.447210312,3.402903318,-16.93766212,1.286526561
6.4497420000000005,-7.564098358,1.842280269,-132.101181,0.116441704,-2.104864359,7.019995689,-1.171172619,11.14186096,-1.301241636
6.458074999999994,-7.57177639,1.723910332,-132.0697174,1.119508743,-0.923831224,13.38391113,0.330321223,-15.67646599,1.571305394
6.466408000000001,-7.59517622,1.778623343,-132.0733032,-0.714204669,-2.087728024,11.25317764,-1.371680737,5.278326035,0.10573557
6.4747409999999945,-7.581399918,1.687192798,-132.0529938,-0.991665006,0.117490098,8.305374146,2.947456121,-12.29438782,0.666661799
6.483074000000002,-7.590764999,1.768521667,-132.0714417,-1.252399802,-2.373984337,7.658857822,0.366104275,8.680588722,-1.231084228
6.491406999999995,-7.571140289,1.673954964,-132.0426941,1.405404329,-0.579079449,9.815451622,3.674848795,-12.99232197,1.599916458
6.499740000000003,-7.58204174,1.709802032,-132.0472107,0.086865671,-0.940569937,7.048417091,0.075792514,3.238382101,-0.270729661
6.508072999999996,-7.585936069,1.641981244,-132.0220947,-0.798679531,-1.097744942,6.937085629,0.813047051,-9.563266754,1.612287998
6.5164060000000035,-7.570962429,1.743290544,-132.041214,-1.077817321,-2.794855118,9.693543434,3.286127329,11.06801414,-0.980858743
6.524738999999997,-7.584512711,1.643805861,-132.0187073,0.744211555,-0.188114658,8.366279602,-0.338248819,-13.28691101,0.801418245
6.533072000000004,-7.599552155,1.733210325,-132.0317535,-1.627764702,-2.604874611,12.5474062,-0.334329844,9.555238724,-0.453128695
6.5414049999999975,-7.621387959,1.668747544,-132.0120239,0.414093494,-0.991706669,7.294545174,-1.267661452,-9.26588726,1.001029968
6.549738000000005,-7.616454124,1.792482853,-132.02742,-1.565684795,-0.90881896,9.251966476,2.01663518,13.86516857,-0.163687825
6.558070999999998,-7.629542351,1.728467345,-132.0082092,1.51050365,-0.602729261,10.90233803,-0.273393571,-9.018350601,0.964785874
6.566404000000006,-7.636845589,1.882996082,-132.0098572,-2.39721179,-3.117652178,5.59551239,0.551397741,17.12127876,1.945427179
6.574736999999999,-7.676603317,1.868067026,-131.9972534,0.698960841,-0.530195236,7.406197071,-3.452376604,-3.075258017,0.959201872
6.583070000000006,-7.681988239,1.987970591,-132.0026398,-0.33653003,-1.567961931,12.40752602,0.800931633,13.06185436,0.959355712
6.591403,-7.714780807,1.912561178,-131.9929962,1.857244968,-0.619449556,4.355428219,-2.551626682,-10.40533543,-0.376644552
6.599735999999993,-7.74730444,2.049628019,-131.9850616,-2.225482464,-1.908644199,11.68579292,-2.567148685,15.07211018,2.855091333
6.608069,-7.761230469,2.079978466,-132.0046539,-1.084878922,-0.684320986,10.09101391,-0.218758389,2.828068018,-2.136598825
6.616401999999994,-7.757210732,2.183659315,-132.0061798,0.742045999,-2.039918184,8.968590736,1.913537264,11.07585239,1.15973568
6.624735000000001,-7.803691864,2.169152498,-132.0148468,0.111687019,-0.775606513,1.24872601,-4.170753002,-2.682156086,-1.566348791
6.633067999999994,-7.836386204,2.265693188,-131.9959564,0.904135048,-1.799842954,12.27996635,-2.585795641,9.889401436,3.49539566
6.641401000000002,-7.871211529,2.312151909,-132.0127716,-2.07244873,-0.363587141,8.197460175,-2.674241543,4.520374775,-1.546395421
6.649733999999995,-7.908005238,2.326647282,-132.0041046,1.968883872,-2.769839764,12.85590363,-3.090267897,0.484032243,0.964913845
6.658067000000003,-7.928080082,2.375284433,-132.0109253,-1.505445123,-0.039868437,3.907755375,-1.007062078,4.795267105,-0.305052727
6.666399999999996,-7.991456985,2.382619858,-131.9922333,0.82485795,-1.614710331,5.967301369,-6.267559528,-0.691853225,1.864357591
6.674733000000003,-8.037368774,2.431727886,-132.0036469,-0.290317118,-1.590775013,9.97785759,-4.083690166,4.928383827,-0.8340379
6.683065999999997,-8.097851753,2.465703964,-131.9878998,-0.053989369,-1.740354419,1.725288391,-5.90721941,2.519877195,1.967634678
6.691399000000004,-8.218141556,2.457295895,-131.9626312,-0.048729718,-1.810991049,7.751868725,-13.19774914,-2.527036905,2.555609465
6.699731999999997,-8.320087433,2.446847439,-131.9543152,0.404161185,-1.790078521,4.446638107,-10.8437748,-2.633899212,0.326863289
6.708065000000005,-8.492213249,2.439283848,-131.9329529,0.287437022,-1.964226246,5.526824474,-19.39670372,-2.370892525,2.102621794
6.716397999999998,-8.644407272,2.490020514,-131.9340515,0.457223326,-2.121433735,5.154025078,-16.82254791,4.794473171,0.291515648
6.724731000000006,-8.849932671,2.418301821,-131.9239502,-0.571614385,-1.237693191,5.639468193,-23.34763145,-9.788958549,-0.411223978
6.733063999999999,-9.051158905,2.462105751,-131.9120941,0.894494534,-1.710404277,3.386927605,-22.7693882,3.729511261,1.736031294
6.741397000000006,-9.269000053,2.403102636,-131.9221954,-0.701116323,-1.106525302,2.613436937,-24.65426445,-8.063121796,-2.646246433
6.74973,-9.545071602,2.379130363,-131.890274,0.880919218,-0.621774316,3.630715132,-31.92229652,-4.561195374,3.006729841
6.758062999999993,-9.797136307,2.322266579,-131.9208374,-0.603900731,-1.329121351,6.790513039,-28.73041534,-7.209887028,-5.061261177
6.766396,-10.01792145,2.324093103,-131.8744049,1.081135273,-0.66294378,3.934346676,-25.27799797,-1.976536393,5.02894783
6.774728999999994,-10.23948956,2.235342264,-131.9233551,-1.908357859,0.179895177,4.273405075,-24.98809624,-10.54988194,-7.953134537
6.783062000000001,-10.44995689,2.225208521,-131.8561249,1.370371938,-0.735786915,7.234203815,-24.13467979,-3.905647755,7.383666039
6.791394999999994,-10.61658859,2.137742519,-131.9156189,-1.194575787,-1.011556268,5.507748127,-18.29058266,-10.27591133,-9.2613554
6.799728000000002,-10.74181271,2.129538059,-131.8471527,0.240049079,2.319522619,3.938894272,-13.96620274,-3.586108923,7.585733891
6.808060999999995,-10.84668159,2.007619619,-131.888443,-0.454854667,-1.143575907,4.035869122,-11.03716373,-14.54321671,-7.902083397
6.8163940000000025,-10.9380827,1.996055126,-131.8410492,1.63109827,1.616866946,5.447186947,-9.738161087,-3.697888851,4.986963749
6.824726999999996,-10.99515915,1.971256495,-131.8856201,-2.140104294,-1.137901068,4.46797514,-5.296114922,-3.00364089,-6.113388062
6.833060000000003,-11.02829742,1.955799699,-131.868515,1.872096419,-1.416232586,8.330514908,-2.62296176,-3.46897459,1.326279521
6.8413929999999965,-10.98927498,1.925653338,-131.8881836,-3.654778004,-0.49801901,5.358152866,6.18862915,-4.357711315,-3.335037231
6.849726000000004,-10.91267681,1.890590668,-131.8990479,3.302820206,0.28805697,3.224479198,10.6028595,-4.980470657,-2.382777214
6.858058999999997,-10.87222958,1.895720363,-131.8839264,-4.223888874,1.003685355,0.552687407,6.163040638,-0.83644563,1.59761107
6.866392000000005,-10.82683563,1.884645581,-131.9284363,3.260165215,-0.20112358,5.65185976,7.045478344,-1.556795001,-5.819516182
6.874724999999998,-10.75086212,1.909585595,-131.8781891,-4.129868984,-2.538336515,6.556350231,10.28552532,0.714099407,6.180741787
6.8830580000000054,-10.59468842,1.90152812,-131.9384308,3.173698187,0.125739291,4.730606079,20.40182114,-0.869462669,-7.607392311
6.891390999999999,-10.45276642,1.947952509,-131.8551636,-2.95463109,0.018799102,0.395256817,18.11582947,2.397416592,10.50240421
6.899724000000006,-10.32753086,1.968536973,-131.9395752,1.778375745,0.350778043,2.977685213,16.7440033,3.156827211,-9.811803818
6.9080569999999994,-10.23493481,2.03898716,-131.8488312,-0.855849624,-0.392506301,4.011985302,12.09921932,5.278787613,11.91546345
6.916390000000007,-10.12808132,2.065686703,-131.9435425,-0.682795405,-3.09975338,6.306531906,14.64793873,3.904097319,-10.94484997
6.924723,-9.986764908,2.131939173,-131.8441315,1.8284688,-0.312073618,5.48151207,17.89001465,4.64783287,12.8282032
6.9330559999999934,-9.855391502,2.146728039,-131.9193878,-3.299478531,-2.278476,2.816400766,17.53330612,2.100137234,-9.234894753
6.941389000000001,-9.726090431,2.233005524,-131.8422546,4.091575146,1.004152179,1.362334847,16.53240585,7.531458378,10.57586479
6.949721999999994,-9.670424461,2.286667824,-131.9086151,-4.990270138,-1.722605467,-0.060986638,8.429748535,6.489264965,-7.449940205
6.958055000000002,-9.612692833,2.402612209,-131.8826752,5.113055706,-0.529085636,5.352928638,8.168739319,12.09844971,5.095440865
6.966387999999995,-9.575203896,2.440322399,-131.9100189,-5.124548912,-1.786999583,5.465051651,6.059329987,3.747875452,-2.803056002
6.974721000000002,-9.494701385,2.544297457,-131.9302826,4.432480335,-1.963435054,6.48875618,11.13499641,11.60837364,-0.629764497
6.983053999999996,-9.418283463,2.582247496,-131.904007,-3.890334606,-0.954350591,3.282484055,10.45234966,2.71500659,3.529232025
6.991387000000003,-9.361807823,2.657189608,-131.9668121,3.594489098,-0.017500559,2.517518997,8.489839554,9.003457069,-6.26295042
6.999719999999996,-9.33893013,2.719317436,-131.9006348,-2.575242996,-1.29753983,1.920181513,3.821951389,4.897417068,8.179803848
7.008053000000004,-9.356337547,2.800833464,-132.007782,1.561931729,0.650332332,4.093632698,-0.102290474,10.64105225,-11.38472462
7.016385999999997,-9.35759449,2.881395102,-131.9142456,-1.009491682,-2.586226463,7.999108791,0.746219575,6.557142258,11.72445583
7.024719000000005,-9.325205803,2.921634436,-132.0355835,0.093542218,-1.657819867,8.471214294,5.992809772,6.026134014,-13.86535931
7.033051999999998,-9.21723175,2.991612196,-131.9230042,0.57576257,0.164621234,5.102642536,13.7126894,4.950797558,13.79959869
7.041385000000005,-9.146939278,3.011928558,-132.0543671,-0.281210601,-0.13118203,-0.024700718,10.68516064,3.668497562,-15.47165775
7.049717999999999,-9.132422447,3.103421211,-131.9557495,1.190921426,0.976511896,3.743250608,2.478049517,7.865031242,13.11159611
7.058051000000006,-9.117657661,3.112038851,-132.0850372,-1.811420083,-2.186638117,8.707983017,3.982066393,2.379895687,-15.43515396
7.066383999999999,-9.034812927,3.203345776,-131.9714355,1.347017884,-1.183921933,8.035243034,10.6428709,7.515705585,14.27686596
7.074717000000007,-8.91053772,3.170927763,-132.0933075,-2.09923625,-0.488998383,3.78385663,17.09602356,-2.663997173,-15.33147144
7.08305,-8.812269211,3.243786097,-131.982254,2.344204426,0.035280704,5.054367542,12.46791363,5.34400177,14.17141438
7.091382999999993,-8.711901665,3.201475382,-132.0850677,-2.066824913,-1.517372489,6.248708248,14.10671043,-4.239784718,-13.24810886
7.099716000000001,-8.617594719,3.288006306,-132.0049744,2.640380621,0.991663516,4.224292278,12.22542,7.662448883,10.15799236
7.108048999999994,-8.522106171,3.257530212,-132.0638428,-1.913961649,-3.384245396,8.133281708,13.23118877,-3.664052963,-7.819118023
7.1163820000000015,-8.407392502,3.31879282,-132.0424194,2.408070803,1.250963569,6.282249928,15.07008648,5.736897945,2.72094965
7.124714999999995,-8.300042152,3.353886127,-132.0567322,-4.083685398,-3.024684429,6.842298508,14.35099411,3.318145752,-1.387203336
7.133048000000002,-8.138521194,3.360244751,-132.0684814,3.96455431,-0.738907158,8.963979721,20.9175396,-0.201494455,-2.172382355
7.1413809999999955,-7.987471104,3.3917768,-132.0325775,-4.804389,-1.248521686,6.646348953,19.24147034,2.044298172,4.488767624
7.149714000000003,-7.824515343,3.355993986,-132.088623,4.957905293,0.537875056,4.972649097,21.40577507,-4.487244606,-8.13755703
7.158046999999996,-7.700129032,3.4165411,-132.0138092,-4.040099621,-0.083434597,0.136673033,15.7659483,4.891039371,9.559183121
7.166380000000004,-7.634344101,3.419616938,-132.0826416,3.676632404,-2.013592958,12.54276466,9.837966919,0.306551158,-9.010102272
7.174712999999997,-7.506730556,3.471990108,-132.0134583,-3.74578166,-2.909281731,10.32913494,16.1843853,4.040057659,8.739528656
7.1830460000000045,-7.330650806,3.445974827,-132.075531,2.436714411,-1.839036345,8.909025192,23.03412628,-3.294312716,-8.684140205
7.191378999999998,-7.178290844,3.468685389,-131.9907227,-2.06966567,0.858457088,0.127415344,19.03873634,0.321919829,10.12036896
7.199712000000005,-7.088605404,3.42343688,-132.0679474,2.139015675,-0.292096287,9.831498146,12.77763748,-5.397983074,-10.77213097
7.2080449999999985,-7.024661064,3.47863245,-131.9954681,-2.234256268,-1.79703021,4.874223232,8.518937111,4.409209251,9.128811836
7.216378000000006,-6.933091164,3.496313572,-132.0906372,1.911324859,-2.178373098,11.52509689,13.13623905,2.327515125,-11.94247532
7.224710999999999,-6.804355145,3.476250887,-132.001236,-2.750528336,-2.648706913,6.457266808,16.16474152,-4.769052029,10.0434227
7.233044000000007,-6.681674004,3.523646116,-132.0702667,2.002919674,0.174787238,8.79531765,16.68578529,5.455629349,-8.439547539
7.241377,-6.604080677,3.406873465,-131.9925385,-1.001791477,0.022156481,2.588585138,10.11616516,-16.09410667,7.324367046
7.249709999999993,-6.578645706,3.539883375,-132.0528564,-0.053537685,-2.562120914,4.559034824,4.948850632,15.52345943,-6.257469654
7.258043000000001,-6.523857594,3.395816565,-131.9919586,2.507259846,-1.267593503,11.96051025,7.500977039,-19.10578156,4.971545219
7.266375999999994,-6.480521679,3.533723593,-132.0411377,-3.547205448,-1.846045852,6.606975079,7.017841339,15.94558239,-4.878732681
7.274709000000001,-6.402642727,3.408066511,-131.9953766,3.925421476,-1.041995764,8.549715042,10.38237476,-16.69693947,3.454516172
7.283041999999995,-6.383555889,3.486295223,-132.0210266,-5.492836952,-0.982385159,0.884873688,3.936370373,8.505667686,-2.900517702
7.291375000000002,-6.371432304,3.418215275,-131.9979401,4.659802914,-2.275001764,10.05759716,2.656810999,-9.525588989,1.538519144
7.299707999999995,-6.415671349,3.460886717,-132.003952,-5.718693733,-1.784865856,3.615003586,-3.804469109,4.004272938,-1.039054155
7.308041000000003,-6.433800697,3.471552372,-131.9996643,4.096841335,-0.865930438,11.05572891,-0.837931275,0.115494579,0.352067649
7.316373999999996,-6.451925755,3.48811841,-131.9821014,-4.840714931,-1.088904738,3.970730305,-0.836676121,0.575884819,1.400176644
7.324707000000004,-6.498971939,3.532437801,-131.9869537,5.140017509,-2.113919973,5.831674576,-4.241345406,4.251553059,-0.278388292
7.333039999999997,-6.598535538,3.510416031,-131.9541473,-4.976204395,-1.080992103,1.068033695,-10.724617,-4.239476681,2.722255707
7.341373000000004,-6.670336246,3.579466105,-131.96521,4.566557884,-1.005654573,15.97815323,-7.166031361,7.286276817,-0.659605026
7.349705999999998,-6.739111423,3.579719782,-131.9207001,-3.637066126,-0.53430897,3.733828545,-7.117926598,-1.754306078,4.417789459
7.358039000000005,-6.868697643,3.608160973,-131.9660797,3.827562332,-2.161665678,2.690638542,-13.84074211,2.9344697,-5.2941432
7.366371999999998,-7.02778101,3.620078087,-131.9183502,-2.926242352,-0.690956771,2.064118385,-17.98289871,-0.425823927,4.95609951
7.374705000000006,-7.146980762,3.609574556,-131.9842377,1.426272392,-1.398209095,16.73020935,-12.43823719,-1.376496553,-8.287220001
7.383037999999999,-7.26048851,3.661560297,-131.9259796,-1.082354307,-0.689402699,3.935527325,-12.59053993,4.16651535,6.798173428
7.391371000000007,-7.401951313,3.593695641,-132.0121002,-0.001323522,-1.892553329,3.834178686,-14.95381355,-7.859385014,-11.56896782
7.399704,-7.55432415,3.65782547,-131.9337921,0.760274708,0.941483915,4.640342712,-17.40796471,5.265699387,9.403116226
7.408036999999993,-7.695636749,3.600814819,-132.0077362,-1.361400723,-3.099557877,13.27197838,-15.02842617,-6.703516006,-9.986365318
7.416370000000001,-7.791586399,3.648662806,-131.9343872,1.962091565,-0.112681292,6.490795135,-10.59905815,3.368093729,8.581027985
7.424702999999994,-7.940583229,3.60524106,-132.008194,-2.543948889,-2.162730694,1.190204859,-15.95207596,-5.050552368,-9.770565033
7.433036000000001,-8.038864136,3.640648365,-131.9488525,2.545775652,1.06905067,11.33963013,-10.80817032,2.00813055,7.307689667
7.441368999999995,-8.151979446,3.639490604,-132.0045166,-3.756178856,-1.419848919,11.38068867,-11.78238487,-0.297189206,-6.92210722
7.449702000000002,-8.207139969,3.643435001,-131.9947662,3.468759537,-0.215054974,3.450984716,-5.223062992,-0.82637924,0.331012756
7.458034999999995,-8.350653648,3.635320425,-132.0079956,-4.524035454,-2.583699703,-1.19524765,-15.75300026,-1.832839489,-2.008963108
7.466368000000003,-8.387099266,3.617804289,-132.0242157,4.621256828,2.946286678,16.64274025,-2.781359911,-2.92167449,-3.123258829
7.474700999999996,-8.430301666,3.597919226,-132.0075531,-3.359961271,-2.82997632,13.54813576,-3.941710711,-3.751883507,1.323385119
7.4830340000000035,-8.43510437,3.683541536,-132.0455017,2.174384117,0.227498353,-1.390428782,1.177281618,9.708615303,-3.877367735
7.491366999999997,-8.515615463,3.60738802,-132.0125275,-1.725142717,-1.882586122,6.441590786,-8.482553482,-10.82771587,2.243679523
7.499700000000004,-8.458487511,3.688618898,-132.0422974,-0.211380154,0.181969613,15.38856602,8.451751709,9.069029808,-2.389872789
7.5080329999999975,-8.407726288,3.583151102,-131.997818,1.528218865,-1.297342658,6.742953777,7.121397972,-14.39913559,3.110797882
7.516366000000005,-8.413448334,3.646515131,-132.0426178,-1.491711497,1.481080055,0.085033149,1.116012216,7.184972286,-5.087640762
7.524698999999998,-8.394591331,3.648828745,-132.0065308,1.081777573,-2.068397522,14.93265533,3.356438398,-1.455797791,4.014032841
7.533032000000006,-8.330861092,3.657425404,-132.0537415,-2.76308322,-1.214746594,9.734160423,9.43492794,0.637922585,-5.766852856
7.541364999999999,-8.200074196,3.661862135,-131.9991913,1.025135636,-0.058387771,6.410128117,16.64633751,-1.511022449,6.23968029
7.5496980000000065,-8.131033897,3.612981796,-132.00914,0.988910913,-0.612282574,8.106378555,9.821805,-6.760916233,-2.909047365
7.558031,-8.064759254,3.667474031,-131.9856415,-0.37840873,-0.556234598,5.911084652,9.143232346,4.979432583,3.403209686
7.566363999999993,-8.00430584,3.68838191,-132.0128937,-2.28884244,-2.356527805,7.554939747,8.924589157,1.822043061,-3.778061628
7.5746970000000005,-7.893829823,3.663948774,-131.9651642,1.512032032,-0.264117867,13.72006702,14.25921726,-4.792206287,4.954228878
7.583029999999994,-7.782212734,3.711260557,-131.9861145,-2.168449879,-0.309605837,4.513073444,14.98064232,4.763351917,-2.031349897
7.591363000000001,-7.70884037,3.748471498,-131.9687347,2.733551025,-0.937478185,8.581243515,10.03783607,3.045507193,2.36012125
7.5996959999999945,-7.623831749,3.713934183,-131.9637909,-0.987374485,-2.575109243,12.58371258,11.62023258,-5.311432838,-0.854068398
7.608029000000002,-7.485476017,3.777825594,-131.9732361,-1.506338596,0.253989756,8.460391998,18.04646111,6.650046825,-0.413375437
7.616361999999995,-7.352083206,3.753640175,-131.9775085,-0.014014076,-1.017805099,7.980233192,17.50003433,-3.936230421,-1.761452913
7.624695000000003,-7.261044502,3.757272482,-131.9667511,2.111722469,-1.953167796,7.06368351,12.20879459,-0.829299212,1.029820323
7.633027999999996,-7.171524525,3.801648855,-131.9539795,-2.404963017,-1.501316786,8.722442627,12.09904003,3.966364861,1.298231959
7.641361000000003,-7.068949223,3.800967932,-131.9599762,0.804176927,-1.239959359,10.98544407,13.7260828,-1.091333151,-1.027630448
7.649693999999997,-6.976586819,3.70934248,-131.9020996,2.289690256,-1.690823436,10.26952648,12.08707619,-12.88689327,4.656924248
7.658027000000004,-6.919757843,3.707696199,-131.9218445,0.293007612,-1.024961233,6.293302536,8.341148376,-1.008112311,-2.672115564
