,time,Euler_X,Euler_Y,Euler_Z,Acc_X,Acc_Y,Acc_Z,Gyr_X,Gyr_Y,Gyr_Z
0,0.0,-15.913535116666665,16.75830523,-154.71747336666667,-4.302441636666667,-2.2121873300000003,7.434744198333333,11.672458966333332,-22.61431376,-4.7369242510000005
1,0.0083330000000003,-15.784072243333332,16.83643659,-154.6573588,-0.14608971299999998,-0.8594233490000001,8.290316662333334,13.061133701333333,6.657307465999999,8.728348254666667
2,0.0166660000000007,-15.72094949,16.71721077,-154.6564076666667,-4.807006756333333,-2.9131745893333334,7.242195604666667,7.207142344666667,-14.297044436333332,-4.241437554333333
3,0.0249990000000011,-15.602626163333333,16.653322856666666,-154.5453542,1.0656781593333333,-0.668792518,14.13205083466667,10.042461395666665,-11.312468053666668,9.744072437
4,0.0333320000000014,-15.490471523333333,16.62112681,-154.57039386666668,-6.062934637000001,-2.157598416,2.470538904666667,13.888559976666665,-3.500205597666666,-4.076434652
5,0.0416649999999982,-15.367122649999999,16.417947769999998,-154.42912293333333,3.631348212666667,-1.2067154249999998,10.211765608,9.643210413,-28.309129713333334,8.705649694333333
6,0.0499979999999986,-15.27361234,16.34957599666667,-154.43726093333333,-9.442918458333333,-1.9352152150000002,12.472693759666667,11.102034885999998,-8.198776563666668,-3.407500426
7,0.058330999999999,-15.13138644,16.274381636666668,-154.33388266666668,2.7676184176666667,-1.391879021,7.953412502666667,13.25222556,-12.313629786666667,8.664287210666666
8,0.0666639999999993,-15.041718163333334,16.09399287,-154.29413350000002,-5.394119421666667,-1.8820680379999999,5.324622949,9.016595047333334,-22.630887986666664,-1.5440225603333333
9,0.0749969999999997,-14.922087986666668,15.987686473333333,-154.20802816666665,-0.49195335300000004,-1.3002360266666668,8.564758141666667,11.186590513333334,-15.37413152,5.837145807
10,0.0833300000000001,-14.791732153333333,15.901998200000001,-154.1506297,-5.463298162,-0.6926984190000001,12.054019930333334,13.35786565,-12.137658754666667,3.3001049363333337
11,0.0916630000000005,-14.679719606666668,15.795697850000002,-154.0729319,-0.8306732576666667,-2.9865264890000005,6.409803102000001,10.576134682,-15.101887701666667,4.986718812666666
12,0.0999960000000008,-14.57179483,15.678904853333334,-154.00194296666666,-3.8423108856666666,-1.0661943903333333,8.704191685333335,10.206785996666667,-16.169292290666665,4.063212711333333
13,0.1083290000000012,-14.440087636666668,15.64800485,-153.96761576666665,-3.269356767333333,-1.55979003,10.403570014666668,14.409292856666667,-5.071265935666667,2.4671386880000004
14,0.1166620000000016,-14.278962136666665,15.569535573333335,-153.87641910000002,-1.0733568666666666,-0.7391088656666667,7.765932084666667,15.974856693333331,-12.236521083666668,7.401047386666666
15,0.1249949999999984,-14.15803528,15.430368423333334,-153.84299213333335,-2.9025914270000004,-3.0049066146666665,8.182935714666668,13.15371481666667,-17.63017590666667,-0.8064169873333332
16,0.1333279999999987,-14.00103982,15.396300953333332,-153.76281229999998,-3.172207395333333,0.049622948,9.868532575666666,15.873884836666667,-6.71971337,7.554310637
17,0.1416609999999991,-13.837506933333332,15.346732776666665,-153.76097616666667,-3.64372317,-1.5321023063333332,11.271670020666667,19.271089550000003,-6.318782329333334,-1.6799360913333334
18,0.1499939999999995,-13.656476023333333,15.272564253333334,-153.674881,-0.14548492400000024,-1.9440875526666666,5.954753298333333,18.55638758,-11.540085159999999,7.243329095333334
19,0.1583269999999998,-13.49780623,15.162929853333333,-153.67945353333334,-4.392124176,-1.5275253753333333,7.437575100666667,18.87547206666667,-13.157880786666666,-4.066261589333333
20,0.1666600000000002,-13.298298836666667,15.181079863333332,-153.60462953333334,-2.124607265,-0.0993881623333334,14.03773785,21.213113149999998,-0.3879023393333334,8.492565472666668
21,0.1749930000000006,-13.128215153333334,15.113215126666667,-153.61061606666667,-4.013806740333333,-3.448400497666667,6.902476604333333,20.25942484666667,-8.265644869333334,-2.987769683333333
22,0.183326000000001,-12.975365956666666,15.089463866666668,-153.54418946666667,-1.7723766963333336,-1.9503835836666668,7.771968523333334,15.913272856666666,-4.999589760666667,6.362539768
23,0.1916590000000013,-12.8352534,15.111548423333332,-153.5649109,-5.331943987333333,-1.4949437676666666,11.490554013666667,17.12192853333333,2.6238078773333333,-2.204049736333334
24,0.1999919999999981,-12.670477230000001,15.166248956666665,-153.50008643333334,0.29353540633333336,-1.9685119540000002,6.662400326666666,17.342955906666663,4.234462100999999,8.419859091000001
25,0.2083249999999985,-12.560138703333335,15.069825806666666,-153.4777730333333,-3.4171047656666667,-2.356109659,7.185857295666666,12.192662716333333,-12.351098697,-0.47181506966666653
26,0.2166579999999989,-12.439029056666667,15.182979586666667,-153.42563376666666,-4.219670613666667,-1.9169292846666666,12.324734689666665,12.567731853333333,11.464568774333335,8.368839701666667
27,0.2249909999999992,-12.346687633333334,15.200552620000002,-153.39912923333335,-2.5689288379999997,-2.442503333,9.01819228,9.874990304,0.9065009356666666,2.984234491
28,0.2333239999999996,-12.2914381,15.22341442,-153.34266156666666,-2.102575779,-2.6563305456666666,7.300335567,4.555257320333333,0.8030792076666667,6.473495007333333
29,0.241657,-12.2244819,15.306965513333333,-153.32370503333334,-4.299835483333333,-0.911790252,8.010629374666665,7.039429982333334,8.842364470666666,3.7942805303333333
30,0.2499900000000003,-12.167086920000001,15.382469173333334,-153.27139283333332,-0.06353032566666654,-2.483257326,10.468421617666666,4.880925649999999,7.056642055666667,7.511052845666668
31,0.2583230000000007,-12.112915673333333,15.344634056666669,-153.2031962,-2.497229377333333,-1.2746220826666665,6.834491133666667,3.917010307333333,-6.585992655999999,6.285922845000001
32,0.2666560000000011,-12.06811555,15.461532593333333,-153.18066406666665,-4.5490712323333335,-2.6126481690000003,10.224392495,4.340977509666666,12.645960331666666,5.179891587666667
33,0.2749890000000015,-12.034726140000002,15.48442936,-153.10854083333334,0.07716218599999995,-0.9117553833333334,9.971791902333335,1.269505943,0.45764208000000056,8.265794436999998
34,0.2833219999999983,-12.003993986666666,15.456234293333333,-153.07058713333333,-2.7793236176666665,-3.2697433236666664,8.185632773666667,2.2130202440000004,-4.717255671999999,3.10534199
35,0.2916549999999986,-11.934894876666666,15.42902247,-152.96710203333333,-0.3044242783333333,1.1514921586666667,7.592987726666666,4.547634403333333,-6.158414682000001,10.549615701333332
36,0.299987999999999,-11.86119143,15.444319723333335,-152.95731099999998,-5.911125382000001,-2.931879202333333,9.60288763,8.268387476333332,1.0641735393333336,1.0466000253333334
37,0.3083209999999994,-11.790813443333334,15.368143400000001,-152.8302714,1.227000316,-1.0591161053333333,11.990599951,3.9668395516666664,-12.444287695999998,12.035495519000001
38,0.3166539999999997,-11.73648834,15.307439806666665,-152.8369446,-5.378870646333333,-3.401328246,6.820143222333333,6.460992177333334,-7.471554598666667,-2.689448355333333
39,0.3249870000000001,-11.63231691,15.211386996666668,-152.7048391,1.085400343,0.6087634363333333,7.930112918666667,7.9011370340000004,-14.866584933666667,12.160098392
40,0.3333200000000005,-11.565132143333335,15.17869091,-152.73099773333334,-7.0156372776666664,-2.769147277,12.692377011666665,8.596621195333334,-3.739214103,-4.181290466333333
41,0.3416530000000009,-11.455111503333333,15.048625626666665,-152.5875549,2.248894135,-0.6926775373333333,12.434115689999999,8.308343570333333,-19.096299169999998,12.693220617
42,0.3499860000000012,-11.37622547,14.944841386666667,-152.61009723333333,-6.993657112000001,-3.4619747796666664,3.0182594043333335,9.859924317,-12.188929240333332,-5.469028552666667
43,0.3583190000000016,-11.26386865,14.832776066666668,-152.4860433,0.769662221,-0.2780822716666667,10.952137311666666,9.283281960333333,-16.492296536666668,10.993151981666665
44,0.3666519999999984,-11.161581356666666,14.783546446666668,-152.51313783333333,-6.782185275000001,-1.1274377106666666,11.295050620333333,12.733064333333331,-5.715561767666667,-4.531560500666667
45,0.3749849999999988,-11.027068773333333,14.655522983333332,-152.39466860000002,1.6504852769999998,-1.3515034116666664,10.306186358666666,12.172638257000003,-18.2069149,10.068837168
46,0.3833179999999991,-10.938019753333334,14.528094293333334,-152.38837683333335,-4.527885635666667,-2.7064676286666667,5.535854975333333,10.135149636666666,-15.645947139999999,-2.6535543600000002
47,0.3916509999999995,-10.83127276,14.388044993333333,-152.30364483333332,-1.093595942,-1.5456528043333335,11.549542746,9.941814421666669,-18.854357083333333,6.030887206666667
48,0.3999839999999999,-10.748084703333333,14.324682553333332,-152.29638673333332,-5.497088114666667,-2.0698668563333333,10.322670856333334,9.387230238666666,-8.121071496,-1.040949941
49,0.4083170000000002,-10.662840526666665,14.21188895,-152.23336286666665,-1.5262938736666667,-2.437714259,12.003168584666668,8.059287548999999,-15.152856510000001,4.224129755666667
50,0.4166500000000006,-10.627707800000001,14.085628826666666,-152.1973216,-1.961879650666667,-2.129900569666667,4.058596015,2.7544272739999998,-16.15819295333333,0.8750207423333333
51,0.424983000000001,-10.586935676666668,13.960426013333333,-152.15910340000002,-3.5461693083333334,-1.778084755,10.559941131333334,3.4907694956666666,-16.081182639,1.1435740399999998
52,0.4333160000000013,-10.54119428,13.910690626666666,-152.10719300000002,-2.5251551473333333,-0.8403292496666666,9.114220062000001,3.5716620283333333,-7.469085854999999,4.416415214666666
53,0.4416489999999982,-10.502327600000001,13.832618713333332,-152.07547,-4.258225004,-2.1437161566666667,13.084756853333333,3.4499234363333335,-10.381078401000002,1.4573423859999999
54,0.4499819999999985,-10.48107338,13.74364249,-151.99961343333334,-0.5817684333333334,-2.564446171333333,6.433569589,-0.032833193666666656,-12.595692316666666,6.302887125000001
55,0.4583149999999989,-10.472726183333334,13.659776053333333,-151.9848582,-5.534055074333334,-2.2629276313333335,9.269469501666666,0.28366979966666656,-10.702833972,-0.6010347206666666
56,0.4666479999999993,-10.44058164,13.649146716666666,-151.9021403,-0.94195501,-0.07867028300000001,12.017499286666668,1.0751022893333333,-3.527976672,8.980352639666668
57,0.4749809999999996,-10.409485179999999,13.608881949999999,-151.88746133333333,-4.641610344,-2.085328867,10.679016431666666,3.002748678,-5.557214021666667,0.34982236233333347
58,0.483314,-10.387929916666666,13.552758853333335,-151.79684446666667,0.6513370673333333,-2.218318105,8.004178683333334,-0.3501123686666667,-9.020477294,8.720392703666667
59,0.4916470000000004,-10.38299211,13.451359746666666,-151.7823385,-4.398749430666666,-1.8082730569999999,6.712367852333333,-0.1387223403333334,-12.771685919666666,-0.987603704
60,0.4999800000000007,-10.346754393333333,13.398060163333334,-151.68870036666667,-1.4677419266666665,-0.59725974,11.502109211666669,1.3732432226666667,-8.753077506333334,9.175305526333332
61,0.5083130000000011,-10.316530866666666,13.356046993333331,-151.67080686666668,-4.706531564666666,-1.7726099216666666,9.758374053666666,2.7779707113333334,-5.826069314333334,0.6945470666666668
62,0.5166460000000015,-10.279963493333334,13.297502200000002,-151.5873464,-2.1504507063333334,-1.6556000016666665,12.827353475999999,1.727522393,-9.144505580333332,7.864736715666666
63,0.5249789999999983,-10.280967073333334,13.24361356,-151.56085203333333,-3.3598808450000006,-2.6084691686666663,6.831610202,-1.207796653,-7.4062671663333335,1.4321345983333333
64,0.5333119999999987,-10.253763836666668,13.149442673333333,-151.4828644,-1.9798854586666668,-1.3247954636666668,11.651369095,0.7942421833333332,-13.241524221,6.510405381666668
65,0.541644999999999,-10.215408963333333,13.136264486666667,-151.44756573333333,-3.016632994,-1.2884186706666667,8.010118644333334,3.255112767,-2.779089451000001,3.316207329333333
66,0.5499779999999994,-10.146937369333335,13.051269849999999,-151.37963863333334,-2.5670130646666665,-0.49684053166666664,13.537884073333332,6.041669209666666,-11.939147631000003,5.578332742000001
67,0.5583109999999998,-10.094180425666666,13.052933373333332,-151.34431966666668,-3.1487182776666667,-1.7593928376666668,9.843052782666666,4.7356673083333325,-1.2217524746666666,4.773337562666667
68,0.5666440000000001,-10.019679387666669,12.916315396666667,-151.27620953333334,-1.6149483519999999,-1.496105353,13.079474291666665,6.742121378666667,-18.058004695333334,4.685477336333333
69,0.5749770000000005,-9.957851725666666,12.904408136666666,-151.24184166666666,-3.779858171666667,-2.233831644,4.565803289333333,5.858313083666666,-2.795157834333333,4.404585520666667
70,0.5833100000000009,-9.882237751666667,12.751857756666666,-151.1771393,-1.1656597856666668,-1.544253985,10.129775363,7.009932517666667,-19.8397487,3.8909115789999995
71,0.5916430000000013,-9.804098129333333,12.757810593333334,-151.16068013333333,-4.979209264333334,-1.4281610946666667,9.731072146999999,8.312028407333333,-0.3167201083333333,2.711898605
72,0.5999760000000016,-9.701520919666665,12.61321195,-151.08921306666664,-0.9735188980000001,-1.5635750296666666,14.342739740333334,10.088439622666666,-19.018101373333334,4.901077469333333
73,0.6083089999999984,-9.595254580333332,12.604287146666666,-151.0624389666667,-5.2529726026666665,-1.6370170316666668,12.611291091666667,11.682675996666667,-2.075821679,2.4285288253333333
74,0.6166419999999988,-9.490335146666666,12.442921636666668,-150.98664346666666,0.5926179486666668,-2.3703785736666667,9.771654446,10.265221914333333,-21.064014116666666,5.159192045666667
75,0.6249749999999992,-9.420322418,12.373026213333333,-150.9548187,-5.488384087666667,-2.2122054896666667,13.830321629000002,7.221944651000001,-9.379025060666667,1.8067740599999997
76,0.6333079999999995,-9.350760141666667,12.248267810000002,-150.8882548,0.8868356220000001,-2.127373775,6.463726519333332,6.289936543,-16.544353167333334,4.890199622333333
77,0.6416409999999999,-9.281212806666666,12.128406523333332,-150.84084066666665,-5.522453864333333,-1.2359973886666666,11.027766823,6.797028304666667,-15.586417039333334,2.65772748
78,0.6499740000000003,-9.241495768333333,12.065559703333333,-150.80254106666666,-1.1893486976666667,-2.4360260966666663,4.923915207333334,3.434165398333333,-8.672003509,2.8746612070000004
79,0.6583070000000006,-9.182682673,11.920153616666667,-150.738149,-4.5620747706666664,-1.1852562326666667,18.91992505,5.0977663993333335,-18.92388375333333,4.157966335666667
80,0.666640000000001,-9.163571993333333,11.931555750000001,-150.73171996666667,-3.6525828839999996,-3.552047014333333,6.758835396666666,1.7819527586666666,0.7246170053333341,0.6035865940000001
81,0.6749730000000014,-9.125804582999999,11.754701296666667,-150.65747580000001,-1.2199684379999998,-0.5577810403333333,15.889531612333334,2.1140220563333334,-23.003099042333332,5.840834150666666
82,0.6833059999999982,-9.122869809666668,11.77871768,-150.6691996333333,-5.543511072666668,-3.977613767,4.459070085333333,0.26011255633333336,2.531848192,-1.12183094
83,0.6916389999999986,-9.097575823333333,11.608451526666668,-150.58024086666666,0.5270105203333335,-0.23166147866666667,12.620031376,0.5033195216666667,-22.314266206666662,6.602519929333333
84,0.6999719999999989,-9.085369428,11.644117356666667,-150.60232290000002,-7.240900079333334,-2.234397073666667,6.454420250000001,1.6515846746666665,4.124451916666666,-2.2540014586666666
85,0.7083049999999993,-9.064649582,11.551973026666666,-150.52288563333335,0.8784475723333331,-0.6828865206666666,13.636927129333335,-0.022587855666666695,-13.058072886,8.109968027999999
86,0.7166379999999997,-9.048505465,11.577381453333333,-150.53056080000002,-6.936431012,-2.5386225383333336,12.236449399,1.768022835,2.6497545250000005,-0.8071730336666666
87,0.724971,-9.047916094666666,11.510372799999999,-150.4639918,0.6176808476666666,-2.4903167883333333,8.573929150333333,-2.0896437166666666,-9.820230842,7.007590452666666
88,0.7333040000000004,-9.095869700333333,11.485635436666668,-150.46585589999998,-5.676005522333334,-3.1313616436666667,12.290477433,-6.068688394333333,-3.400674739333334,-1.0998795036666666
89,0.7416370000000008,-9.136783282000001,11.438012123333332,-150.4179789,-0.6091463566666667,-1.970504751,9.381909448666667,-6.6073770923333335,-7.198852539333333,5.261194388
90,0.7499700000000011,-9.167869567666665,11.476312956666666,-150.41827393333332,-5.234193722333333,-0.7679866949999999,8.192782562666666,-4.101646463333333,4.042435169333333,0.3018680316666664
91,0.7583030000000015,-9.218516985333332,11.503241220000001,-150.38484953333335,-2.0243287086666664,-1.9172273276666667,10.518374282666667,-7.209754307666667,2.06203562,3.9361948173333334
92,0.7666359999999983,-9.288779576666666,11.538365050000001,-150.3676529,-2.814718157,-2.286741376,9.573834893333334,-9.230030537,3.341565450000001,2.2575875919999997
93,0.7749689999999987,-9.372920672000001,11.507630346666668,-150.3346761,-1.8364417753333333,-1.877152602,10.05037145,-11.201021832,-4.769098222,2.7732322203333335
94,0.783301999999999,-9.430136045000001,11.533993086666667,-150.28919476666667,-2.779338241,-1.4084192910000002,5.898666937333334,-8.370117346333332,1.7540031276666666,5.377085527666668
95,0.7916349999999994,-9.496277490999999,11.58562374,-150.27896626666666,-5.385585944,-2.4509239149999997,11.076704662000003,-8.483136812666666,5.411524296,1.7502426713333332
96,0.7999679999999998,-9.584286689999999,11.641663233333333,-150.2180913,-0.7721618710000001,-1.2608156926666667,12.595723789333334,-12.450749080000001,4.952039957333334,7.7585029610000005
97,0.8083010000000002,-9.687791188666667,11.65060552,-150.2147827,-4.815263350666666,-3.148767491333333,10.492250759333333,-12.797218642999999,0.4865685703333333,0.11182737366666669
98,0.8166340000000005,-9.785737037666665,11.665438653333334,-150.13088986666665,1.5229172706666665,-0.5290953716666666,4.921348333333333,-14.215515773333331,-0.40131568899999986,9.592731354
99,0.8249670000000009,-9.876227695666667,11.71121883,-150.15124256666667,-7.538123131666667,-1.2548122006666667,9.497093638666668,-10.819322906000002,5.174687859666666,-1.0498685043333336
100,0.8333000000000013,-9.951304437333334,11.777917226666666,-150.05571239999998,1.5938842296666664,-1.0263096193333334,12.474606197333332,-11.759123803333333,5.457525279333333,12.013708592333336
101,0.8416330000000016,-10.029385251333332,11.80114174,-150.07373809999999,-7.9257941259999996,-2.895810569,9.770166477000002,-9.225484529000001,2.6089855853333326,-2.0508890946666667
102,0.8499659999999984,-10.118033088666666,11.830153466666667,-149.98063403333333,2.781009139333334,-1.2290141976666666,6.156050165333333,-13.325464883333332,1.0167632926666663,10.952633699000001
103,0.8582989999999988,-10.204575536666667,11.86318461,-150.02650703333333,-8.458281676666667,-1.774931421,9.446487982666666,-9.751356921666668,4.194024085666666,-4.188884615666667
104,0.8666319999999992,-10.238420803333334,11.954370496666668,-149.9321086,2.595466017666667,0.469714323,12.713729539999997,-6.786484718333334,8.303676356333334,12.437503814333333
105,0.8749649999999995,-10.279100733333335,11.988533973333332,-149.96795146666665,-6.932033060333333,-2.381588538666667,9.214804332333333,-4.527704874333334,4.119556524666667,-2.941265861
106,0.8832979999999999,-10.315684316666667,11.992626506666667,-149.8691508,3.013205011666667,-1.7890450756666667,8.532538732,-7.224047502,-2.0908691486666666,11.070721465666667
107,0.8916310000000003,-10.382221856666668,11.98667049,-149.88781483333335,-7.722419262,-1.756090879333333,7.848778883666667,-7.877288341333333,-0.8035657406666666,-2.7394940060000006
108,0.8999640000000007,-10.39837869,12.050865493333333,-149.80841063333335,0.867219428,-1.289430966,11.229367256666665,-4.256071209999999,5.387032985666667,10.148734251
109,0.908297000000001,-10.42303785,12.07886982,-149.8158264,-5.6104715663333335,-0.4631034533333333,9.761022884333334,-3.167760511333333,2.9702364593333335,-0.7075036363333336
110,0.9166300000000014,-10.427465756666665,12.055128416666667,-149.7437108,1.3513901233333332,-1.972395887,8.655386687666669,-2.6551932393333333,-4.843511661666667,7.395676452666667
111,0.9249629999999982,-10.452085496666667,12.00587622,-149.71134183333334,-4.053520441,-1.4809643230000002,6.500613212333334,-4.166633923666667,-6.987264971666666,2.2048306483333335
112,0.9332959999999986,-10.432435673333334,11.968725523333333,-149.65762583333333,-2.4016128780000003,-1.25852258,12.045873484333333,0.7256345053333333,-6.043771267333334,4.9941895789999995
113,0.9416289999999988,-10.41510137,11.9741141,-149.61883799999998,-3.433673868666667,-0.7767733733333334,8.004839022,0.517142892,-0.8140758076666662,4.9099766403333325
114,0.9499619999999992,-10.38333575,11.928427693333333,-149.58584850000003,-2.2709178626666664,-2.541395962,13.359782853333334,2.704620493,-6.606326661,2.414420247666666
115,0.9582949999999996,-10.34929498,11.869812330000002,-149.51317343333332,-0.9096798100000001,-0.5958608786666667,7.761686802333333,1.682817101333333,-9.100782790666667,7.513657251000001
116,0.966628,-10.311026893333333,11.760300956666667,-149.4853007,-3.4739113649999998,-2.322295109666667,10.232165656666666,3.620001911333334,-14.028242589000001,0.4636054036666666
117,0.9749610000000004,-10.250486373333333,11.696217853333335,-149.39708710000002,-1.3035256066666667,-0.7678583413333334,6.6370784443333335,4.5257385569999995,-10.039968953,9.138338645666666
118,0.9832940000000008,-10.198805807333335,11.591504729999999,-149.386528,-5.194087347333333,-1.407616337,13.161311150333333,5.6487216946666665,-13.106644946666668,-1.399301052
119,0.9916270000000011,-10.142190294999999,11.552273433333333,-149.3016739,-1.2257513203333334,-1.2691452503333334,11.434199016666668,4.169148922,-7.028843368,9.360200247
120,0.9999600000000016,-10.083712259333332,11.417244276666667,-149.28969830000003,-4.511779467333334,-2.102689524666667,12.571678159666668,6.430306752,-16.719127020666665,-1.8667531013333336
121,1.0082929999999983,-10.029982883666667,11.36097844666667,-149.2063395333333,-0.1605003276666667,-1.6091093373333336,4.783586422333333,3.9122043053333333,-8.985169509666667,8.790068943333333
122,1.0166259999999987,-9.975464503666666,11.171685536666667,-149.17792003333332,-3.9296793439999997,-2.0670459566666666,12.712270103333333,5.5625396573333346,-23.463136515666665,-1.0754428306666666
123,1.024958999999999,-9.921503703333334,11.129627543333333,-149.10988106666665,-2.077999304,-1.28140833,6.220477023333333,4.361510992,-6.972986936999999,7.303221544666666
124,1.0332919999999994,-9.856890678333334,10.915872256666667,-149.05845133333332,-3.034426454666667,-1.7142645516666668,17.487041157333334,6.248669226666666,-26.826573053333334,1.160429279
125,1.0416249999999998,-9.780232429333333,10.912026086666666,-149.0083669,-3.8716810346666666,-1.3029731413333334,7.962714672000001,7.5620706873333345,-2.070906796666667,5.944915374
126,1.0499580000000002,-9.737732569333334,10.737464270000002,-148.97156523333334,-1.1306169826666665,-1.6941562296666666,9.337803999666667,3.911700964,-21.89223416333333,0.34492978466666663
127,1.0582910000000003,-9.701513926,10.673850695666667,-148.9099299,-5.358768145333333,-1.479526917,17.840437249999997,2.512569696,-9.349378584666667,5.978022416666666
128,1.066624000000001,-9.671722729999999,10.626400948,-148.90812430000003,-3.0394215783333336,-2.8607939083333336,7.396544377000001,3.1656207243333334,-6.159688314666667,-1.110232393
129,1.0749570000000013,-9.617039362333331,10.471976915666668,-148.83186593333332,-1.3975145819999997,-1.0186812283333333,14.613252959999999,4.433083375333333,-20.372287433,5.881150086999999
130,1.0832900000000016,-9.590926488,10.480882326,-148.84258523333332,-6.345357179666666,-1.888071537,12.917428334999999,3.0015573896666665,0.7504203713333334,-1.4547818896666669
131,1.0916229999999985,-9.551433881,10.368812879666667,-148.78963976666665,0.4860360123333334,-2.103703201,9.38100481,3.1288179159999996,-14.892461456666666,4.059613803666666
132,1.0999559999999988,-9.522713025666667,10.273991587,-148.77245839999998,-4.985974550333334,-1.2031620543333335,11.736230850333333,2.7149772843333335,-12.06829506266667,-0.3077850146666667
133,1.1082889999999992,-9.508450825999999,10.278038978333333,-148.75407156666668,-2.953599706,-2.1554644603333335,13.695005416666667,0.876945734,-0.46057836199999996,2.2652718623333334
134,1.1166219999999996,-9.473586718333332,10.128289856333334,-148.7238744,-1.9897732536666668,-1.9609278639999996,11.716722846000001,3.171060244333333,-18.820081706666667,0.1557388306666665
135,1.124955,-9.440795580666666,10.079608918333333,-148.70334626666667,-5.188153505,-2.2574044736666665,8.615596057,3.0901060103333333,-6.735490082999999,1.414990127
136,1.1332880000000003,-9.458196004333333,10.086703617666666,-148.705513,-1.825434943,-2.3883468113333333,8.913155158666667,-2.416301697666667,0.3695021470000001,-0.49844865
137,1.1416210000000009,-9.475399652999998,9.947901727,-148.6757304,-2.0433536369999996,-2.218652169,15.599319455666667,-3.1143289406666668,-17.586237432666668,0.746070256
138,1.149954000000001,-9.485246976333332,10.005207062333334,-148.70451353333334,-6.936408361000001,-1.7664002280000002,10.056741077,-0.941045801,6.830621441000001,-2.625984213
139,1.1582870000000014,-9.510329882333332,9.959012986,-148.6957474,0.8106692683333333,-2.0458896359999996,7.741524657,-3.6480946540000008,-6.228020748333333,0.18589524433333335
140,1.1666199999999982,-9.529005686333333,9.928797722333334,-148.70285543333333,-5.404612064333333,-1.4731259973333335,16.509560586666666,-2.441455046333333,-3.944891134666667,-1.8438578049999998
141,1.1749529999999986,-9.551341057,10.019881883333333,-148.71671293333333,-2.1198683183333333,-1.7286672593333332,9.360596657666667,-2.8286271693333336,10.466793297333334,0.24988834066666663
142,1.183285999999999,-9.580290158333334,9.934004782333332,-148.71069083333333,-1.462746521,-1.9134540556666666,8.465243022666668,-3.982373754333333,-10.786608379,-1.4249500983333334
143,1.191618999999999,-9.63306427,10.010305722,-148.73207093333335,-5.2632422446666665,-2.545858701,14.42517201266667,-6.270425955333333,8.880919213,-1.0414110816666668
144,1.1999519999999997,-9.695257187000001,10.023454666666666,-148.74492646666667,-1.0868447623333333,-1.6823039453333333,10.491644065666668,-7.595219215,1.3026121460000002,-1.6280794539999999
145,1.208285,-9.742420832666665,9.990996043,-148.7558136,-5.237582415333333,-2.132984201,13.508137384333333,-5.813348015,-4.198093097,-1.9932024083333335
146,1.2166180000000004,-9.832050641666667,10.135442416333333,-148.79937996666666,-2.6202068326666668,-1.7802592116666667,6.757195275,-10.231947263,17.450436272999998,-2.515310516
147,1.2249510000000008,-9.915377299333333,10.060018539,-148.8126907,-1.1283975643333335,-1.4608529806666668,13.721971691666667,-10.133253732333335,-9.226450490333333,-3.115182240666666
148,1.2332840000000012,-9.993675231666666,10.204661687666666,-148.85745493333334,-5.065240820333333,-1.5888943573333332,4.949539026000001,-8.826643308,17.500603993333332,-2.614155849
149,1.2416170000000015,-10.076004980999999,10.153022765666666,-148.86107890000002,-0.2060608863333333,-1.748135378,6.984739517666665,-10.228567760333334,-6.603781381,-1.5346729159999999
150,1.2499499999999983,-10.15256246,10.244953791333334,-148.88456979999998,-5.211532433666666,-1.7616297603333333,14.454091868333334,-9.038981120333332,10.833474475666668,-1.2057137290000002
151,1.2582829999999987,-10.224159559999999,10.279960314666667,-148.89545696666667,-0.9044392406666667,-1.7427627243333335,7.918216862666667,-8.810734908999999,3.7802527749999997,-0.5407253283333333
152,1.266615999999999,-10.3102541,10.331811269666666,-148.90786486666664,-4.500516573666667,-1.586203436,15.633109727999999,-10.410726388333334,5.875256855666666,-0.7514962553333332
153,1.2749489999999994,-10.421070096666666,10.392070453333334,-148.92728680000002,-1.5344601076666666,-2.839470625,8.047533512333333,-13.319070177333336,6.946903226666667,-0.9823236466666666
154,1.2832819999999998,-10.507388436666666,10.384207726999998,-148.9379476,-3.9039103193333333,-0.43885980066666663,9.656837462333334,-10.484007675333332,-1.2078461630000004,-1.8325536250000003
155,1.2916150000000002,-10.61010774,10.468290328,-148.9727402,-2.0375362636666665,-2.646277825,1.5979260603333334,-12.017667133333333,10.085161843333333,-2.1906038126666667
156,1.2999480000000003,-10.688310623333335,10.471352257666666,-148.97371673333336,-2.986621519,-0.5027574600000001,15.808879216666668,-9.720941385666665,-0.12928994633333346,-0.4692058363333332
157,1.308281000000001,-10.770898500000001,10.567463556333333,-149.01931253333333,-3.5125898716666666,-2.0355298123333334,10.562153658333331,-9.265522004666666,11.823242664666667,-3.580828468
158,1.3166140000000013,-10.825972876666668,10.552880924,-149.00262196666665,-1.2824877103333332,-1.1841492453333335,13.719601789333334,-7.334732255333333,-2.5971520746666665,1.185256084
159,1.324946999999998,-10.913997333333333,10.581684430333333,-149.03930156666664,-2.67319944,-2.490197559,3.381452878333333,-10.213481587666665,3.6165692020000004,-3.5619417429999998
160,1.3332799999999985,-10.997413636666666,10.529337248333333,-149.02434033333336,-1.7721960939999999,-1.2527936796666668,11.103872934333333,-10.677852311,-7.0201686243333326,0.11194709933333336
161,1.3416129999999988,-11.091738699999999,10.561997411333333,-149.04784139999998,-2.897628308666667,-1.2916355033333333,7.255270241333334,-11.262841224666667,3.7899127003333333,-1.9627124866666665
162,1.3499459999999992,-11.13217481,10.520290058666667,-149.03344473333334,-2.5343518853333333,-0.3533838986666667,15.466230709999998,-5.505225539333334,-5.7588364279999995,0.2848559419999999
163,1.3582789999999996,-11.176913579999999,10.578499159000001,-149.05400593333334,-3.2134305043333335,-1.8725301026666668,7.152552922000001,-5.38768212,6.724942525,-0.9978753623333333
164,1.366612,-11.217881836666665,10.481678328000001,-149.04079436666666,-1.3327434856666664,-1.0777240396666665,13.942905106666666,-5.550819397000001,-12.213911721333334,-1.1472618380000001
165,1.3749450000000003,-11.272955259999998,10.515536945333332,-149.06919860000002,-3.649317702,-2.062055468666667,7.732711634333332,-6.434992313333333,4.046080908333333,-2.4848585130000003
166,1.383278000000001,-11.287240663333336,10.365566253666666,-149.04473113333333,-0.11069222266666674,-1.072082922,11.830084163999999,-2.603205462333333,-18.73257287,-1.1031628930000001
167,1.391611000000001,-11.29398791,10.373284659666666,-149.07641093333334,-4.68235449,-2.0090994836666667,8.825550834333333,-0.5635259596666666,1.048801025,-3.48904713
168,1.3999440000000014,-11.286444663333333,10.211086592,-149.04316966666667,0.4527303773333334,-0.7025049726666667,9.609062911,-0.18475155033333332,-20.373273530333332,-0.352460424
169,1.4082769999999982,-11.280371983333334,10.148664790333333,-149.0473175,-5.558891455333334,-1.6204817293333331,13.150564591666665,0.39079654233333333,-7.842282136666667,-1.9945892096666666
170,1.4166099999999986,-11.268441836666668,10.013021788000001,-149.01996613333333,-0.15237854799999997,-1.2745731673333334,11.355763593,0.47964791199999995,-17.109498241999997,-0.3802605073333334
171,1.424942999999999,-11.216771126666666,9.856766700333333,-148.97231546666666,-5.345023751,-1.2472680806666667,15.384897233333334,4.799594919,-20.080703774,1.8289385236666666
172,1.433275999999999,-11.207850453333334,9.822473525000001,-148.95364886666667,-2.1848011216666667,-2.436187267333333,5.773053537333333,0.30014310299999997,-4.9850718196666675,0.9970599213333332
173,1.4416089999999997,-11.174401283333333,9.577485718666667,-148.88471986666667,-1.6378934386666668,-0.47588690133333333,17.826534746333333,2.192759673,-31.016115186666667,2.2804028990000003
174,1.449942,-11.13283825,9.551966668,-148.8695984,-6.257373412333334,-2.246445854333333,9.722299550666666,4.315764189,-3.8990632426666667,0.8864232896666667
175,1.4582750000000004,-11.101146380000001,9.425027849000001,-148.83830260000002,-0.8674878773333333,-1.9079619246666664,10.590194226666668,2.738042901,-16.26050186333333,0.709352215
176,1.4666080000000008,-11.04893875,9.261025748333333,-148.81036886666666,-3.7912379106666667,-1.5388818183333335,17.56534385666667,5.371730009666667,-20.46838569666667,-0.9405804029999999
177,1.4749410000000012,-10.97398631,9.168397268000001,-148.78587086666667,-4.2049582800000005,-1.5826288563333335,12.638548057666666,8.092903933,-12.058923403333333,0.7316322176666666
178,1.4832740000000015,-10.89519501,9.079101562333333,-148.78327433333334,-2.5432857673333333,-1.8798095783333333,14.018712043333332,9.053511302000002,-11.106991766666667,-2.1227205196666667
179,1.4916069999999984,-10.833538690000003,8.929531097666667,-148.75896706666666,-0.4048523106666666,-1.944496433,11.788188456666665,6.4973048376666656,-18.755628586666663,-0.5591887036666667
180,1.4999399999999987,-10.753775593333335,8.791861216333334,-148.75664776666667,-5.291096528333333,-1.794876953,13.693634193333333,9.159367322666666,-16.829394023333332,-3.1060341200000003
181,1.508272999999999,-10.679391543333333,8.724819819333334,-148.74598186666665,-3.4273937543333335,-0.763453106,11.934266405,8.30034113,-8.732099374333332,-0.27449070433333334
182,1.5166059999999997,-10.616088866666667,8.628655115666668,-148.7634735,-3.9361784456666666,-0.9476317366666667,13.384299916666668,7.550169309333334,-11.476553916666667,-4.559027512666667
183,1.5249389999999998,-10.53160604,8.50791502,-148.74850719999998,-2.1261217593333335,-1.4796312450000002,14.579523723333333,9.433955827666667,-15.157402673333332,-0.8924429016666666
184,1.5332720000000002,-10.443087259999999,8.350432237,-148.74573263333332,-3.374392390333334,-2.1690848270000003,15.553355216666667,10.22188155,-19.17701912,-3.4895482063333336
185,1.5416050000000006,-10.33317057,8.221134185666665,-148.714831,-3.0357391833333334,-2.344953855,15.580961543333332,12.22648557,-16.510491053333336,0.8113823733333332
186,1.549938000000001,-10.23584811,8.09143734,-148.72544096666667,-3.673139572,-2.158007661333333,12.766593613333333,11.493286610666667,-15.61759503666667,-4.390230576
187,1.5582710000000013,-10.136825243333334,7.966988087,-148.7087199,-1.8420285386666668,-1.2330140473333333,12.476672806666665,11.173475584333334,-15.650516510000001,-0.6546403716666667
188,1.566603999999998,-10.044411976333334,7.81398503,-148.7146047,-2.492401123,-1.6733108960000003,9.325604440333334,10.816268603333334,-18.47740809,-4.2713206606666665
189,1.5749369999999985,-9.932594617333335,7.673739592666667,-148.6848297,-3.187691807666667,-2.018764456,12.910187723333332,12.521258830333332,-17.783898353333335,0.6213974953333334
190,1.5832699999999988,-9.840609549999998,7.551080703666667,-148.70197043333334,-5.746341149333333,-1.779219856,15.758810679999998,10.926054635666667,-14.680850983333334,-4.907548467333333
191,1.5916029999999992,-9.737237930333334,7.440209547666666,-148.69492593333334,-3.117265304,-2.4682763416666664,21.014823276666664,11.886465550666665,-13.854310353333332,-1.348022580333333
192,1.5999359999999996,-9.623961131,7.294900894333334,-148.70544943333334,-3.1001790363333335,-2.1171206236666666,14.665717123333332,13.367602033333332,-17.51427078,-4.521499340666667
193,1.608269,-9.503082593666667,7.158462524333333,-148.698822,-1.6720801986666667,-1.5638439853333335,12.712648391000002,13.991854349333332,-16.89147663,-1.8146885233333334
194,1.6166020000000003,-9.403963406666668,7.010917027666667,-148.69958240000003,-3.964789073,-1.7973232666666668,10.66857338,11.506657760666664,-17.97028033,-3.352089286
195,1.624935000000001,-9.321527162999999,6.930022398333333,-148.71411133333334,-3.4665126799999997,-2.4026260373333335,12.589975676,9.721171538,-9.910080910666666,-3.1505812006666662
196,1.633268000000001,-9.252990404666667,6.818445523666667,-148.71464793333334,-3.340122560333333,-1.700681577,12.575082779,7.826290448333334,-13.732725143333333,-2.5795976716666664
197,1.6416010000000014,-9.176685651333333,6.698681513333334,-148.72974903333335,-1.7530743553333334,-2.3306533696666665,13.243050256666669,8.974932354,-14.514332453333333,-3.9015785849999998
198,1.6499339999999982,-9.101933479333333,6.536093394333332,-148.70570116666667,-3.287343184333333,-2.649369994666667,16.082180974,8.217853069,-20.243353526666667,-0.6270499229999996
199,1.6582669999999986,-9.029083252,6.464735348666667,-148.7364985,-5.853536923666667,-1.9264230480000002,16.838085493333335,8.779337406333333,-8.502740699999999,-4.804109017000001
200,1.666599999999999,-8.980929375,6.385890007,-148.71529643333335,-2.731073419,-0.9519077936666666,11.517420135,5.086663584666667,-10.263643264333332,0.6907302539999999
201,1.6749329999999991,-8.950226148,6.314775784666668,-148.74774936666668,-3.2699534493333338,-3.098292410333334,10.21013355,3.7082974116666665,-8.453988394,-4.901553844333333
202,1.6832659999999997,-8.942410469,6.181688467333333,-148.7191213,-2.777105093,-1.7357049583333335,14.123859406666668,0.1639954250000001,-16.844024023333333,0.5687173209999999
203,1.691599,-8.938810030666666,6.108534971666667,-148.73348743333335,-4.777663628,-3.095804294,17.241333960000002,0.21266198133333347,-9.035358112333334,-2.7887417476666663
204,1.6999320000000004,-8.91918691,6.068769137333334,-148.72586313333332,-3.659458001666667,-2.1154380043333334,14.474854466666665,1.8613180716666664,-5.394468784,-0.15923504033333344
205,1.7082650000000008,-8.915196418666667,6.00961113,-148.7455775,-2.090656330333333,-2.2161955836666665,9.387159665666667,0.3000409653333333,-7.304420471,-3.0440942349999998
206,1.7165980000000012,-8.936250368666668,5.914482117000001,-148.7254944,-1.5190888096666668,-1.9062972466666663,11.360404017333332,-3.170573155,-12.177320799666665,0.27857617533333334
207,1.7249310000000015,-8.969891548,5.859509468,-148.74559273333332,-4.953609148666667,-2.6056788763333336,12.563588460333333,-4.196256796666667,-6.786065101666668,-3.063816905
208,1.7332639999999984,-8.992093722,5.860325813333333,-148.7343979,-3.289106289333333,-1.0090055863333334,12.434748489999999,-3.196425835,-0.651284665,1.0106310049999998
209,1.7415969999999987,-9.024527231999999,5.8281326296666665,-148.77501933333335,-3.330774148333333,-2.829871575,13.512003262333332,-3.8320649663333337,-3.714094082666667,-4.946241140333334
210,1.749929999999999,-9.047868092666667,5.7850465773333335,-148.75493113333332,-1.9204163946666668,-1.8482191563333332,17.66727956,-3.4371575909999996,-6.0268295866666675,1.2457399963333333
211,1.7582629999999997,-9.069411913666668,5.746950626333334,-148.78133646666666,-4.916988054666667,-1.477250357333333,12.648756026333333,-2.692372718,-4.681407451666666,-3.440141479333333
212,1.7665959999999998,-9.094682057999998,5.783370336000001,-148.78317769999998,-4.248954454666666,-1.7453923109999998,10.421011607666665,-3.3845921556666667,3.8135155043333335,0.15809532533333337
213,1.7749290000000002,-9.153552373333333,5.792805036,-148.82607266666665,-3.8603302239999997,-2.4372694093333336,15.096814792333333,-6.989873090666666,1.271597465,-4.432855129333333
214,1.7832620000000006,-9.209767977333334,5.781965414666668,-148.82326253333335,-1.809156239,-1.648367425,17.783284503333334,-7.153604109333333,-1.8880556026666664,-0.18977168233333339
215,1.791595000000001,-9.243811925000001,5.772275606666667,-148.8500061,-3.9995715620000003,-3.0173367263333333,11.994467257000002,-4.203625003666667,-1.289693932,-2.9338119230000004
216,1.7999280000000013,-9.276447296333332,5.821171919666665,-148.85894773333334,-2.9670017163333333,-1.4051637650000002,11.459061304333334,-4.187594413666667,5.413069009666667,-0.4309851129999999
217,1.808260999999998,-9.341838518666664,5.877899964666667,-148.89345043333333,-3.978931983666667,-1.567236642,14.271125474,-7.869624218666668,6.714921475333333,-2.5587770539999997
218,1.8165939999999985,-9.396674474333333,5.937272548666666,-148.91330463333335,-1.566161553,-2.264545361,9.007545630333334,-6.6996425786666665,6.871236483000001,-1.4834528516666665
219,1.8249269999999989,-9.462704976333333,5.9429407119999995,-148.93425496666666,-3.606017589666667,-1.6393084130000002,10.986207484666666,-8.105650743,0.443164766,-2.0573355553333332
220,1.8332599999999992,-9.521667162666665,6.034833749333333,-148.95494843333333,-3.5118615623333334,-2.414300799333333,13.686772347333333,-7.1871848510000005,10.726710001,-0.9319441716666667
221,1.841593,-9.577919324333333,6.111116250333333,-148.9943822333333,-4.3591492973333335,-1.9344706633333335,19.84000015333333,-6.687975565666666,9.153683664,-2.753313004666667
222,1.849926,-9.614439646666668,6.208303451666667,-149.02834063333333,-3.061039447666667,-1.7263099550000003,10.964723904666668,-4.321993450333333,11.6150465,-2.3542900386666665
223,1.8582590000000003,-9.679075241333335,6.253009001333333,-149.0535075,-2.046606223,-1.799222847,8.678961437,-7.878273169333333,5.129348714,-1.7258617680000004
224,1.8665920000000007,-9.758354822666666,6.343721231,-149.08960216666665,-3.809431275,-1.744989584,13.318492571666667,-9.402398742333332,10.907606443666666,-2.716074208333333
225,1.874925000000001,-9.832008679666666,6.422695795666666,-149.12314606666666,-4.375855058666667,-2.1511004763333332,15.117814063333334,-8.84411049,9.373314858999999,-2.0218085940000003
226,1.8832580000000012,-9.895795187666666,6.551489035333333,-149.17396036666665,-2.839470853,-3.6485219003333333,11.937587419000002,-7.335398356333333,15.700093270000002,-3.6194374959999998
227,1.8915909999999985,-9.961081504666666,6.613894303666666,-149.21346283333332,-2.3589629133333334,-1.3614731430000002,11.724146685,-7.744558970333332,7.527379832333334,-2.976481273333334
228,1.8999239999999984,-10.030461949333334,6.723238786,-149.259847,-1.6219653886666665,-1.7361133646666669,11.090344746333335,-8.05171728,13.318095210000001,-3.4743922156666662
229,1.908256999999999,-10.109661423333334,6.789315700666667,-149.29681906666667,-3.5313734209999996,-2.4526492256666668,8.668741621333334,-9.444627999666666,7.916007995,-2.6649737356666665
230,1.9165899999999996,-10.197067259999999,6.962600231333333,-149.36462656666666,-5.17328612,-2.2023627956666667,11.989241401666666,-9.866181534,21.338841756666664,-4.597057183666666
231,1.924923,-10.295004526666666,7.051862716666666,-149.41588336666666,-1.5585510133333333,-1.8725321296666666,13.390730219666667,-11.470983189,10.963441373,-3.7481356656666662
232,1.933256,-10.388662656666668,7.178543885666667,-149.48121896666666,-3.7497668666666666,-2.8830374479999996,15.255356312333333,-10.635661443333333,15.784096719333334,-5.233967304
233,1.9415890000000005,-10.478426613333333,7.254715601666667,-149.5358022,-1.1118172703333336,-1.9743237893333332,13.972887675,-10.422840752666668,9.502174614666666,-4.391958832666667
234,1.9499220000000008,-10.565966286666667,7.366706053333334,-149.6086909,-5.523764292333333,-1.5848389266666665,10.711898802,-9.752111592333334,14.229025841666669,-6.393059094666667
235,1.9582550000000007,-10.67967288,7.517441431666666,-149.69148763333334,-2.950018724,-2.425156991,8.619198639333332,-12.840969722333334,18.906498586666668,-5.981251239666666
236,1.9665880000000016,-10.813566843333334,7.615532398333333,-149.76326243333332,-3.7645013329999997,-2.4848363003333334,16.584799133333334,-15.295691806666667,12.601693312666667,-6.5087332726666665
237,1.9749209999999984,-10.945730526666665,7.768117428,-149.8339691,-1.1985863049999999,-2.134407441,12.412696523333333,-15.197988193333332,18.893514633333336,-4.454877217666667
238,1.9832539999999987,-11.063810346666665,7.814261754666667,-149.8955536,-2.9866560696666666,-2.632941564,9.968006770666667,-13.546649934,6.263381799,-6.4467242559999995
239,1.991586999999999,-11.208860716666669,8.005264600333334,-149.97436776666666,-4.566559155999999,-2.0745993853333333,9.92383949,-16.581154186666666,23.626436233333333,-4.446228981
240,1.9999199999999997,-11.36853186,8.144830068,-150.04568736666667,-2.7134701413333335,-2.2393702269999998,10.570726555,-18.329135256666664,17.506340663333333,-5.343486786
241,2.008253,-11.542404493333335,8.324809074333333,-150.10948686666666,-2.7087233069999996,-2.4302622476666667,10.416082541666666,-20.12487983666667,22.155394236666666,-3.6075243553333336
242,2.016586,-11.723045986666667,8.489097118333333,-150.18224846666666,-2.684566815666667,-2.4381777046666664,7.678415139666666,-20.8136425,20.44219017,-4.629498640666667
243,2.0249190000000006,-11.904779433333333,8.596323013333333,-150.21974943333333,-2.3899668453333334,-2.0179088413333335,15.580570536666665,-21.620398206666668,12.820250668666667,-1.3922621806666668
244,2.033252000000001,-12.083666800000001,8.872035026333334,-150.3241679,-6.693540891333332,-3.4372781913333337,12.676222799999998,-19.934293746666665,34.35999997333334,-5.550445636333333
245,2.0415850000000013,-12.269500096666667,9.034654618666666,-150.38194783333333,-0.21812103166666663,-0.46141278766666666,8.983140707666665,-21.710044226666664,19.838165919999998,-2.282362736666667
246,2.049917999999998,-12.472360293333333,9.230311711,-150.4694519,-4.331340670333334,-2.3045107126666666,9.464459099666668,-23.071589149999998,24.53985722666667,-5.2424666879999995
247,2.0582509999999985,-12.665822026666666,9.437688828333334,-150.52165223333333,-2.0205101966666668,-1.6295831006666666,10.301600138333333,-22.57738177,25.09788004666667,-1.096320331
248,2.066583999999999,-12.847442946666666,9.609747886333333,-150.5935542,-4.9498726526666665,-1.2673645619999998,15.363000553333334,-20.737092336666667,21.45670382333333,-4.061238527333333
249,2.0749169999999992,-13.021002133333333,9.853605587666665,-150.66504413333334,-2.328736027,-2.0504756073333334,10.716025669666665,-19.738641740000002,29.88888740666667,-2.1614937783333334
250,2.08325,-13.167332646666667,10.019303958,-150.7256520666667,-1.7583212456666668,-0.6797546646666667,9.882301966666667,-16.736265503333332,20.37723414,-2.629183451333333
251,2.091583,-13.311919526666665,10.151378630666667,-150.77306113333333,-1.588963787,-1.4386540850000002,8.914281843666666,-16.69781812333333,16.18508497666667,-2.294481516
252,2.0999160000000003,-13.457938196666666,10.341718037333331,-150.82190956666668,-3.988372882,-1.454958121,9.176159381333333,-16.90772438333333,22.94250679,-0.4866877743333334
253,2.1082490000000007,-13.596523603333333,10.517731349666667,-150.87577819999998,-2.4236962993333333,-2.0889341036666664,9.613101959,-15.822011313333334,21.498816809999997,-1.712376674
254,2.116582000000001,-13.71452077,10.650668463333334,-150.90944416666665,-1.7052271363333336,-0.9918007950000001,9.918875375333334,-13.836351075666665,15.824062983333333,-0.26298573
255,2.124915000000001,-13.826515196666668,10.748359043333336,-150.93891653333333,-1.9662673473333332,-1.739441673,10.763294856666667,-13.146684326666668,11.690416336666667,-1.0547901193333333
256,2.1332479999999983,-13.914369263333334,10.87516276,-150.95961,-3.081888119333333,-1.6021788419999998,11.990394594000001,-10.498449007333333,14.74006049,1.1230223713333334
257,2.141580999999998,-13.978359223333333,10.973675726666665,-150.9851583,-2.1193646293333335,-0.876203244,8.809341749666666,-7.457559426333333,11.676161133333332,-0.5434699853333335
258,2.149913999999999,-14.04956627,11.07414182,-151.01981863333333,-2.5887037513333335,-1.563544234,7.649775346000001,-8.155869325333333,12.073263806666667,-1.2279038826666666
259,2.158247,-14.116730369999999,11.13064035,-151.04170733333333,-0.898216764,-1.6364711126666667,9.881491980333333,-8.073159535666667,6.493533770333333,-0.5691312096666666
260,2.16658,-14.148483593333333,11.166936873333334,-151.0541102,-2.3968068756666665,-0.6479053659999999,8.745857080999999,-3.9467611713333333,3.9645418326666664,-0.5132453440000001
261,2.174913,-14.15920194,11.182711920000001,-151.0578003,-2.2482500076666665,-0.9655969736666666,8.846278666666667,-1.7249522606666667,1.226400718,0.3417451379999999
262,2.1832460000000005,-14.165795643333334,11.215776443333333,-151.07881669999998,-3.7078595159999996,-1.7825191816666666,11.48039913,-0.7086475689999999,3.844461759,-1.6181237600000002
263,2.191579000000001,-14.153180443333333,11.204851786666666,-151.0692342,-1.331798156,-1.4734607336666665,12.53353691,0.7773280343333333,-2.251691858,1.022592763
264,2.199912000000001,-14.11977323,11.156658173333334,-151.06236013333333,-3.328643083333333,-1.5723706083333333,11.059101423333333,3.4691452186666667,-6.382316350333333,-0.9500703663333333
265,2.2082450000000016,-14.066900573333333,11.118536633333335,-151.03517403333333,-2.146391471333333,-0.6263705146666667,10.846921604333332,5.1774527233333325,-5.952202479333333,2.3266307116666667
266,2.2165779999999984,-14.007527033333334,11.121048926666665,-151.04729716666665,-4.700628996,-1.4017287886666665,10.737726528000001,7.0368626910000005,0.07922916099999999,-1.641082819
267,2.2249109999999988,-13.933638893333333,11.11258634,-151.01497906666665,-0.522963683,-1.1950134833333335,6.962443749333334,7.742781957000001,-2.425313895,2.978568553666667
268,2.233243999999999,-13.873339973333335,11.038621903333334,-151.00485993333334,-3.3696547750000003,-2.206800997333333,10.112423578333333,6.628140449666667,-9.466671306333334,-1.3348005809999999
269,2.2415769999999995,-13.799723943333333,11.006820676666665,-150.96589916666667,-1.7873128253333332,-1.0027086536666667,10.704778354666667,7.575986544333333,-5.324969212333333,3.06755654
270,2.24991,-13.725412686666667,10.99319585,-150.9717687,-4.371847947333333,-1.6325342256666666,7.716591835999999,8.636201858666666,-2.0265043576666666,-1.2368430096666667
271,2.258243,-13.640812236666667,10.943615279999998,-150.93467966666665,-0.7072470586666667,-1.748158773,9.842539152666667,8.947347321999999,-7.350953101999999,2.364061673333333
272,2.2665760000000006,-13.562285743333334,10.88836193,-150.93246206666666,-3.620029131666667,-1.5855440896666666,10.884293556000001,8.993274213000001,-7.063485145666667,-1.6339193583333331
273,2.274909000000001,-13.45132033,10.834847449999998,-150.8938675,-1.5593230726666665,-1.5192008019999996,8.648648422333332,12.086586633333333,-7.829708735333334,2.4547447163333334
274,2.2832420000000013,-13.350769996666665,10.782667796666665,-150.88835653333334,-4.435538609666667,-1.6018647253333331,10.402619836666668,11.521788916666665,-6.842558225333334,-0.996094942
275,2.291574999999998,-13.262065886666667,10.73766009,-150.86075336666667,-1.2098447803333332,-1.8413372236666667,10.057322183333333,9.670767148000001,-6.528416157,1.4509912730000003
276,2.2999079999999985,-13.160779316666664,10.651419004333334,-150.8356552333333,-2.089700381,-1.1469312113333332,6.853752295,11.201235136333333,-11.309861500000002,0.17004447666666658
277,2.308240999999999,-13.065399806666667,10.590811729333334,-150.80388643333333,-3.6136269569999997,-2.2964728673333332,8.754306633666667,10.398193679333334,-8.470479647333333,1.5200559696666665
278,2.3165739999999992,-12.978274663333332,10.600576401666666,-150.7935079,-3.555817286,-1.5046450693333335,8.456518492333332,9.831888835,0.32340528566666665,1.113506516
279,2.324907,-12.889441173333333,10.516892114666666,-150.76127370000003,-1.1570397316666667,-1.9204139610000002,9.756849924666668,9.600371042666668,-11.16754055,0.9938793279999999
280,2.33324,-12.801891326666668,10.467123031666667,-150.7355118,-3.5293755533333333,-1.314278811,9.444232304666668,9.555890720333332,-7.0513098046666665,1.272839864
281,2.3415730000000003,-12.711626053333333,10.456660907666667,-150.72329963333334,-3.1721119879999997,-2.529900749333333,7.3090999923333335,10.221501985666666,-2.0718971886666666,0.6646167833333333
282,2.3499060000000007,-12.645064353333332,10.406413078666667,-150.69788106666667,-2.000711530333333,-1.7546145319999997,10.954904395666667,7.047402540666667,-7.092659314333335,1.2470549743333335
283,2.358239000000001,-12.576589903333334,10.370705922333334,-150.6865336,-2.089504381,-1.6757170753333333,9.191541988666666,7.472359658666666,-5.186951160666666,0.6814069750000001
284,2.366572000000001,-12.494993526666667,10.306566873333333,-150.6570892,-2.4775669573333334,-1.6183544793333333,7.423701446333332,8.772184531333332,-8.804078739,1.3697938523333333
285,2.3749049999999983,-12.424084030000001,10.302241327666666,-150.66125486666667,-4.311205148666667,-1.7739860813333335,8.919727641666666,8.114905832666667,-1.0961614453333335,-0.31095678599999993
286,2.383237999999998,-12.365563710000002,10.232638677333332,-150.6295522,-0.6806807616666667,-2.371895015333333,9.392886002666666,5.948236107666666,-9.512410957666667,1.5394627696666667
287,2.391570999999999,-12.30013466,10.138627689666668,-150.60637156666667,-3.3759899936666664,-2.171777645666667,12.163877646333333,6.878243843,-12.307827713333333,0.5630480893333334
288,2.399904,-12.243542353333332,10.148655573333333,-150.59141283333332,-3.4079360963333336,-1.2457136313333332,7.0867397,6.090408325000001,0.251578927,1.6467478276666665
289,2.408237,-12.207224210000001,10.055796940666667,-150.5709203,-1.2581453423333333,-2.3298882446666664,9.577061017333333,3.434455315333333,-12.102617263333334,0.27665085066666667
290,2.41657,-12.166493096666665,10.016800881,-150.54286956666667,-2.3616457783333336,-1.4173306226666667,8.309307894,3.9201392330000004,-5.811754703666668,1.9214604696666664
291,2.4249030000000005,-12.12809976,9.938766795999998,-150.52090203333333,-3.0862478413333334,-1.851044992666667,7.162404696666666,3.6622466246666665,-10.396831828000002,0.8659618956666666
292,2.433236000000001,-12.103575706666668,9.949935278666667,-150.51316326666668,-3.603646119666667,-2.56794703,8.104278404666667,2.4075844286666666,0.5722780226666666,0.8313441876666667
293,2.441569000000001,-12.103254636666668,9.875809352333333,-150.48729196666667,-0.7909469406666666,-2.08567065,7.443704526333334,-0.8672345133333331,-9.868936377999999,0.6671527030000001
294,2.4499020000000016,-12.099345843333333,9.818942705,-150.46193946666668,-4.728634596,-1.7861882936666669,13.377566973333332,-0.4164489903333335,-7.847864865666666,1.1576311586666665
295,2.4582349999999984,-12.082990010000001,9.862131754,-150.45313009999998,-2.127299547,-1.438441217,4.620770257,1.4118780893333334,4.308929999333333,1.6421927610000002
296,2.4665679999999988,-12.089647613333334,9.785665194333333,-150.42199200000002,-1.2640087506666664,-1.9950007196666668,8.560113827666667,-1.8024952213333334,-10.282267570666667,1.3508778216666668
297,2.474900999999999,-12.093972843333333,9.76606083,-150.39786783333335,-2.9128848313333333,-1.2156349819999999,10.587387720666667,-1.5136473180000003,-3.5876363913333336,2.5810782113333333
298,2.4832339999999995,-12.094313303333331,9.756642024333333,-150.38878376666665,-3.7625966866666665,-2.0099335116666666,9.797696748,-0.5855284533333336,-1.87259229,0.46491537
299,2.491567,-12.088234583333332,9.767313321666668,-150.37379963333333,-1.8743949233333332,-1.6806453066666667,4.0187879403333335,0.05127964433333335,0.349168797,1.5380751986666665
300,2.4999,-12.103130023333335,9.706306139333334,-150.34829713333335,-3.001784722,-2.1132286786666667,11.020516237666667,-2.6641410193333335,-8.333647886,1.0739409353333333
301,2.5082330000000006,-12.11211236,9.788013775666668,-150.35219576666665,-3.8433830736666663,-1.4476613800000002,13.04676882266667,-1.4860741299999998,8.989824613666666,1.8456380963333334
302,2.516566000000001,-12.115085283333334,9.747723580333334,-150.33715566666666,-0.8842412630000002,-1.6610839366666668,6.006492196666667,-1.0459703603333335,-5.634807784,0.41016083966666667
303,2.5248990000000013,-12.11642329,9.736056326333333,-150.31556446666664,-3.2057419616666665,-1.641290466,9.127578574666666,-1.0829015573333334,-2.5971684456666666,2.4717009863333335
304,2.533231999999998,-12.13082123,9.777738252333334,-150.313474,-3.2305677733333327,-2.2036376793333337,10.9243412,-2.1420459746666665,4.296886126,0.960486859
305,2.5415649999999985,-12.14064439,9.776235581666667,-150.29181926666666,-1.4984027146666667,-1.708745281,7.573402405,-1.9844926396666667,-1.247212688,1.995515545
306,2.549897999999999,-12.152849513333331,9.747236252999999,-150.27988943333335,-2.859786113,-1.8334509726666666,6.570322672333333,-2.0997996926666667,-4.2749822003333335,0.47257412600000004
307,2.5582309999999997,-12.178066886666668,9.831102052,-150.2887548,-3.387198925,-1.5994056263333334,10.474961916,-3.2067918380000004,9.517008781666666,0.6259351986666667
308,2.566564,-12.18930149,9.798714001666667,-150.27770999999998,-0.11781862366666673,-1.9438063303333333,7.174495696666667,-1.9513056276666667,-4.606024945666667,0.13101253433333335
309,2.574897,-12.18351682,9.802020389666666,-150.26702373333333,-3.9112739563333334,-1.2505232493333331,6.183128436333334,0.12280312200000003,-0.41243632633333355,0.8380678596666667
310,2.5832300000000004,-12.218291916666667,9.859898249666665,-150.28678386666667,-2.5446792840000003,-1.6192501783333333,8.572162073666666,-4.146834055666667,6.744172575,-1.1431377133333334
311,2.5915630000000007,-12.21880404,9.837862331666665,-150.2764689,-1.771868129666667,-1.5020993950000001,9.943195183666667,-0.6307334896666669,-3.3782399096666667,0.161826422
312,2.599896000000001,-12.209166843333335,9.920935313,-150.2851562333333,-5.500544866333333,-1.733876566,8.002500455333335,0.9801544546666667,9.424042304999999,0.7535452543333333
313,2.608229000000001,-12.233522729999999,10.004449526333332,-150.29844663333333,-0.75318561,-2.221308072333333,4.884437084,-3.0318677026666663,9.585889756666667,0.12107851099999999
314,2.6165619999999983,-12.249553999999998,10.022228878333333,-150.28922783333334,-3.0929961203333334,-1.1618719100000001,14.099272251,-2.471624573,1.327574015333333,1.161106338
315,2.624894999999998,-12.256547609999998,10.17040062,-150.31047056666668,-2.9670064153333335,-1.686936617,0.5598913033333334,-0.7532720166666667,17.370434443333334,0.8562585126666667
316,2.633227999999999,-12.273879690000001,10.185206094,-150.29011536666667,-1.7921512723333333,-1.7605739833333336,7.358670392333333,-2.8829890986666666,0.6909482880000001,2.3850011033333334
317,2.6415609999999994,-12.28556792,10.339050928333334,-150.31105803333332,-3.878217220333333,-1.4993793169999998,9.858929476,-1.2963461873333337,18.028083166666665,1.0260809263333333
318,2.649894,-12.280525846666668,10.435694058000001,-150.30343373333332,-1.5345987676666664,-1.4371069273333335,3.8915132929999996,0.048150638666666655,10.607334930333332,3.0206871829999997
319,2.658227,-12.291910806666666,10.607931454333333,-150.3138809,-4.3755799133333335,-1.451897065,11.901546161333334,-1.472495546,19.912092050000002,2.6983627476666663
320,2.6665600000000005,-12.312161443333332,10.768288296666666,-150.32000986666665,-1.610707899,-1.6459749143333333,6.382110278666667,-2.6916596800000003,18.42984151766667,3.0726464593333334
321,2.674893000000001,-12.296662966666666,10.895572343333333,-150.31750486666667,-3.1018184423333337,-0.7574020246666667,9.492864132333333,1.469659289,14.321964442333332,3.053905089666667
322,2.683226000000001,-12.291666346666666,11.10583687,-150.3290736,-2.0872290133333333,-2.2415448826666666,1.0272986493333331,0.46652881300000004,24.412623723333336,3.717716217
323,2.6915590000000016,-12.278678573333332,11.24146048,-150.32002006666667,-1.9325698016666666,-1.0722122143333335,9.613926727333334,0.9960683186666666,15.139519055666668,4.013645569333334
324,2.6998919999999984,-12.265229223333334,11.47701836,-150.34076689999998,-3.711694836666666,-1.25077041,8.263288022666666,1.7231817246666665,27.607689539999996,3.2967764136666666
325,2.7082249999999988,-12.215765953333333,11.659273146666669,-150.3198776,-2.262703255,-0.953647534,8.575805983,5.092094819000001,20.30624485,6.546583652333333
326,2.716557999999999,-12.193433763333333,11.913721083333334,-150.34288023333332,-3.614421725333333,-2.443478982,4.982923269333333,2.855456134,29.89396476666667,3.4758716426666667
327,2.7248909999999995,-12.15675068,12.095184643333333,-150.33042143333333,-1.691418846333333,-1.2077987193333335,12.235401152999998,3.7488199869999996,20.44039154,5.524374326333334
328,2.733224,-12.123793599999999,12.36927096,-150.3626963,-3.2242660186666665,-2.050989667666667,2.2775227030000003,4.359064579,32.38972346,3.0335609910000003
329,2.741557,-12.07036813,12.564411163333332,-150.3505198,-1.678194904,-1.084785859,10.274512450333333,5.7648019790000005,22.056226410000004,5.817771752666666
330,2.7498900000000006,-12.010311763333334,12.873855273333334,-150.39250439999998,-3.4864614606666664,-1.279119755,5.482984753666667,7.8943773906666665,36.78113937333334,2.75124532
331,2.758223000000001,-11.91396777,13.062286696666666,-150.39458213333333,-0.9410820303333333,-0.7713725766666667,8.800092856666668,11.090615589666667,21.47786776,4.715151945666666
332,2.7665560000000013,-11.809568406666665,13.376235326666666,-150.42901609999998,-4.980864207,-1.5398715139999999,8.980374256333333,13.07414277,37.14303589,3.564451654666667
333,2.774888999999998,-11.686429343333332,13.617866516666666,-150.43686676666667,0.229585476,-1.0042395993333333,6.931554795666667,14.46718407,27.894742329999996,5.214648247
334,2.7832219999999985,-11.55025355,13.887040773333334,-150.43932596666664,-4.786823511000001,-1.2409015296666668,11.347795325666667,16.069917996666664,31.19105911666667,5.766761382000001
335,2.791554999999999,-11.417981783333332,14.191474596666666,-150.4652277666667,-1.1305754383333333,-2.8035233816666665,4.669889052666667,16.080357553333332,35.72740745666667,4.558316230666667
336,2.7998879999999997,-11.282076836666667,14.392648383333333,-150.44363403333332,-2.6268315909999997,-1.8368425369999999,10.682893752,15.341127076666666,22.66745058666667,6.715340614333333
337,2.808221,-11.172475816666667,14.771980603333333,-150.48128763333332,-2.62115708,-2.2068941593333338,5.866551001333334,13.914306003333332,44.96601231666667,4.118640939333333
338,2.816554,-11.042554853333334,14.954752603333333,-150.4526062,-0.9293643236666668,-1.4531172116666669,8.703020256333334,14.369245210000003,20.383359273333333,6.995798587666667
339,2.8248870000000004,-10.912963233333334,15.320050556666667,-150.48427073333335,-4.705104033333334,-1.4557350080000002,5.989943824,16.20760854,43.18903732333333,4.2726929983333335
340,2.8332200000000007,-10.791291236666666,15.56591479,-150.46676383333332,0.6828314863333332,-1.810701052,6.516758800999999,13.63208771,28.069114686666666,7.2420639993333324
341,2.841553000000001,-10.66208744,15.818857829999999,-150.47147370000002,-3.997316599,-1.8542957706666667,11.523186683,15.318775813333332,29.382750193333333,4.624070167666666
342,2.849886000000001,-10.550529796666666,16.163449286666665,-150.48301189999998,-2.6726111573333333,-1.404542168,8.939085484,13.360966683333332,40.359711966666666,6.022202492000001
343,2.8582189999999983,-10.429586413333334,16.35451602666667,-150.4747569,-0.7609586836666667,-2.6711130143333333,7.889175882333333,13.88980961,21.8269914,4.638949871
344,2.8665519999999987,-10.32033666,16.675264993333332,-150.47447966666667,-4.786027590666667,-1.5830526350000003,9.265976467000002,12.782750446666666,37.362122856666666,6.451210181
345,2.874884999999999,-10.243168196666666,16.956374486666665,-150.4947637,-0.35320472733333325,-2.372706811,7.970097622,9.409365655,32.953252793333334,3.8625625770000003
346,2.8832179999999994,-10.140298207999999,17.17701721,-150.478714,-1.9894860783333337,-1.365724355,8.656243640666666,11.460943858,25.25406011,5.963331381333333
347,2.891551,-10.038401285333334,17.455406823333334,-150.4830755,-2.7877502043333333,-1.5412432056666667,5.290106976,12.029196736666664,32.43537330666667,4.900252262666666
348,2.899884,-9.948945364666665,17.732481,-150.4905243,-2.3892514706666668,-2.2475228706666663,8.352279343666666,10.692070962,32.402576446666664,4.413529395666667
349,2.9082170000000005,-9.863281886000001,17.936915716666665,-150.48859916666666,-0.77013131,-2.118787825333333,8.026987234333333,9.614450295,23.46954854333333,4.65918533
350,2.916550000000001,-9.775094032333334,18.1953907,-150.50351460000002,-4.551674048333333,-1.755325655,10.849253495333334,10.851091068333332,30.367204666666662,3.066252668666667
351,2.924883000000001,-9.692635536333334,18.494201656666664,-150.52272543333333,-1.621936381,-1.9810221989999999,6.203184128,10.04279391,35.05552482666666,4.081150611
352,2.9332160000000016,-9.628893216666668,18.70910772,-150.5381546,-2.2126224833333334,-1.5631251136666666,8.879132748,7.939509073666667,25.24271329,2.0295665663333335
353,2.9415489999999984,-9.568660418333332,18.987473806666667,-150.5528615333333,-3.246801138,-1.815122346,10.735016507,7.4356535269999995,32.677939733333325,3.439939975666667
354,2.949881999999999,-9.503395716333333,19.2952741,-150.58776093333333,-2.333682716,-1.8568473256666664,5.660677433,8.834941545666666,36.574902853333334,1.8331021866666666
355,2.958214999999999,-9.447608947666666,19.49572944333333,-150.58823393333333,-1.505396132666667,-2.4786896703333334,4.691004038,6.115461667333332,23.08344968,4.107654571666667
356,2.9665479999999995,-9.425501505666666,19.79700152,-150.6116562,-3.349705060666667,-2.3662231366666666,10.683542249666667,3.3132468066666667,35.61965815333333,2.7467582623333335
357,2.974881,-9.398656844666666,20.05662600333333,-150.6240692,-0.733101363,-1.9874053796666669,4.875738690333333,3.3504733093333336,30.422161739999996,3.241095543
358,2.9832140000000003,-9.36645031,20.311656316666667,-150.63245393333332,-4.116545796333333,-1.2500970166666667,6.686523973333333,3.938088894,29.877369563333332,3.473045349
359,2.9915470000000006,-9.384576479666668,20.674677533333334,-150.654864,-1.9693900346666666,-3.0913328330000005,5.704964518,-1.600933532,42.85155232666667,4.136714061
360,2.999880000000001,-9.412387212333334,20.867502849999997,-150.66325376666666,-0.7882659433333336,-1.6653771003333333,8.858890216333334,-3.3072645663333327,22.486052830000002,2.394936442
361,3.0082130000000014,-9.428087234666668,21.22163709333333,-150.69191233333333,-3.5825696390000004,-1.8481642006666668,-0.0533200900000003,-0.9895352919999998,41.91019439666667,3.3171553609999997
362,3.016545999999998,-9.481938997999999,21.52086194333333,-150.71840413333334,-1.3423446016666667,-1.9607237976666665,5.358902932,-5.654152592,35.410025280000006,2.519786765
363,3.0248789999999985,-9.569425900666667,21.80623881,-150.75513966666665,-2.824600299,-2.7335987090000002,8.733900707333333,-9.222535609666668,33.907603583333334,1.149914332
364,3.033211999999999,-9.645214717,22.172337213333332,-150.79425303333332,-3.105283737,-1.2073011796666666,6.534492690333334,-7.663630762333334,43.551807403333335,2.590188582666667
365,3.0415449999999997,-9.771321932333334,22.53785324,-150.8510666,-0.9913158616666667,-2.761272351,-2.132248262666667,-12.910982132333332,43.75975926666666,0.7011868356666667
366,3.049878,-9.899228732,22.820064543333334,-150.86693830000002,-2.214475532333333,-0.9065043726666667,6.395285646666667,-14.941392579999999,33.175130206666665,3.6002776623333332
367,3.058211,-10.052599592,23.302604036666665,-150.92169443333333,-3.434485187,-2.2079442339999997,3.0022672813333338,-16.195240336666668,57.53790156333333,3.595579465
368,3.0665440000000004,-10.199998223333333,23.629150390000003,-150.94401043333332,-0.9572285759999999,-1.8201000643333334,3.909223555666667,-16.966375346666666,38.51523463,4.015912731333333
369,3.0748770000000007,-10.372324626666666,24.080849329999996,-150.97619123333334,-2.918505281,-1.8499926130000002,2.4472495706666666,-19.470600763333334,53.41931661,5.726765950666667
370,3.083210000000001,-10.56037553,24.51229922,-151.00612133333334,-2.0205136736666667,-1.6288301546666666,3.7208028636666666,-21.420603433333337,51.01983388333334,5.733792463666667
371,3.091543000000001,-10.776070913333333,24.908246993333336,-151.0184148,-0.47781560333333334,-1.2685127656666666,-1.867200295,-25.64939117333333,46.40099589,6.986262480333333
372,3.0998759999999983,-11.011908216666667,25.40242195,-151.06275686666666,-3.5864438216666663,-2.6025830903333333,8.628941537000001,-26.346417743333333,58.65081533,6.037529787
373,3.1082089999999987,-11.219897590000002,25.791887279999997,-151.0682678,0.8860302366666666,-0.6745812296666668,3.0036918323333333,-25.06129328333333,45.43282318000001,7.937203884333333
374,3.116541999999999,-11.463722546666666,26.271171569999996,-151.11960853333335,-4.575383226333333,-2.3030133246666664,-2.9836190513333336,-26.864156086666664,56.98899714,5.4337404173333335
375,3.1248749999999994,-11.712322553333335,26.684562043333333,-151.1187922,1.6135608356666669,-0.21312824900000002,5.155517817,-30.243758516666663,48.032386779999996,9.572768052666666
376,3.133208,-11.989125886666665,27.13503138333333,-151.1919505,-4.4314229486666665,-1.615499457,3.5595366963333332,-29.553865430000002,54.025714873333335,2.987349437
377,3.141541,-12.199942273333333,27.551101683333332,-151.1884257,2.2401816446666665,-0.040845389333333336,-2.3325809736666665,-25.87216886,48.20110702666667,10.341067312333335
378,3.1498740000000005,-12.44624901,27.938667300000002,-151.2699585,-5.169857502,-1.515191595,7.1453440986666665,-25.303582510000002,46.79696400666666,1.0318748949999998
379,3.158207000000001,-12.626183513333332,28.345985413333334,-151.26096596666665,3.3318688076666674,0.013829419666666676,6.162694692333333,-22.502058663333333,46.964720406666665,11.029315312
380,3.166540000000001,-12.779824893333334,28.66872723666667,-151.34406536666665,-4.807988882,-0.5317729316666666,3.8830244549999997,-13.955240249,39.21354675333333,-0.45111123733333347
381,3.1748730000000016,-12.909719786666665,29.027395886666667,-151.33632406666666,2.939354677666666,0.079876075,-6.196088194666667,-16.456850369999998,41.24724324666667,9.842450778333331
382,3.1832059999999984,-13.04839611,29.293067296666667,-151.39767966666668,-4.576194008000001,-0.314408203,12.700876553333332,-13.342797600000003,32.01556269333333,0.4672161540000001
383,3.191538999999999,-13.10244624,29.58109347,-151.38947553333333,3.3130398193333335,-0.26493852366666665,0.4333323636666668,-7.377732912666666,32.944974263333336,8.161301136
384,3.199871999999999,-13.116921106666666,29.750082016666667,-151.42000833333333,-4.550046205666667,-0.029728367999999932,5.916731437333333,-0.21606596300000014,19.971038817333334,1.0509047310000001
385,3.2082049999999995,-13.070568719999999,30.000132243333336,-151.39920806666666,2.3418676259999995,-0.18980372966666673,3.345133741666667,3.9342857993333333,28.20977465333333,8.437330722333334
386,3.216538,-13.003105163333332,30.059216180000004,-151.40221913333335,-1.8627173903333334,-0.1745836336666667,7.561207930666666,7.93780581,6.477111180666667,0.8415043316666666
387,3.2248710000000003,-12.86422062,30.189619696666668,-151.37023673333334,-0.23631024866666664,0.023776444000000046,3.9355954326666667,14.382518769999999,13.981937727666667,6.279272158999999
388,3.2332040000000006,-12.701190313333333,30.257160189999997,-151.35754396666667,-1.9502418840000002,-0.11156479533333334,6.276791572666667,18.45535501,7.112605890333334,2.6308689766666666
389,3.241537000000001,-12.4745992,30.225216546666662,-151.28811643333333,1.607012113,-1.0329840803333334,4.005314077,22.64530055,-5.831847786666667,5.730001528999999
390,3.2498700000000014,-12.23592504,30.190885543333334,-151.25127153333332,-3.3757086990000005,-0.33682207266666664,8.056034723666668,26.07715161666667,-5.34954079,2.401860913
391,3.258202999999998,-11.949713706666666,30.17289924666667,-151.20518496666668,-0.20661035333333344,-0.769865175,5.797135750333333,31.226566316666666,-3.6349026760000007,3.7774540979999998
392,3.2665359999999986,-11.63185501,30.04340489666667,-151.1426442333333,-0.9742390513333333,-0.680897216,4.145125945333334,34.02292824,-17.04433314,2.734656095666667
393,3.274868999999999,-11.307900426666668,29.920569736666668,-151.08298236666664,-1.635643065,-1.4575957356666667,8.927492461,34.97145843666667,-16.203534443333336,2.6838288753333335
394,3.2832019999999997,-10.970433553333335,29.77467473333333,-151.02623496666666,-1.2897708813333333,-1.290079395,5.074578325,36.742940266666665,-18.819722493333334,1.9833986760000002
395,3.291535,-10.612861633333333,29.58250427333333,-150.96036786666667,-1.7223749953333332,-1.399901251,6.892964681,38.67360305666667,-24.459703443333336,1.957212925
396,3.299868,-10.261445996666668,29.43563143333333,-150.89508053333336,-1.7026664813333332,-1.034816901,6.164968967,37.94238027,-19.065500580000002,3.063501636
397,3.3082010000000004,-9.889144262666667,29.18651008666667,-150.82594553333334,-1.6515362463333334,-1.586294055,8.104858708666667,40.29559580666667,-31.227797186666663,1.4298795659999997
398,3.3165340000000008,-9.509939192666666,29.021243413333334,-150.7477366,-2.7970059710000004,-1.8008355299999999,1.8264787993333333,40.586229960000004,-21.425502140000003,4.274285316333333
399,3.324867000000001,-9.156787872333334,28.79438146,-150.68364716666665,-1.5274637143333332,-1.8578174910000003,7.2408644356666665,38.329573313333334,-28.47816849,1.7777682543333333
400,3.333200000000001,-8.799537658666667,28.63664627,-150.61363730000002,-2.8306632040000004,-1.5966033933333332,8.056640943333333,38.47861226333333,-20.340531666666667,3.8229786160000003
401,3.3415329999999983,-8.471330324999998,28.41356341,-150.54951476666668,-1.460455179,-2.6130159496666665,3.841160496,35.382122673333335,-28.00848198,2.234478836333333
402,3.3498659999999987,-8.171312014,28.268953323333335,-150.47962953333334,-3.5398463406666667,-2.4014341829999997,7.144122998,31.668036139999998,-18.732511523333333,4.2954486413333335
403,3.358198999999999,-7.912167708000001,28.147913613333333,-150.45701343333334,-3.2222758930000004,-2.6408736706666667,6.664250850666666,29.48598925666667,-15.245590843333332,-0.11113627766666674
404,3.3665319999999994,-7.680314540666667,28.014864603333333,-150.3953349,-1.0525212683333331,-2.781397898666667,4.810045083333333,23.991839093333336,-17.197303136666665,3.8137457766666665
405,3.374865,-7.497211456333333,27.886402129999997,-150.39851126666665,-3.760414282333333,-2.0762688320000002,6.6008569396666665,21.826557793333336,-15.777364413333336,-2.828529973666667
406,3.383198,-7.312842528,27.86164284,-150.3670349,-2.292038639333333,-2.391641696333333,3.494277398,20.01643944,-3.8579837880000003,2.4545873006666667
407,3.3915310000000005,-7.215260823666667,27.75763956666667,-150.3906479,-2.3741549650000002,-3.005912224333333,4.355669399,12.687959829666667,-12.604854266666665,-4.528213838666667
408,3.399864000000001,-7.133969624666666,27.770750683333336,-150.39656576666667,-4.085750182333333,-2.492818435,9.183262347000001,9.764800866666667,1.161042114,-0.8929935693333334
409,3.4081970000000013,-7.095099926,27.797830583333333,-150.43083953333334,-1.142876943,-2.6179259616666664,1.5267058216666667,6.220785479666667,3.1375137766666668,-3.6848382553333336
410,3.4165300000000016,-7.0858003300000005,27.740884143333332,-150.44624583333334,-2.714296917,-2.510541121,5.814992188999999,1.669382655333333,-7.060343504333335,-2.9099483093333336
411,3.4248629999999984,-7.114487171333333,27.896209713333334,-150.4905294,-4.33453691,-2.2720746996666663,4.791647455333332,-1.3335500163333334,18.54112148,-2.8494480650000003
412,3.433195999999999,-7.195532004333333,27.923450470000002,-150.52749376666668,-1.1855479279999999,-3.165850400666667,3.2353958886666665,-7.966221569666668,3.2544040083333337,-3.9286902546666673
413,3.441528999999999,-7.269881407333333,28.07712555,-150.54478963333335,-2.8356930016666664,-1.193962117,9.448122462333332,-8.322324593333333,17.988756021,0.01892932266666662
414,3.4498619999999995,-7.405805110999999,28.176399866666667,-150.58593749999997,-2.9296211800000003,-3.1372509799999997,-1.4504716393333332,-14.293987433333333,11.895727357666667,-3.241837024666667
415,3.458195,-7.527804851666667,28.364600496666668,-150.5744451,-2.2334762413333333,-1.3855150243333334,8.478311021,-15.66516781,21.697997093,3.665777445
416,3.4665280000000003,-7.7276091576666674,28.50874583,-150.6236089,-2.2055608233333337,-2.8982184333333336,-0.40553128733333327,-21.49619706333333,17.356039048,-3.3066134453333333
417,3.4748610000000006,-7.876972357333333,28.721546806666666,-150.60043843333332,-2.7154551743333335,-0.9355764586666666,11.460969926333334,-19.60219446666667,24.430521567333333,5.435029685333333
418,3.483194000000001,-8.121665636666668,28.94502258,-150.6530304,-2.231466005333333,-3.1308103406666667,-4.560414314333333,-26.652645113333335,26.849730390666668,-2.2189675970000002
419,3.4915270000000014,-8.295348167333335,29.111675263333336,-150.60281116666667,-0.7705178263333332,0.26268353566666663,15.097618580333334,-24.125612259999997,18.502804876,7.621986543999999
420,3.499859999999998,-8.543671926,29.393632890000003,-150.6786626,-4.4646253190000005,-3.2716255983333333,-3.643530289333333,-25.664436339999998,34.159081300666664,-3.3701675733333336
421,3.5081929999999986,-8.705852508333331,29.51874351666667,-150.62104796666668,2.2474306619999997,0.041960371,9.508241973,-23.231584549999997,13.402801857666667,7.741125891333333
422,3.516525999999999,-8.970805804000001,29.758085886666667,-150.7148946,-5.707952658333333,-3.1358959676666665,3.317408403,-26.526159923333335,29.405962946666666,-5.708763801333333
423,3.5248589999999997,-9.134016672666666,29.87090238,-150.67536416666667,2.6216683733333332,0.10949579633333335,8.025726318333334,-22.305521646666666,12.189143340000001,5.727632641666666
424,3.533192,-9.344888051333333,30.071327206666666,-150.77043153333332,-5.750804583333333,-1.6129001580000002,3.012115557,-19.916172663333338,24.84554736,-6.3443537543333335
425,3.541525,-9.505503972,30.114564896666668,-150.7356974333333,3.326565424666667,-0.8155472253333333,7.385745365666666,-21.737437563333334,3.9997855023333333,3.9343864520000005
426,3.5498580000000004,-9.678356170666666,30.279872893333334,-150.83112843333333,-6.481308699,-0.7809338370000001,5.885867278999999,-15.305526736666666,20.72407373,-6.903659343666668
427,3.5581910000000008,-9.757759093999999,30.301335016666666,-150.79139709999998,3.8343264263333334,-0.4977157413333333,5.833604178333334,-12.29711946,1.321883282,4.019488526999999
428,3.566524000000001,-9.869030634333333,30.338947296666664,-150.83907573333332,-6.161034742999999,-1.8133067489999999,7.228295009666667,-10.78107548,4.799066624666666,-4.547556373
429,3.574857000000001,-9.917574565666667,30.34632619,-150.80383043333333,2.4976843993333335,-0.662424384,6.299878836,-8.317489624666667,-0.2712670973333336,3.292548020666666
430,3.5831899999999983,-9.957889558,30.341819123333334,-150.8421605,-5.618405660333333,-0.278051386,7.872288226999999,-2.8507151606666667,-0.33866719399999984,-4.4682585003333335
431,3.5915229999999987,-9.944515227666665,30.29226239666667,-150.80477139999996,1.8521575529999998,-1.4469828256666666,5.952848037,-0.9953863323333335,-7.0411713916666665,2.340612133
432,3.599855999999999,-9.941609065,30.23265075333333,-150.82099406666666,-4.742026726333333,-1.4531483090000001,9.274881522,0.989426742,-7.251736798666666,-3.360557874
433,3.608189,-9.911519686666667,30.13124148,-150.8053995666667,1.4089236856666665,-1.6325083973333336,2.884513974333333,2.3299868903333336,-12.773230573333334,-0.9401493466666665
434,3.616522,-9.862483025000001,30.02544276,-150.80476123333332,-4.806035598333334,-0.58016781,11.144806226,5.497935136333333,-13.015559752666666,-2.5892665383333338
435,3.624855,-9.788669902666667,29.94127528,-150.7990977,-0.015784347999999986,-1.2051431536666668,6.898812135,8.195319652666667,-10.557953754666666,-1.5762069226666668
436,3.633188000000001,-9.670832316,29.76045863,-150.76272326666665,-3.3952775796666668,-0.24250249566666668,9.826093672999999,11.60945924,-22.523885726666666,-0.41630828400000003
437,3.641521000000001,-9.578670184000002,29.686135609999997,-150.77116903333334,-2.0812459786666664,-2.804236213333333,5.594521680666666,11.245954198,-9.149108728666667,-2.8074193000000007
438,3.649854000000001,-9.445707639,29.44775581333333,-150.7226359,-0.9624137183333331,-0.49455811600000005,8.328072865666668,12.712061566666668,-29.545825956666665,-0.19890411733333332
439,3.6581870000000016,-9.335553804999998,29.357856116666667,-150.7369512,-4.696232478,-2.620935043,7.820605278666666,13.766831080000001,-10.905110040666665,-3.6900258063333333
440,3.6665199999999984,-9.21388944,29.18911298333333,-150.70150246666668,-0.029931982666666707,-1.5570688646666666,5.018271604666666,12.13052845,-21.07342561333333,-0.05257725733333363
441,3.674852999999999,-9.087652524333334,29.00789134,-150.70679473333334,-4.910890578999999,-1.539410710333333,12.403787454000001,15.17855962,-21.887708027333332,-4.462749958
442,3.683185999999999,-8.948837916,28.947576526666666,-150.68551636666666,-2.3222658333333333,-1.4596100946666668,4.889307936000001,15.043299036666667,-7.990235648,0.6089275676666664
443,3.691519,-8.834051767666667,28.742642720000003,-150.69353483333333,-1.7050382050000001,-2.6437462566666663,9.082943439666666,13.933629353333336,-24.67288653,-5.083341280666667
444,3.699852,-8.722400347333334,28.659468333333333,-150.66650896666667,-3.767049233333333,-1.2981509566666667,13.553734777999999,11.472085634333334,-10.783545492666667,0.8014095626666666
445,3.708185,-8.641645113666668,28.573504763333332,-150.70970663333333,-3.039133002333333,-2.846717278,6.87057964,11.862822216333333,-10.018678825,-6.496985048
446,3.7165180000000007,-8.522338867,28.428173063333332,-150.65689596666667,-1.317349101,-1.7390230096666668,6.7256590523333335,10.932339668666666,-18.55607382333333,2.4256646636666663
447,3.724851000000001,-8.486692746666668,28.41523552,-150.7074992,-6.160187721333333,-2.5472201903333334,10.691597780999999,6.858639399333334,-1.2528520823333333,-5.961590051666666
448,3.7331840000000014,-8.407372156666666,28.330012639999996,-150.6675593,1.0879510540000001,-2.035833637,7.177055280999999,6.873120069333332,-11.211784203666667,2.1975184083333335
449,3.741516999999998,-8.357311884666666,28.25448735666667,-150.69615683333333,-5.845731735000001,-2.2695083223333334,7.599701245666666,7.326249915666668,-9.038911820333333,-4.768202225333333
450,3.749849999999999,-8.317275365333332,28.307367960000004,-150.68114726666667,-1.2160668023333334,-1.9148220219999998,7.055137316000001,3.5854765576666665,5.575544953333334,2.0231959026666666
451,3.758182999999999,-8.289624850000001,28.228706993333333,-150.7066803,-3.2097829583333333,-1.2597048356666667,11.086783130999999,4.444543918,-9.462326207333334,-4.487845103000001
452,3.7665159999999993,-8.221960385666668,28.2790521,-150.68203989999998,-3.493801514333333,-1.4574768939999998,6.699741047,6.395144780666667,5.131257615,2.986334006
453,3.774849,-8.222714741999999,28.327988943333335,-150.71980793333333,-2.836502075333333,-2.8801043829999995,7.369377752000001,1.712303425,5.873618761,-3.567337413666667
454,3.783182,-8.206514358666666,28.302958806666666,-150.69782513333334,-1.3758186100000003,-1.4115845363333335,15.073424340333332,0.3643756706666667,-3.7772088043333336,1.407297194
455,3.791515,-8.22064209,28.42714309666667,-150.7493744,-5.604190429333333,-2.660161058,4.795611382333333,0.9078581579999999,15.017065046666668,-3.7229828040000004
456,3.799848000000001,-8.241315206333333,28.436257683333334,-150.7480774,0.602861388,-2.414912462333333,4.8879721326666665,-2.888709446,0.593041897,-0.159448723
457,3.808181000000001,-8.290779431666666,28.484999976666668,-150.78300476666666,-5.108717362,-1.362482846,12.935602506333334,-4.272425015666666,5.806957094666667,-3.263924340333334
458,3.8165140000000015,-8.320973396,28.610516233333332,-150.8193766,-1.415964067,-2.5034054319999997,5.278063416666667,-1.8577449516666669,14.990807849333335,-2.061566591
459,3.8248469999999983,-8.370372454333333,28.597513199999998,-150.82788593333333,-1.5901432236666666,-2.1680118840000002,4.798297604666666,-5.801564057333334,-1.9167728426666664,-1.5851539769999998
460,3.833179999999999,-8.456576983333335,28.71914164,-150.85913083333332,-4.542788425666666,-1.672013561,13.914762658333332,-8.858694952333334,14.448504447333333,-1.5572733083333334
461,3.841512999999999,-8.524488131,28.82811673333333,-150.88348133333332,-2.027107482,-2.187613209,8.368823844,-7.1085918743333325,12.807944775333333,-1.0807975033333335
462,3.849846,-8.590291340999999,28.857738493333333,-150.89329783333335,-2.4630240203333336,-2.332792441,6.881028016333334,-7.636573156,3.1983861126666664,-0.9299843313333334
463,3.858179,-8.694002151666668,28.98225148666667,-150.91373696666668,-3.2748558523333333,-1.9727103113333333,11.707917054,-11.617437363,14.590947790000001,-0.3480165103333331
464,3.866512,-8.797162374000001,29.029491426666667,-150.9510981,-1.0693214683333334,-2.363603711,9.42839702,-10.532711982333334,5.7303448516666675,-3.461252182666667
465,3.874845000000001,-8.875125567,29.028125763333332,-150.95887756666664,-1.6974560616666665,-1.309988419,2.8837398386666666,-9.243819557666667,-0.5327419663333334,-1.2901846570000002
466,3.883178000000001,-8.994643529,29.101381936666666,-151.00404103333335,-3.584027767333333,-2.5390586059999998,9.145038365,-12.038419726666666,8.944847265666667,-3.7613403003333334
467,3.891511000000001,-9.101323763333335,29.11155700666667,-151.02457936666667,-0.6673744643333333,-0.9421494603333334,10.413235983666667,-11.96163591,1.0479636589999999,-2.402658303333333
468,3.899843999999998,-9.166472435000001,29.069985069999998,-151.0388387,-2.640684684,-0.9482446909999999,8.570041181,-7.308595975333333,-5.1587328910000005,-2.7131367526666668
469,3.9081769999999993,-9.224656105333333,29.101187389999996,-151.0500488,-4.156640927000001,-1.7934600513333334,7.944893916666666,-6.671518325666667,3.3892544903333337,-1.0208811260000001
470,3.916509999999999,-9.294917424333333,29.111087163333334,-151.07202660000002,-0.8423285083333334,-1.119427845,11.355522395,-7.479084015000001,1.0743807153333331,-2.5319079063333336
471,3.924842999999999,-9.329392115,29.012770970000002,-151.0581436,-1.9656304766666668,-1.6210639176666668,12.373007772333333,-5.301075707,-12.369387945,-0.9394363363333333
472,3.933176,-9.358539899333334,29.01618449,-151.07469683333332,-4.513971487666666,-2.2730277776666665,7.589100997666667,-2.8487084709999997,0.21387863166666676,-2.0875601173333336
473,3.941509,-9.420450528333333,29.000787733333336,-151.07129923333332,-2.689014276,-2.3923278653333333,9.772290945666667,-7.978254318333334,-2.3735902706666665,-0.416940006
474,3.949842,-9.492129961666665,28.926353453333334,-151.0756963,-1.4187670749999999,-2.7655911846666665,11.562896887333332,-8.672758499,-9.206961313333332,-2.373978853
475,3.9581750000000007,-9.557672818666667,28.907285693333336,-151.07903543333336,-4.276155153666666,-1.5142652993333332,8.443952718333334,-8.009657384333332,-2.688884258333333,-1.181298879
476,3.966508000000001,-9.644621531,28.919796626666667,-151.1079127,-2.6958111126666666,-2.3808908463333336,6.489308675,-9.088733991333333,1.5175753436666668,-3.189749399666667
477,3.9748410000000014,-9.723842939,28.85290209333333,-151.09512073333335,-1.1860562313333334,-2.177965164333333,8.620870035000001,-10.597797713,-8.621881324666667,-0.492352605
478,3.983173999999998,-9.794421196,28.8363018,-151.10983783333333,-3.8632460433333335,-1.2987260820000002,9.619496663666666,-7.941591739666666,-2.1776329676666664,-2.301208814
479,3.991506999999999,-9.867787361666666,28.865186053333332,-151.12815600000002,-2.870402018,-2.313740651,6.689570903000001,-8.092519283333333,3.2583059866666666,-1.771361033
480,3.999839999999999,-9.944626173333333,28.790436426666663,-151.12232716666668,-1.8405292433333333,-2.5048398573333333,8.512020827,-9.889256474666666,-9.410577139666666,-1.3886589406666667
481,4.008172999999999,-10.011392595,28.825348536666667,-151.12598926666666,-4.982946078,-1.4313390153333334,12.177920103333333,-8.125399272000001,3.7041947440000005,-0.10397255433333334
482,4.016506,-10.093050319666666,28.865699766666665,-151.15371193333334,-1.7075074016666667,-1.590942621,5.610862652666667,-8.535235723000001,4.805935184333333,-2.4754795233333335
483,4.024839,-10.157826743333333,28.805388766666667,-151.14722443333335,-2.6445223490000003,-1.1983209250000002,9.502350170666666,-8.476723989,-7.724706966333334,-1.0558701556666665
484,4.033172,-10.23305162,28.89009221666667,-151.17351786666666,-4.395647128666667,-1.5671760243333335,12.953965185666666,-7.8349903423333345,10.017413457,-1.3718089263333333
485,4.041505000000001,-10.305155436666666,28.900643666666667,-151.1968714333333,-1.1286947926666666,-1.961284677,6.171831805666667,-7.650118986333333,1.1996509236666666,-2.650791963
486,4.049838000000001,-10.360489526666667,28.872514723333335,-151.19290923333332,-3.4514430363333335,-1.4938170113333333,12.137048721666666,-7.190637429333333,-3.8672035536666667,-0.6411114983333334
487,4.0581710000000015,-10.438951493333334,28.981629690000002,-151.2275009,-4.624225457333334,-1.879962325,11.187201183666666,-7.7436753906666675,13.051522256666667,-1.6684388319999999
488,4.066503999999998,-10.486121813333332,28.960472106666668,-151.22429403333334,0.23831723133333335,-1.8691252473333335,6.854376874,-6.193313757666666,-3.0268902279999996,-0.5877271193333334
489,4.074836999999999,-10.557750383333333,28.990746816666668,-151.25131986666668,-5.339099089333334,-1.685659806,9.287166517000001,-7.345834414,3.6115788210000006,-2.5742008683333335
490,4.083169999999999,-10.633768716666667,29.07982127,-151.27352399999998,-1.3907529116666666,-2.1916562319999997,9.057115237333333,-8.186656314333334,10.464536089666666,-0.7868865776666666
491,4.091503,-10.683835983333333,29.039000196666667,-151.2795588,-2.365117868,-1.3173620303333333,8.780576150333333,-5.988245646,-5.180730899,-1.9821020763333335
492,4.099836,-10.72441991,29.090392429999998,-151.28505706666667,-3.228163322,-1.5309319273333333,8.644017935333334,-4.877211253,5.697622696333333,0.13426557666666664
493,4.108169,-10.795044263333333,29.130182903333335,-151.3203125,-3.184913953,-2.0766198633333333,7.466723839666667,-6.767840544333333,4.900810321000001,-3.2049942016666666
494,4.1165020000000005,-10.833207133333332,29.089950563333332,-151.30632273333333,-0.9668652016666667,-1.6842825213333334,8.175357024666667,-5.724106868,-5.484537482,0.0878568193333334
495,4.124835000000001,-10.896843276666667,29.17151197,-151.34253183333337,-5.844913005666666,-2.274246653,8.987616379666667,-5.852815310333334,9.8493584,-2.334225456
496,4.133168000000001,-10.966339113333333,29.20263163333333,-151.35777283333334,-0.3676044543333334,-2.0852831996666663,7.333236694666667,-7.792504629,3.498430967333334,-1.318074564
497,4.141500999999998,-11.013340633333334,29.191287996666663,-151.3702367,-3.7257518766666666,-0.8858421446666668,10.171374638000001,-5.247593243666667,-1.5709382693333334,-1.9987986686666666
498,4.149833999999999,-11.044924416666667,29.27025095666667,-151.39444733333332,-3.3167537846666666,-1.4685222706666667,8.494969924,-2.6921547253333333,9.318101406666665,-1.1135192316666667
499,4.158166999999999,-11.085339546666667,29.313905716666667,-151.4207026,-2.214795907666667,-1.7430847086666665,8.940045675333332,-3.655228058666667,5.185922027,-2.156765679333333
500,4.166499999999999,-11.104563713333334,29.28350703,-151.4249649,-1.0200473766666667,-2.4067667226666667,9.897564092333333,-2.3954520223333335,-3.960537234666667,-1.5891454916666667
501,4.174833,-11.131627080000001,29.352837243333337,-151.4551468,-5.486393928666666,-1.3474014823333336,8.612101740333335,-1.8103161256666667,8.29969597,-1.9484449626666667
502,4.183166,-11.161317826666666,29.374004366666668,-151.46317546666668,-0.35164439666666664,-2.032466888333333,7.130867005333333,-3.4332853953333338,2.183284918333333,-0.7839750053333333
503,4.191499,-11.179014206666665,29.353752136666667,-151.45709226666668,-4.025373776666666,-1.8555773893333336,10.798420269,-2.818705797,-2.987960239333333,-0.3031445143333334
504,4.199832000000001,-11.20166874,29.40151596,-151.4676208333333,-3.299172918,-1.804850608,8.031189281666666,-2.4297750390000004,5.369465589666667,-0.4100028673333333
505,4.208165000000001,-11.230897903333334,29.437665303333333,-151.48678080000002,-3.0763756433333334,-1.3240536253333335,10.934531530000001,-2.71695749,4.165344447333333,-1.5836172166666664
506,4.216498000000001,-11.242900213333334,29.398382186666666,-151.48792013333332,-1.0844542956666665,-2.1404372056666667,8.396981399,-1.7044824363333333,-5.069164435,-1.4803022840000002
507,4.224830999999998,-11.259215673333335,29.410074233333333,-151.49664306666668,-4.426198721,-1.7114640870000002,9.675181708333332,-1.772193610666667,1.0797512533333333,-1.0695139366666666
508,4.233163999999999,-11.30252679,29.41578038666667,-151.52489723333335,-2.2126654386666664,-2.428382158333333,10.612819034,-3.8765480520000004,0.7774988810000001,-3.2186122733333336
509,4.241496999999999,-11.322888056666665,29.347805659999995,-151.5166677,-1.9048323709999997,-1.4944985706666667,10.773720501,-3.2711001833333335,-8.644364675666667,-1.2158266803333335
510,4.249829999999999,-11.332469623333333,29.310778936666665,-151.52024333333335,-3.8642142219999998,-1.8078157106666666,7.861449159,-1.2638277809999998,-4.751470486333333,-1.6843196550000001
511,4.258163,-11.36646239,29.337165833333334,-151.52924096666666,-3.6008245943333335,-1.8482073943333333,9.1843187,-3.8930521010000003,2.814756790666667,-0.7607726756666667
512,4.266496,-11.395579973333334,29.28108724,-151.52453103333335,-0.9246520500000001,-1.5000414056666667,11.866064864999998,-4.113830089666666,-7.159508069,-1.3005500233333336
513,4.274829,-11.390394210000002,29.231972376666665,-151.50885516666668,-3.945744037666666,-1.095877101,7.7674327703333335,-0.6397027969999999,-6.571938910333333,-0.010322590999999945
514,4.283162000000001,-11.396007536666668,29.253524783333333,-151.5225169,-4.296571652333333,-1.6997089383333333,6.208057861333333,-0.2002691826666667,2.345725894,-1.3393128313333333
515,4.291495000000001,-11.397628146666667,29.199586233333335,-151.4974162,-0.790748765,-1.3947045406666667,11.612697443000002,-2.0111357770000002,-7.3419617016666665,0.8399164676666667
516,4.2998280000000015,-11.382729846666669,29.135223386666667,-151.49221803333333,-4.323572556333333,-2.117040147333334,11.321030459666666,1.158301751,-8.149711609,-1.4406342406666666
517,4.308160999999998,-11.374552406666666,29.171169916666667,-151.4963633,-3.641057093666667,-1.6341216269999999,7.2361828473333345,0.8819278876666669,3.8415121236666665,-0.032828932
518,4.316493999999999,-11.379729906666668,29.11294492,-151.50234476666665,-1.40018334,-2.5277523200000003,9.335210482333332,-0.6096445123333334,-7.195982537,-2.448861996333333
519,4.324826999999999,-11.367984139999999,29.093310040000002,-151.48687236666666,-3.8231472173333336,-0.984742006,11.451102257,0.17650345966666658,-3.0956768990000003,0.6751442946666667
520,4.33316,-11.379882813333333,29.14647293,-151.517512,-3.7816324629999998,-2.0135880706666667,5.721193353333334,0.015300214333333284,6.4141116936666664,-2.346020698333333
521,4.341493,-11.367710746666667,29.095811209999997,-151.49969483333334,-0.9846628706666666,-1.2155057886666667,9.300295351333334,0.07792276166666667,-6.7985353470000005,0.1770924529999999
522,4.349826,-11.348375003333333,29.10980351666667,-151.51191203333335,-5.731935023999999,-1.7115327120000001,10.960348449666666,2.721726179333333,1.4240665039999998,-1.367484331
523,4.358159000000001,-11.330798786666668,29.163112639999998,-151.51271056666667,-1.4256302116666666,-1.9830294053333333,5.483889897333333,1.8009412883333333,5.819255868666667,0.7125838199999999
524,4.366492000000001,-11.338081676666667,29.09839248666667,-151.51694743333334,-2.8299956319999997,-2.657127261333333,11.496193725,-0.9544589520000001,-7.99933489,-2.413663645333333
525,4.374824999999998,-11.31931591,29.166335423333333,-151.5240936,-3.5826164086666665,-1.376231452,11.380900702666667,2.334805787,7.675673009666667,0.41275211166666664
526,4.383157999999998,-11.322903313333333,29.1575648,-151.54425556666666,-1.8232458033333334,-1.9258983133333334,4.215042015000001,0.4075992503333333,-1.0928693813333332,-2.7272716760000004
527,4.391490999999999,-11.29608059,29.101885476666666,-151.51600643333333,-1.8209137023333335,-0.5497400956666667,10.127271017,1.2329114476666667,-7.605362891000001,1.1353980103333334
528,4.399823999999999,-11.291104953333333,29.15133985,-151.54737856666668,-4.742871920333333,-1.279538671,10.696913717666666,2.1023225340000002,5.994998693333334,-2.506660223
529,4.408156999999999,-11.240650176666668,29.099079133333333,-151.52815246666668,0.08293137933333333,-1.797443986,4.856397271333333,4.577630996333333,-7.014206648999999,0.2948070166666667
530,4.41649,-11.214452110000002,29.053366976666666,-151.51652016666665,-4.67005984,-2.1505273976666666,9.827682496666666,2.142553826,-6.086694162666667,-0.3228290053333333
531,4.424823,-11.194017093333335,29.099953333333332,-151.5232544,-3.1146108310000002,-1.7166059016666668,10.715321061666666,2.498656034666667,5.154382904333334,-0.054165552000000006
532,4.433156,-11.16716226,29.02721532,-151.5054372333333,-1.813548803,-1.5530629553333333,7.705345947666667,1.842082083,-9.397112368,-0.3141287166666667
533,4.441489000000001,-11.130180356666665,28.993487676666664,-151.48564656666667,-4.131820440333333,-1.0974610646666667,9.749624331333335,2.956172983,-4.849060615333333,0.8042144576666667
534,4.449822000000001,-11.109829583333331,29.015731810000002,-151.4902954,-3.108049313,-1.7852534853333335,9.962587675666667,2.3761986096666665,2.248199934666667,-0.41079253966666673
535,4.458155000000001,-11.067996343333334,28.903380709999997,-151.45821633333333,-0.8061760020000001,-1.7527026333333335,9.107192992333333,2.806680202666667,-14.351637203333333,0.2559162183333333
536,4.466488000000002,-11.042661986666667,28.825805666666668,-151.44017793333333,-3.7876244386666666,-2.1016277076666667,11.799147288,1.6629408696666665,-9.967375595333335,-0.376653088
537,4.474821000000002,-11.01688512,28.769536336666665,-151.42597196666668,-2.7241352796666667,-2.5369532903333334,9.659471989,1.9304340683333334,-7.3787571593333325,-0.27402961266666664
538,4.4831540000000025,-11.00645065,28.64624214,-151.39870196666666,-1.9470686913333335,-1.3801062899999998,8.702804725666667,-0.6547940573333332,-15.545883816666667,-0.4609197550000001
539,4.491487000000003,-10.982708293333332,28.499564486666667,-151.35554756666667,-2.614935795333333,-2.227960109666667,10.863607088666667,0.025409360333333336,-18.618551893333336,0.6508449713333334
540,4.499820000000003,-10.981215163333333,28.423050559999997,-151.34341686666667,-5.071639061,-1.399519185,9.978593191666667,-0.837064693,-9.721357346333333,-0.936584413
541,4.5081529999999965,-10.970692633333334,28.32913462,-151.31174726666666,-1.8996261356666666,-2.079504788,9.544574737,-0.8900349733333334,-12.173785206666667,0.6792682509999999
542,4.516485999999997,-10.972437219999998,28.18158594666667,-151.2848943,-2.8946332133333335,-1.9655338130000002,11.042796771333334,-2.0604266123333335,-18.389536539999998,-1.031062891
543,4.524818999999997,-10.960472103333332,28.08649253666667,-151.24461366666665,-3.739383578333333,-1.810165246333333,12.725075245,-1.1900033553333336,-12.47806549,1.5569529730000002
544,4.533151999999998,-10.958884873333332,27.975898106666666,-151.2300593,-3.3199060756666667,-1.7809536456666664,11.648836136999998,-0.9624640146666664,-13.796013196666665,-1.4587267636666665
545,4.541484999999998,-10.950342813333334,27.88648351333333,-151.20853423333332,-2.655648073,-1.7331308126666667,7.465625762999999,-0.5272945859999999,-11.440227668333334,-0.2639120019999999
546,4.549817999999998,-10.96488412,27.73254076666667,-151.19126130000004,-2.023680091,-1.9839340053333334,8.726020970666667,-3.0435655513333333,-18.95428721,-2.1563735106666666
547,4.558150999999999,-10.976472540000001,27.664648693333334,-151.1773936,-4.558891296666666,-1.4899147750000001,12.180661042666665,-2.5051619410000003,-8.748760383333334,-0.567376723
548,4.566483999999999,-10.964972496666666,27.547816596666667,-151.16665646666664,-2.314358552,-0.96633024,10.683991589333333,0.44135895133333336,-14.445923804666664,-1.9902307590000001
549,4.574817,-10.95467758,27.45834605,-151.16320800000003,-3.8972054323333336,-1.5770051480000002,10.737789630666667,0.7108890213333333,-11.073381104333334,-2.138092955
550,4.58315,-10.934980076666667,27.324746450000003,-151.147522,-1.9263683556666669,-1.8675990103333333,13.844177562999997,1.1507704853333334,-16.530252456666666,-1.8521656993333335
551,4.591483,-10.904728890000001,27.139155066666664,-151.12257893333333,-3.7646612923333334,-2.936613162,15.056326231,1.9377864949999999,-22.843815483333334,-2.0571611523333333
552,4.599816000000001,-10.875817936666666,27.002818423333334,-151.10860696666668,-3.2176359893333335,-1.483865142,10.348737876333333,2.3563310703333333,-16.81625843,-2.0781350383333335
553,4.608149000000001,-10.84456507,26.82592074333333,-151.10142516666667,-2.7026516196666663,-2.202765584,13.174922623333332,3.0327178436666666,-21.461650213333332,-3.6900776226666667
554,4.616482000000001,-10.803640049999998,26.660622916666668,-151.10175576666666,-4.012072960666667,-1.2184014516666666,13.218242963333333,4.580420613333334,-19.94270007,-4.216920216666667
555,4.624815000000002,-10.754068056666668,26.524933496666666,-151.1088765333333,-2.154053529,-1.1065480806666665,7.426066239333333,6.002577940666666,-16.313066163333332,-4.243737697666667
556,4.633148000000002,-10.687948546666666,26.303706486666666,-151.09347786666666,-2.446758032,-0.5224037816666667,11.404678505666666,6.760267416666667,-26.866479873333333,-3.7737437086666668
557,4.641481000000002,-10.638904570000001,26.12415504333333,-151.09017946666668,-4.269541104666667,-2.746704976,12.850281396666666,5.38921237,-21.70591863,-4.0795344909999995
558,4.649814000000003,-10.55805715,25.911469776666667,-151.05782826666666,-3.9014815093333333,-1.5749890406666667,13.651950836666666,7.64510266,-26.195655820000002,-1.7199030716666668
559,4.658147000000003,-10.473387083333334,25.68167432333333,-151.0233688333333,-2.5703678923333335,-2.3021466533333332,12.538238840666667,8.029480139666667,-28.255293526666666,-1.8131221136666664
560,4.666479999999996,-10.39398734,25.4453303,-150.99108376666666,-4.253919402666667,-1.910971085,14.487248736666666,7.417132694,-29.02453613333333,-1.975781066666667
561,4.674812999999997,-10.296936986666667,25.254017513333334,-150.9537073666667,-1.7312707553333333,-1.2964265546666667,7.579921245333334,9.399192015333334,-23.769584656666666,-0.5800948143333332
562,4.683145999999997,-10.203914006666666,24.970991773333335,-150.91320036666667,-2.777956301666667,-1.426731328,9.252169766666666,8.746169885,-34.68239085,-2.1754278343333335
563,4.6914789999999975,-10.135486604333334,24.731817879999998,-150.87453203333334,-3.244563738666667,-2.9766171773333334,13.571287473333333,5.950068394333333,-29.458059943333335,-1.3634934423333334
564,4.699811999999998,-10.059610048333333,24.454786936666665,-150.83320873333332,-4.105189403,-1.9534377453333331,14.885565123333334,6.750403642666666,-33.965919496666665,-2.003859361
565,4.708144999999998,-9.978928249,24.1591924,-150.79155476666668,-3.1688333353333333,-2.7790730396666667,15.544845583333334,7.300820906999999,-36.18435668666667,-2.1281737086666666
566,4.716477999999999,-9.901610055666666,23.90392303666667,-150.7560679,-4.692206701,-2.0497777063333333,13.888372423333335,7.186724901000001,-31.310018539999998,-1.9225165146666667
567,4.724810999999999,-9.817597390333333,23.652246476666665,-150.7083359,-2.251105189,-1.534822484,9.502933500666666,7.450945019,-31.106246313333333,-0.45086681833333336
568,4.733143999999999,-9.763937632333333,23.377440773333333,-150.65258786666666,-2.7548352080000007,-2.0646406413333334,9.468002161666666,3.4193464270000002,-34.01559448333334,-0.029772361333333386
569,4.741477,-9.725791613333334,23.13268725,-150.60990653333332,-3.681665341,-2.678506056333333,8.707233587333333,2.238468329333333,-30.212296170000002,-0.7739218870000001
570,4.74981,-9.690174738666668,22.866558710000003,-150.56120303333333,-4.900429805333333,-1.5170936983333334,13.3235871,1.6341138683333334,-32.85169156333333,-0.5481282076666666
571,4.7581430000000005,-9.667651812333332,22.693654379999998,-150.56700136666666,-5.463682413333333,-2.4842524926666667,15.420586583,2.6648758053333332,-20.816518146666667,-4.566781153333333
572,4.766476000000001,-9.619721412666665,22.43155352333333,-150.52929686666664,-0.22397947299999998,-2.2251923083333334,9.612508933666668,3.6457549776666665,-32.17221069666667,-1.6147138973333333
573,4.774809000000001,-9.590377489666666,22.194604873333333,-150.53705086666668,-5.957739988999999,-2.4183339673333335,11.015447137333332,3.568445484,-28.35248375,-6.044225295333334
574,4.783142000000002,-9.59035778,22.050181073333334,-150.53729503333332,-3.2334012189999997,-1.9795758326666668,9.527988276,-0.348490079,-17.55715116,-3.378710448666667
575,4.791475000000002,-9.595960934666666,21.79539871,-150.5596644,-2.906862735666666,-1.2209579346666668,7.384294669333333,0.0026426113333333965,-30.20285606666667,-7.995695432000001
576,4.799808000000002,-9.576384862333335,21.629159926666663,-150.55125429999998,-4.040279031,-2.337143103666667,9.587350807333333,1.6377968586666667,-20.288800238666667,-2.858883102666667
577,4.808141000000003,-9.604697863333334,21.490256626666667,-150.5941798,-3.2876183493333335,-2.498344262333333,7.343311947666666,-1.8497246903333335,-16.106752078333333,-7.944872856333333
578,4.816474000000003,-9.594846089999999,21.290773393333335,-150.5728226,-3.7675748663333333,-1.3049313223333334,16.00490697,-0.08196906233333341,-24.463274317666663,-2.10246106
579,4.824807000000003,-9.620752334666667,21.252098083333333,-150.6120758,-4.844270636666667,-2.7500995400000003,4.377195069000001,-1.7509805710000002,-4.301735797666667,-5.556411107333333
580,4.833139999999997,-9.646059672333335,21.04400253333333,-150.58598073333334,-1.7875209203333338,-2.168719709,11.083675385333335,-4.49011755,-25.580833753333334,-1.7568813163333334
581,4.841472999999997,-9.715059916333333,20.988749183333336,-150.6002197,-4.971694866666667,-3.0783200263333335,4.653608560333333,-8.020373343666668,-6.736758750333333,-3.146752039666667
582,4.849805999999997,-9.772876421666666,20.871353786666667,-150.59542336666667,-2.7030628323333334,-1.2575240036666666,9.432752131333332,-7.469232229666667,-14.438245771666667,-2.306903918666667
583,4.858138999999998,-9.845768292666667,20.902233759999998,-150.614062,-6.712644259,-2.0002020996666663,8.261488426333333,-8.285616875,3.5358833869999997,-1.8845077753333335
584,4.866471999999998,-9.94428285,20.877960206666668,-150.6182709,-1.1125555660000002,-2.490180254333333,8.076728263333333,-11.987801871,-3.2502549093333335,-1.4204504093333334
585,4.874804999999999,-10.0809536,20.86136182,-150.64586893333333,-5.259703954333332,-3.107340336,9.845293838666668,-15.551170033333333,-1.8957687216666663,-3.849867264333333
586,4.883137999999999,-10.201241176666667,20.93066152,-150.66125486666667,-3.1035337053333336,-1.1747496130000001,6.499663750333334,-14.081561086666667,8.044655958666667,-0.7850082019999999
587,4.891470999999999,-10.323370296666667,21.024415333333334,-150.69809469999998,-4.754291455,-0.7617425719999998,9.443087418333334,-13.403370221666668,11.340575536666664,-2.5091458856666664
588,4.899804,-10.476874669999999,21.13214874333333,-150.7114207,-2.3291164313333335,-2.5440471170000003,8.917466799333333,-18.15283203,12.53098043,0.3149781226666666
589,4.908137,-10.63628038,21.200599036666663,-150.739563,-3.335618496,-1.9555019386666668,5.5286819933333335,-18.255626043333333,8.179507414,-2.0463261606666667
590,4.91647,-10.772028286666668,21.28747177,-150.74291483333334,-2.399435281666667,-1.4501328516666667,9.153948784333334,-16.477894783333333,9.838406086666666,1.1850854753333335
591,4.924803000000001,-10.88889376,21.41117477666667,-150.75746153333333,-4.175493876333333,-0.892905732,8.065058072666666,-13.765217463333334,14.413698832,0.726611535
592,4.933136000000001,-11.0080897,21.517758053333335,-150.76836903333333,-2.7403892676666666,-0.9252547623333333,13.272973380000002,-14.095953943333333,12.340998490666665,0.6999305563333333
593,4.941469000000001,-11.09992345,21.62313779333333,-150.76447043333334,-2.640557607,-1.450382352,7.626828511333333,-11.574597677999998,11.857414839666665,2.387827913
594,4.949802000000002,-11.172879536666665,21.655054090000004,-150.74382526666665,-3.3065679869999998,-1.0236547693333333,12.55332184,-10.006291707333334,2.8341301916666666,2.6369727849999998
595,4.958135000000002,-11.247852323333333,21.755828223333328,-150.7242813,-1.7300612926666663,-1.9087783299999999,8.214116731,-10.244539579666666,10.967647988666668,4.023156394666667
596,4.9664680000000025,-11.294089953333334,21.671427410000003,-150.69300586666668,-2.1590339343333333,-1.5809455116666669,11.386641978,-7.282849947333333,-11.096955298666666,1.0925158956666667
597,4.974801000000003,-11.351538023333333,21.750668206666663,-150.67875163333335,-4.635868787666666,-1.798846448,11.182706435,-7.877013683666667,8.536849498333332,2.9718149153333333
598,4.983134000000003,-11.39663124,21.646761576666666,-150.65783946666667,-0.7724899449999999,-2.075693806,10.361027143,-6.700143655000001,-13.163504123000001,-0.534244756
599,4.9914669999999965,-11.40419642,21.56028111666667,-150.61903126666667,-4.161412914666666,-1.0822543103333333,13.633721194666668,-2.954598108666667,-11.49588839,1.7389635246666668
600,4.999799999999997,-11.433603286666667,21.528673173333335,-150.65244803333331,-4.642546813,-0.6291998973333334,11.767919858666666,-2.337730209,-3.432666898333333,-4.959475835
601,5.008132999999997,-11.415028570000002,21.3581988,-150.62994893333334,0.8533237576666668,-0.9079924873333333,11.226119915,0.8944454189999999,-21.024084090000002,-2.04169029
602,5.016465999999998,-11.3922437,21.204806010000002,-150.6709493,-5.968083381666666,-1.405303905,10.604423524333333,4.164598544333333,-17.62406794,-8.496919156666667
603,5.024798999999998,-11.344466846666668,21.10360336333333,-150.68880969999998,-2.6189556913333334,-1.3222693863333335,11.594769796333333,6.076513131333333,-12.022684255999998,-4.585939407333334
604,5.033131999999998,-11.280384380000001,20.887249630000003,-150.72828166666667,-2.8862507543333336,-1.8218718170000001,11.709520974666667,9.006466707333333,-25.077639263333335,-9.786689122666667
605,5.041464999999999,-11.171175003333333,20.683796563333335,-150.72292586666666,-1.1299932326666668,-1.3265790143333334,6.900843143666666,12.538654962333334,-24.53152592666667,-4.606018861
606,5.049797999999999,-11.063049953333334,20.40620549666667,-150.7307129,-3.8399449983333334,-2.295658071666667,12.331941603333334,12.902647974333334,-33.02003415666667,-7.549953619666667
607,5.058131,-10.949255306666666,20.234059016666667,-150.73407996666666,-4.376071532666667,-2.820513248333333,15.755168912666663,13.46869787,-20.672042846666667,-4.7642289
608,5.066464,-10.814889273333334,19.90477371333333,-150.73527273333335,-2.232750557333333,-1.2277888456666666,15.599875451,15.770470940000001,-39.27319717333334,-7.907592931666667
609,5.074797,-10.654451053333334,19.590074536666666,-150.7085851,-2.417174975,-2.0438631176666666,11.578544615333334,17.84772046666667,-38.128782906666665,-4.5335606340000005
610,5.083130000000001,-10.492225013333332,19.228871663333337,-150.69996896666666,-3.789684692666667,-1.751430432,13.271476427666665,18.698152543333332,-43.289297739999995,-7.268660307
611,5.091463000000001,-10.324577333333332,18.884583789999997,-150.67921703333334,-3.7506181003333334,-2.089169542,15.24195130666667,18.996700603333334,-41.52750015,-5.600059687999999
612,5.099796000000001,-10.171835263,18.5301431,-150.66798400000002,-2.779388487,-1.4721789756666668,8.478860855333332,17.471357346666668,-42.58049138333333,-6.582961320666667
613,5.108129000000002,-10.019963583333334,18.07360522,-150.63502499999998,-1.8614870906666667,-3.601677616333333,11.889946302666667,16.5335687,-55.14012018666667,-5.901523400666666
614,5.116462000000002,-9.885300318666665,17.66236496,-150.60309346666665,-4.983220577333333,-1.6532032689999998,16.159752210000004,14.55068334,-49.73515193,-5.2262908223333335
615,5.124795000000002,-9.739211401666667,17.26174482,-150.57905323333333,-4.018346548,-3.3727201620000002,14.631706236666666,16.373250006666666,-48.30703989666667,-5.91108342
616,5.133128000000003,-9.602865855,16.8316466,-150.5328089333333,-2.533749659666667,-2.797416845666666,12.301253953333335,14.348965643333335,-52.24176661333333,-3.89645954
617,5.141461000000003,-9.496478398666667,16.37951215,-150.50527193333332,-3.0842268466666667,-2.6579925220000002,11.243603708333334,11.517614921333333,-54.50155893666667,-6.317667315666665
618,5.149793999999996,-9.413939476,15.955710093333332,-150.4487559,-4.729671637333333,-2.0257662733333333,11.456698097666667,7.592250187,-51.72197977666667,-2.242964267666667
619,5.158126999999997,-9.379985491333333,15.623216630000002,-150.45763653333336,-4.856256087666666,-4.195570945666667,7.6358950126666665,3.947551184,-39.74619039,-7.517016855333334
620,5.166459999999997,-9.36034743,15.157773653333335,-150.38716633333334,-1.2215102416666668,-1.5179963313333333,14.613610741666667,-0.29698475199999974,-56.91239929333333,-1.431323329666667
621,5.1747929999999975,-9.343400955,14.775321323333332,-150.37627413333334,-6.101493517666666,-4.053784897,13.941785177333335,1.3103162446666667,-46.02128728333333,-6.308589181666666
622,5.183125999999998,-9.328697522333334,14.431900660000002,-150.32668556666667,-3.9465388459999997,-1.8247831063333333,16.358537990000002,-0.13271959599999997,-42.07471466333333,-1.3858177663333333
623,5.191458999999998,-9.329096794333333,14.06033516,-150.32721456666667,-3.7754516203333335,-1.7107644676666667,11.224551834333333,-0.42280455433333347,-44.51680374,-7.416915574
624,5.199791999999999,-9.337609926999999,13.662405333333334,-150.24971773333334,-2.374128779,-2.3106617529999998,8.594646453000001,-3.6717955669999998,-49.07816696,0.9229841629999997
625,5.208124999999999,-9.404418309666665,13.391619683333333,-150.27233126666667,-6.853030681666667,-3.0900467433333336,12.985963501999999,-7.75098626,-32.15625318,-8.066280760666666
626,5.216457999999999,-9.474953651333331,13.011789003333334,-150.20201623333332,-0.48908163099999996,-1.0925603456666668,15.782396159333333,-10.775811832,-46.77811686333333,0.21895981799999986
627,5.224791,-9.520524978666666,12.636942543333333,-150.2025935,-6.531746546333333,-3.5257707833333334,12.647907733666669,-5.817789237,-44.87148539333333,-7.703256767333333
628,5.233124,-9.578206698,12.391155876666666,-150.16070303333336,-4.320207039333333,-1.954202652,16.110236806666666,-8.385698954333334,-30.3811334,-0.39868189900000006
629,5.2414570000000005,-9.663138071333334,12.069154423333332,-150.16386666666668,-2.968284011,-1.457079152333333,11.524764538333335,-10.477705160999998,-38.52895482333333,-7.164252122000001
630,5.249790000000001,-9.734168688666665,11.746801056666667,-150.11342876666666,-4.401916027333334,-1.569687118,10.779213586666666,-10.161567053333334,-39.63398869666667,-0.8904254833333334
631,5.258123000000001,-9.826663971,11.57995955,-150.1220041666667,-6.436397552333333,-1.6467793583333334,13.334181942,-11.231134416666668,-20.0312589,-4.858284155333333
632,5.266456000000002,-9.90831693,11.302777610000001,-150.07523346666667,-1.416552022,-2.504662951,13.814236322666668,-11.294994674,-34.21911176333333,-0.4905605129999999
633,5.274789000000002,-9.951588314333334,11.050119396666666,-150.05121866666667,-5.406796137666667,-2.0971459146666667,13.730558076333333,-6.111693859,-30.84507688333333,-2.8073562780000003
634,5.283122000000002,-10.006659191333334,10.918107353333333,-150.03561146666667,-4.546189626333334,-1.3586470286666668,11.986495655333334,-7.3234912539999995,-16.41138236,-1.2503253416666666
635,5.291455000000003,-10.071370445333335,10.691465697333333,-150.01256053333336,-1.415098091,-2.404588749,9.112290460333334,-8.641635734,-27.72206116,-2.5407591066666666
636,5.299788000000003,-10.135073661,10.512202265,-149.97549436666665,-5.173733314000001,-2.142451604,12.964415233666665,-8.810738882333332,-22.452951429666665,0.2748324276666665
637,5.308120999999996,-10.214654920000001,10.428006807333333,-149.97348533333334,-4.565487265666666,-1.6920734046666668,8.055465300333333,-9.950048129,-10.455519359333334,-2.0241437753333336
638,5.316453999999997,-10.292826653333334,10.205212276000001,-149.93180593333332,-1.0631397266666667,-2.1975512106666666,18.091265359999998,-10.635973612999999,-27.67578951666667,-0.23546779133333326
639,5.324786999999997,-10.320224763333334,10.066981632666668,-149.91204836666665,-6.439053217666667,-1.7960135143333336,16.062802632666667,-4.050371191333333,-17.215863546666668,-1.119231144666667
640,5.333119999999997,-10.35645135,9.994271913666667,-149.8983866,-3.552366097666667,-1.730884996333333,9.923121453,-4.9937861759999995,-9.3849802,-0.20300559199999993
641,5.341452999999998,-10.422337846666666,9.841481844999999,-149.8739522333333,-2.8088455993333334,-1.1866143740000001,11.890834330666669,-8.770940620333333,-19.0144612,-0.985260308
642,5.349785999999998,-10.47660828,9.699862479,-149.8502426,-5.084936142,-2.167258421333333,17.120622633333337,-7.340807596666667,-17.73403739766667,-0.5714794396666666
643,5.358118999999999,-10.518562636666667,9.658734956000002,-149.84023796666665,-4.860923608333333,-1.6967349446666666,9.605914352000001,-5.586486935333333,-5.521422306999999,-0.29567331066666674
644,5.366451999999999,-10.58339087,9.513605753333335,-149.8231303,-1.6905644136666667,-3.350336869666666,15.982895058333332,-8.464397272,-18.001776376666665,-1.4464322726666665
645,5.374784999999999,-10.609797476666667,9.390169778666667,-149.79292806666666,-4.012914101333333,-1.0599223376666667,18.703810376666667,-4.118881544,-15.680624326666667,0.2684495846666666
646,5.383118,-10.62677892,9.323524157666666,-149.7918981,-5.256826718666667,-1.2966138723333331,9.861127375333334,-2.4000539783333332,-8.386328854,-1.650129000333333
647,5.391451,-10.66986688,9.275437990999999,-149.78099313333334,-1.4815379483333333,-2.8131633199999997,5.568262100000001,-5.727411429333333,-6.374640624666667,-0.3044891159999998
648,5.399784,-10.730856896666667,9.127117792666667,-149.7628377,-2.8922324576666667,-2.252908547666667,13.850329083333333,-8.030765692000001,-18.4037838,-1.4235073723333331
649,5.408117000000001,-10.777894336666668,9.066227913,-149.7473755,-4.53520147,-1.1554453573333332,13.340803463333335,-6.294835090666666,-8.001152833666668,-0.01795548233333344
650,5.416450000000001,-10.821662586666667,8.992145220333333,-149.75720976666668,-4.062366008333334,-2.216746298,18.366390863333333,-5.413799444666666,-9.014597416333332,-3.095890283333334
651,5.4247830000000015,-10.849133493333333,8.877442677666666,-149.7389552,-2.4455240766666666,-2.201411446,11.247580210999999,-3.981789231,-14.380236626333334,-1.0217220483333334
652,5.433116000000002,-10.887636503333333,8.744510650666667,-149.72997283333333,-4.432677944666667,-1.559966624,11.957895597333334,-5.124633073666667,-16.37236849466667,-2.273630958
653,5.441449000000002,-10.955823896666665,8.706746895999999,-149.7311554,-4.551683028333334,-1.3219292960000002,15.257079439999998,-8.480473518666665,-4.855217457,-1.6595338323333333
654,5.449782000000003,-11.011070566666668,8.589073975666667,-149.74167376666665,-3.614115715,-2.5404539506666666,13.359361969,-6.795842488333332,-14.131897610000001,-4.2235748766666665
655,5.458115000000003,-11.054292996666666,8.423053264666668,-149.71185303333334,-0.7811502616666667,-2.2247267166666664,9.423752149333334,-6.044667562,-20.672424953333334,-0.9786348846666667
656,5.466448000000003,-11.100332576666666,8.305301507333333,-149.71681973333332,-6.135868231333333,-2.2301087776666666,16.499616303333333,-5.7786798479999995,-14.259974161333332,-3.6052345433333333
657,5.474780999999997,-11.138028466666666,8.231009006666667,-149.70466103333334,-1.7416301269999999,-1.8475122849999999,10.759221392333336,-5.071405251666667,-9.462632973000002,-0.947269837
658,5.483113999999997,-11.184283256666667,8.066478252333333,-149.69762930000002,-3.382231037,-1.3286941146666666,10.708580969333335,-6.024530093,-20.036795936666667,-3.3126904963333335
659,5.491446999999997,-11.22876008,7.943301518999999,-149.66357423333332,-3.846739292,-2.657718737666667,11.260635693333334,-6.2297428450000005,-15.737919490000001,0.5189573366666667
