time,Euler_X,Euler_Y,Euler_Z,Acc_X,Acc_Y,Acc_Z,Gyr_X,Gyr_Y,Gyr_Z
0.0,-3.333276749,4.421748638,169.6355438,-0.587864041,-1.303262591,10.22487736,-43.69280243,-7.783808231,-2.359677315
0.008332999999993262,-3.687239647,4.459288597,169.6306,-1.494832993,-0.673258305,10.11452007,-44.27975082,4.292057037,-0.55883956
0.016665999999986525,-4.052880764,4.510395527,169.603714,-2.757320404,0.378245801,7.579945564,-45.47386551,6.073043823,-2.990018845
0.024998999999979787,-4.447653294,4.515759468,169.5902863,0.072761886,-1.013229728,14.67597961,-49.09719849,0.521148324,-1.826311469
0.03333199999997305,-4.850297451,4.572117329,169.5491333,-1.596161604,-0.32810539,9.801193237,-49.77564621,6.876795769,-4.555540085
0.04166499999996631,-5.295905113,4.574188232,169.5272369,-1.605123758,-0.162606105,10.24781895,-55.12995911,0.222998112,-2.656548977
0.04999800000001642,-5.720649719,4.699949265,169.4768372,-1.083566546,-0.722174406,9.946108818,-52.33187866,15.33699894,-4.74723959
0.05833100000000968,-6.192356586,4.713374615,169.4470215,-1.661401033,-0.185495496,13.34032917,-58.17149353,1.723919868,-3.544264793
0.06666400000000294,-6.649696827,4.825601578,169.3997345,-0.529610395,0.331803232,6.597995281,-56.26122665,13.75201702,-4.309492588
0.0749969999999962,-7.092263699,4.906219006,169.3568726,-2.05547905,0.382399648,6.244077206,-54.53105164,9.970266342,-4.124786854
0.08332999999998947,-7.513340473,5.011437416,169.3156586,-0.210070014,0.202798426,13.77438354,-51.9521904,12.88742542,-3.478972435
0.09166299999998273,-7.896398067,5.172941685,169.2639465,-2.599500656,1.736274481,5.180338383,-47.27744293,19.78640175,-3.720771313
0.09999599999997599,-8.248669624,5.262694359,169.2365112,0.949011207,0.666251659,10.63041973,-43.82268906,10.86078739,-1.928665519
0.10832899999996926,-8.544640541,5.446363449,169.1848907,-1.736427307,0.215125173,7.979046822,-36.80298996,22.4562664,-3.079130411
0.11666199999996252,-8.823291779,5.510313511,169.1786194,0.755632401,1.808843732,13.46630383,-35.21608734,7.435975075,0.223510057
0.12499500000001262,-9.046463966,5.705129147,169.1330719,-2.419303179,0.538158298,4.608507633,-28.11369133,23.69275856,-1.935093522
0.1333280000000059,-9.26362896,5.755605698,169.1289368,1.508287668,-0.69025749,11.91679287,-27.85836029,5.794022083,0.282909453
0.14166099999999915,-9.442232132,5.92104578,169.0872955,-2.692195415,0.686265171,3.968096972,-22.79378128,20.1515522,-1.876231432
0.1499939999999924,-9.63596344,5.963637352,169.0809479,1.573358059,-0.882360876,15.67682648,-25.0161953,4.901952744,-0.093479194
0.15832699999998567,-9.813857079,6.083068371,169.046402,-2.956439972,0.005375467,5.322169304,-22.78376198,14.57694244,-1.84270227
0.16665999999997894,-9.996595383,6.167618275,169.0224152,1.177979708,-0.767493725,11.90219688,-23.46901703,10.22466946,-1.268328071
0.1749929999999722,-10.20904922,6.179698467,168.9978027,-0.923523247,-0.916375458,11.2694521,-27.05171013,1.696636796,-2.828773975
0.18332599999996546,-10.41280174,6.284210205,168.9538879,0.198389485,-0.80353111,11.94287968,-25.7262001,13.01321983,-3.103819847
0.19165900000001557,-10.6430397,6.230289936,168.9207916,0.454778612,-0.38159591,11.1759491,-29.07196236,-5.884349823,-5.258721828
0.19999200000000883,-10.85636425,6.222871304,168.8915863,-1.0889709,-0.370177239,9.057570457,-27.06748962,-0.488092363,-3.784851551
0.2083250000000021,-11.0686512,6.136219978,168.8789215,1.151423812,-0.718928337,9.891352654,-27.18880081,-10.16272354,-3.651785851
0.21665799999999535,-11.30958366,6.050028324,168.8629913,-0.514622688,-1.032279491,10.15279961,-30.55712891,-10.04051971,-4.069349766
0.22499099999998862,-11.57408047,5.888496876,168.8609314,0.655003905,-1.515668511,15.0206852,-33.59412384,-19.1879425,-4.282180309
0.23332399999998188,-11.84307194,5.775094509,168.8500671,-2.693775415,0.316496432,10.79202366,-33.99490738,-13.32519341,-4.22616148
0.24165699999997514,-12.1003933,5.689525127,168.835556,-1.373106241,0.212257504,10.59362698,-32.5881424,-9.924642563,-4.021861553
0.2499899999999684,-12.37068653,5.536968708,168.8384552,-0.81015873,-1.044852972,11.91742325,-34.31839371,-18.22730637,-3.736519575
0.25832299999996167,-12.6390543,5.429592133,168.8434448,-1.141615987,-0.081409946,12.77905369,-34.14649582,-12.94764137,-2.406191587
0.2666560000000118,-12.92329884,5.303946018,168.851059,0.01413636,-0.855359733,11.19860172,-36.04397583,-15.16916752,-2.642739058
0.27498900000000503,-13.21337032,5.202978134,168.8562164,-1.923213959,-0.830220222,11.6030035,-36.75615311,-12.18010998,-2.33631587
0.2833219999999983,-13.51955986,5.071314812,168.8761444,-2.249252081,-0.010353608,13.30132961,-38.80622482,-16.18405914,-1.531157136
0.29165499999999156,-13.82624817,5.073534489,168.8604889,-1.741434932,-0.706703305,9.213598251,-38.52989197,0.460980028,-1.949438095
0.2999879999999848,-14.16217518,4.915228367,168.8894196,1.138349056,-1.428972721,13.4020834,-42.46452332,-19.53228569,-1.433106303
0.3083209999999781,-14.48644924,4.844870567,168.8868408,-2.994109869,0.737179697,7.818234921,-40.7827301,-8.342146873,-2.583494186
0.31665399999997135,-14.8170166,4.783815384,168.8904114,-0.270615786,-1.280884862,11.12773228,-41.55397797,-7.459043026,-1.635996461
0.3249869999999646,-15.17836571,4.691797733,168.8964081,-1.560523629,-0.345454246,13.1524744,-45.32236099,-11.0927906,-2.359831333
0.3333200000000147,-15.53328323,4.663349628,168.8903961,-1.616075635,-0.214568943,10.9891367,-44.38174438,-3.364192009,-1.791270494
0.341653000000008,-15.92781544,4.574431896,168.8967133,0.101767734,-1.531920195,13.65393829,-49.30993271,-10.71629047,-2.359089136
0.34998600000000124,-16.32875443,4.529485703,168.9081116,-3.458575726,-0.590933383,7.297174931,-50.07134247,-5.823242188,-0.38502124
0.3583189999999945,-16.74486923,4.574237347,168.8733978,0.486950368,-0.609377563,12.233634,-51.51327896,6.087416649,-2.646584034
0.36665199999998777,-17.21866035,4.468065739,168.8842773,-2.715803623,-1.404206038,11.05659771,-58.80894089,-12.82896709,-2.671406269
0.37498499999998103,-17.65677261,4.575397968,168.8430481,-1.357529283,0.354448557,10.22456074,-54.09742737,13.52122879,-1.040798903
0.3833179999999743,-18.15287018,4.468924999,168.8700409,-0.424715608,0.468991667,11.3155756,-61.63844681,-13.41272354,-1.050020933
0.39165099999996755,-18.57354546,4.609498501,168.8121796,-1.842418551,0.146407634,4.150537968,-51.84848404,17.9466095,-1.449910402
0.39998400000001766,-19.00668907,4.551440239,168.8070221,-0.360622674,0.535034716,15.88455105,-53.7780304,-6.659576893,-3.024037123
0.4083170000000109,-19.40134811,4.705994129,168.747757,-3.300293922,1.390046477,9.589542389,-48.71110153,19.60256958,-0.787524343
0.4166500000000042,-19.81063271,4.673687935,168.740509,-0.064954095,0.017257366,12.40594959,-50.89271545,-3.624307156,-2.314161539
0.42498299999999745,-20.15896225,4.808402538,168.6850739,-1.926092267,0.834138513,6.516913891,-43.18152237,17.21328735,-0.901149035
0.4333159999999907,-20.50454903,4.78272295,168.6658783,1.11294651,1.46756804,14.70159626,-43.12781906,-2.356398106,-3.417930603
0.44164899999998397,-20.78273964,4.915394306,168.6098022,-2.539608002,0.29665792,5.739430428,-34.7513237,17.01917076,-0.857732117
0.44998199999997723,-21.02737617,4.923258781,168.598114,0.86274457,0.67994529,15.76970482,-31.08440018,1.11634624,-1.164821267
0.4583149999999705,-21.23682022,5.01927042,168.5591278,-2.587562799,2.036474228,5.468503475,-26.67382622,12.1831131,-0.389631212
0.46664799999996376,-21.40469933,5.080222607,168.5193787,-0.508984029,0.113861993,11.68031502,-21.57166672,8.278243065,-1.962115288
0.47498100000001386,-21.51951981,5.175144672,168.4808197,-1.658397079,1.2802279,9.439827919,-15.31528378,12.04020691,-0.319371253
0.4833140000000071,-21.62293053,5.215051174,168.4428558,-0.082472816,0.754039943,12.93303394,-13.84614849,5.859154701,-2.65354538
0.4916470000000004,-21.66258621,5.336821079,168.3967743,-2.392368793,0.77307713,7.235239983,-6.206855297,15.36839199,0.071233205
0.49997999999999365,-21.68628883,5.376530647,168.3524323,0.49810943,0.678433359,13.46458626,-4.193780422,6.120470524,-3.357424498
0.5083129999999869,-21.66242409,5.511085033,168.3004761,-3.657309294,0.965050757,7.756896496,1.490569592,17.05350113,-0.003496344
0.5166459999999802,-21.63612747,5.602669716,168.2472534,0.381650239,-0.009066602,14.05865192,1.928803444,12.2965498,-2.051047087
0.5249789999999734,-21.5646286,5.716147423,168.2161713,-2.123128653,1.447059393,7.676710129,6.977830887,13.78238201,1.36162734
0.5333119999999667,-21.4567585,5.82725811,168.1592255,1.318567872,0.521303236,11.29247665,11.78693199,14.63303375,-1.629309058
0.5416450000000168,-21.31196976,5.932487011,168.1333923,-3.123585463,1.263410211,11.20319366,15.71646309,12.63768291,1.526583314
0.5499780000000101,-21.13214111,6.106307507,168.0630188,-0.334386557,1.089174509,12.87718582,20.62034416,22.22162056,-0.471391916
0.5583110000000033,-20.91968727,6.170798302,168.0715179,-0.463476002,0.716404378,10.30941963,23.40043449,6.611447334,3.521523237
0.5666439999999966,-20.64767838,6.371695518,168.0086212,-1.505331397,1.144735336,5.783640385,31.62278938,24.93931007,1.344954252
0.5749769999999899,-20.36340332,6.47389698,168.0068665,0.309191555,0.224209309,15.08995342,32.14774323,11.31417751,3.892727137
0.5833099999999831,-20.05177307,6.619496346,167.9770813,-1.282730222,0.270186633,10.84501743,35.96074677,17.35884476,2.508098364
0.5916429999999764,-19.72922134,6.747211456,167.9697418,-0.289669454,0.062935442,11.65423393,36.81080246,14.46494102,4.186037064
0.5999759999999696,-19.38431549,6.825660229,167.9803009,-0.407231957,0.249147311,10.44545364,39.39713287,8.187832832,4.141136169
0.6083089999999629,-19.01850128,6.943567753,167.9684601,-0.196210906,-0.966392398,9.565361023,42.06417847,13.58227825,3.113697529
0.616642000000013,-18.67621994,7.002888203,167.9881134,-1.066893339,-0.5252738,12.07788372,38.94539261,5.718283653,4.318617821
0.6249750000000063,-18.33539009,7.097364426,167.9819946,-0.839011669,-0.515194356,12.94969654,38.98407364,10.74006367,2.697797298
0.6333079999999995,-18.0140667,7.158400536,168.0122681,-0.552765787,-0.971786559,9.59474659,36.26514053,5.571666241,5.516262531
0.6416409999999928,-17.68007851,7.215807438,168.0304871,-0.881884754,-0.187721372,9.588088989,37.79412842,5.652965546,3.965984344
0.6499739999999861,-17.34518051,7.315782547,168.061554,-1.849370956,-0.756155849,7.781800747,37.87253952,10.06384659,6.943004131
0.6583069999999793,-17.03117561,7.422683239,168.0752411,-0.208239347,-0.729145169,15.29120445,35.45601273,11.53389931,5.137222767
0.6666399999999726,-16.74277878,7.535858154,168.1039276,-2.432166576,-0.930970013,11.21286392,32.31551743,11.74047565,7.014567852
0.6749729999999659,-16.45701408,7.702336311,168.1122894,-0.33930999,-0.706345737,12.36242199,32.13873672,18.62129402,6.447239876
0.683306000000016,-16.19011307,7.836539268,168.1488495,-2.973441124,-0.706448138,7.410742283,29.59220886,13.97040176,8.501911163
0.6916390000000092,-15.91520882,8.103618622,168.1339264,-0.236451909,-0.888828397,11.61703873,31.21369171,31.05029678,6.946029663
0.6999720000000025,-15.70130253,8.228221893,168.1590576,-1.885368943,-1.285355926,12.47680855,23.39646721,13.31052303,6.749073505
0.7083049999999957,-15.46100426,8.549655914,168.13797,-1.653954625,-0.050781205,10.30769539,27.17749977,37.5883255,7.737741947
0.716637999999989,-15.26891708,8.758954048,168.166214,-1.192219138,-1.061210871,9.778091431,20.69749832,23.067379,9.688412666
0.7249709999999823,-15.02655506,9.103784561,168.1577911,-1.652799964,0.016633729,7.230908871,27.21095848,39.96505737,9.631715775
0.7333039999999755,-14.81424809,9.390386581,168.1602783,-1.081616163,-0.083607927,13.49675274,23.58436775,32.89331436,8.946041107
0.7416369999999688,-14.58216381,9.728113174,168.1585236,-1.259182692,-0.409652203,13.329422,25.85170555,39.01770401,9.859400749
0.7499699999999621,-14.36006641,10.12864494,168.153656,-2.044048548,-0.110144064,8.841653824,24.90872765,46.4175415,11.26076412
0.7583030000000122,-14.08977509,10.47370434,168.1722412,-0.286234438,0.676205039,10.10722923,29.99973869,39.36263275,12.0761652
0.7666360000000054,-13.80002975,10.94337177,168.152359,-3.226413012,0.264086246,8.777048111,33.36855698,54.99991608,11.11334133
0.7749689999999987,-13.48241615,11.34377289,168.1710358,-0.889665842,0.356250256,12.9275198,35.64136887,45.93865585,13.23873329
0.783301999999992,-13.15492439,11.88125515,168.1526031,-2.495876312,0.340432495,7.306281567,37.90151978,62.99783325,12.5556221
0.7916349999999852,-12.78234959,12.31009293,168.1781311,0.835140944,-0.327908427,11.06652164,42.02489853,49.24106598,14.23380661
0.7999679999999785,-12.37851715,12.85835171,168.1683502,-2.846179247,1.191886544,8.918987274,46.87408447,64.1966095,13.01830482
0.8083009999999717,-11.93796825,13.33549404,168.1893921,-1.146135926,0.356201112,11.09765148,50.24721146,55.22239304,14.22849941
0.816633999999965,-11.47771645,13.93453217,168.1920624,-3.254547596,0.932858527,9.240618706,53.31465912,70.06182861,14.6959362
0.8249670000000151,-11.00791264,14.42542839,168.2168121,0.864782512,-1.032555938,12.40530682,53.60041046,56.98418045,14.07038689
0.8333000000000084,-10.5146122,15.03355217,168.2129364,-1.941311002,0.101744436,8.934833527,57.47272873,71.51192474,12.98779678
0.8416330000000016,-10.01925564,15.51984119,168.2501373,-0.129841059,-0.581374288,10.72994041,56.21693039,56.42271423,14.39438438
0.8499659999999949,-9.497628212,16.15528107,168.2546082,-2.082392216,-0.077294528,12.29269409,60.60823822,74.79902649,13.23810863
0.8582989999999882,-9.020841599,16.60948944,168.3000641,-0.512515664,-0.846466839,11.48270416,53.62595367,52.72735214,13.68344975
0.8666319999999814,-8.49540329,17.22786713,168.3199768,-1.507555604,-0.121181093,7.026442051,60.51678085,72.72766113,13.36418056
0.8749649999999747,-8.0179739,17.68480682,168.3734436,-0.137475669,-0.834532082,10.77795792,53.31692505,53.16475296,13.67694569
0.8832979999999679,-7.501550674,18.2567482,168.4022369,-0.99562335,-0.575646341,10.29628658,59.06303024,67.29647827,12.3293972
0.8916309999999612,-7.023321152,18.76492691,168.4497223,-1.237971902,-0.333867669,13.86799526,53.52919006,59.59128952,12.81044388
0.8999640000000113,-6.530534744,19.25546074,168.5025177,-2.162592649,-0.319047093,9.323134422,55.22960281,57.48310471,12.699893
0.9082970000000046,-6.041892529,19.83039284,168.5578003,0.129397184,-1.279671073,9.939476013,54.3680954,67.67778015,13.50448036
0.9166299999999978,-5.591095924,20.22075081,168.6160126,-0.256623417,-0.744726539,13.76101685,49.8621254,45.67292404,11.08273602
0.9249629999999911,-5.130461693,20.80958176,168.6654816,-1.652330995,-0.96550107,10.157938,51.14699936,69.62356567,11.86979294
0.9332959999999844,-4.745324135,21.203619,168.7303925,-0.376561403,-2.165245533,11.88024235,41.58168411,46.21795273,11.12145901
0.9416289999999776,-4.328146458,21.67775917,168.7983093,-0.443120509,-0.099266946,8.296582222,45.03633499,55.91739655,11.79138947
0.9499619999999709,-3.964185476,22.10658455,168.854126,-0.552520752,-1.873381376,9.781322479,39.33590317,50.61140823,9.723250389
0.9582949999999641,-3.604639292,22.45514488,168.9255981,0.019585419,-1.753454685,14.27428818,37.85029221,41.01522064,10.40840054
0.9666280000000143,-3.272127628,22.9307785,168.977005,-3.381805658,0.477852941,8.844002724,35.67966843,56.36683655,8.909460068
0.9749610000000075,-2.946418524,23.27463722,169.0431366,0.515287876,-1.315025449,11.55330181,33.92768097,40.61352539,9.250426292
0.9832940000000008,-2.630468369,23.65988541,169.0957336,-0.857726097,-0.859973252,13.58317375,33.55774307,45.63045883,7.835416317
0.991626999999994,-2.340615511,23.99544907,169.1777496,-1.506802917,-1.005776286,7.927665234,28.76531219,39.65545654,10.46108246
0.9999599999999873,-2.056802511,24.33373833,169.2287292,1.942721486,-1.889117002,12.18352795,29.70997047,40.08663177,6.939808846
1.0082929999999806,-1.82078135,24.6105442,169.2970123,-2.84406662,-1.031023264,13.03007317,22.89052391,32.7691803,8.295387268
1.0166259999999738,-1.581544042,24.92422676,169.3504639,0.093440071,-0.651456237,11.7087307,24.17795944,37.18806458,6.744803429
1.024958999999967,-1.378428936,25.16893959,169.4098358,-0.744825244,-1.56341815,8.149693489,19.31994247,29.01880646,6.930220127
1.0332920000000172,-1.162449598,25.33719254,169.4590912,0.856577694,-0.464801133,11.43051243,21.55314064,19.80379105,5.595178127
1.0416250000000105,-0.948877335,25.58480644,169.494339,-3.285737514,0.423488587,11.20917988,21.77463722,29.47495079,4.08237648
1.0499580000000037,-0.773172021,25.7194252,169.5296478,0.664744973,-1.99884069,11.72916508,17.40659523,15.83201122,3.867316008
1.058290999999997,-0.59586823,25.8711071,169.5496826,-0.810185015,-0.255674303,12.00122643,18.19649124,18.01865005,2.098857164
1.0666239999999902,-0.421055824,25.97743607,169.5750275,-0.412557036,-0.363282233,9.532927513,17.80456734,12.47214031,2.653251886
1.0749569999999835,-0.231092572,26.09717751,169.5933075,-0.745088398,-1.435365915,12.08129501,19.80242729,14.20837879,1.766102672
1.0832899999999768,-0.045257136,26.17093277,169.6434937,-1.702972651,-0.154673085,9.591579437,17.80259323,8.575136185,5.231684208
1.09162299999997,0.185202464,26.31332207,169.6838226,-0.697594166,0.147740096,10.8708477,23.48770523,16.94766998,4.033707142
1.0999559999999633,0.382533252,26.35444641,169.7378845,-0.551982343,-1.26006496,11.37065315,18.95664024,4.700853825,5.594432354
1.1082890000000134,0.605309606,26.41332817,169.7859344,-1.379953861,0.293428361,11.54334164,22.14456558,6.975758076,4.817783833
1.1166220000000067,0.851183832,26.52970314,169.8623047,-1.776272535,-0.452529043,6.893283367,23.57709885,13.80467319,7.828816891
1.124955,1.111731172,26.54999161,169.9314423,-0.223414958,-0.257072896,13.02749252,25.53294945,2.429563046,7.092406273
1.1332879999999932,1.395971894,26.64904404,170.0162048,-2.417246103,0.137439296,9.492193222,27.71231842,11.81974888,8.637690544
1.1416209999999865,1.676883221,26.65333939,170.0880585,1.742923975,-1.592490673,12.40812397,27.81746292,0.597759783,7.397780418
1.1499539999999797,1.961758614,26.64921951,170.1610413,-1.820248127,0.156221062,10.2477808,28.4146862,-0.507533669,7.643805504
1.158286999999973,2.266391993,26.65999413,170.2156677,-0.140637428,-0.235664725,13.02558422,31.59328651,1.391724944,5.513288975
1.1666199999999662,2.576168299,26.62604713,170.2736969,-1.803290248,0.37491712,10.82315922,32.20883179,-4.070708275,6.195372581
1.1749530000000163,2.923416138,26.55575371,170.3409271,-0.739277184,-0.047908537,7.160338879,36.03755951,-8.185334206,7.321530819
1.1832860000000096,3.308912277,26.52234459,170.4163971,0.421819389,-0.31852448,7.900568962,40.37114334,-3.825632572,8.111323357
1.1916190000000029,3.691943169,26.35417938,170.4834595,0.299913585,-0.577732205,12.74381924,40.36296082,-19.80638504,8.131407738
1.1999519999999961,4.121161461,26.33045387,170.5863495,-2.937856913,0.191649824,10.86579132,44.1861496,-2.34891963,11.03788567
1.2082849999999894,4.524324417,26.16767502,170.6887817,0.578745067,-1.743359685,11.8534317,40.9287796,-18.74254608,12.17190647
1.2166179999999827,4.944250107,26.01534653,170.7993164,-0.982127249,-0.165256605,10.02920532,42.71566391,-17.49771881,13.18492603
1.224950999999976,5.347504139,25.84859467,170.9039764,-0.524995029,-0.846677482,10.53780746,40.88615417,-19.00470734,12.75112152
1.2332839999999692,5.738438129,25.6729126,171.0045624,-1.871361852,-0.682841122,14.57772255,39.82437134,-20.19659233,12.66152382
1.2416169999999624,6.090480804,25.49819565,171.10466,-2.246140957,-1.251847744,8.517818451,35.04875565,-19.81862259,12.64179707
1.2499500000000126,6.446284771,25.31231308,171.1850739,0.815234125,-1.523513794,10.66785336,36.7154541,-21.4840374,10.90502167
1.2582830000000058,6.791383266,25.06739807,171.2646484,-1.612265825,-0.061962646,9.774349213,35.34204865,-28.27339172,11.67488766
1.266615999999999,7.159714699,24.89790916,171.3362274,-1.630710959,0.153651416,11.28435612,38.72909546,-19.50521088,10.0024786
1.2749489999999923,7.496350288,24.64030266,171.4030457,-0.167990431,-1.155103922,10.56846619,35.03350067,-29.80292702,10.86949825
1.2832819999999856,7.833346844,24.3599472,171.4299316,0.38490507,-0.060215171,12.98010635,37.25785446,-33.21175766,7.202021122
1.2916149999999789,8.192261696,24.10003662,171.4912872,-1.790857077,-0.226616502,10.03796482,38.04797745,-30.01222801,10.6990118
1.2999479999999721,8.533005714,23.76028824,171.5175323,-0.709192157,-0.802604496,12.42863846,37.77059937,-40.18032837,8.582532883
1.3082809999999654,8.918467522,23.49411964,171.602066,-2.26135993,0.558507979,6.868443966,40.19254303,-30.21809196,13.73635864
1.3166140000000155,9.263748169,23.12368774,171.6297913,2.696184874,-1.986988902,12.48737431,38.27531052,-43.67236328,9.843835831
1.3249470000000088,9.631817818,22.75106621,171.6891632,-2.409236193,0.033928849,10.32766247,39.39632797,-43.08208847,13.51928711
1.333280000000002,9.99431324,22.41913605,171.7244415,-1.324930906,-0.848857701,10.39411926,40.03168106,-38.84465027,10.44459343
1.3416129999999953,10.36079311,22.02024651,171.790741,-1.524580717,-0.088612437,12.55445957,38.97821045,-45.85937881,15.41226578
1.3499459999999885,10.74197292,21.68943405,171.836853,-1.39035821,-0.088738918,8.168694496,41.83843994,-38.34899139,12.12253571
1.3582789999999818,11.11299324,21.26313782,171.8749237,0.168739781,-0.594282985,14.87703133,40.86387253,-49.46561813,13.57411003
1.366611999999975,11.48820686,20.90218353,171.9069214,-2.569984198,-0.897100568,8.757265091,41.80228424,-42.03488159,11.80753517
1.3749449999999683,11.87484932,20.52022171,171.9495544,-0.396756321,-0.094222322,12.80758572,42.60389328,-43.95680237,13.66974831
1.3832779999999616,12.27514744,20.11206245,171.9793396,-2.409658909,0.353787631,8.879939079,44.95236588,-47.45595169,13.33118629
1.3916110000000117,12.6970005,19.74603653,172.0192108,0.247642726,-0.128525555,13.20294952,47.01144028,-41.94754791,13.59101582
1.399944000000005,13.11235619,19.28732109,172.0415192,-1.884271741,-0.458474994,6.041524887,47.10625458,-53.35391235,14.5577631
1.4082769999999982,13.57843113,18.90795135,172.0851135,0.465024322,0.194232374,12.72904491,52.24295807,-43.18676758,15.02022266
1.4166099999999915,14.02401161,18.41793633,172.1005249,-1.925149441,0.363567233,9.737708092,51.03544998,-56.94815826,15.53275871
1.4249429999999847,14.52452755,18.01517296,172.1365051,-0.301607788,-0.345163167,10.34626389,56.74047852,-45.85577011,15.59274292
1.433275999999978,15.01493835,17.55425644,172.1476288,-2.732750416,0.872618914,10.03359413,56.60075378,-53.41943741,15.13461304
1.4416089999999713,15.51956654,17.10930061,172.1625061,0.320518017,-0.743470311,15.43284893,58.05649948,-51.08975601,15.4007206
1.4499419999999645,16.022295,16.65236092,172.1620941,-2.228311539,0.153302282,10.17637348,58.50016785,-53.04265213,14.66538429
1.4582750000000146,16.54078865,16.22101212,172.1593781,-0.97404474,-0.38539353,11.00375843,60.34911346,-49.79748535,13.90594196
1.466608000000008,17.08133316,15.82360172,172.1727905,-3.044350386,0.034295104,8.266827583,62.58108902,-45.46578217,15.07884789
1.4749410000000012,17.59132576,15.37526989,172.1639099,1.079828262,-1.079467654,14.28326511,59.52728653,-51.68496704,14.74788952
1.4832739999999944,18.10299683,14.94220352,172.1571503,-2.07407999,-0.031440619,9.779975891,59.77137375,-49.96920013,14.98505116
1.4916069999999877,18.60328674,14.50827694,172.1576538,-1.141153932,-1.127250433,9.276025772,58.0682869,-49.42562866,16.14601707
1.499939999999981,19.12943077,14.12345314,172.1705017,-2.279417038,0.127095312,10.29393864,60.91516495,-43.47599411,16.15159988
1.5082729999999742,19.61183739,13.70275688,172.1742096,-1.577934384,-0.295247853,14.4488039,55.83682632,-47.50192261,16.84390259
1.5166059999999675,20.09736824,13.3228054,172.179306,-1.231356382,-1.012460589,10.11721992,56.27982712,-42.94454956,15.85059643
1.5249390000000176,20.56144142,12.93244553,172.1897125,-1.251252651,-0.270106733,10.14055443,53.46915817,-43.52237701,17.10405731
1.5332720000000108,21.04312515,12.57164955,172.1794128,-0.878512263,-0.317250401,11.13207817,56.23125458,-41.16260529,14.05395222
1.541605000000004,21.52067375,12.21245384,172.2032013,-2.097031593,0.342231154,14.61970425,54.76511002,-39.17231369,17.93209076
1.5499379999999974,21.98171806,11.85887337,172.1987762,-1.800436139,-0.834731579,8.111940384,53.59380722,-39.86246109,15.04747677
1.5582709999999906,22.46676064,11.52458477,172.2206726,-1.026364326,0.271503866,9.724994659,55.75170135,-36.18148041,17.24111938
1.566603999999984,22.93928909,11.18302059,172.2052002,-1.125526428,-0.369864702,10.23605537,55.22648621,-38.77614975,13.94644451
1.5749369999999772,23.41183281,10.83270359,172.2041626,-1.22829175,-0.630020797,14.38669586,54.81282806,-38.71296692,16.11721039
1.5832699999999704,23.86912537,10.54580307,172.2036285,-2.162851095,-0.306998491,7.175182343,53.04358292,-31.82543373,13.55313015
1.5916029999999637,24.32871056,10.22312832,172.1844788,-0.479340464,-0.411954343,12.515872,53.65613556,-36.29014587,13.42936516
1.5999360000000138,24.78617477,9.961788177,172.1790009,-1.975478649,-0.523104608,11.51848698,53.169384,-29.05622864,12.24915123
1.608269000000007,25.2115612,9.630856514,172.1526489,-0.743926704,-0.860672235,15.60421753,49.68447495,-37.32882309,13.64019489
1.6166020000000003,25.62157249,9.358686447,172.1487579,-1.363827348,-0.603954494,8.262381554,47.43675232,-29.9595089,13.40645313
1.6249349999999936,26.0021553,9.036595345,172.1163788,-0.087582588,-1.597827077,12.28635693,44.39987183,-36.48480606,13.05730438
1.6332679999999868,26.36179352,8.733808517,172.092926,-1.5646137,-0.303635746,13.3514061,41.74916458,-34.09552383,13.34074974
1.64160099999998,26.66931915,8.44342041,172.0639648,-2.149780273,-1.982628107,11.38451767,35.54200745,-32.73712921,12.15795231
1.6499339999999734,26.9510994,8.102784157,172.0158997,0.833040476,-0.798215508,11.47159195,32.79918289,-39.31824493,13.14723015
1.6582669999999666,27.21215248,7.790697575,171.9465179,-2.550767899,-0.443755358,8.342551231,30.60859108,-37.11811829,9.386407852
1.6666000000000167,27.45405006,7.452708244,171.8783875,1.858953118,-1.632447124,15.78816986,28.26659775,-40.01232529,11.22904873
1.67493300000001,27.63787842,7.100594521,171.7713013,-3.649612904,-0.294901878,10.41520786,21.82777786,-43.38154984,7.913866997
1.6832660000000033,27.84158325,6.80988884,171.7171936,0.934862316,-1.21138382,11.95507717,23.38701248,-34.13697815,10.33871651
1.6915989999999965,27.97613716,6.417054653,171.5662384,-2.101148367,-0.591198623,14.3335743,16.38323593,-50.10327148,5.841468334
1.6999319999999898,28.13186455,6.101572514,171.4953003,-2.255778074,-0.679303288,9.430750847,17.76985168,-37.65102386,10.14299679
1.708264999999983,28.24734879,5.781022072,171.3673706,-0.384114087,-0.797966421,12.663867,13.60615063,-41.14432907,4.392925262
1.7165979999999763,28.33021164,5.398798466,171.2434235,-1.00429225,-0.511190355,14.51329803,9.545010567,-47.66702271,8.506069183
1.7249309999999696,28.41959763,5.173165798,171.1450653,-2.042340994,-0.575111926,12.9499836,9.983260155,-29.43883705,2.209127188
1.7332639999999628,28.44628334,4.754288673,171.0054016,-1.784016371,-0.643200576,11.71652794,2.805969715,-52.4140625,9.055551529
1.741597000000013,28.52902985,4.564137936,170.9176331,-1.283612609,-0.87170738,9.52898407,8.96442318,-25.10010719,1.341930509
1.7499300000000062,28.53236008,4.195869923,170.7903137,-1.086899042,-0.954247236,15.0469923,-0.279976934,-46.36225128,7.530062675
1.7582629999999995,28.56035805,4.001540661,170.6901093,-2.694713354,-0.575301349,10.22348595,2.406253576,-26.25989532,0.293744206
1.7665959999999927,28.53992081,3.764625788,170.6374817,-2.600776196,-0.826103568,15.95935154,-3.871863127,-28.24587631,7.859426022
1.774928999999986,28.50900078,3.55962491,170.53302,-1.088543296,-0.153622389,7.308591843,-4.710038185,-27.63781548,0.449043423
1.7832619999999793,28.48812294,3.419075489,170.5049591,-2.300037622,-1.16145885,14.53839684,-4.14688158,-16.68774223,4.898621559
1.7915949999999725,28.4283123,3.285543203,170.4460297,-2.030637741,-0.170218781,9.954427719,-8.559090614,-17.51029587,1.126002312
1.7999279999999658,28.35970306,3.181418896,170.4225006,-1.320621133,-0.852666676,14.88494015,-9.919281006,-12.59412479,3.265661716
1.8082610000000159,28.29306412,3.082739353,170.3948517,-1.697810411,-0.275177747,9.422307968,-9.602048874,-12.0606308,2.404741764
1.8165940000000091,28.20554733,3.007789373,170.3666992,-1.606979966,-0.395583689,12.15045738,-12.17039013,-9.781656265,1.08988595
1.8249270000000024,28.14231873,2.960010767,170.3763885,-1.307649374,0.616774976,11.03185654,-9.424386024,-4.578122139,3.437609911
1.8332599999999957,28.03230476,2.895797014,170.336731,-1.403874755,-0.755236447,15.30084705,-14.80668068,-9.298056602,-0.759372413
1.841592999999989,27.95110512,2.830297232,170.3486633,-1.486355782,0.147167727,9.379357338,-11.58536053,-6.349245548,4.661305428
1.8499259999999822,27.841362,2.802964926,170.319046,-1.07884407,0.169218749,11.85473156,-14.84062195,-4.821509361,-1.799541235
1.8582589999999755,27.74473572,2.743798971,170.3295288,-2.089850187,-1.023421884,9.346057892,-13.42469215,-5.78447628,4.135751724
1.8665919999999687,27.6164875,2.736269236,170.306427,-1.113775849,0.068119317,16.97938156,-17.10428047,-2.347302198,-2.22683835
1.874924999999962,27.45590019,2.707666874,170.3379211,-3.905767441,-0.681059062,7.063902855,-21.21055412,-1.391891003,4.655901909
1.883258000000012,27.29379463,2.734465837,170.3253174,0.746866167,-0.308862388,13.96680546,-21.22968864,1.897682548,-3.017217398
1.8915910000000054,27.11353683,2.77428627,170.3749847,-4.78570509,-0.570785105,7.518442631,-23.67311287,6.870382786,2.836855173
1.8999239999999986,26.9044838,2.791764259,170.3678894,0.711416483,-0.554683626,17.46753502,-26.89328957,1.218649387,-1.907224655
1.9082569999999919,26.66517067,2.900569677,170.4521332,-4.140595913,-0.615031481,7.191421032,-30.96996689,16.09508133,2.860780478
1.9165899999999851,26.41131783,2.934201479,170.4397583,1.990853667,-0.069425993,11.67133617,-32.23550415,2.6862185,-3.325486183
1.9249229999999784,26.16483498,3.063693047,170.5106201,-3.601726055,-0.536836028,10.58293533,-31.76914024,17.57616043,0.468215883
1.9332559999999717,25.87725449,3.07867384,170.4998779,1.406459332,-0.177716434,12.92943764,-36.29141998,0.789726198,-2.138611555
1.941588999999965,25.60250664,3.199207306,170.5569305,-2.577446222,0.692977667,8.767237663,-35.0871582,15.87293148,-0.383432776
1.949922000000015,25.341856,3.227328539,170.5385437,1.15849328,0.483790398,9.115278244,-33.00465012,1.836619139,-3.635674715
1.9582550000000083,25.08306122,3.29523778,170.5677795,-2.497048616,1.51316762,15.26808643,-32.99983597,8.735974312,-0.556789994
1.9665880000000016,24.82148552,3.334258795,170.5591431,-0.06485828,0.328725904,7.961027145,-33.17657852,3.547139406,-3.107637167
1.9749209999999948,24.59523773,3.387364388,170.5699005,-2.216973305,1.284464478,9.512904167,-28.96848297,6.193603992,-1.741346836
1.983253999999988,24.39898682,3.438352108,170.5671692,0.557345808,0.728427589,11.20821667,-25.37917328,5.168955326,-3.029896736
1.9915869999999813,24.21910286,3.466549158,170.5636444,-2.519243717,1.347560406,11.37466908,-23.30303383,2.770052671,-2.023128271
1.9999199999999746,24.0699234,3.496250153,170.5549164,0.475393265,1.604488373,11.96623611,-19.68704605,2.562833548,-2.607901573
2.008252999999968,23.98488617,3.563941002,170.5555878,-3.515090227,1.205273747,4.569420815,-11.94974613,7.305257797,-3.474891424
2.016586000000018,23.92078781,3.554897547,170.5378265,1.567462444,1.411942959,17.56238937,-9.405380249,-2.116593838,-1.697852254
2.0249190000000112,23.87110138,3.555908203,170.5095978,-1.306059718,0.97080034,7.926589489,-7.494302273,-1.409282327,-3.379170656
2.0332520000000045,23.88089371,3.553200722,170.4759674,-0.931546628,1.825869799,10.12362957,-0.420931578,-2.190644741,-3.74783659
2.0415849999999978,23.8996315,3.50935173,170.4477997,-0.593368351,0.491288394,12.66166115,0.713279605,-6.334617615,-1.189435363
2.049917999999991,23.92447662,3.49032402,170.420578,-2.182229042,0.672638834,7.404146194,1.333989263,-3.67032814,-2.25073576
2.0582509999999843,23.9611969,3.444714546,170.386795,0.634263098,-0.090813763,13.69408226,2.907088041,-6.808251381,-1.711018205
2.0665839999999776,24.00557899,3.423933983,170.3431396,-2.365118742,0.93231672,8.298675537,3.792956114,-4.664160728,-3.957155943
2.074916999999971,24.04829025,3.386267185,170.3099365,0.058430601,-0.107910909,16.46688271,3.617806196,-5.917618752,-2.022948265
2.083249999999964,24.06993294,3.331061125,170.2525482,-0.94970417,-0.022930242,7.430674076,1.156072974,-9.113814354,-3.772042036
2.091583000000014,24.10451889,3.326869488,170.2194977,-2.444326162,0.827656686,12.37585068,2.635115623,-2.2477386,-3.64133215
2.0999160000000074,24.10280228,3.264321566,170.1576233,0.880703807,-1.288612247,12.25404263,-1.626286268,-10.14015198,-3.895016193
2.1082490000000007,24.09698486,3.257570982,170.1298828,-3.115429878,0.705722451,11.45196152,-2.252067804,-2.274121523,-2.930025578
2.116581999999994,24.04136086,3.206062078,170.066864,0.53981781,-0.80477494,11.84405613,-8.096801758,-8.983874321,-4.567851067
2.1249149999999872,23.99457741,3.251936436,170.0598907,-3.798186779,-0.126234442,8.599155426,-7.307318211,4.506645679,-3.230300903
2.1332479999999805,23.86351967,3.186352015,169.9925995,1.642503738,-1.332136989,16.33595657,-17.12209892,-10.72568321,-4.371429443
2.1415809999999738,23.72862816,3.258862734,169.9805145,-4.289749622,-0.22935994,7.341574669,-17.84965515,7.190660954,-5.060669422
2.149913999999967,23.55337906,3.244220495,169.9298553,0.036884844,-0.758363426,12.22080135,-22.53353119,-4.305152893,-5.0499897
2.158247000000017,23.35575485,3.34487462,169.9301453,-3.179700851,-0.163669869,12.25531387,-25.45942879,10.9028616,-4.996303558
2.1665800000000104,23.11801338,3.379246473,169.8860474,1.232673168,-0.78274864,10.20280743,-30.06802559,1.442723036,-6.677957058
2.1749130000000036,22.86893463,3.461437941,169.8569641,-3.346355915,0.556162894,12.70019817,-31.4270668,7.524419308,-7.277663231
2.183245999999997,22.60318565,3.576166868,169.8471527,-0.914110363,-0.523518264,7.77589035,-33.66732407,11.98132801,-6.600859642
2.19157899999999,22.30846786,3.670109987,169.8361816,-2.486050606,-0.195706457,13.51557446,-37.02705383,9.717617989,-5.733638763
2.1999119999999834,21.9671154,3.793135405,169.8278351,0.029181376,-0.910330653,11.64653301,-42.74681091,13.03643894,-6.684443474
2.2082449999999767,21.61864471,3.964636803,169.8231354,-2.956776142,0.04181578,9.17276001,-43.52737045,18.6966362,-8.376858711
2.21657799999997,21.22330284,4.062914848,169.8204956,0.562193513,-1.692960501,14.36708736,-49.26900101,10.60101318,-4.795136452
2.2249109999999632,20.79385376,4.271130562,169.8237457,-2.785489559,-0.188466698,7.652010441,-53.3122139,23.2587204,-8.805496216
2.2332440000000133,20.3421402,4.423159599,169.8169861,-0.545876145,-0.533237696,11.99122238,-55.99592972,16.53460503,-7.36330843
2.2415770000000066,19.86255264,4.644416332,169.8166046,-1.914102435,0.441310287,12.16994286,-59.29943848,24.70770836,-9.37757206
2.24991,19.34173203,4.808750153,169.8150024,-0.965445876,-0.976869702,9.828927994,-64.33433533,18.24983025,-6.991625309
2.258242999999993,18.78306007,4.995592594,169.7993164,-0.571209669,-0.003899779,10.80877972,-68.63294983,20.36597061,-9.300609589
2.2665759999999864,18.20622826,5.19017458,169.7909241,-0.542024732,-0.269513935,9.223124504,-70.98432159,21.56390762,-8.555080414
2.2749089999999796,17.58377266,5.328984261,169.7484436,-1.323339343,-0.642863274,14.35888004,-75.98458099,14.07742691,-10.14929867
2.283241999999973,16.93012047,5.529883862,169.7338257,-1.434398532,-0.069260471,11.22879028,-80.12567902,22.24220657,-9.014819145
2.291574999999966,16.25017738,5.686862469,169.6771698,-1.805270195,0.230022907,7.395740509,-82.68801117,15.90439129,-12.06211472
2.2999080000000163,15.5355711,5.85169363,169.6555634,0.060301669,-0.497282773,17.12039185,-87.34611511,18.05521774,-8.093681335
2.3082410000000095,14.76699257,6.006049633,169.5890503,-1.544245481,-0.355878055,8.300327301,-93.17015076,15.58454227,-12.70275116
2.316574000000003,13.99340153,6.166100502,169.547287,-1.442021966,0.84462136,12.47239685,-94.15597534,17.10435104,-9.792593002
2.324906999999996,13.20798111,6.344763279,169.4988098,-1.66630888,-0.086005613,8.129408836,-95.38331604,19.2561245,-10.85951614
2.3332399999999893,12.39693832,6.466349125,169.4480286,-0.554531157,0.106695279,13.37133884,-98.50016022,12.6237278,-9.332514763
2.3415729999999826,11.56527901,6.591739655,169.3752136,-0.037987906,0.71055311,11.90289497,-100.5750427,12.69486427,-11.81104946
2.349905999999976,10.76951981,6.770421028,169.3209076,-2.540181637,1.48489666,6.13928175,-96.58712769,19.51916313,-10.69832516
2.358238999999969,9.990301132,6.866043568,169.252121,-1.151260614,0.7535882,13.77332497,-94.30149841,9.584898949,-10.32214642
2.3665719999999624,9.203665733,7.040640831,169.1857452,-2.368393898,2.739583254,12.4238863,-95.28799438,19.07797623,-11.48527622
2.3749050000000125,8.461794853,7.197782516,169.1260376,0.295464694,0.523091376,7.130652428,-89.91527557,17.31291962,-10.11379242
2.3832380000000057,7.779022217,7.320141792,169.051712,-2.673368692,1.966680646,9.380191803,-82.65997314,13.02440739,-11.0283165
2.391570999999999,7.12560463,7.451727867,168.9860992,-0.176916316,2.230424643,13.20054436,-79.17965698,14.41444302,-9.978096008
2.3999039999999923,6.481272221,7.607588768,168.9227753,-1.610455394,1.370045424,8.483017921,-78.17828369,17.41688538,-9.891980171
2.4082369999999855,5.886003971,7.796138287,168.8677826,-1.068701863,0.605195224,9.105599403,-72.33374786,21.55855942,-9.128127098
2.416569999999979,5.362114429,7.981492043,168.7877502,-3.131395102,2.2089746,6.731966496,-63.39983749,20.94061852,-11.84129238
2.424902999999972,4.886940002,8.193019867,168.7452393,-1.298855901,2.161282539,13.92560577,-58.09417343,24.59649086,-7.491741657
2.4332359999999653,4.381165504,8.403437614,168.6564484,-2.175688505,1.447725415,11.79297733,-61.00708771,24.05391121,-12.74342728
2.4415690000000154,3.898037195,8.636788368,168.6166992,0.053151868,0.767020583,9.852108955,-59.06322861,27.35290337,-6.915908337
2.4499020000000087,3.428415298,8.840610504,168.5144653,-0.702551663,-0.32785511,5.055172443,-56.34243393,23.37104416,-13.85935879
2.458235000000002,3.046953201,9.105194092,168.4550323,-3.174815416,0.909054935,7.163674355,-46.46049118,31.06594849,-9.015119553
2.466567999999995,2.615203142,9.321359634,168.3717804,-0.862517595,0.39127177,14.4878521,-52.06171799,25.15817261,-11.32673836
2.4749009999999885,2.139886379,9.569478035,168.2918396,-0.249682069,0.332029015,13.5711689,-57.26315689,29.11824417,-10.87990475
2.4832339999999817,1.637525797,9.821138382,168.1932983,-1.07979238,-1.231910348,6.475131035,-60.14426804,29.53717422,-12.84007072
2.491566999999975,1.123723388,10.03412914,168.1109924,-2.593511343,-0.461435854,12.4485302,-61.75595474,25.07759285,-10.52855778
2.4998999999999683,0.535449803,10.29037762,168.0086517,0.264925003,-0.654498816,13.15025806,-70.2797699,30.31048203,-12.72717857
2.5082329999999615,-0.098679096,10.46371937,167.9101715,-0.595559776,-1.423796177,5.747487545,-75.77277374,20.51765633,-11.89161777
2.5165660000000116,-0.756014407,10.64613056,167.8171082,-0.802526593,-0.303052455,14.80087376,-78.68839264,21.70788765,-11.01156235
2.524899000000005,-1.515200377,10.80512905,167.7115784,0.37792933,-1.634698749,10.05068588,-90.5568924,19.08280182,-12.24752712
2.533231999999998,-2.30188179,10.844944,167.5986633,0.625129521,-1.433615208,7.452967167,-93.71250153,4.957033634,-13.33732128
2.5415649999999914,-3.150928974,10.9800272,167.4821014,-1.113394737,-0.649054646,15.44400501,-101.0521622,16.60404587,-13.13365555
2.5498979999999847,-4.100767612,10.88378716,167.3705902,1.077732921,-1.509708643,10.07589149,-113.3004608,-10.95624542,-14.03813553
2.558230999999978,-5.088881493,10.88494968,167.2510681,-1.86742866,-0.440931171,8.999500275,-117.6834793,1.028859735,-14.21729088
2.566563999999971,-6.106599331,10.8232069,167.1209717,0.584443569,-0.700477242,11.19915771,-121.0452042,-6.140542507,-16.17479515
2.5748969999999645,-7.202489376,10.6190443,167.0194855,0.219826803,-0.92978394,17.25600243,-131.0635681,-23.18681908,-14.91055107
2.5832300000000146,-8.32509613,10.54005337,166.9018402,-2.945834637,-0.027732976,5.263991356,-133.9795227,-7.779283524,-15.22820091
2.591563000000008,-9.473613739,10.32489967,166.8026123,0.758871973,0.09756282,13.1295948,-137.4896851,-23.93690681,-15.74907303
2.599896000000001,-10.63601208,10.13741875,166.7143402,-0.449576378,0.267492533,11.36377144,-139.4655457,-20.59417152,-14.38737392
2.6082289999999944,-11.79149055,9.896402359,166.6448212,-1.682552338,1.836370707,12.17151165,-139.0353241,-27.01318932,-13.8667326
2.6165619999999876,-12.95902157,9.683107376,166.5809326,-1.209311962,0.563475966,10.90346432,-140.6581879,-23.64281464,-13.06427765
2.624894999999981,-14.07015133,9.512607574,166.5093689,-2.444338083,0.831137419,7.872925758,-133.7335968,-18.15703392,-13.20029259
2.633227999999974,-15.18622589,9.238705635,166.4758301,-0.493817359,1.937137246,16.00753403,-135.1322479,-31.06210518,-12.33821678
2.6415609999999674,-16.31067276,9.053629875,166.4176483,-1.441298127,0.829868793,13.35109806,-135.6565094,-19.74620438,-12.85127449
2.6498940000000175,-17.37873268,8.861682892,166.374649,-1.557867408,1.459714293,5.84727478,-129.2220306,-20.83011055,-11.74662304
2.6582270000000108,-18.3941021,8.677334785,166.3515778,-1.691762328,2.169901133,13.36205769,-123.2583466,-20.45459366,-9.588527679
2.666560000000004,-19.41874123,8.464939117,166.315567,0.143772885,1.872264385,15.58979988,-124.1701889,-22.99039459,-12.49722099
2.6748929999999973,-20.37047005,8.349732399,166.2766113,-3.238244057,1.834438086,4.373651505,-115.3642197,-11.66974163,-9.237896919
2.6832259999999906,-21.23062134,8.147156715,166.2598114,-0.004680723,2.465862274,10.96372128,-104.7835846,-22.27758026,-10.69393635
2.691558999999984,-22.04524231,7.968488216,166.2440948,-2.308937788,2.838258982,14.14825344,-99.33113098,-19.48757744,-9.829922676
2.699891999999977,-22.8125248,7.796724319,166.2395172,-0.339622289,3.351130009,10.38367939,-93.85253143,-19.10569763,-8.564764977
2.7082249999999704,-23.49829674,7.630217075,166.2358246,-1.545154214,2.230979443,9.667666435,-84.07739258,-18.44376564,-8.445413589
2.7165579999999636,-24.06770706,7.471785545,166.2281647,-1.68440187,2.179153681,8.449276924,-70.06292725,-17.29226112,-8.695189476
2.7248910000000137,-24.56421471,7.300829411,166.2538605,-1.267985225,3.862282991,12.05806637,-61.82229614,-20.19993591,-5.847789764
2.733224000000007,-25.00861359,7.130556107,166.2657166,-1.037661672,3.227628946,13.53132534,-55.35871124,-19.40475082,-7.480443001
2.7415570000000002,-25.38443565,6.98457098,166.302536,-1.304299951,1.733021736,10.19961357,-47.48973083,-17.96605682,-3.678352833
2.7498899999999935,-25.68436432,6.867901802,166.2996826,-1.953202009,1.781739354,9.556960106,-37.8004303,-12.74792862,-6.539003849
2.7582229999999868,-25.90966415,6.746117115,166.3169403,-2.072827339,1.747914433,9.991615295,-29.13336372,-14.30086422,-4.697949409
2.76655599999998,-26.09482765,6.596826077,166.3497162,-0.977239013,1.887336731,10.99677181,-24.5250721,-18.07606888,-4.537757397
2.7748889999999733,-26.26889992,6.513570309,166.3366699,-2.493497372,2.083987236,13.44062424,-22.5626812,-8.527482986,-5.995052814
2.7832219999999666,-26.39395142,6.397642612,166.3562927,0.261498272,0.199008286,9.385176659,-17.11821747,-13.76766968,-4.269882202
2.7915550000000167,-26.47977829,6.331579208,166.345993,-3.743010283,0.73257935,9.134925842,-12.01567745,-6.801130772,-4.817615509
2.79988800000001,-26.55089378,6.247655869,166.3427887,0.111899786,1.298863769,15.48318291,-10.33786774,-9.102108002,-5.034465313
2.808221000000003,-26.63158607,6.16146183,166.3550262,-2.004211426,1.158167839,11.44162941,-11.69967747,-10.15334511,-3.512596369
2.8165539999999964,-26.67628098,6.152582169,166.319931,-1.808593631,0.845684946,10.40232754,-6.758483887,0.663050234,-4.414754868
2.8248869999999897,-26.68427849,6.07151413,166.3177338,-1.40516603,0.239024475,9.456976891,-2.792656183,-8.824655533,-4.794895649
2.833219999999983,-26.67960167,6.059032917,166.3114929,-1.918100357,1.622877359,12.69135761,-1.206007957,-1.265612245,-1.533152938
2.8415529999999762,-26.70779037,5.997852325,166.2971649,-0.236195326,-0.079504408,14.28737068,-5.065945625,-6.043179989,-5.019301891
2.8498859999999695,-26.70744705,6.026299953,166.2602997,-3.168540716,-0.069621012,5.474834919,-1.341968179,4.763812065,-2.590303421
2.8582189999999628,-26.67363167,5.979957104,166.2611694,0.184794351,0.968425751,13.60116386,2.185560465,-5.268323421,-2.596912146
2.866552000000013,-26.67727089,6.011807919,166.2315216,-3.3132236,0.643349051,12.00283813,-1.912474155,4.743807793,-1.641987681
2.874885000000006,-26.68653679,6.059247971,166.190506,0.444009632,-1.094381213,11.81542397,-2.461233616,7.030314445,-2.007554293
2.8832179999999994,-26.70331764,6.093520164,166.1701202,-3.321775913,0.157796681,8.303010941,-3.600323915,4.50541544,-0.523747027
2.8915509999999927,-26.71307755,6.161228657,166.1064606,-0.938426793,0.7204898,14.83828068,-2.222636938,10.41743755,-3.322127819
2.899883999999986,-26.7548008,6.247465134,166.0665131,-2.16233778,-0.678305745,9.525593758,-6.334619522,11.12462425,0.20391497
2.908216999999979,-26.7753315,6.359855175,165.9950409,-1.820307374,0.333613575,10.94927216,-3.390979528,15.62724781,-1.734353065
2.9165499999999724,-26.834795,6.414253235,165.9503021,-1.307292342,0.108081959,14.59580898,-8.385525703,7.970356941,-2.013650656
2.9248829999999657,-26.88342094,6.56548357,165.8555298,-1.514159918,0.126045629,10.85190582,-6.41930151,21.03964233,-2.075560808
2.933216000000016,-26.93690872,6.622639656,165.8139648,-1.433650851,0.577555418,10.48462391,-7.692352295,8.097710609,-1.511431932
2.941549000000009,-26.9857235,6.736438274,165.7380981,-0.881701171,0.484810799,12.58861446,-6.669910431,16.01643372,-2.06288147
2.9498820000000023,-27.0223732,6.808094501,165.682724,-0.184108555,-0.360533535,9.863574028,-5.462275028,10.39407921,-2.168283701
2.9582149999999956,-27.05578232,6.859961987,165.6573181,-1.558663607,0.568164408,12.1565733,-5.518573284,6.667283058,-0.062409081
2.966547999999989,-27.09771347,6.919907093,165.6056519,0.598879278,-0.260668159,12.16496944,-6.136210918,8.944185257,-2.400886536
2.974880999999982,-27.11501503,6.951525688,165.5968323,-2.659684658,0.477799565,6.985377789,-3.822526932,3.602846622,0.596734762
2.9832139999999754,-27.13276863,6.990722656,165.570694,1.188250422,0.360581398,17.31418037,-3.595124722,5.342360973,-0.82133323
2.9915469999999686,-27.1665287,6.955667496,165.596756,-1.408047438,-0.435274035,9.303198814,-6.30485487,-5.41391468,0.650832117
2.999879999999962,-27.1752739,6.92572403,165.5941467,-0.040295277,1.064973712,11.07769299,-2.856359005,-3.316646576,-2.113315344
3.008213000000012,-27.17101669,6.860550404,165.6459198,-0.821239352,-0.538323879,10.0137167,-2.114109516,-10.02806377,1.718126178
3.0165460000000053,-27.1768589,6.768202305,165.6979523,-1.019670367,0.755210757,13.00958061,-3.286422014,-12.95203114,0.258831859
3.0248789999999985,-27.18242264,6.668365479,165.7719879,-0.244276792,-0.747942686,11.98494148,-3.584648848,-14.9420023,2.182154179
3.033211999999992,-27.17353249,6.54658699,165.8298035,-1.760474563,0.905569255,8.228368759,-1.577542782,-16.40931702,-0.740751028
3.041544999999985,-27.15818405,6.43063736,165.918396,-1.448661447,-0.148857847,17.00833511,-1.236386657,-17.456707,2.852324963
3.0498779999999783,-27.1590519,6.323100567,165.9745026,-1.299100041,0.440724373,6.729734421,-2.699471712,-14.79815292,-0.133155614
3.0582109999999716,-27.13761139,6.193667889,166.050766,-1.924937963,-0.244037226,15.19639206,-0.301518023,-18.22559547,0.813738823
3.066543999999965,-27.12851143,6.112805367,166.0683136,-1.398549318,-0.01747839,9.662571907,-0.980756283,-9.852297783,-2.757513523
3.074877000000015,-27.11455917,5.993360519,166.1423492,-3.69923377,-0.414496779,13.60912895,-1.143381357,-17.0394268,1.131790996
3.083210000000008,-27.12940979,5.949215412,166.1454468,-0.154748097,0.490531445,11.67394543,-3.668586016,-5.14621973,-2.281446934
3.0915430000000015,-27.13433075,5.89456749,166.1787872,-4.88685751,-0.818138659,8.571003914,-2.886557579,-7.904949188,0.354116797
3.0998759999999947,-27.15308952,5.868168354,166.1938171,1.037626028,0.278647751,17.50832748,-4.280612469,-3.900240898,-0.04371069
3.108208999999988,-27.19927597,5.89868784,166.196579,-6.255719185,-0.875267863,6.484901428,-7.462080002,2.853271961,1.76853478
3.1165419999999813,-27.21911812,5.902617455,166.1917725,2.623018026,0.335664779,11.96596432,-4.16757679,0.419535577,-0.490243614
3.1248749999999745,-27.25622368,5.940252781,166.1827087,-5.272736073,0.51464659,11.8782196,-6.224170208,4.254498959,0.90840888
3.133207999999968,-27.27886963,5.95337534,166.1790924,2.522879362,-0.37756601,10.3395586,-4.519030094,1.336269259,0.141160056
3.141541000000018,-27.29067993,5.979710102,166.1606445,-4.110146046,0.791132987,10.65377045,-3.072850466,3.561121225,-0.703840733
3.149874000000011,-27.29050636,5.986787796,166.1428528,2.425652981,-0.267658025,9.574141502,-1.602388144,1.466619849,-1.693421245
3.1582070000000044,-27.27609825,5.980521202,166.1387329,-4.268301487,0.538609087,13.90662193,-0.106901005,-0.698897183,-0.976222634
3.1665399999999977,-27.28735733,5.970956802,166.1273193,1.206041813,-0.474329323,9.185910225,-3.054177284,-0.658401072,-1.932837248
3.174872999999991,-27.24627876,5.978841782,166.1085358,-3.942624092,0.895245016,9.024261475,3.27577877,1.611596346,-1.754357219
3.183205999999984,-27.22801399,5.936779022,166.1173096,0.511776388,0.176170185,14.44716358,0.236035198,-5.22859621,-1.575646877
3.1915389999999775,-27.1903286,5.944857121,166.1003265,-3.492249727,-0.250237107,10.53582764,2.844128132,1.531705856,-1.555258155
3.1998719999999707,-27.16718292,5.905286789,166.1196136,-0.194612101,0.181573987,8.731629372,0.692865014,-5.537785053,-0.316553503
3.208204999999964,-27.10393333,5.921165943,166.0897064,-1.938123941,-0.468384355,9.90486145,6.07159853,3.065921545,-2.503394604
3.216538000000014,-27.06211472,5.865059853,166.1290741,-0.95153147,-0.09173619,14.12998867,2.68742013,-8.394054413,0.921625853
3.2248710000000074,-27.00196075,5.871333599,166.1051331,-1.86831069,-0.118060417,8.352487564,5.62122345,1.710646629,-2.402909994
3.2332040000000006,-26.93959236,5.839262486,166.1390076,-1.190432549,-0.522403002,10.28764153,5.225125313,-5.525490284,1.662799478
3.241536999999994,-26.87381935,5.838964939,166.1051636,-1.292354345,0.029350061,11.74192047,6.419081688,1.538903475,-3.816201448
3.249869999999987,-26.82961655,5.810866833,166.1387939,-1.545876145,-1.067480206,14.94700146,3.049758911,-5.08395195,1.862385511
3.2582029999999804,-26.7810936,5.787513256,166.1271973,-2.416394949,-0.350826114,6.617284298,4.07125473,-2.134652138,-2.697704315
3.2665359999999737,-26.73198318,5.775925159,166.1498108,0.130978391,-0.256136239,11.95537567,3.774411201,-2.718477011,1.59018302
3.274868999999967,-26.69288254,5.716394901,166.1491394,-2.64885211,-0.753159285,10.9069519,2.808217049,-6.603517056,-3.483344555
3.283202000000017,-26.64528084,5.732445717,166.1581879,-1.088937163,0.157147169,14.93527889,3.756891489,0.973443508,1.636980295
3.2915350000000103,-26.62444687,5.674357414,166.1728516,-2.422143221,-0.088505916,8.639564514,0.431420594,-7.272893906,-1.76042819
3.2998680000000036,-26.56079865,5.710356236,166.1616211,0.476870954,-1.266749978,10.52321625,5.92613554,4.200324535,0.540716529
3.308200999999997,-26.52075958,5.63524437,166.1840668,-2.610405207,0.415620506,11.40995026,2.64738512,-9.520005226,-1.829663396
3.31653399999999,-26.4607563,5.678364277,166.1672516,-0.842365384,-1.202483058,11.35248566,5.553398132,5.264622688,0.31454286
3.3248669999999834,-26.42009163,5.637273788,166.1988525,-0.994086623,-0.507390857,12.71337795,2.615546227,-6.352906227,0.98619926
3.3331999999999766,-26.36242104,5.6360569,166.2027435,-1.80357945,0.106335372,6.450634956,5.027920723,-0.600000679,0.155580863
3.34153299999997,-26.31855774,5.595937729,166.2138977,-0.67221266,-1.675342441,15.16987705,3.24063611,-5.163843155,-1.141690493
3.349865999999963,-26.27596855,5.545228004,166.2424011,-3.236362457,-0.270044148,7.246858597,2.933752298,-7.225661278,0.161446542
3.3581990000000133,-26.20645332,5.559639454,166.2197571,-0.618295252,0.04739549,13.53075981,6.711006165,2.487987041,-1.863294601
3.3665320000000065,-26.15681839,5.46237278,166.2686157,-1.945022464,-0.645152092,11.99929619,3.547930479,-13.31111622,-0.107285231
3.374865,-26.07099342,5.515109539,166.234314,-1.123827696,-0.464933574,9.210823059,8.799386024,7.224366188,-1.091921926
3.383197999999993,-26.00510788,5.444042683,166.2951508,-1.087265849,-0.007430237,11.46442795,5.364799976,-11.11254501,2.589394808
3.3915309999999863,-25.87452888,5.502623558,166.2749329,-1.903755426,-0.07230638,8.507786751,14.00858116,7.11740303,0.704827011
3.3998639999999796,-25.71186829,5.490639687,166.3318939,-1.452428818,1.013763785,14.6722374,17.01853561,-4.518261909,5.305861473
3.408196999999973,-25.47480202,5.55530262,166.3391266,-3.25241971,1.638094664,4.738622189,26.47443008,6.364834309,3.930891275
3.416529999999966,-25.15425682,5.618904114,166.3706207,-1.038590074,2.306741953,13.45216084,36.25532913,5.029438496,6.468832016
3.424863000000016,-24.75860023,5.685125351,166.3898163,-1.290778518,2.34875226,9.17572403,45.36107635,5.976836681,5.232101917
3.4331960000000095,-24.2579937,5.815243721,166.41922,-3.266396284,2.058775425,10.75365257,57.87969971,12.48887444,9.474914551
3.4415290000000027,-23.66178513,5.921329498,166.4605255,-0.282039285,1.497144461,7.689714432,69.14987183,9.371188164,9.476719856
3.449861999999996,-22.94137573,6.159901142,166.4750214,-5.02490139,3.375258446,7.762784004,84.42737579,25.34687042,12.71809292
3.4581949999999892,-22.15657616,6.307946205,166.5304108,1.290359616,0.711475909,16.49519348,91.56890106,13.61145687,12.71203136
3.4665279999999825,-21.28244209,6.605453014,166.5367279,-5.850786209,3.039302111,6.458089352,102.9719238,32.62537384,13.71866798
3.4748609999999758,-20.29430962,6.831813812,166.568985,-0.0662058,2.114214182,10.39599323,116.2379608,23.76869583,13.03130341
3.483193999999969,-19.23047066,7.147445202,166.5864105,-3.63117218,1.591557622,8.752733231,125.5710754,34.68178558,14.56688309
3.4915269999999623,-18.09556961,7.422791004,166.6061249,1.230327964,1.184181929,11.59969044,134.0051117,30.29062653,12.5961647
3.4998600000000124,-16.88514709,7.682828426,166.6199799,-4.106717587,3.049886227,9.059510231,143.1996002,29.00392723,10.75562
3.5081930000000057,-15.60022736,7.979588985,166.660202,-0.693083405,-0.334730983,11.32192421,151.65065,32.59125137,14.34963322
3.516525999999999,-14.27194691,8.278817177,166.6810455,-2.088037968,1.615601182,10.33803844,157.2086182,33.7937851,11.45195103
3.524858999999992,-12.92054844,8.517776489,166.7264252,0.783877254,1.161813021,11.4777832,159.4938202,26.3437233,11.7722683
3.5331919999999855,-11.49140739,8.783216476,166.7649384,-2.359115124,1.151548982,12.76947117,168.9716187,29.90498924,11.00498104
3.5415249999999787,-10.06385326,8.981253624,166.855957,-1.234155297,-0.344105959,11.45835781,167.7415771,21.06565475,14.84397888
3.549857999999972,-8.575588226,9.225322723,166.9285126,-0.200167239,1.81391871,6.340410233,175.3845367,27.24677849,13.03145313
3.5581909999999652,-7.085196495,9.407572746,167.0376587,-1.078914046,-0.02232863,9.90960598,174.8500061,19.64417458,15.5819006
3.5665240000000153,-5.524037838,9.565520287,167.1616058,-1.314954638,0.775942087,13.84746552,183.0580444,16.96599388,16.46627045
3.5748570000000086,-3.960637093,9.767033577,167.3072205,-2.029696941,1.208294392,9.947234154,182.800354,22.41313362,18.96397018
3.583190000000002,-2.396732092,9.88153553,167.4303131,-0.295009553,-1.258690953,8.162995338,183.3188782,12.65086651,15.09907055
3.591522999999995,-0.790017605,10.02540207,167.5776825,-0.22057265,0.586842179,16.92468452,187.8783722,16.51122665,17.68823814
3.5998559999999884,0.739791036,10.10899544,167.7154083,-1.99802196,-0.502709031,12.97774696,178.8591766,9.762939453,16.0823307
3.6081889999999817,2.29139328,10.11371899,167.8567047,0.93981266,-1.36834681,8.618282318,181.3454742,0.746318161,16.46805191
3.616521999999975,3.832170725,10.13301277,167.9862518,-0.459921151,-0.467015624,11.64830589,180.3318176,2.867954969,14.96257782
3.624854999999968,5.277372837,10.07636356,168.1257019,-1.585732579,-1.97999537,10.18396187,168.6186218,-5.728960037,16.76035309
3.6331879999999614,6.736418247,9.960427284,168.2463074,1.728004694,-2.186665535,10.66389179,170.7383575,-12.60769272,15.43323612
3.6415210000000116,8.159588814,9.834281921,168.3666229,-1.835603714,-0.526785731,16.88904953,166.4306641,-13.42660809,15.86264706
3.649854000000005,9.476509094,9.698163033,168.4773712,-1.592276931,-1.417477965,11.64793015,153.9431915,-14.39500809,15.25057793
3.658186999999998,10.74969959,9.496362686,168.5626221,0.193092585,-2.919644594,10.47541237,149.2112122,-22.3289299,13.98025036
3.6665199999999913,12.01201725,9.27797699,168.6516418,-2.308644772,-1.571400762,12.05516434,147.9034729,-23.87233925,15.30883312
3.6748529999999846,13.21186256,9.167439461,168.7563934,-1.598338366,-1.066096425,12.88501549,140.1033936,-10.49524593,14.8055706
3.683185999999978,14.31526089,8.889855385,168.7972717,0.03017834,-2.890054703,10.90660381,129.8037415,-31.46250153,12.43401146
3.691518999999971,15.40950966,8.751890182,168.8735962,-3.36019206,-2.665084362,8.422674179,128.0403595,-13.93835831,12.79631901
3.6998519999999644,16.4430275,8.521696091,168.9307861,1.291351438,-1.597762704,17.69219398,121.1576233,-24.96406555,13.91043568
3.7081850000000145,17.38820267,8.345555305,168.9874725,-3.56476593,-1.516984105,13.23782158,110.5600357,-18.52356339,12.38631058
3.7165180000000078,18.25560951,8.155031204,169.0584412,-0.132573247,-2.681841612,9.1462183,101.0307388,-19.44890594,14.82537651
3.724851000000001,19.10583878,8.015527725,169.1052094,-3.494826794,-1.17510128,7.891798973,99.37671661,-14.33755398,10.42588139
3.7331839999999943,19.89039993,7.78957653,169.1588287,-0.691501498,-3.148006201,17.05928612,91.42355347,-23.69398499,14.86047363
3.7415169999999875,20.63061142,7.640384674,169.1880341,-0.701481164,-1.429384351,11.1388092,86.49771881,-15.85289955,9.258483887
3.749849999999981,21.29534531,7.471570492,169.2378998,-1.428591847,-1.654255748,15.12051105,77.14199829,-17.05680466,12.59095097
3.758182999999974,21.86619186,7.308969975,169.2541046,-1.094554663,-2.550885201,8.975209236,66.39129639,-17.69437599,8.771170616
3.7665159999999673,22.39307404,7.136000633,169.2702789,-1.481705785,-2.740386963,12.01866722,61.14163589,-18.76266098,9.408859253
3.7748490000000174,22.89488029,6.940816402,169.2722626,-2.138783932,-1.863541722,9.309876442,58.32939911,-21.78412437,9.037757874
3.7831820000000107,23.35875893,6.796886444,169.2785645,0.778880894,-1.604892015,14.46651649,53.73348236,-15.85157967,7.278355598
3.791515000000004,23.73509216,6.580656052,169.2298431,-2.491014242,-2.255010843,15.02371407,43.98432541,-26.3652916,4.844968796
3.7998479999999972,24.05879402,6.52341938,169.2635956,-1.305527925,-2.694816828,10.82588005,36.54015732,-4.912034512,6.264275551
3.8081809999999905,24.32567215,6.284999847,169.1964874,-2.237030268,-1.264972806,12.15481663,31.07080841,-29.63590431,4.230043888
3.8165139999999838,24.62225151,6.23391819,169.2306061,-2.473846436,-2.146494389,7.581323624,33.29973984,-4.154927731,6.047039986
3.824846999999977,24.83336639,6.025057793,169.1740417,1.360694051,-0.989929974,17.98806,24.20527458,-25.84826469,4.155837536
3.8331799999999703,25.03390694,5.992664814,169.1965942,-3.935325623,-0.771505415,7.643265247,21.93908501,-2.652726412,3.885655403
3.8415129999999635,25.18057251,5.832598686,169.1797638,-0.574382067,-1.92285943,14.95838165,15.95998001,-18.50394821,6.135047436
3.8498460000000136,25.37063789,5.791906834,169.1932068,-2.482918739,-0.428158462,6.901034355,20.80028152,-3.992659807,3.34160924
3.858179000000007,25.52020836,5.706337452,169.1923828,-0.855785668,-1.319594383,18.52728844,16.10946274,-9.574180603,4.126198292
3.866512,25.64352608,5.714490891,169.2360535,-3.996161699,-0.513440847,7.32303524,12.43210125,2.873354197,4.086163044
3.8748449999999934,25.74634933,5.649310589,169.2324066,0.263961524,-1.182142854,14.17062092,10.53697968,-7.499015808,2.802043915
3.8831779999999867,25.88254547,5.643965721,169.2496948,-2.975565672,-1.176326156,10.01638222,14.29443455,0.060680136,1.943352103
3.89151099999998,25.96826935,5.625289917,169.2761383,1.06834805,-0.658868313,16.3598423,8.130701065,-0.897125721,3.623671055
3.899843999999973,26.05273819,5.683486462,169.292984,-3.970775843,-0.762509584,6.59291935,8.091691971,6.896839142,-1.45088017
3.9081769999999665,26.14083481,5.660345078,169.3270874,-0.660257816,-1.383795857,14.05071926,8.326522827,-0.963825405,4.683179379
3.9165100000000166,26.25376129,5.763410091,169.3717194,-2.040984392,-0.231457338,10.66455841,11.1733427,13.18713474,-0.874559879
3.92484300000001,26.32265091,5.785593033,169.4042969,-0.70744431,-0.454784811,14.31771278,6.033945084,3.849486589,2.114890337
3.933176000000003,26.41761398,5.920103073,169.4763031,-4.00484848,-0.88718456,5.529049873,8.669704437,18.01644516,0.33480376
3.9415089999999964,26.51362419,5.960413933,169.5140076,1.041719675,-0.301492602,16.97351646,9.216362,6.075133801,1.677963257
3.9498419999999896,26.60986137,6.113661289,169.5871582,-3.931836367,0.055520702,10.80029202,8.779847145,20.09048462,-0.610067368
3.958174999999983,26.66003227,6.18471384,169.6330566,-0.313406408,-0.276960105,10.17489624,3.594548941,9.81542778,0.877466977
3.966507999999976,26.77696037,6.351978779,169.707428,-1.114362121,-1.695529103,10.87433815,11.2127142,21.65413284,-1.296042562
3.9748409999999694,26.85757065,6.427745819,169.775238,-1.535106301,0.703557253,15.44579411,6.936079979,11.50317574,2.920612335
3.9831739999999627,26.94071579,6.589898109,169.8511047,-1.835639358,-0.944939673,6.704219818,7.09916687,21.18236542,-0.933600843
3.991507000000013,27.04825783,6.683533192,169.9316864,0.045375418,-0.40655601,14.04502869,9.957355499,14.11129284,3.266609192
3.999840000000006,27.14599419,6.863041401,170.0106506,-2.847467661,0.070168123,10.35054207,8.766067505,23.19854546,-1.633510351
4.008172999999999,27.22141647,6.920957565,170.0720673,-0.76097858,-1.456380367,14.53959846,6.334348679,9.264490128,3.140791893
4.016505999999993,27.33618736,7.11299324,170.1696625,-1.094263673,0.368223399,8.54938221,10.49807644,25.54619217,-0.428641647
4.024838999999986,27.38959885,7.15337801,170.2020569,-0.258897901,-1.08441484,12.91631031,4.097816944,5.817864418,1.007689595
4.033171999999979,27.4842453,7.277991772,170.2612152,-1.233601928,-0.570387125,12.81344414,8.620012283,16.2524395,-0.8369838
4.041504999999972,27.53169632,7.386065006,170.3401184,-1.286444426,0.019720681,14.17445469,2.661319494,15.57998943,2.144885302
4.049837999999966,27.57832146,7.385498047,170.3387604,0.717808485,-0.721546054,7.67629528,3.769210815,-0.397340775,-0.306691974
4.058171000000016,27.67554665,7.524461746,170.416275,-1.72663641,-0.494669318,12.94962025,8.636943817,18.79027557,0.242490053
4.066504000000009,27.67733192,7.471509933,170.3961945,-0.026990237,-1.457881808,12.62498188,-1.317609191,-6.999769211,0.640151024
4.074837000000002,27.74689293,7.600274086,170.462677,-2.342410564,0.262760758,9.479170799,5.478425503,17.09730148,-0.37638852
4.0831699999999955,27.75123024,7.574939251,170.459671,0.646300673,-1.16353488,16.95942497,-1.278086305,-3.119493961,0.9033885
4.091502999999989,27.75535011,7.601098061,170.4797974,-4.398248196,-0.118482873,6.003865719,-1.645753026,3.63478756,0.465871692
4.099835999999982,27.76593971,7.632669926,170.5134277,2.499846935,-0.630576313,14.15588856,-1.110748649,4.95294857,1.576838136
4.108168999999975,27.71307182,7.598513126,170.4699554,-4.088834286,-0.458966315,11.12299824,-7.473427296,-6.293737888,-2.858715296
4.116501999999969,27.69408798,7.684652805,170.5295715,0.513193071,-2.057886124,11.39821053,-5.074347019,12.18574333,1.27592206
4.124834999999962,27.59054184,7.610552788,170.4831543,-0.918525219,-0.54896915,13.79689693,-13.50209808,-10.69826221,-0.95790863
4.133168000000012,27.50408363,7.6693573,170.51651,-1.514906049,-0.91690737,6.541338921,-12.75493145,7.831093788,0.060321536
4.141501000000005,27.38796806,7.62898159,170.4792175,0.52682215,-1.516167879,15.13107491,-15.15601254,-6.604081631,-1.896670818
4.1498339999999985,27.24676514,7.66402483,170.5020599,-3.983448029,0.42892909,9.897455215,-19.15572929,4.719577789,0.288826197
4.158166999999992,27.09069443,7.689269066,170.4824677,1.008458972,-1.561611176,14.04080391,-20.23344612,1.37202704,-3.648326874
4.166499999999985,26.92235184,7.654717922,170.4627686,-2.621381283,0.670662284,12.56293297,-21.7335453,-5.019251823,-0.399364471
4.174832999999978,26.77228165,7.726987839,170.4694824,-1.371670604,0.234377667,7.019544125,-19.93161011,7.839419842,-3.396564245
4.1831659999999715,26.61049843,7.681179523,170.4360962,0.132489368,-0.306826383,13.93622303,-20.72383499,-6.957661629,-1.27537179
4.191498999999965,26.48721313,7.744959831,170.436264,-3.233579874,0.278614402,10.12722874,-16.60900116,6.596178532,-3.593587875
4.199832000000015,26.33420944,7.69615221,170.3989563,1.244032979,0.72199291,16.03748894,-19.60751152,-7.481165409,-1.562942743
4.208165000000008,26.23120308,7.722971916,170.3943481,-4.542806625,-0.23916164,3.14218235,-14.09883118,2.384941816,-2.109140396
4.216498000000001,26.13917732,7.707364082,170.3659363,3.467082739,0.825368881,15.39693928,-12.43191051,-3.433268785,-2.400041342
4.224830999999995,26.06604004,7.698098183,170.3289032,-4.332696915,0.991952658,7.493647575,-9.991435051,-3.194543362,-3.657828569
4.233163999999988,26.02212906,7.697825432,170.314621,1.057562709,-0.002830045,16.93404961,-6.885350227,-1.036877155,-1.707739592
4.241496999999981,25.98539543,7.66192627,170.2792206,-3.104372025,1.252263427,5.591638565,-5.647209167,-5.975686073,-2.085856915
4.2498299999999745,25.99858856,7.674008846,170.2740021,1.105693579,0.102986634,11.94972515,-0.179184377,0.768683136,-1.389815569
4.258162999999968,26.02182388,7.620893955,170.2264862,-3.082154036,0.451167494,9.15250206,1.740410566,-8.465287209,-2.475500822
4.266496000000018,26.07747078,7.642188549,170.2382813,0.432180583,0.193760499,15.74087334,4.643476963,2.650817394,-0.056389734
4.274829000000011,26.10381508,7.557472229,170.1962738,-2.182912111,0.259579301,7.892282963,2.020604849,-11.58556271,-0.208333373
4.283162000000004,26.1919632,7.580228329,170.2061768,1.066740155,-0.458762795,10.68435097,8.577542305,2.708090782,-0.34081021
4.291494999999998,26.23690605,7.460032463,170.1426697,-2.398237467,0.829129517,12.61290836,4.586742878,-16.53444099,-0.598233461
4.299827999999991,26.31932259,7.49671936,170.1386261,-0.320522219,-1.303985238,12.38563251,8.10741806,3.472060919,-2.574806929
4.308160999999984,26.35669899,7.37503767,170.0911713,-1.762212992,-0.001423799,12.02796364,3.41801548,-15.84762001,1.229278445
4.316493999999977,26.42552567,7.384331226,170.0685883,-0.64242065,-0.242248476,7.98760891,6.763208389,-0.45912239,-3.099514961
4.324826999999971,26.45661545,7.302693367,170.0258942,-1.018253207,-1.463198781,14.01150036,2.580045223,-11.29138279,-0.37859121
4.333159999999964,26.49161148,7.256639004,169.9726257,-1.632076383,0.675768733,13.15957451,3.165074825,-8.036300659,-3.407782555
4.341493000000014,26.50354958,7.264627934,169.9747162,-2.427431107,-0.517987728,10.13074875,-0.40143913,0.71189642,-0.39616257
4.349826000000007,26.50038719,7.161528587,169.9085693,0.865155518,-0.886630535,13.33301163,-1.229163289,-14.84828186,-1.720803261
4.358159000000001,26.50768852,7.214062214,169.9277802,-4.280490875,0.410872549,8.500905037,-1.21371758,6.406093597,-0.957728922
4.366491999999994,26.46220779,7.11038065,169.846817,1.591201782,-1.78351748,15.64163208,-6.093974113,-15.696702,-3.27566433
4.374824999999987,26.4417305,7.178165913,169.8787384,-5.604438782,0.488904595,6.649614811,-4.732703686,8.71757412,-0.412299544
4.38315799999998,26.36032677,7.139254093,169.8269501,2.30927825,-1.275674343,17.92126846,-10.84233952,-7.187316895,-3.643458605
4.391490999999974,26.26239777,7.152481556,169.8167725,-4.530858994,-1.033533335,8.76158905,-13.39958858,0.628880739,-1.980454326
4.399823999999967,26.14185333,7.185484409,169.8010864,0.219392836,-0.722293854,11.18849468,-16.0760994,2.465755224,-3.6192801
4.408157000000017,25.95773125,7.178184032,169.7599182,-2.556686878,-1.037712693,13.23623848,-23.276577,-3.19705534,-4.208485126
4.41649000000001,25.75026512,7.251116753,169.7453308,-1.458761811,-2.268241882,12.31419468,-26.52390671,6.856244087,-5.575570107
4.4248230000000035,25.4648304,7.237777233,169.6828308,-0.471416295,-0.771483004,15.96198368,-35.10710526,-4.918566227,-6.208269596
4.433155999999997,25.1342659,7.293167591,169.6533203,-2.925990105,-1.79298234,5.885710716,-41.06909561,4.246795654,-6.209989071
4.44148899999999,24.76096725,7.33581543,169.5959167,1.003561258,-2.780400276,14.38431358,-45.71733856,1.499255419,-8.545271873
4.449821999999983,24.28849792,7.334672928,169.5127869,-2.8988626,-1.062929392,14.01375675,-57.27453613,-4.494607925,-9.140710831
4.4581549999999766,23.77870369,7.456562042,169.4753571,-2.833280087,-2.018036127,9.211791992,-62.39597702,11.28726006,-10.21393108
4.46648799999997,23.18350983,7.469409466,169.3882599,0.300360948,-2.580434084,16.0900135,-71.91745758,-2.977220535,-10.31399155
4.474820999999963,22.53601837,7.555701256,169.3200531,-4.510849476,-0.61820358,10.56756496,-78.43067169,6.131108761,-11.69141388
4.483154000000013,21.817173,7.659029484,169.2592316,0.973142087,-2.436105728,12.38636494,-87.14901733,8.489972115,-11.57375526
4.4914870000000064,21.00341415,7.661913395,169.1483002,-1.142071009,-1.782875538,14.43232441,-97.67681122,-4.753209591,-12.5980978
4.49982,20.16133499,7.845851421,169.0970459,-2.528628588,-1.804553032,10.67566299,-102.0764084,18.26012802,-13.66057491
4.508152999999993,19.20458412,7.837951183,168.983078,-1.155077219,-0.823555589,15.71757603,-114.7446365,-5.716254234,-12.62777233
4.516485999999986,18.26701546,8.070560455,168.950058,-3.770440102,-0.416682839,7.233747482,-113.8171539,24.91193962,-12.8748312
4.5248189999999795,17.21772575,8.140794754,168.8391113,0.934583426,-1.548864722,17.42041969,-125.8388367,3.751001596,-15.31211472
4.533151999999973,16.1544323,8.328248978,168.7951813,-4.732654572,-1.346095204,4.439108849,-128.6981659,19.78811455,-11.65251446
4.541484999999966,15.03146553,8.442296028,168.7019653,2.524530411,-0.889139414,18.11424828,-134.9278259,9.947886467,-14.52500725
4.549818000000016,13.87961292,8.583518982,168.6410217,-4.431881428,0.283948779,7.330120087,-138.9990997,14.3434763,-11.42984486
4.558151000000009,12.69412994,8.790604591,168.5696716,0.246811271,-1.833952546,13.99221706,-142.7709503,21.97939301,-14.13866711
4.566484000000003,11.50724411,8.96459198,168.5123749,-4.248831272,1.188706994,10.43021488,-143.2256165,18.72945023,-11.21372318
4.574816999999996,10.25978661,9.134557724,168.4230194,1.235512972,0.748258591,18.6677475,-149.8156281,17.77136421,-14.43825531
4.583149999999989,8.997947693,9.306409836,168.3615723,-1.616151094,-2.222227097,3.715872526,-152.0995026,18.85211182,-10.82097244
4.591482999999982,7.73443222,9.417430878,168.2480927,0.446931273,1.250860572,13.04914188,-151.2142639,10.9669857,-15.41666603
4.599815999999976,6.470757961,9.624786377,168.1835327,-3.428700209,1.4751091,10.80137634,-152.2190552,23.48431396,-10.85429859
4.608148999999969,5.165892601,9.716972351,168.0692444,0.52471602,-1.276582837,10.34649754,-156.0894165,9.376652718,-14.75592709
4.616481999999962,3.844773769,9.802428246,167.9737701,-0.01951183,0.436421156,12.04498482,-158.4539337,9.075299263,-12.26020718
4.624815000000012,2.518348694,9.904379845,167.8219147,-1.949026108,1.790955067,7.419821739,-157.8648224,10.96111298,-18.79052353
4.633148000000006,1.164574742,9.982940674,167.7153625,-2.973799467,-1.546755552,14.10107517,-162.1058807,8.755508423,-13.08609295
4.641480999999999,-0.205783933,10.10406399,167.5478516,0.400283813,0.794311166,9.032077789,-162.7489166,14.10952759,-20.10123634
4.649813999999992,-1.603994966,10.12741661,167.3925171,-1.650444746,0.992887676,11.98088646,-166.3742218,2.830673218,-18.49830246
4.658146999999985,-3.019820213,10.16890144,167.2305908,0.348142147,-1.107171059,12.16130447,-168.2913055,5.48721981,-19.09747124
4.666479999999979,-4.412428856,10.20767784,167.0874634,-2.447408915,2.447944641,7.911675453,-165.9384918,5.477712154,-16.76204491
4.674812999999972,-5.824377537,10.18051243,166.9214172,1.292290211,1.779958129,14.77217674,-167.7225647,-1.755425692,-20.01145554
4.683145999999965,-7.191408157,10.16993427,166.79039,-2.550016165,0.034603775,5.256406307,-163.1283722,0.23055917,-15.71499825
4.691479000000015,-8.550675392,10.0170784,166.6609497,2.675206423,2.52398181,12.62076759,-162.210434,-16.33393097,-17.84922791
4.6998120000000085,-9.895882607,9.915213585,166.5241547,-1.518254399,1.472561955,9.541707039,-160.4453125,-9.735362053,-18.11386681
4.708145000000002,-11.16906929,9.751469612,166.397049,-0.69806993,1.539527655,9.252529144,-151.997757,-16.82891655,-18.55594063
4.716477999999995,-12.40912247,9.553284645,166.2943726,-1.425130367,3.731736183,15.43255424,-148.6008606,-21.06132698,-16.94339752
4.724810999999988,-13.59655762,9.3808918,166.2010651,-0.483228266,1.095236063,6.628627777,-142.4745026,-17.92703056,-15.6084137
4.733143999999982,-14.72644997,9.092673302,166.1151123,-0.327578038,2.518655539,12.27172565,-135.7904663,-31.30653191,-18.52659798
4.741476999999975,-15.80087566,8.847907066,166.0565948,0.026372515,2.360873461,11.30968475,-129.6621857,-26.76625633,-14.61592865
4.749809999999968,-16.82208252,8.534478188,165.9932709,-0.767029285,1.575816393,9.416438103,-123.2539063,-34.2496376,-17.96858597
4.758142999999961,-17.79545021,8.213577271,165.9737396,-1.465097427,1.494880319,11.90792847,-118.2874451,-36.33050919,-13.86029434
4.7664760000000115,-18.72733879,7.935605049,165.8987579,-0.180294916,1.395295382,9.870269775,-112.4175339,-29.14711571,-19.1085701
4.774809000000005,-19.60437202,7.577479362,165.9140778,-2.390475988,1.388750553,11.41351032,-107.3229752,-41.44779205,-12.57849312
4.783141999999998,-20.45228004,7.253238201,165.8613281,0.750366151,2.172102928,14.43521595,-102.7864151,-34.66606903,-19.41980553
4.791474999999991,-21.22755623,6.960516453,165.8703918,-4.283986568,2.374292135,5.871809483,-94.99803925,-33.47027969,-11.6784668
4.7998079999999845,-21.91314697,6.632562637,165.8656921,0.462619811,1.586614132,11.68367577,-84.05809784,-36.65369797,-15.18481159
4.808140999999978,-22.57565689,6.314339638,165.8912506,-2.276582003,2.676319361,18.23511314,-81.67923737,-36.75496674,-11.82567883
4.816473999999971,-23.16921234,6.059719563,165.889328,-0.58327055,2.575133324,5.546972275,-73.05406189,-28.32278061,-12.28482151
4.824806999999964,-23.64578056,5.803651333,165.9216614,-4.402341843,2.48892355,8.237632751,-59.42547607,-29.98899841,-8.856759071
4.833140000000014,-24.05808449,5.53746748,165.951355,0.644213498,2.218912125,14.9171114,-51.67885208,-30.91030121,-9.867904663
4.841473000000008,-24.4347496,5.369413376,165.9615021,-4.933825493,2.962150574,11.61673737,-47.15129471,-19.14126968,-7.370116711
4.849806000000001,-24.74011803,5.170742989,165.9881897,2.050729752,0.611648083,8.02943325,-38.78974152,-23.26807785,-7.215402603
4.858138999999994,-24.93739319,5.049641609,165.9646149,-6.213651657,2.323834896,7.215491772,-25.25635719,-12.26058292,-8.857625961
4.8664719999999875,-25.08101845,4.893565655,166.0021515,2.142423868,2.112603188,16.99889755,-19.47296333,-19.13214111,-4.04609108
4.874804999999981,-25.22913742,4.783928394,165.9756622,-4.657585621,2.002407551,10.579319,-19.34647942,-10.81985474,-8.654708862
4.883137999999974,-25.30270576,4.737642288,165.9698944,0.336780578,-0.113249063,8.208686829,-10.61683273,-4.99084425,-3.187807083
4.891470999999967,-25.32315254,4.625534058,165.9534454,-3.704348803,0.690625787,9.245826721,-4.133715153,-11.57862091,-7.725112915
4.899804000000017,-25.31507301,4.596198082,165.9331818,-0.516911447,2.306008339,16.71557236,-0.681761384,-2.407494783,-3.893761158
4.908137000000011,-25.3222847,4.55609417,165.8974609,-3.466562033,-0.202742055,6.806138992,-2.367203474,-2.780412436,-6.115591526
4.916470000000004,-25.27107239,4.588564873,165.8782806,-0.34536764,0.057349723,9.597935677,4.482824802,4.240180492,-0.604739368
4.924802999999997,-25.24206543,4.529691696,165.8383942,-3.09211874,0.410626918,14.12404251,2.016813755,-4.612983227,-7.524374008
4.93313599999999,-25.19101524,4.592683315,165.8189545,-0.23856473,0.174681008,10.32633018,4.465764999,7.566547871,0.921881974
4.941468999999984,-25.15941811,4.600103855,165.7769623,-2.954331875,-0.406808317,7.508607864,2.34728837,2.683577776,-4.362116814
4.949801999999977,-25.12582779,4.623923302,165.770752,1.661152482,-0.625910878,14.72793102,2.245190382,2.640725374,0.34712413
4.95813499999997,-25.09625435,4.687815189,165.6969757,-3.900293827,-0.034746196,7.396532536,2.418265581,10.42788792,-4.931445122
4.9664679999999635,-25.08109093,4.691521645,165.7120056,-0.065845862,-0.646811962,14.45648003,-0.174035922,-0.622054458,1.621329784
4.974801000000014,-25.07499886,4.797926426,165.6283112,-2.865542412,-0.47092554,8.854941368,-0.291784585,15.54684448,-3.847553253
4.983134000000007,-25.08987808,4.799821377,165.6278992,0.068710923,-0.284175128,12.14526844,-3.627244949,-0.035411682,-0.142556027
4.991467,-25.09410286,4.887811661,165.5549316,-1.980417371,-0.761489928,12.7652359,-1.620574355,13.00176144,-3.619842291
4.999799999999993,-25.14770889,4.881809235,165.5749969,-0.187964171,-0.435756803,11.55102062,-8.485573769,-1.93381083,1.67335248
5.008132999999987,-25.19375992,4.963558197,165.5029449,-0.753820539,-1.431061745,10.5543251,-6.639248848,12.28269291,-3.819992065
5.01646599999998,-25.2588253,4.949527264,165.5206909,-1.536015868,0.265784711,9.839323997,-9.840387344,-2.689815283,1.004231691
5.024798999999973,-25.31858826,5.044928551,165.4479218,-1.286476374,-0.53562218,14.12405777,-8.269749641,13.80628204,-3.170262337
5.033131999999966,-25.4180336,5.01433754,165.4848633,-1.171451211,-1.01900804,9.284613609,-14.16909313,-5.471316814,2.222137928
5.0414650000000165,-25.47902298,5.095123291,165.4364624,-0.172115043,-0.224826843,9.165458679,-8.666028023,10.97923565,-1.251832008
5.04979800000001,-25.58944321,5.025277138,165.47258,-0.937251925,-0.638369501,13.5902319,-15.47985077,-9.685678482,0.085730858
5.058131000000003,-25.67279053,5.12096405,165.4198303,-2.203629255,-0.913025796,10.76429367,-11.30216885,12.81877422,-0.912212849
5.066463999999996,-25.79562378,5.088163853,165.4555054,-0.222794116,-0.277240634,12.79761219,-16.96919441,-5.658352375,1.935847402
5.07479699999999,-25.88712502,5.164718151,165.4203796,-3.103098869,-0.457436711,7.197158813,-12.46397972,9.835535049,0.030839548
5.083129999999983,-25.99982643,5.134777546,165.4303589,0.851317048,-0.987257361,15.67616749,-15.48010635,-4.013763905,-0.695336938
5.091462999999976,-26.10167122,5.155117989,165.4277344,-4.295619488,0.154652581,9.043978691,-14.05472565,2.070962429,0.593123257
5.099795999999969,-26.21551704,5.200995445,165.4109497,1.714331388,-0.745332718,14.39745617,-15.32893085,5.562670231,0.431804866
5.108128999999963,-26.33404732,5.135064125,165.448761,-2.286316156,-0.433174044,9.997784615,-16.49683952,-9.354436874,0.351632297
5.116462000000013,-26.4310627,5.227639198,165.3977203,-0.172050074,0.157531038,12.08268166,-12.93769073,12.399189,-0.721361101
5.124795000000006,-26.57620811,5.105625629,165.4609222,-2.45201993,-1.277012467,10.47096157,-19.9671402,-16.73326111,0.029686915
5.133127999999999,-26.66367531,5.24029541,165.3981628,-1.434669495,0.417149365,9.759245872,-11.66381741,17.54542542,0.34000349
5.1414609999999925,-26.80956841,5.151981354,165.4437866,-0.422361493,-1.037075639,15.49739742,-19.87303162,-12.1778717,-0.096732199
5.149793999999986,-26.90035248,5.183614731,165.4378052,-1.946482778,-0.0388515,5.544960976,-12.67657661,3.447215319,0.883358181
5.158126999999979,-27.01072121,5.191623688,165.4511719,0.044771653,-0.407797366,11.48050404,-15.26041317,-0.12828891,1.657804728
5.166459999999972,-27.12722778,5.112652302,165.4850922,-0.602006555,-0.077359743,13.6577816,-16.19451523,-10.54516602,-0.897894442
5.174792999999966,-27.22525406,5.208361626,165.4408264,-3.082715273,-0.638111055,10.12179947,-13.15994358,12.37295914,0.340976775
5.183126000000016,-27.35268211,5.105329037,165.4901123,-0.510676682,-0.995699048,13.22592354,-17.66997337,-13.9504776,-0.628407001
5.191459000000009,-27.43868828,5.19435358,165.4555511,-3.141437054,0.33264038,7.187437057,-11.82341671,11.12472439,1.049184799
5.199792000000002,-27.56855583,5.129232407,165.4837341,1.974550724,-1.738179922,14.07573128,-17.73767281,-8.749326706,-0.81692791
5.2081249999999955,-27.68871498,5.104958534,165.4919739,-2.40991807,0.179555476,13.93933582,-16.38308334,-3.298127651,-0.677073956
5.216457999999989,-27.82546425,5.132830143,165.4771118,-0.861473322,-1.156677246,9.32185173,-18.0983448,3.525467396,-0.208102912
5.224790999999982,-27.95021439,5.04108572,165.5265656,0.336234778,-0.277508408,13.229743,-17.37338638,-12.75772476,-0.123268545
5.233123999999975,-28.05929947,5.080483913,165.5143433,-3.848100901,0.85860312,8.79335022,-14.8092947,4.599216461,0.734411478
5.2414569999999685,-28.18263054,5.023409843,165.5352325,1.63817668,-1.465628982,14.1406641,-16.90169716,-7.47837162,-1.224347949
5.249789999999962,-28.30695343,4.993804932,165.5671997,-3.448706627,-0.002967401,8.640962601,-17.10005569,-5.199550152,1.489826798
5.258123000000012,-28.41045952,4.976675987,165.5651398,-0.011829555,-0.197434545,11.92786121,-14.28115368,-1.953200817,-1.391992927
5.266456000000005,-28.53032494,4.893925667,165.6157074,-0.906059861,-0.507337332,14.4471035,-16.75306129,-11.87441826,0.385417521
5.274788999999998,-28.63227654,4.86588192,165.6288147,-2.209050655,0.301519632,5.415145397,-14.24911213,-3.963534832,-0.431894571
5.283121999999992,-28.71030426,4.84893322,165.6353149,0.736021459,-0.251053005,13.17529774,-11.27755165,-2.419661522,-0.489987522
5.291454999999985,-28.81429482,4.736482143,165.6751556,-2.974153757,-0.134634778,12.52423573,-14.76595688,-14.38215351,-2.51594615
5.299787999999978,-28.86945152,4.787191391,165.6470337,-1.991173983,-0.075656772,10.42874908,-8.183685303,6.690977097,-0.20764184
5.3081209999999714,-28.94750404,4.708778381,165.668335,-0.542921782,-0.368463546,11.91112232,-11.46809673,-9.730733871,-2.516483784
5.316453999999965,-28.98871231,4.689888954,165.6909637,-1.738291025,0.095729321,9.838283539,-7.015036106,-3.556088924,1.073902607
5.324787000000015,-29.02783012,4.676803112,165.6728516,0.197582424,-0.765528023,13.04449081,-6.404647827,-0.583710074,-2.85500145
5.333120000000008,-29.10200882,4.595532894,165.726532,-2.192113638,-0.486889005,12.53945065,-11.27053642,-11.90551186,0.678521276
5.341453000000001,-29.143116,4.639329433,165.6780853,-0.482015878,-0.548427343,9.681669235,-6.35656929,7.150777817,-2.702903748
5.349785999999995,-29.20623779,4.55506134,165.7163391,-1.637616754,-0.616117716,12.9363451,-9.79033947,-11.32230186,-1.130420566
5.358118999999988,-29.22970009,4.539475918,165.7174683,-1.129040241,0.479017943,10.42212582,-4.715670586,-1.95901525,-0.994357526
5.366451999999981,-29.2698822,4.548389435,165.7034149,-2.349629164,-0.464041919,8.991648674,-6.534639359,1.492464542,-1.139692545
5.374784999999974,-29.31637001,4.436751366,165.7496338,1.894721985,-1.428859115,14.90621662,-7.9058218,-14.65056324,-1.932120562
5.383117999999968,-29.36406898,4.440608501,165.7235107,-4.293869495,0.28126061,8.215866089,-7.328298092,1.673429489,-2.692914486
5.391451000000018,-29.4267025,4.349089622,165.7578125,1.577532411,-1.984634876,13.08327961,-9.724945068,-11.84349918,-2.013701677
5.399784000000011,-29.47805214,4.280367851,165.7802734,-2.630423784,0.26407519,9.595365524,-8.211680412,-8.76602459,-1.910527468
5.408117000000004,-29.5151062,4.219384193,165.7818451,0.047762256,-0.126669809,8.047633171,-6.354187489,-6.722956181,-3.638822079
5.4164499999999975,-29.55303764,4.106227875,165.8148041,-1.220448494,-1.188466787,16.10666084,-6.687224388,-14.01932526,-3.458370209
5.424782999999991,-29.59514236,4.063315868,165.8191223,-3.227532625,0.379701823,9.206181526,-6.984195709,-4.997094154,-2.288260698
5.433115999999984,-29.61810112,3.99898839,165.8269653,-0.140520588,-0.404474109,11.93888187,-4.669360161,-7.436236382,-3.19474864
5.441448999999977,-29.63900566,3.892369509,165.8670044,-1.76134336,-0.393917412,12.10192108,-4.733523369,-13.75352573,-2.359391451
5.449781999999971,-29.64665794,3.881658792,165.856781,-1.86575532,-0.380566716,10.89964867,-2.681490421,-0.771820962,-1.895568967
5.458114999999964,-29.67100143,3.799183369,165.8966064,0.758207858,-0.851831973,11.6310215,-5.137280941,-11.22260952,-0.952042818
5.466448000000014,-29.67035294,3.758230209,165.9023895,-3.711154938,-0.299544632,8.831971169,-1.814345837,-4.875605583,-2.025740147
5.474781000000007,-29.65317726,3.765828371,165.9008789,-0.357041299,0.076142013,15.10855007,0.173229069,0.617789686,0.093235813
5.4831140000000005,-29.66628838,3.695239067,165.9376678,-3.331701279,-1.018321991,9.298194885,-3.70808363,-9.802069664,-0.558275104
5.491446999999994,-29.61999702,3.757937193,165.9302063,0.971348763,-0.522332251,9.038953781,3.714550495,6.719817162,2.743181944
5.499779999999987,-29.62457275,3.667578459,165.9742432,-1.593729019,-0.167404056,14.25677872,-2.737150431,-12.29512978,-0.97035706
5.50811299999998,-29.61916733,3.673133612,166.0045471,-0.901916027,-0.927801311,12.27184963,-1.485612631,-1.478594303,3.284179688
5.5164459999999735,-29.61904335,3.720005751,165.9897919,-2.088841677,-1.001552343,9.452672958,-1.715910554,5.501835346,1.048032165
5.524778999999967,-29.62533188,3.669788599,166.0644836,-0.228420198,-0.79678756,11.27410126,-3.233374834,-9.922455788,4.594450951
5.533112000000017,-29.60527802,3.757630825,166.0311584,-4.39679575,-0.383361965,11.02263927,0.81778574,10.87349987,1.546280384
5.54144500000001,-29.63930893,3.777451038,166.0693817,0.595353007,-1.446439147,12.06681252,-6.284978867,-0.457636833,4.954741955
5.549778000000003,-29.66706085,3.798622608,166.064209,-1.556581497,-0.211482063,13.43909931,-5.135923386,2.252080441,0.523503721
5.558110999999997,-29.72065926,3.866764784,166.0652008,-2.157987118,-0.768397927,11.77749825,-8.344132423,6.781676769,3.951559544
5.56644399999999,-29.79119492,3.866134644,166.0670929,-0.169685155,-1.337255478,12.6694994,-10.32577801,-0.439527512,-0.036000814
5.574776999999983,-29.86375237,3.931235313,166.0695343,-2.626045465,0.360670686,8.647471428,-10.63261127,6.367314816,3.938906193
5.5831099999999765,-29.93211555,3.96161437,166.0349579,0.404271781,-0.799222887,11.5815239,-9.765490532,4.9615798,-1.96611011
5.59144299999997,-29.99001503,3.973727703,166.0571136,-1.616493583,0.546750009,12.40750408,-9.03400135,-0.330180377,2.824379921
5.599775999999963,-30.01278305,4.022809029,166.0373688,-2.798043728,1.423442245,6.7870574,-4.414113522,6.021855354,0.700241923
5.608109000000013,-29.96396255,4.089592457,166.0444489,0.180348113,0.974922717,10.81330204,3.894772768,6.252306938,4.541454792
5.616442000000006,-29.86326408,4.063985825,166.0868073,-0.971312284,2.31048584,10.05932713,9.877234459,-5.452823162,2.663393974
5.624775,-29.64204788,4.184140205,166.0813599,-2.482918501,2.473067522,7.432781696,24.69057655,12.57759762,6.390423775
5.633107999999993,-29.35326004,4.144215107,166.1535339,0.349716753,1.976199031,12.48054314,32.18128967,-8.68575573,4.964503765
5.641440999999986,-28.93564987,4.323729992,166.1416626,-4.114701271,2.512199163,6.861820221,48.31578827,19.24402237,9.048045158
5.649773999999979,-28.43275833,4.304879189,166.2190857,2.157418966,2.490031719,15.77583408,57.80820084,-6.694185257,6.84752512
5.658106999999973,-27.79668236,4.421089172,166.2641602,-4.616621017,3.215807676,4.784332275,74.01441956,9.495295525,11.12646961
5.666439999999966,-27.02844429,4.523239136,166.2808228,-0.624370575,3.415432453,10.57324982,90.19400787,9.70130825,7.219090939
5.674773000000016,-26.1635704,4.632205009,166.3397369,-2.310983419,1.708864689,11.45112991,101.3212204,8.271271706,11.95424843
5.683106000000009,-25.18481636,4.772898674,166.3591766,-1.52452898,3.227939844,8.676971436,115.4223404,13.94750118,9.215061188
5.691439000000003,-24.09108925,4.941072941,166.3961487,-3.508631229,3.592487097,13.25149918,128.9705353,16.2357235,12.22800922
5.699771999999996,-22.90741348,5.085442543,166.4206543,0.210648134,2.085156679,9.981431007,139.9512024,14.45854092,9.398180008
5.708104999999989,-21.62734985,5.323774815,166.4318848,-4.936636925,2.235543728,8.665653229,151.5849762,25.69223022,11.87828445
5.716437999999982,-20.24700546,5.470317364,166.4689484,2.212794065,1.986074686,13.78061581,163.3922729,14.57917404,10.22470188
5.724770999999976,-18.78668404,5.678698063,166.4925842,-5.881093502,2.903449297,7.765335083,173.0657959,22.36123848,10.8111124
5.733103999999969,-17.22611046,5.959420681,166.5176239,-0.027529556,2.011781693,12.38982487,185.1330261,30.85025787,13.06361389
5.741436999999962,-15.65837955,6.131517887,166.5638275,-2.023517609,0.50910151,11.17575073,185.6475372,17.98138618,10.92621613
5.749770000000012,-13.97504044,6.447446346,166.6003876,-0.856706738,2.393476248,9.633556366,199.6912994,35.27436066,13.7189455
5.7581030000000055,-12.26369381,6.625065327,166.6737823,-2.913908243,1.598430395,10.8678093,202.4639893,18.50632095,13.15349293
5.766435999999999,-10.47743034,6.991430283,166.7470245,-0.80266577,1.203438282,12.4009819,211.4822083,41.11824799,17.02973557
5.774768999999992,-8.730674744,7.170835495,166.8388519,-0.608705103,0.094378002,12.27690697,206.357605,19.13632965,14.16805363
5.783101999999985,-6.901927948,7.477365971,166.9335175,-1.398623824,1.125109911,12.80126858,216.1747131,34.64864349,15.96959019
5.791434999999979,-5.100821495,7.678909302,167.0423279,-3.076807737,0.540723085,7.715785503,212.5177307,22.43377686,15.19771957
5.799767999999972,-3.270431519,7.931285858,167.1680298,0.873197734,-0.38226977,10.8842268,215.7728729,28.85165215,16.9206543
5.808100999999965,-1.489701033,8.107726097,167.2689514,-0.723541021,-0.172488511,14.82884789,210.1069183,20.38998985,12.65354729
5.816434000000015,0.267719567,8.247928619,167.4020996,-1.683742881,-1.652496576,9.823553085,206.7914886,16.3933754,15.79905224
5.8247670000000085,2.01132226,8.39098835,167.5119019,0.448240131,-0.687734962,15.386096,205.4387817,17.15716362,12.48866653
5.833100000000002,3.662351847,8.51759243,167.6514282,-2.356005669,-1.992408872,12.79926968,193.8331146,15.73189449,15.59303474
5.841432999999995,5.241314888,8.519140244,167.7626648,1.532816529,-3.216229439,11.82510567,185.6135559,0.944502473,12.94083309
5.849765999999988,6.812185764,8.555891991,167.9034576,-0.721378267,-0.378804922,13.49031925,184.1667175,5.877926826,15.95720005
5.8580989999999815,8.295261383,8.542686462,168.0101013,-1.588635564,-1.234663129,12.13710499,174.1813049,-0.172426879,12.55072403
5.866431999999975,9.743800163,8.474606514,168.1381226,-2.638270378,-2.168189049,9.047348022,169.7216187,-5.948609829,16.09171104
5.874764999999968,11.1612196,8.423362732,168.2362518,2.48456955,-1.785696745,14.06022167,166.4774933,-4.199620724,12.36498642
5.883097999999961,12.49416447,8.348692894,168.3395996,-4.116498947,-1.437370539,14.42214966,156.3121643,-6.517107487,13.64971161
5.891431000000011,13.73185349,8.238510132,168.4226379,1.607756972,-3.102121115,9.640692711,145.2039337,-10.90365887,12.40243912
5.899764000000005,14.94833183,8.081245422,168.480545,-1.318432093,-1.54394567,12.00444508,143.1585083,-16.84270477,11.14068031
5.908096999999998,16.10787773,7.941857815,168.5501862,-0.915294349,-1.821545482,17.09534645,136.1036072,-14.16335487,12.2513113
5.916429999999991,17.17212677,7.786267281,168.6036987,-2.681362867,-1.552075863,12.12039948,124.9966965,-16.32998276,11.24508858
5.9247629999999845,18.17517853,7.601519108,168.6383667,0.665626943,-3.16156292,8.46968174,117.9338455,-20.13454247,10.46103764
5.933095999999978,19.10262299,7.397954941,168.649826,-3.51859951,-2.917984962,14.13755512,109.277832,-22.97277832,8.904169083
5.941428999999971,19.98721313,7.228664875,168.6795349,1.24965322,-2.587431192,13.05241203,103.8270264,-18.2247467,9.928764343
5.949761999999964,20.77689362,7.000559807,168.6578369,-1.892650604,-1.69030869,15.84053993,93.24608612,-26.82087517,6.914926529
5.958095000000014,21.48867416,6.765085697,168.6650238,-0.203554407,-2.667884827,9.667426109,83.44290924,-26.31067276,10.78766251
5.966428000000008,22.14264297,6.588906765,168.6312103,-1.720285892,-2.526865482,11.18043423,77.10909271,-21.38543129,3.91971755
5.974761000000001,22.72014999,6.283096313,168.5993958,-0.643424749,-2.306585312,11.16551113,67.86061096,-35.63080597,10.2987442
5.983093999999994,23.26968384,6.07232523,168.5262756,-0.747365475,-3.333665133,11.26338577,65.04722595,-26.95211983,1.65509665
5.991426999999987,23.71901131,5.734587193,168.4668427,-1.93341732,-2.815163136,17.30721092,52.79129791,-40.25857162,9.456889153
5.999759999999981,24.13484764,5.548284054,168.4002686,-1.707738161,-1.034970164,9.761773109,48.84183884,-23.92098045,1.60266149
6.008092999999974,24.478302,5.222569466,168.3193817,-0.884631991,-2.330483198,14.3310709,40.26771545,-39.85889435,7.087376118
6.016425999999967,24.79423332,5.016974449,168.253006,-0.65978545,-2.206889868,9.640990257,36.7779007,-25.99596977,2.877712965
6.024759000000017,25.03496933,4.73815012,168.1800842,-2.860907078,-2.017846823,18.39824104,27.7751503,-34.27947235,5.989078999
6.033092000000011,25.25596619,4.572248459,168.1549225,-2.283994198,-1.049357176,6.428569794,24.92185211,-19.56297874,5.539544106
6.041425000000004,25.45484543,4.362976074,168.090683,-2.865947008,-2.161891699,14.0345602,22.61163139,-26.24592209,3.615811586
6.049757999999997,25.62634468,4.244539261,168.109314,-1.52944386,-1.854106784,12.34920692,18.56861305,-12.12377262,7.942875862
6.05809099999999,25.75592041,4.073767185,168.0642548,-2.371032476,0.184384108,14.87739277,14.092062,-21.06783295,3.827997923
6.066423999999984,25.85446548,3.969621897,168.1042786,-2.085991383,-2.555778742,10.98851204,9.642583847,-9.426539421,9.559465408
6.074756999999977,25.95041084,3.879573584,168.0775146,-1.340009809,-1.319896102,9.549241066,9.887968063,-11.38408184,1.643896341
6.08308999999997,26.00876427,3.786283493,168.1245422,-2.909418106,-0.890418887,15.17367649,4.779232979,-7.859025002,9.769757271
6.091422999999963,26.06695366,3.779306412,168.1304169,-1.084946752,-1.064505577,9.578126907,5.091162682,-0.706914485,0.8076424
6.0997560000000135,26.1227417,3.744678974,168.1723938,-4.52370739,-0.732314348,11.06634235,4.519530296,-1.782302856,6.145829678
6.108089000000007,26.16431808,3.763330221,168.1867981,0.533721447,-0.99877131,15.06941795,3.035337925,2.503996372,0.368153393
6.116422,26.19387817,3.824561596,168.2642059,-6.800386429,-0.602958262,8.698959351,1.086017966,10.42112541,4.881688595
6.124754999999993,26.20328331,3.830976248,168.2579193,3.139447212,-1.02889359,14.77855301,-0.661551654,0.091673344,-1.212001443
6.1330879999999866,26.19647217,3.92779541,168.3471069,-7.157772064,-0.007882424,11.26988888,-3.389289141,14.8764677,4.256011009
6.14142099999998,26.19567108,3.989635944,168.3911438,3.247235775,-0.649066269,10.62349224,-2.296508551,8.720239639,1.262295246
6.149753999999973,26.18621635,4.042421818,168.4242401,-7.023726463,0.771056056,13.50819874,-3.258399963,7.17116785,0.564563453
6.158086999999966,26.18343353,4.156146526,168.5210724,3.884254456,-0.940580845,9.20178318,-2.996674299,17.09325409,4.18569994
6.166420000000016,26.19674683,4.253100872,168.5501404,-6.287403584,-0.344152957,8.583015442,-0.503793597,11.71323681,-2.207908869
6.17475300000001,26.21637535,4.329825878,168.6520386,2.71103406,-0.128199607,12.46282291,-0.390578777,13.37893295,6.680706501
6.183086000000003,26.24616432,4.495352745,168.6851349,-4.489916801,0.284887195,11.46874905,1.421769738,19.30525208,-5.423701286
6.191418999999996,26.29501915,4.604326248,168.8227234,0.411620885,-0.381478816,7.645465851,2.722692251,18.74414825,8.779642105
6.1997519999999895,26.38212013,4.722419739,168.807251,-2.844644547,1.452469826,11.58868313,8.757305145,11.6170845,-8.142038345
6.208084999999983,26.47949219,4.865387917,168.9554749,-1.121823668,0.293274224,12.27829742,8.372709274,22.98525429,8.044513702
6.216417999999976,26.58315468,4.981107712,168.9438019,-1.019073963,-1.108638883,8.704180717,10.71348858,11.5379591,-7.648602962
6.224750999999969,26.69973183,5.071084023,169.0591125,-1.787679791,-0.334293783,10.71225643,10.95124149,15.56482697,7.287098408
6.2330839999999625,26.79682159,5.211457729,169.0638428,0.271345764,-0.685454249,11.51746273,9.755158424,15.034585,-7.270512581
6.241417000000013,26.90232849,5.287122726,169.1608276,-3.33388257,-0.319360375,11.08110809,9.772114754,13.06892395,6.04603672
6.249750000000006,26.97966385,5.394942284,169.1534271,2.723922253,-0.388476402,13.73048592,7.515808105,10.87178612,-6.845675468
6.258082999999999,27.07683372,5.525678158,169.2355804,-5.262320518,0.562494576,8.848043442,8.90233326,18.16815567,1.421462297
6.266415999999992,27.15787125,5.600230694,169.2477112,1.181242466,-1.554554701,12.65811539,7.737574577,8.359872818,-2.984865665
6.274748999999986,27.22591209,5.710532188,169.2926941,-2.988782883,0.583540201,11.85997963,5.816943169,13.96337223,-1.460511088
6.283081999999979,27.31377411,5.799048424,169.3192902,-1.958408833,-0.304671705,5.508948803,8.377649307,10.63472462,-2.240336895
6.291414999999972,27.39687157,5.853578091,169.3400726,-0.959747136,-0.379105031,17.43157387,7.898944855,6.685495377,-0.993179321
6.2997479999999655,27.44625473,5.97413969,169.3666382,-1.428683519,0.173282087,12.81657124,3.752460241,14.03965092,-4.044398785
6.308081000000016,27.49165916,6.074739933,169.3985291,-2.161606073,0.071154937,9.257608414,3.233669519,12.2010603,-2.381752729
6.316414000000009,27.51610374,6.198300838,169.4165039,-0.623039603,-0.638013363,13.88474083,0.856898904,13.8793335,-5.141559601
6.324747000000002,27.54166794,6.331182003,169.4749908,-4.12894249,-1.304577112,4.956604004,0.488079458,17.09735298,-1.372808218
6.333079999999995,27.58664322,6.441671848,169.4854584,0.814331055,-0.301424235,11.7791729,3.411611795,12.07009602,-5.223601341
6.341412999999989,27.65002823,6.617785454,169.5529327,-4.185521603,0.079142258,12.54329205,4.875108242,22.18839264,-2.859331131
6.349745999999982,27.6904068,6.779202461,169.6259918,-0.076399639,0.49847424,14.4002533,1.976676822,20.93682671,-1.480208874
6.358078999999975,27.69631386,6.964310169,169.66922,-3.340856075,0.255073279,12.6444521,-1.724696875,21.79585457,-5.951226711
6.366411999999968,27.73818398,7.197631359,169.7940369,-3.285615921,-1.077906728,4.097789764,1.333478212,31.43696785,-0.059028056
6.374744999999962,27.76852798,7.361370564,169.8240509,-0.565459728,-0.861490011,18.53052139,1.376611829,18.78394699,-6.178040028
6.383078000000012,27.7729454,7.654292583,169.9657135,-2.729967833,0.541965008,13.00664139,-3.535985231,38.69160461,-1.662404299
6.391411000000005,27.75013733,7.885150433,170.017868,-2.976040125,-0.001268012,7.064083576,-5.39004612,27.1374836,-7.603476048
6.399743999999998,27.73438644,8.146160126,170.1229553,-0.833501339,-1.207342744,13.30205154,-5.494707108,33.27105331,-3.723224878
6.408076999999992,27.74042702,8.395507813,170.1749268,-1.908600688,-0.365332007,9.878054619,-1.977996826,29.08890533,-8.650868416
6.416409999999985,27.72226906,8.666050911,170.2816162,-1.794234514,1.877050519,11.37014866,-5.924873352,34.36499023,-4.095477581
6.424742999999978,27.75706863,8.92142868,170.3462677,-0.27120012,-0.013868785,8.961628914,1.187246442,30.42691803,-7.664618015
6.433075999999971,27.81799889,9.161380768,170.4482269,-1.943949223,0.792290926,14.23849869,3.543066025,30.84322548,-2.93130827
6.441408999999965,27.9119339,9.39207077,170.541687,-0.65017581,-0.119706228,5.2671175,7.661505222,29.38090897,-3.339855909
6.449742000000015,28.06773186,9.596406937,170.6334686,-0.145503417,1.671412468,11.46150303,15.03480053,26.48905945,-2.108424664
6.458075000000008,28.24262619,9.787455559,170.7289276,-1.423094749,-0.280398756,11.27628994,17.25665855,25.2750206,-1.048301816
6.466408000000001,28.43600464,9.90696907,170.7971802,-0.581520617,0.029188238,12.51971149,19.95985222,16.19128036,0.097948886
6.4747409999999945,28.64292526,10.0865221,170.9095612,-0.91236335,-0.555110395,4.506772518,20.69109344,25.01042747,1.187297702
6.483073999999988,28.84127045,10.12925816,170.9355927,0.527713835,-0.543375969,14.80959892,21.4090004,5.713513851,0.034169402
6.491406999999981,29.04695702,10.25497055,171.0235901,-3.623184681,-1.062766075,7.789857864,21.01623726,17.96773338,1.607780933
6.499739999999974,29.2076416,10.27703857,171.0377808,1.448260903,-1.476714849,15.24990654,17.13618469,2.865823746,-0.021272628
6.508072999999968,29.34260941,10.2773056,171.0626984,-2.88170433,-1.164394498,7.544956684,13.86229992,1.205636859,2.364092112
6.516406000000018,29.47798729,10.28315639,171.0596313,2.378850937,-1.797961354,11.80544567,14.46827888,0.17112872,-0.85437566
6.524739000000011,29.52386856,10.14873219,171.0061188,-1.601324797,-1.615812421,13.44366264,4.847725391,-17.41090965,2.259201527
6.533072000000004,29.56163025,10.07328129,170.9548492,-0.424608052,-1.339179754,15.07553673,3.764191628,-11.12522507,-1.000761151
6.5414049999999975,29.55997658,9.921980858,170.9028168,-2.152364731,-1.016407371,9.820796013,-0.907807171,-19.08633804,3.424470186
6.549737999999991,29.55709457,9.79784584,170.826828,0.253188312,-0.610539734,12.05137444,-0.632197917,-17.65116882,-0.663652062
6.558070999999984,29.50240517,9.56538105,170.7177734,-2.072896481,-1.217363596,15.7707262,-6.156552315,-30.89121056,2.33822298
6.566403999999977,29.45702171,9.405243874,170.6206055,-2.714971781,0.065201983,10.44393921,-5.371371746,-22.64853859,-0.74915272
6.5747369999999705,29.40393448,9.206874847,170.5112,-0.923627138,-0.915840209,11.32133102,-6.041671753,-27.35938835,0.228402272
6.583069999999964,29.33287621,9.033958435,170.3951569,-1.543535471,-1.008161187,13.04235935,-8.166272163,-25.08609962,-1.998462319
6.591403000000014,29.23877335,8.829388618,170.2727509,-1.801167846,-1.530443668,15.4629631,-10.80369568,-28.76727867,-0.834422767
6.599736000000007,29.15129852,8.713322639,170.1695404,-3.575459719,0.138655812,8.188954353,-10.45631218,-18.39173508,-4.086919785
6.608069,29.05763054,8.578838348,170.068512,-2.290465593,-1.557050347,13.34432507,-11.20716858,-20.19054794,-2.807846785
6.616401999999994,28.93019485,8.444266319,169.9748535,-3.30510354,-0.865477622,12.78241158,-15.47491264,-19.77293205,-2.087932825
6.624734999999987,28.80841064,8.396922112,169.9178467,-2.47778821,-0.891972482,12.23320293,-15.40167713,-8.502609253,-3.371077299
6.63306799999998,28.65565681,8.338039398,169.8760071,-1.973816156,-1.965813756,13.36629391,-19.44706726,-8.845150948,-1.152346492
6.6414009999999735,28.44883537,8.273694992,169.8175659,-3.102928162,-1.193463683,14.19908333,-25.59257126,-10.36059475,-2.591278553
6.649733999999967,28.24310684,8.324926376,169.8362122,-2.63039732,-0.441432536,12.03978252,-26.86052322,6.20023632,-1.165512204
6.658067000000017,27.99681473,8.326273918,169.8057861,-1.452171922,-1.873313189,11.11607456,-30.81158066,-1.821314335,-3.448664904
6.66640000000001,27.74213028,8.346420288,169.798645,-3.204331398,-0.173357442,14.98166943,-32.28642654,1.479863763,-2.073538542
6.674733000000003,27.47467613,8.419819832,169.8178253,-2.648266554,-0.567376614,9.690418243,-34.21634293,8.600066185,-2.250994444
6.683065999999997,27.20077515,8.474720001,169.8230896,-0.410694569,-1.376191258,11.20940113,-34.80992508,5.876501083,-2.663973093
6.69139899999999,26.88045311,8.484230995,169.7923126,-2.739630461,0.266519994,13.83525562,-39.67890167,-0.9040941,-3.957545757
6.699731999999983,26.61059189,8.61315155,169.8375854,-2.577573776,-0.669095993,11.35355473,-35.0402298,15.96998501,-2.360572577
6.708064999999976,26.27468872,8.611614227,169.8254089,-1.376778841,-0.540460944,11.99984455,-41.8731041,-1.070330858,-1.395914078
6.71639799999997,25.97065926,8.686270714,169.8357544,-2.377931595,0.48381874,11.7103653,-38.51867676,8.321539879,-3.03996563
6.724730999999963,25.66018867,8.757964134,169.86409,-0.907723904,-0.961655259,10.32740307,-39.55423737,8.945860863,-0.905912757
6.733064000000013,25.32724762,8.767105103,169.831604,-0.932721138,0.609004438,15.04144096,-41.20871353,-0.929119289,-4.143633842
6.741397000000006,25.00976372,8.847846031,169.8562469,-4.365044594,-0.260021299,8.171271324,-40.33358383,9.750252724,-1.660534978
6.74973,24.714077,8.930223465,169.8599091,0.318354249,0.396864623,13.22028828,-37.39912415,8.888816833,-3.959338188
6.758062999999993,24.36268425,8.939222336,169.8056488,-2.862715483,0.116340391,11.69220448,-42.93899536,-1.950873017,-6.485215187
6.766395999999986,24.07420158,9.071237564,169.8175964,-2.231580019,-0.839402437,10.71356869,-36.69276047,14.76629353,-5.404085636
6.774728999999979,23.69058037,9.100342751,169.7550201,-0.607385039,-1.062844634,11.83635044,-46.62802505,-0.071809649,-8.376242638
6.783061999999973,23.28598785,9.162243843,169.7018585,-1.448390603,-1.794516802,14.07216644,-49.38829422,4.040757656,-8.933074951
6.791394999999966,22.84097672,9.288776398,169.6717682,-2.785543203,-1.47130692,12.92857265,-54.60321426,12.31297779,-9.411351204
6.799728000000016,22.28943062,9.346662521,169.6021576,-1.624339342,-2.690475464,9.764088631,-66.68592072,2.989193201,-10.47197342
6.808061000000009,21.67866135,9.414938927,169.5111847,-1.181911469,-3.110034227,13.26169014,-73.29429626,3.302920341,-13.2383585
6.8163940000000025,20.97819901,9.50586319,169.4190063,-3.491191149,-2.250453234,14.20541477,-84.08952332,5.933498859,-14.32699108
6.824726999999996,20.1657486,9.653868675,169.3283691,-1.572065473,-3.359359503,11.69229794,-97.4657135,12.59862518,-16.46575356
6.833059999999989,19.24379539,9.721673965,169.1777802,-1.673713565,-2.829285622,14.66892338,-109.4503708,1.391764641,-19.70822906
6.841392999999982,18.24034119,9.895596504,169.057663,-4.678989887,-1.447559118,15.13401604,-119.7413712,14.93936729,-20.33785629
6.849725999999976,17.14031029,10.13205051,168.9465027,-1.362706304,-2.322276831,12.73635578,-131.5429535,22.77912712,-21.33191299
6.858058999999969,15.91201878,10.32762909,168.808197,-2.713437557,-3.832286596,13.44854546,-146.229599,17.59325027,-22.51572418
6.866391999999962,14.58778286,10.50332546,168.7112579,-2.895214796,-1.278253675,13.73224926,-158.6665039,17.0696125,-16.78020477
6.874725000000012,13.17273712,10.73946857,168.5919952,1.565874696,-2.455464602,12.55986118,-168.9526672,23.87337303,-20.63719749
6.8830580000000054,11.62120342,10.83633423,168.4788208,-0.049876194,-3.224886179,15.12634468,-185.5052643,8.227057457,-15.72148705
6.891390999999999,10.01820946,11.04378796,168.3727264,-4.555837631,1.393041492,9.832130432,-191.7277222,21.84541321,-17.1309948
6.899723999999992,8.364563942,11.2374649,168.265152,-1.160731554,-1.76663661,13.00186729,-197.8079224,20.6579895,-16.41160202
6.908056999999985,6.618304253,11.2653513,168.1259003,0.307589978,-1.753369927,12.53933239,-208.0808258,0.920636535,-16.86609459
6.9163899999999785,4.880042076,11.46393681,167.9785614,-1.240489721,1.350817204,10.26902199,-206.9716492,21.71084595,-19.83018875
6.924722999999972,3.033591032,11.43996811,167.8173981,-2.259053707,-0.212268561,15.92101288,-219.5282288,-4.437279224,-18.89303207
6.933055999999965,1.243969321,11.7025671,167.6480408,-5.412157536,1.64405632,3.362092733,-212.5441895,30.4856987,-21.2689743
6.941389000000015,-0.58713448,11.62594986,167.4437408,3.399656296,0.554053426,16.84887505,-216.5731506,-9.593356133,-24.13524437
6.949722000000008,-2.384024858,11.81224823,167.2499847,-2.871703625,-1.139478683,7.932759762,-212.7706604,22.67664528,-22.37488365
6.958055000000002,-4.203427315,11.73768997,167.0561218,0.203013316,3.3760221,11.87606812,-215.3778687,-7.88342762,-23.43490601
6.966387999999995,-5.975674152,11.80677986,166.837677,-3.035689354,1.97368741,12.33711052,-209.1881866,10.27240086,-25.02069092
6.974720999999988,-7.662986755,11.83732033,166.6576691,-2.430889368,1.594793558,6.647292137,-199.852951,5.888307095,-20.73972511
6.983053999999981,-9.353013039,11.76784992,166.4455719,0.398728967,4.591052532,14.2111311,-199.4623718,-4.8196311,-26.06855011
6.991386999999975,-10.93551636,11.75649834,166.2623444,-0.27967152,-0.410898238,6.777737141,-187.2232056,2.191033363,-21.61408234
6.999719999999968,-12.48083019,11.53085995,166.0931549,0.605027318,3.011412621,12.77217865,-183.2032776,-22.741436,-25.16159439
7.008052999999961,-13.95977116,11.42249203,165.9307709,0.820218682,2.823557615,11.10458565,-175.4034882,-8.550587654,-21.74694443
7.016386000000011,-15.35618782,11.15675354,165.7751617,-2.980011463,2.289533854,4.507067204,-165.7753754,-26.47763443,-25.98339653
7.024719000000005,-16.68229675,10.95794296,165.6585236,0.198056534,2.156587601,18.53994179,-158.2575226,-19.39939499,-19.97055244
7.033051999999998,-17.99011421,10.70298386,165.5015106,-1.979165673,2.14699769,5.627447128,-155.2584839,-23.95246887,-26.97768021
7.041384999999991,-19.16668129,10.45192623,165.4378052,-2.259153366,2.427700758,11.53894234,-141.5960999,-26.42253113,-16.90635872
7.049717999999984,-20.30853271,10.16562843,165.3252258,0.74853766,3.640743256,15.08889103,-136.4623718,-28.11018372,-24.31045151
7.058050999999978,-21.34728241,9.965561867,165.2899933,-3.979576349,2.232062578,4.012969494,-125.7297287,-21.21666527,-12.61412907
7.066383999999971,-22.24923515,9.62052536,165.2272491,0.2187583,4.427629471,13.73146915,-108.8106689,-35.95005035,-22.45991898
7.074716999999964,-23.09270859,9.405187607,165.2193756,-1.648285627,3.436589241,12.05892658,-102.8774033,-23.74313164,-11.00750542
7.083050000000014,-23.83522797,9.131977081,165.1595154,-0.879556656,2.724341631,5.828573227,-89.79883575,-27.51189232,-19.75276947
7.0913830000000075,-24.43668556,8.875654221,165.1736755,-3.203527451,3.333192825,8.43564415,-74.26457977,-29.01288605,-11.23506927
7.099716000000001,-24.96208572,8.582588196,165.1513062,-0.408508301,3.510105133,15.08460617,-64.49168396,-31.10416603,-17.29986954
7.108048999999994,-25.44287682,8.353191376,165.1435699,-2.517366648,3.060682535,13.10612297,-59.38345337,-24.77298927,-12.74334812
7.116381999999987,-25.81970024,8.064810753,165.1373444,-0.212897882,1.51239109,5.765522957,-46.96243668,-31.14216995,-15.83272839
7.124714999999981,-26.07662964,7.844677448,165.1358643,-4.197509766,3.034067154,8.082221031,-32.63531876,-23.9337883,-11.9088335
7.133047999999974,-26.26307869,7.552186489,165.1307068,0.601661146,2.979716063,15.14359665,-24.14005661,-31.49110031,-16.22606659
7.141380999999967,-26.42463684,7.327738762,165.1483307,-4.551156044,2.469719172,10.82618332,-21.49137688,-25.32401466,-10.26544094
7.149714000000017,-26.54899025,7.131176472,165.1244202,0.439967304,0.289921612,11.56729031,-16.40965652,-20.10338593,-13.26309776
7.1580470000000105,-26.63031769,6.921924591,165.1306,-4.07794714,1.556187987,8.504808426,-11.68413448,-23.0428791,-10.77272987
7.166380000000004,-26.66954041,6.778811455,165.1128387,-0.516893387,0.669381142,11.61357212,-6.298452377,-14.66099072,-9.79013443
7.174712999999997,-26.72491264,6.581509113,165.1146545,-2.860339403,0.900780976,14.70625591,-8.508220673,-21.5079155,-10.63755989
7.18304599999999,-26.76389503,6.503808975,165.088562,-2.206513882,1.633358836,10.46794701,-6.169073582,-7.18877697,-7.171384335
7.1913789999999835,-26.76860809,6.380517483,165.0569153,-1.275781631,-0.275699705,11.15705013,-1.978072286,-11.76998615,-10.22421837
7.199711999999977,-26.73859787,6.324717522,165.0280914,-3.893416882,1.477095485,9.453903198,2.136073828,-4.694231987,-6.277934551
7.20804499999997,-26.70614815,6.263236046,165.0017548,-1.503047228,2.577907085,17.51111031,2.396801233,-5.437095165,-6.320556164
7.216377999999963,-26.71382141,6.235935211,164.9721222,-2.512808084,-0.528563201,8.552506447,-2.380625248,-1.599442363,-4.824428082
7.224711000000013,-26.66652298,6.285243034,164.8918457,-2.007133484,0.251495659,10.71049404,4.877232075,9.327219009,-6.094637871
7.233044000000007,-26.63119888,6.255358219,164.874176,-2.352801561,0.814663529,11.69064808,2.62425518,-2.522886753,-3.688052416
7.241377,-26.58753777,6.324287415,164.7658691,-2.403842449,1.386076808,14.43332672,4.810302734,12.92087269,-8.042807579
7.249709999999993,-26.57829094,6.340837002,164.7322845,-0.708531797,-0.892844319,9.093780518,-0.291707695,3.307335854,-2.889452219
7.2580429999999865,-26.5446701,6.463593006,164.6025238,-2.561573744,-0.176643297,9.656549454,3.916546583,19.83275223,-7.448405743
7.26637599999998,-26.52496147,6.480230331,164.5606995,-1.396943688,0.212991774,13.69204044,1.082944274,3.751076221,-3.763768911
7.274708999999973,-26.52814674,6.584532738,164.4632416,-1.492425084,1.133278489,14.95370865,-0.908626676,16.12721252,-5.000731945
7.283041999999966,-26.56998634,6.663509369,164.4003296,-2.199617624,-1.317264199,8.562468529,-5.997612,11.56746578,-2.667530537
7.291375000000016,-26.5729866,6.8157444,164.2897339,-1.925588489,0.617435098,9.042492867,-0.6632936,21.97102547,-3.811565876
7.29970800000001,-26.60435486,6.867245674,164.2524719,-1.073092103,-0.009715049,16.81075859,-5.077856064,7.252056599,-1.401700735
7.308041000000003,-26.66010094,7.028937817,164.1386871,-1.281941533,0.627447367,9.485970497,-6.903411388,23.15774345,-3.614234686
7.316373999999996,-26.68802643,7.14269495,164.0733643,-2.207311392,0.027747288,8.933707237,-4.232151508,15.42863464,-1.018101931
7.324706999999989,-26.70174408,7.270364285,164.0061646,-0.839828432,0.058742169,11.10595894,-2.498810053,17.01869011,-0.463246316
7.333039999999983,-26.74155617,7.38176012,163.9335327,-0.49814719,1.178806305,15.5999527,-5.513914108,15.5641346,-1.904790401
7.341372999999976,-26.76878548,7.526080608,163.8557892,-2.089448452,0.288547039,6.439413548,-3.9281106,19.36736298,-0.662602067
7.349705999999969,-26.76835442,7.61260891,163.8078613,-0.46954906,1.314843535,15.22282696,-1.035673141,11.57660961,-0.606814027
7.3580389999999625,-26.79850578,7.670872211,163.7679138,-0.774352849,0.10291364,7.565492153,-4.854602814,8.121941566,-1.290868044
7.366372000000013,-26.78969574,7.796108723,163.6892548,-1.585719824,-0.443945169,9.589904785,0.48072809,17.36763382,-1.769572854
7.374705000000006,-26.80799675,7.790734768,163.6967926,0.036774535,-0.100632288,15.18923283,-4.192576408,-1.240126133,0.310777545
7.383037999999999,-26.83689308,7.918774605,163.6133575,-2.724830151,0.290968001,8.303170204,-3.945733309,17.92535973,-2.113520861
7.391370999999992,-26.84244347,7.942327499,163.6140442,-0.711642683,-0.736940622,10.66328621,-2.556697607,2.22410965,1.148619056
7.399703999999986,-26.87050438,8.017353058,163.5774384,-2.297557831,0.935753882,14.99580288,-4.602122784,9.735254288,-0.008952175
7.408036999999979,-26.92692375,8.065101624,163.5701141,0.578426898,-1.548109293,12.01144981,-8.531064987,5.242210388,1.616258264
7.416369999999972,-27.00557137,8.065948486,163.5602417,-1.721004963,-0.84732908,10.32021809,-11.11610508,0.360443532,-1.194097281
7.424702999999965,-27.08597565,8.157026291,163.5416107,-1.573883653,-0.141044959,13.03962994,-11.21423435,10.48086071,2.796434641
7.4330360000000155,-27.20033455,8.107577324,163.5751343,-0.502085149,-0.236214533,10.69703674,-16.13993073,-7.35970211,0.642481983
7.441369000000009,-27.29115868,8.21582222,163.5474548,-2.961741686,0.399943441,9.864979744,-12.31057644,12.7931118,2.822869062
7.449702000000002,-27.38433838,8.179442406,163.5651855,0.893845499,-0.276502013,11.49631214,-13.33291435,-5.106749058,-0.329539955
7.458034999999995,-27.47631454,8.216016769,163.5763855,-3.534114599,0.922082663,12.54726315,-13.11199379,3.023556232,2.999325037
7.466367999999989,-27.55483246,8.198760033,163.5964966,1.714851737,-0.397989064,9.556303978,-11.61606979,-3.201690197,0.967705905
7.474700999999982,-27.61453629,8.160261154,163.6497192,-2.965975523,0.582163513,9.298491478,-9.959929466,-7.280399323,3.263100386
7.483033999999975,-27.64814186,8.172530174,163.6733246,0.965632856,0.465698332,12.71593475,-6.283133507,-0.258537292,2.971507311
7.491366999999968,-27.6829834,8.071928978,163.7704315,-2.69894743,-0.089499392,12.69638252,-7.715457916,-16.30685997,4.410721302
7.499699999999962,-27.69328117,8.091897964,163.8025055,-1.456361651,0.976896584,7.917376041,-3.624555111,0.089726672,4.292049408
7.508033000000012,-27.68466568,7.989632607,163.8974915,-2.572952986,-0.302084386,11.34506512,-2.451449156,-16.36933136,4.090209961
7.516366000000005,-27.66960144,8.029792786,163.9383392,-2.130952835,0.162791878,13.67736244,-0.721283972,1.750963211,6.341469288
7.524698999999998,-27.66747856,7.937059879,164.0213013,-0.895920038,-0.18462345,13.68459797,-3.022211552,-14.69185352,3.360690594
7.5330319999999915,-27.65835953,7.932354927,164.0670166,-2.127410173,0.138633311,9.132108688,-1.509792805,-3.28508997,4.355265617
7.541364999999985,-27.63027382,7.856403828,164.1234741,-1.190471053,0.268129081,11.11513042,0.542176545,-11.44542694,1.510650754
7.549697999999978,-27.61384392,7.818378448,164.1982422,-2.026102543,-1.291497827,11.21399021,-1.099862576,-8.426559448,5.564410686
7.558030999999971,-27.58273315,7.73194313,164.2609558,0.367193013,-0.211305708,12.48749733,0.817094266,-12.90446663,1.601632833
7.566363999999965,-27.57312012,7.667608738,164.3359375,-2.224046469,-0.292234033,12.17080212,-1.897771478,-11.23413372,4.134598255
7.574697000000015,-27.55942345,7.573753357,164.4027405,-2.095375299,-0.775980055,9.815537453,-1.32017076,-13.91722965,1.627426505
7.583030000000008,-27.56884575,7.559006214,164.4584961,-2.177227259,-0.520997345,13.47844791,-3.857901335,-4.900272846,4.866782188
7.591363000000001,-27.58275986,7.450380802,164.5409851,-1.768870115,-0.838812947,10.61738205,-4.864003658,-16.35601234,2.461374998
7.5996959999999945,-27.61785316,7.466212273,164.5606995,-2.092231989,-0.290958792,14.53317356,-6.365764618,0.33464998,2.764749289
7.608028999999988,-27.67544746,7.410750866,164.6281281,-3.747414112,-0.500059724,7.639090538,-9.863337517,-9.877810478,3.816649199
7.616361999999981,-27.71971703,7.448410034,164.6363983,-0.789444387,-0.752518117,13.96552658,-7.284137249,3.282694578,2.775635242
7.624694999999974,-27.78910637,7.425724506,164.697464,-3.301654577,0.069552734,11.58899212,-11.18178177,-6.050582886,4.957789421
7.6330279999999675,-27.86866188,7.45450449,164.7019501,-0.333174706,-0.767175853,11.1381855,-11.46369171,2.542418242,1.89002347
7.641361000000018,-27.93139458,7.486589909,164.7386627,-3.306798935,0.005441029,8.697250366,-10.00926113,1.09967041,5.456984997
7.649694000000011,-28.01776123,7.494981766,164.7607269,-0.316334069,-0.251155794,15.33780766,-12.55726624,-0.603970945,2.596208096
7.658027000000004,-28.08236122,7.539216518,164.778656,-2.976183414,-0.404596686,8.336388588,-9.943408966,3.423240185,4.175299644
7.666359999999997,-28.15374947,7.582706928,164.8002472,-0.898700833,-0.214258745,9.227850914,-10.75471497,3.130213737,4.529186726
7.674692999999991,-28.18559265,7.624652863,164.8040314,-1.141094446,-0.310494632,10.91984844,-5.792518616,3.966569662,2.568416357
7.683025999999984,-28.24439621,7.669971466,164.826416,-1.905269861,-0.013796421,16.96552849,-9.260201454,3.269657612,4.72308588
7.691358999999977,-28.30064392,7.7065835,164.8235321,-2.470620632,-0.831996739,4.572146893,-8.616770744,3.773310184,1.573892593
7.6996919999999704,-28.34251404,7.768403053,164.8314514,-0.268639386,-0.923886895,15.00929451,-7.001075268,5.821910858,4.154526711
7.708024999999964,-28.41466904,7.811347485,164.794632,-3.714426517,0.272503942,8.064676285,-9.97624588,6.356685162,-1.607895255
7.716358000000014,-28.49443626,7.883450508,164.7977905,-1.784945011,-2.000398397,15.36545849,-11.47260571,7.165224552,4.257547855
7.724691000000007,-28.57933426,7.963131428,164.761322,-1.686938763,-0.426421106,7.830467701,-11.50277901,10.21121788,0.555163026
7.733024,-28.70643806,8.043623924,164.7401581,-1.610786557,-0.656814814,13.4625082,-16.74734688,9.41963768,2.228208542
7.741356999999994,-28.8219986,8.108966827,164.7246399,-1.458033204,-0.799977958,11.75251579,-15.52644634,7.501924515,1.951369643
7.749689999999987,-28.97049713,8.252741814,164.6708679,-3.777386665,0.608209848,10.32886124,-18.75051308,17.92828178,2.5484128
