,time,Euler_X,Euler_Y,Euler_Z,Acc_X,Acc_Y,Acc_Z,Gyr_X,Gyr_Y,Gyr_Z
0,0.0,-0.1927602065,-1.2220853565,-128.0441589,-1.4243287445,-1.025207132,12.0070676815,5.42989707,51.858263019999995,1.8710668980000003
1,0.0083329999997658,-0.152743593,-0.8295741080000001,-128.02736665,-0.9068486095,-0.30050814149999994,15.12606573,4.750303149,46.559000014999995,1.655771464
2,0.0166659999999865,-0.119950596,-0.39237772699999995,-128.0135918,-0.8392391205,-0.338612437,14.200846195,3.8468573090000002,51.91300774,1.2803878785
3,0.0249989999997524,-0.12350009599999999,0.022324606999999996,-128.00273895,-1.4604294895,-1.2619182764999999,15.374744414999999,-0.5034169144999999,49.230409625,0.9067395924999999
4,0.033331999999973,-0.13282739699999999,0.46105873599999997,-128.00210955,-1.0536018905,-1.0029217605,14.59253502,-1.2245683075,52.098163604999996,-0.30655884750000006
5,0.0416649999997389,-0.180517197,0.8512585165,-127.99288175000001,-0.475402914,-1.7926113605,12.189706325,-5.816274762499999,46.291940690000004,0.7548077105
6,0.0499979999999595,-0.27999576,1.2402209640000001,-128.0059395,0.06131720550000008,-1.4444128274999999,13.40043974,-12.012107372,46.13011169,-1.8885291814999998
7,0.0583309999997254,-0.4077943565,1.5999168755,-127.99892805,-1.356873155,-2.5902893540000003,18.096842764999998,-15.441345694999999,42.629817965,0.597645581
8,0.0666639999999461,-0.5530929265,1.9163146615,-128.01673125000002,0.370035961,-0.828753084,14.351668835,-17.46793556,37.4340744,-2.336726889
9,0.0749969999997119,-0.7381667345,2.2083076234999997,-128.012928,-0.5521125495,-1.4943256974999999,14.107332705,-22.31166077,34.49945545,0.355993986
10,0.0833299999999326,-0.9376455245,2.4889239075000003,-128.03652955,-0.8118481040000001,-1.3575941325,15.802831175000001,-23.914911269999998,33.167745589999996,-2.837273657
11,0.0916630000001532,-1.1442296505,2.73455286,-128.0301895,-0.31047042449999995,-1.1119225025000001,15.494398595,-24.91633606,28.91900253,0.810800374
12,0.0999959999999191,-1.3511421085,2.9780814644999998,-128.04608915,-0.865940556,0.1601016785,13.900278570000001,-24.825400355,28.712272645,-1.765770823
13,0.1083290000001397,-1.5585052369999999,3.2044253344999998,-128.02752305,-0.9195475575000001,-0.8463584635,13.889300825,-25.09607792,26.55530834,2.4384781125
14,0.1166619999999056,-1.766320586,3.3876790999999997,-128.0289574,-0.5764061065,-0.5599355175,15.45306921,-25.016882895000002,21.44771576,-0.04257723699999999
15,0.1249950000001263,-1.9731584195000003,3.5605540275,-128.0006371,-0.329209268,-1.396501064,14.845619205,-25.120539665,20.078834535,3.581981182
16,0.1333279999998922,-2.178911328,3.7082356215,-127.99658585,-0.1978773775,0.113671329,16.504706855000002,-24.81068516,17.157799725,0.6260445265
17,0.1416610000001128,-2.3777811525,3.826464176,-127.97289655,0.0015897435000000008,-0.36381575450000003,16.508036135,-24.14266586,13.522522448499998,2.9213569164999997
18,0.1499939999998787,-2.579322219,3.9189060925000003,-127.97241589999999,-0.3519025445,0.13297204699999998,14.679337499999999,-24.280667305,10.5477676395,0.06250524550000003
19,0.1583270000000993,-2.7795917990000003,3.998588562,-127.95475005,-1.028879732,-1.3621264100000001,15.658445355000001,-24.26971817,8.903691528,2.074568622
20,0.1666599999998652,-2.9574429990000004,4.043611287999999,-127.9426918,-1.0617758634999999,0.020231485500000007,17.48789215,-21.53452301,4.790581584,1.220640458
21,0.1749930000000858,-3.1185364719999997,4.0647838115,-127.91328045,0.277002871,-0.339671582,16.08890152,-19.670819285,1.8057727815,3.162283242
22,0.1833259999998517,-3.2713162899999997,4.056434631,-127.89788820000001,-0.354172841,-0.22123495449999997,15.353992940000001,-18.557840345000002,-1.6308901905,1.2904269695
23,0.1916590000000724,-3.417847037,4.0204571485,-127.87153245,-0.745543614,0.0672353655,15.62289238,-17.89403343,-5.040331781,2.4066499325
24,0.1999919999998383,-3.5507888794999998,3.961338043,-127.85598375000001,-1.327491045,-0.806921393,14.357877254999998,-16.178487779999998,-7.7230718135,0.9344849585
25,0.2083250000000589,-3.6597247125,3.857368827,-127.8341446,0.131850898,-0.11142790300000005,16.470092295,-13.33930826,-13.162147995,1.3514907955000002
26,0.2166579999998248,-3.7402981520000003,3.7610938550000004,-127.8185043,-1.5019449885,0.4850970805,16.215946195,-9.892090797,-12.174140455,0.6284770965000002
27,0.2249910000000454,-3.8101224900000004,3.644872069,-127.8177185,-0.7729661165,0.4588896035,14.63052797,-8.472960472,-14.46976614,-1.28929919
28,0.2333239999998113,-3.8668341635,3.521945596,-127.8064613,-1.9703980085,-0.417939667,15.104646680000002,-6.989556313,-15.336494445,-0.12547111500000008
29,0.2416570000000319,-3.8963838815000003,3.4104146955,-127.81539914999999,-1.125448346,-0.664508395,15.59417152,-3.5710419415,-13.824480059999999,-2.43189317
30,0.2499899999997978,-3.9086540935,3.2760459185000004,-127.80160905,-1.1168237625000002,-0.4509600105,14.991490845000001,-1.6665201185000003,-16.73335838,0.07202088799999995
31,0.2583230000000185,-3.9158831835,3.1619325875,-127.81535335000001,-0.8236154615,0.3427907225,15.53106403,-0.8646916149999999,-14.091648105,-3.052641153
32,0.2666559999997844,-3.9198510645,3.0242352485,-127.80269239999998,-1.591716781,-1.177186042,15.362523079999999,-0.656268842,-17.125333785,-0.06491273650000007
33,0.274989000000005,-3.903772712,2.891443133,-127.82200625,-1.080899686,-0.2851790635,16.41053104,1.9561914205000002,-16.280481815,-3.859944463
34,0.2833219999997709,-3.875416875,2.7589370014999997,-127.81552504999999,-0.894121468,-0.37215089800000006,14.840420725,3.2675575015,-16.454946515,-0.7560874424999999
35,0.2916549999999915,-3.8380675315,2.6414513585,-127.84585190000001,-1.5967426,0.837427199,14.38225126,4.558502078,-14.361942765,-5.042829275
36,0.2999879999997574,-3.7809820175000004,2.531159639,-127.84849165,-2.722349405,-0.7103369235,16.28424549,6.767883659500001,-13.726644995000001,-1.6181924345
37,0.3083209999999781,-3.6948868035,2.460529089,-127.88240815,-1.6782968045,-0.08266073499999999,16.88810253,10.4134440425,-8.7308444975,-5.0683538915
38,0.316653999999744,-3.589224458,2.4265767335,-127.89522554999999,-2.011226952,-0.47822834549999993,15.63975906,12.647772791,-4.511921823000001,-2.1974198815
39,0.3249869999999646,-3.4703875780000004,2.4244378805,-127.929081,-2.332218766,-0.28736674799999995,12.752880095,14.338340285,-0.543143511,-4.5373580454999995
40,0.3333199999997305,-3.3486425874999997,2.447627902,-127.93416214999999,-2.2074480055,-1.162420936,14.46317816,14.540442465000002,2.270465657,-0.872408211
41,0.3416529999999511,-3.2150330545,2.4881750345,-127.9617767,-1.99655205,-0.3595302555,15.479466915,16.079602245,4.5106232165,-3.4912659525
42,0.349985999999717,-3.0730910305,2.564834833,-127.97309875,-1.0571862755,-1.0519828275,14.88443422,16.99907637,8.718081951,-1.2984113695000001
43,0.3583189999999376,-2.9314109085,2.6294076445,-127.99730685,-1.47948128,-0.7011340555000001,13.119424344999999,17.03785753,7.354022026,-2.9787893295
44,0.3666519999997035,-2.7977275845,2.700830698,-128.01517865,0.045879006499999986,-0.42024920600000004,13.56160164,16.048866750000002,8.1259584425,-2.1784017235
45,0.3749849999999242,-2.6665252445,2.7579526899999998,-128.04090885,-1.567862511,-1.035934627,13.430229189999999,15.797211650000001,6.4580550195,-3.240496278
46,0.3833180000001448,-2.5480461125,2.802423477,-128.06503295,-0.5261150004999999,-2.0442539455,12.95532417,14.265327450000001,4.920879960000001,-3.131443411
47,0.3916509999999107,-2.4437558655,2.8454717394999998,-128.09049225,-1.2250320614999999,-1.202712268,10.69189453,12.56959772,4.758779644500001,-3.284219086
48,0.3999840000001313,-2.355235934,2.8538808825,-128.11467745,-0.358813618,-1.5367254915,9.8276085845,10.6753349305,0.588358998,-3.361957848
49,0.4083169999998972,-2.274361849,2.8549073930000004,-128.12786105,-0.9749356805,-1.603003949,11.531044005,9.6871118555,-0.3511518835,-2.0076949749999997
50,0.4166500000001178,-2.238876104,2.874900222,-128.15071104999998,-1.1928912405,-1.8301765915,9.51521921,4.3052406315,1.9651243090000001,-3.1525489095
51,0.4249829999998837,-2.2261720895,2.8787208795,-128.16915895,-1.363127887,-2.546333551,7.4025132655000005,1.539582193,0.0070632695000000245,-2.6575536135
52,0.4333160000001044,-2.2583556175,2.9485585685,-128.20567705,-1.423805535,-1.751606345,4.912870288,-3.7327117325,8.006383538,-4.4989356995000005
53,0.4416489999998703,-2.3646053074999998,2.9092082975,-128.219738,-0.538995951,-3.1083661315,6.881036282,-12.76105261,-5.1894069315,-2.304807842
54,0.4499820000000909,-2.51357162,3.0905641315,-128.26768115,-4.0977555515,-2.269843936,8.016980409,-17.670173165,21.444739339999998,-5.244889498
55,0.4583149999998568,-2.705203414,3.067105293,-128.2644539,1.365460366,-2.6027925610000002,2.7595767974999994,-23.111665725,-3.379947424,-0.145994544
56,0.4666480000000774,-2.9827854635,3.2339310645,-128.2789841,-2.7594740985,-2.0984313485,6.24187553,-33.30885887,19.53977966,-1.1902565955
57,0.4749809999998433,-3.289378047,3.316473007,-128.2614174,-0.7893801180000001,-1.832309425,5.1801068785,-37.006547925,9.2210104445,2.25091213
58,0.4833140000000639,-3.6013896465000004,3.4240673785,-128.23789975,0.37033294149999996,-1.0231357215,3.811454892,-37.70113373,12.1884489045,3.1747354865
59,0.4916469999998298,-3.980698228,3.523247957,-128.23278045,-1.3678529259999999,-1.418827295,3.9566969275,-45.648700715000004,11.2887020105,0.9631932525
60,0.4999800000000505,-4.355985045000001,3.637474298,-128.2224083,0.9170914145,-1.1002701375,2.8540450335000003,-45.208889005,13.0530085555,1.8155021965
61,0.5083129999998164,-4.7565243245,3.7199670075,-128.23160934999999,-1.4563734825,-0.41712339249999997,5.4390356539999996,-48.08824158,9.406106470000001,-0.7170397934999999
62,0.516646000000037,-5.1546595095,3.790281415,-128.23074725,0.9653032309999999,-0.8385459894999999,4.296039462,-47.876485825,7.877060173,0.38689780250000005
63,0.5249789999998029,-5.5460162165,3.855894804,-128.23958585,-1.1111652330000001,-0.4896556285,3.440770745,-46.984182360000005,7.374557972,-0.754168868
64,0.5333120000000235,-5.9372479915,3.8982805015000004,-128.22660065,1.0439012795,-0.3061146365,3.148764968,-47.149904250000006,4.3837284145,1.6271176934999998
65,0.5416449999997894,-6.3165056705,3.925445676,-128.22684095,-1.074154675,0.23424381000000005,5.3995712995,-45.59972191,2.681762964,-0.11009800399999992
66,0.5499780000000101,-6.679007052999999,3.9254779820000003,-128.20637515,0.9141719340000001,-0.32523010700000005,2.7167028785,-43.76601601,-0.7904109955000003,1.9952313900000003
67,0.558310999999776,-7.010983706,3.911130786,-128.20934675,-1.2485035655,0.5323646815,4.201631069499999,-39.901603699999995,-2.2337691485,-0.9852457050000003
68,0.5666439999999966,-7.3125698565,3.8586171865,-128.18021775,1.306669056,0.022632599000000003,3.9488706584999997,-36.528444289999996,-7.195143461500001,2.20526731
69,0.5749769999997625,-7.5718619825,3.803836942,-128.20034404999998,-1.6891973020000002,1.2760360835,6.2779786585,-31.039624214999996,-6.7733652595,-3.6774793865
70,0.5833099999999831,-7.789668798499999,3.7138204575,-128.15460965,0.9432425499999999,-0.006702094999999991,4.4162691835,-26.599674225,-11.957469461499999,3.5407248735000003
71,0.591642999999749,-7.9595487115,3.6026673315,-128.19116209999999,-1.544010222,2.077976823,4.347171664,-20.191818715,-13.165968419999999,-6.6096694485
72,0.5999759999999696,-8.0862834455,3.485387325,-128.11711880000001,1.3861769434999998,-0.8256518435,5.9366009235,-15.855578900000001,-15.712625502999998,6.384569406500001
73,0.6083089999997355,-8.142985821,3.3588215115000004,-128.16228105,-2.6260816455000002,2.6075584295,6.201775074,-6.574497461,-14.811103345,-7.9484710695
74,0.6166419999999562,-8.1461167335,3.1702824830000003,-128.0673981,2.3561325075,-0.871350974,3.5622849765,-1.1143276690000001,-24.558335305,7.6241598125
75,0.6249749999997221,-8.128015518,3.0136106015,-128.0972519,-2.571808219,2.504401803,6.568912029,2.260887625,-18.635697365,-6.664661167
76,0.6333079999999427,-8.04981184,2.8063954115,-128.01776125,1.8341765999999997,-0.5955775825,5.673661828,8.819475175500001,-26.513428689999998,5.5310409065
77,0.6416409999997086,-7.937469244,2.579278946,-128.02109145,-2.6364350615,1.1883512440000001,5.8168137075,13.38417101,-27.46373844,-4.6508445755
78,0.6499739999999292,-7.78148222,2.3956286904999997,-127.97423549999999,1.678302713,-0.02571663299999999,7.6112465855,18.4014802,-23.152821545000002,2.1489090919999994
79,0.6583070000001499,-7.5875570775,2.1099815365,-127.9520569,-2.576287508,1.2596238405,4.1271257405,23.050313945,-34.86001396,-2.410131574
80,0.6666399999999157,-7.363516092499999,1.91901505,-127.91775895,1.1379208415,-0.2191100125,5.567006945999999,26.667627335,-23.802851675,0.6928756235
81,0.6749730000001364,-7.1209039690000004,1.6490415335000002,-127.89576720000001,-2.852600694,0.9057597815,6.6534826755,28.910134315,-33.015077590000004,-1.9190287590000001
82,0.6833059999999023,-6.842913151,1.430216074,-127.8619957,1.4010241035,-0.657929182,7.6869916915,33.17983818,-27.0994215,0.4330167770000002
83,0.6916390000001229,-6.536737442,1.2270092364999998,-127.84947965,-3.6701388359999996,0.658477843,3.455423951,36.58078003,-24.937259675,-1.8081307410000003
84,0.6999719999998888,-6.2414963245,0.9843516944999999,-127.85077285,1.2361141445000001,-0.9245025365,2.9655369225,35.35187149,-29.465865135,-3.794850588
85,0.7083050000001094,-5.934667349,0.8600922525000001,-127.87718964999999,-3.470941782,-0.23845253900000002,8.7576839925,36.751852035,-15.037785529999999,-5.179771542
86,0.7166379999998753,-5.628423214,0.6749859455,-127.92113495000001,-0.19222438349999993,-0.7289443019999999,2.7316200735000002,36.734500885,-22.109783175,-7.884766577
87,0.724971000000096,-5.331466197999999,0.5889369695,-127.96421815000001,-2.708972037,-1.110061288,2.633404255,35.585018155,-10.32982397,-6.584980132
88,0.7333039999998618,-5.0574665065,0.5059691965,-128.0408516,-0.570401162,-0.5594363360000001,5.613125086,32.879671095,-9.624420165,-10.4644408245
89,0.7416370000000825,-4.794048548,0.471673116,-128.0590248,-2.985851884,-1.6429558395000001,3.7685925960000004,31.52992058,-4.454844296,-2.9631977675
90,0.7499699999998484,-4.540417194,0.449807644,-128.12677765,-0.155594293,-0.4558491115,1.600958586,30.409035680000002,-2.49904871,-8.713657021
91,0.758303000000069,-4.337050676,0.4838165045,-128.1074104,-2.7442224025,-1.9133466185,4.166206956,24.289947509999998,3.3472382425,2.1811748145
92,0.7666359999998349,-4.156674147,0.525393054,-128.1573677,-0.609082431,-0.46765199300000004,3.9743381739999997,21.602688790000002,4.8752553464999995,-6.003115177
93,0.7749690000000555,-3.9977430105,0.595641196,-128.1212463,-1.4386163425,-2.089051187,2.1494914295,18.933383465,7.558392048,4.481109738
94,0.7833019999998214,-3.8697921035,0.6725785435,-128.16511535,-0.6757624745000002,-0.438843362,2.5426856875,15.31836939,9.029187202500001,-5.015743017
95,0.791635000000042,-3.7890702485,0.7749881144999999,-128.1229286,-1.1088990865,-1.954801142,2.647938132,9.526281835999999,11.3794975275,5.4306156635
96,0.7999679999998079,-3.7376961705,0.8873961565,-128.15600204999998,-1.3427998425,-0.8590160015000001,2.1145974995,6.1298277379999995,13.18405294,-3.5129222125
97,0.8083010000000286,-3.714631319,1.0045346915,-128.1252365,0.07085001499999999,-1.7258708175,2.7561231855,2.6098859905,13.23618412,4.149538874999999
98,0.8166339999997945,-3.7207559344999996,1.135456085,-128.1370125,-1.2852455005,-0.9242720715,2.499173522,-0.8010917455000001,15.23875618,-0.8202257154999999
99,0.8249670000000151,-3.7690713405,1.2673919200000001,-128.11585235,0.2681563125,-1.5451101660000002,1.9978047905,-5.949151039,15.07688713,3.115454435
100,0.833299999999781,-3.842242837,1.3984667659999999,-128.11114885,-1.1322816615,-0.8570849894999999,2.2618263365,-8.8847606195,15.131050585,1.1921954155
101,0.8416330000000016,-3.9416360855,1.5513626340000002,-128.09508895,-0.725831546,-0.7716636955,2.0889655945,-12.077464341499999,17.611295220000002,2.71222353
102,0.8499659999997675,-4.0532704595,1.703855753,-128.08071515,-1.099335447,-0.4659721555,2.2629462184999998,-13.532876015,17.61664629,2.556897521
103,0.8582989999999882,-4.175994515,1.8880044219999998,-128.07896805000001,-1.2188723685,-1.0636520345,2.941893816,-14.83303261,21.46285725,1.3490839005000002
104,0.866631999999754,-4.315820694,2.0586781505,-128.055542,0.5441124589999999,-0.2986225635,1.9620625969999999,-16.96640682,19.694465635,3.8804893495
105,0.8749649999999747,-4.4710001945,2.2098430395,-128.06611635,-0.352452105,-0.49279277050000003,2.1556754110000003,-18.671380045,17.631210324999998,-0.33063518999999997
106,0.8832979999997406,-4.6315267085,2.378938198,-128.04164889999998,-0.506398501,-1.044001937,1.222618628,-19.47377491,19.459892269999997,4.147959352
107,0.8916309999999612,-4.789251566,2.534155011,-128.0708313,-0.33726960400000006,0.803247325,0.972665787,-18.870531085,18.305391315,-2.4165127275
108,0.8999639999997271,-4.937944889,2.6790375710000003,-128.03910445,0.6197273135,-0.829200536,3.6217787265,-18.111641885,16.45799923,4.854182005
109,0.9082969999999476,-5.0846612454999995,2.8078949455,-128.06534955,-0.9761780505000001,0.28502109600000003,3.263440132,-17.54954958,15.13878775,-2.2420406340000003
110,0.9166299999997136,-5.218751192,2.922526956,-128.04267885000002,0.9805306049999999,-0.442373514,0.4030834435,-16.32461214,12.907926084,3.5639276505
111,0.9249629999999344,-5.3529241085,3.013675213,-128.05560305,-0.29671251750000005,0.8821443364999999,1.2069254815,-16.1132164,10.4934897445,-0.9928976300000001
112,0.9332960000001548,-5.4721469875,3.0774573085,-128.0132103,1.1469332425,-0.7250975104999999,3.1371937990000003,-14.674200055,6.586760521,5.3946213725
113,0.9416289999999208,-5.552175760500001,3.115434289,-128.02773285,-0.7437945005000001,1.315412253,3.6360582115,-9.6040601745,4.171983957,-1.7457576245
114,0.9499620000001414,-5.619752407,3.127389312,-127.985569,1.833569944,-0.18560911700000002,2.064451516,-8.4800164705,0.3769195080000003,4.7948058845
115,0.9582949999999072,-5.6814210415,3.1024024485000004,-127.98410799999999,-0.7190374735,0.2527331115,1.6772795915,-7.505881430500001,-3.526184082,-0.6234570739999998
116,0.966628000000128,-5.718650103,3.0465141535,-127.9538841,1.56888549,0.4965059759999999,2.7433818580000002,-4.7545015555,-7.585957409000001,2.5187569595
117,0.9749609999998938,-5.729572773,2.9551571604999998,-127.95251085000001,-0.6209592300000001,1.1459216475,4.4508776665,-1.4182090760000001,-11.4511127465,-1.4269117115000003
118,0.9832940000001144,-5.705564976,2.83676815,-127.9237976,1.3869742155,0.003452081000000001,4.905213356,2.619191289,-15.03518915,1.60329175
119,0.9916269999998804,-5.660907507,2.681753993,-127.90870285,-0.515028186,0.67841208,4.326272726,5.167930126,-19.21781826,-0.5320529934999998
120,0.999960000000101,-5.588446617000001,2.4856225255,-127.8824234,1.4137868285,0.7510426044999998,3.7607001065,8.4670858365,-24.288972855,0.4643681044999999
121,1.0082929999998669,-5.502908707,2.2547978165,-127.85470584999999,-0.632321097,-0.2660774585,6.1849677565,10.023563862,-28.420594215,0.11628198599999995
122,1.0166260000000875,-5.383109331,1.976545155,-127.82934949999999,1.8099522590000001,1.0530510395000001,6.7553901675,14.181941985000002,-34.0805006,-0.5404148099999999
123,1.0249589999998534,-5.2493195535,1.6668694615000001,-127.7795372,-0.772308389,-0.2873818874999998,7.5328314305,15.76021862,-38.08567047,1.96312201
124,1.033292000000074,-5.081834078,1.3250065444999999,-127.76966095,1.43229441,0.6796533760000001,8.6143097855,19.980883125,-41.517829895,-2.847449243
125,1.04162499999984,-4.8763709065,0.896125704,-127.7055359,0.007772624500000047,0.44778665900000003,7.3170626164999995,24.404266354999997,-52.46987915,2.6310237645
126,1.0499580000000606,-4.6653306484999995,0.517246015,-127.69032669999999,-0.26549038300000005,0.796319144,10.470693113500001,25.213819505,-45.999839785,-2.4389735459999997
127,1.0582909999998265,-4.4097936155,0.02964352050000002,-127.6425476,-0.5045999139999999,-0.14893227799999997,10.7896575925,30.53561306,-59.314958575,0.5070036944999999
128,1.066624000000047,-4.106728077,-0.394721483,-127.62641905000001,-0.7328190800000001,1.4532958569999999,11.096057894000001,36.279823300000004,-51.47486496,-2.2297524214999997
129,1.074956999999813,-3.7972685095,-0.859568119,-127.57309719999999,-0.707286656,-0.8982734084999999,12.258661745000001,37.109462735,-56.62453841999999,1.97553131
130,1.0832900000000336,-3.471428156,-1.336218178,-127.5486107,-1.4855951815000001,0.555516258,8.915040015999999,39.059013365,-57.82150269,-1.077345818
131,1.0916229999997995,-3.1424431805,-1.727922916,-127.51005935,-3.0960550304999996,-0.30339095000000005,11.972961905,39.514251709999996,-47.7275486,1.455962956
132,1.09995600000002,-2.784228206,-2.1481730345,-127.48104095,-0.14139750599999995,-0.009139105500000022,13.630113604999998,43.00466156,-51.094501495,0.5384709240000001
133,1.108288999999786,-2.4165295365,-2.5059424635000003,-127.43359375,-3.758320928,-1.547744274,12.225461004,44.265033724999995,-43.687583925,3.287367761
134,1.1166220000000069,-2.0843173265,-2.774032116,-127.41877364999999,-2.1237131955,-0.978942845,9.140738488,39.849306105,-32.766355515,0.17558646200000005
135,1.1249549999997726,-1.7648756505,-3.1171205045,-127.386364,-1.477437049,-1.365679979,16.242315769999998,38.44403267,-41.81992149,2.052717656
136,1.1332879999999932,-1.4576896425,-3.2312886714999998,-127.37864305,-4.9024498465,-0.846525371,9.921297787,36.812866215,-14.278060435,0.17858940350000008
137,1.141620999999759,-1.1793161035000002,-3.4385806325,-127.35260009999999,-0.0167161115,-1.6270028945,14.306072232999998,33.497261045,-25.474717145,2.097943101
138,1.1499539999999795,-0.925445497,-3.533530593,-127.3375702,-3.257581353,-1.0928500145,11.809670445,30.480991365,-11.973180295,1.2537474629999998
139,1.1582869999997456,-0.706479877,-3.6022251845,-127.3245697,-1.7920190689999997,-2.2792169455,11.807101725,26.281017305,-8.8092918395,0.9936217365000001
140,1.1666199999999662,-0.5394839645,-3.618555069,-127.3200798,-2.86553812,-1.74644202,12.9297328,19.980813025,-2.512674093,0.15572828049999987
141,1.174952999999732,-0.405398056,-3.6623916625,-127.3022537,0.0629208685,-2.5407037735,16.130332945,16.13089132,-5.824473857999999,1.648000747
142,1.1832859999999528,-0.32265707099999996,-3.5584094525,-127.30301284999999,-4.866873026,-0.590285748,8.76927066,9.828222274,11.922506331000001,-0.4547744989999999
143,1.1916189999997189,-0.270462796,-3.490961075,-127.30221175,-0.5158487405,-2.210260272,14.54054928,6.172774315,7.5559308530000004,-0.3044957519999999
144,1.1999519999999393,-0.24588377050000002,-3.2997430565,-127.3058243,-5.002001524000001,-1.2551261185,12.838574885,2.8248027565,22.405742645,-0.830740929
145,1.2082849999997052,-0.241940275,-3.1566874985,-127.3013229,0.2810097585,-1.8276276290000002,12.9010496125,0.405358173,16.61538124,0.175233364
146,1.2166179999999258,-0.283118531,-2.867209077,-127.30506134999999,-5.395344496,-0.8781248035,11.419470785000001,-5.059277773,34.196207045,-0.78617245
147,1.2249510000001465,-0.3097518385,-2.5600614545,-127.30299375,-0.606486678,-1.3314077855,17.226098059999998,-3.2902288435,36.302364345,-0.07349359999999994
148,1.2332839999999123,-0.377594054,-2.215663433,-127.29714965,-4.4156634805,-1.2454741005,11.4498193245,-8.2022032735,40.76218796,0.44796112200000004
149,1.241617000000133,-0.464303136,-1.8017688390000002,-127.28702164999999,0.257245548,-1.6402983070000001,10.87252426,-10.4620502005,49.12172699,1.146816354
150,1.2499499999998989,-0.5836687235,-1.4452418685,-127.28472135,-2.6678156855,-1.7473685744999998,17.955579755,-14.404331684999999,42.23571968,0.1517193910000001
151,1.2582830000001195,-0.7130302195,-0.931316644,-127.27856065,-1.996461749,-0.6227188855,14.467468740000001,-15.607165814999998,61.10412407,0.9811242224999999
152,1.2666159999998854,-0.8451555070000001,-0.535100311,-127.27434539999999,-0.355726019,-0.5627966465,12.6513981825,-15.938082220000002,46.990055085,0.6110992435
153,1.274949000000106,-1.0031797885,-0.08346528149999999,-127.27899550000001,-1.5402623709999999,-0.9604020865,15.3332057,-19.06214571,53.643983840000004,-0.153731823
154,1.283281999999872,-1.178857952,0.39259188599999995,-127.28707125,-2.1805024150000003,-1.3835727575,13.485968110000002,-21.162477494999997,56.59570885,-0.3897346260000001
155,1.2916150000000926,-1.3488150835,0.816767365,-127.31087875,0.932923341,-0.9672767255,13.367151735,-20.459294319999998,50.40289879,-2.241392136
156,1.2999479999998584,-1.5347849135,1.2365271450000002,-127.33926775,-1.5881385799999999,-1.351612091,14.768254755000001,-22.33763027,49.90022278,-2.6466104684999996
157,1.308281000000079,-1.7271811365,1.6864622235,-127.38360215,-1.4632194045,-0.8362788404999999,16.65383148,-23.04691315,53.57026291,-4.345199585
158,1.316613999999845,-1.913089216,2.0835084915,-127.41778944999999,-0.591827899,-0.895561904,14.08376312,-22.255456924999997,47.212293625,-3.1226637365
159,1.3249470000000656,-2.1131827235,2.504567385,-127.47032165,-0.036661357,-1.3036545515,11.145531655,-23.85027695,50.16869545,-5.0927007195
160,1.3332799999998317,-2.3209354875,2.8688335415,-127.51355365,-0.7912368925,-0.3051619975,14.75283575,-24.775063515,43.329813005,-4.0042562485
161,1.341613000000052,-2.5111500025,3.2354875805,-127.56711575,-0.780242659,0.014907002500000044,17.08988762,-22.568059920000003,43.68606949,-5.1303884985
162,1.349945999999818,-2.699392438,3.5606793165,-127.6093979,0.11788147700000001,-1.0016881975,13.902662755,-22.379221915000002,38.659416199999995,-3.836378813
163,1.3582790000000386,-2.900705099,3.861518621,-127.65258405,-0.45347145199999994,-1.401800528,13.595155720000001,-23.909288410000002,35.76530838,-3.9472243785
164,1.3666119999998043,-3.0921808485,4.1091568469999995,-127.68195725000001,-0.217011139,-0.4406585545,14.569674015,-22.823111535000002,29.30403614,-2.4190565345
165,1.3749450000000252,-3.28583765,4.319442749,-127.71637725,-0.1507399975,-0.5708934515,14.740119935,-23.022722245,24.884443285,-3.204068363
166,1.383277999999791,-3.468835354,4.5071640015,-127.74561690000002,-0.27555638549999995,-1.287170857,15.345788,-21.783555030000002,22.13468838,-2.625218332
167,1.3916110000000117,-3.64095068,4.6687054635,-127.7747841,-0.8207496405,0.5122954024999999,15.08279276,-20.459897995,19.02284813,-2.7839233875
168,1.3999439999997776,-3.806999683,4.799757242,-127.79573440000001,0.3102411625,0.4298194945,14.192603115,-19.804289815,15.30355978,-2.0168340505
169,1.4082769999999982,-3.9588232039999998,4.906052351,-127.82196809999999,-1.3326678275,-0.5753148495,15.254410265,-18.038913729999997,12.399286745000001,-2.794802427
170,1.416609999999764,-4.091346382999999,4.988654374999999,-127.83930205,-0.469780378,-0.777679354,15.19628668,-15.815054414999999,9.473915815,-1.8281016795
171,1.4249429999999847,-4.211957573499999,5.0387861725,-127.85113905,-0.862618849,-0.8073120564999999,14.09534979,-14.440470219999998,5.5621646645,-1.4620929405
172,1.4332759999997506,-4.3207023145,5.0770068165,-127.86475375,-0.515073128,-0.403707113,15.142572399999999,-12.995250225,4.135694504,-1.7524496164999999
173,1.4416089999999713,-4.4082319734999995,5.1048731805,-127.87041475000001,-1.1761186715,0.320623949,16.924478530000002,-10.536545990499999,2.8453064565000004,-0.8925855455
174,1.4499419999997372,-4.470015764499999,5.12091732,-127.88037105000001,-0.5584173425,-0.20291665949999999,15.335556985,-7.397916553,1.4550807475,-1.4950068445
175,1.4582749999999578,-4.511686802,5.1388065815,-127.88235854999999,-1.6883002815,-0.36514890199999994,14.28374529,-5.070415139,1.6171932225,-0.5530944764999999
176,1.4666079999997237,-4.5388379095,5.132301569,-127.8833046,-0.6586605605,-0.5901716645,14.417967795,-3.3394305705000003,-1.3265289965,-0.6147096155
177,1.4749409999999443,-4.5426347255,5.1114354135,-127.87654495000001,-1.200586617,-0.3873413575,16.00149965,-0.6216638685,-3.100884855,0.12287765750000001
178,1.4832739999997102,-4.532710314,5.0907254215,-127.8795929,-0.4863969385,0.0507426335,15.388317104999999,1.1321555675,-3.005036518,-1.0035977065
179,1.4916069999999308,-4.5241234304999995,5.056345224499999,-127.87244035,-1.591280103,-0.659156725,14.447834015,0.8614132405,-4.7218182085,0.043243289000000074
180,1.4999400000001517,-4.5124483105,5.010906219500001,-127.87360765,-0.4209573995,-0.15662491300000003,15.175733090000001,1.3224311469999999,-5.9795281885,-1.0086949765
181,1.5082729999999174,-4.491662740500001,4.965046644,-127.8672829,-2.0707116125,-0.432385966,14.13334942,2.3289361595,-6.0891571045,-0.13610768350000002
182,1.516606000000138,-4.4650573730000005,4.8981118200000004,-127.86761855,-0.5697247235,-0.8853102475,14.967876435,3.1063854695,-8.55786252,-1.1378483175
183,1.524938999999904,-4.4230794905,4.8219368455,-127.8494263,-1.3159174325,-0.550941795,15.727304935,4.7587605715,-9.828150746999999,0.982747853
184,1.5332720000001243,-4.3676366805,4.735751629,-127.84077835,-0.24750714000000001,0.16140499749999998,14.540834905,6.477944257,-10.939509391000001,-0.26052865399999997
185,1.5416049999998904,-4.310595274,4.639454365,-127.81594085,-1.6004253625,-0.06199634099999998,14.174394605,6.508757366999999,-12.293041705,1.6005057095000002
186,1.549938000000111,-4.243056774,4.525283575,-127.80644989999999,-0.959924251,-0.6136404274999999,14.603400704999999,7.9184377215,-14.300058365,-0.319486439
187,1.558270999999877,-4.1584830285,4.413905859,-127.78510664999999,-1.394172013,-0.26929226500000003,15.882762905,9.8560643185,-14.06343412,1.111337781
188,1.5666040000000976,-4.050761938,4.2985942365,-127.77471159999999,-1.0870116205,0.019030139,15.580803395,12.735785485000001,-14.440400605,-0.20372929399999998
189,1.5749369999998637,-3.923079848,4.1810996535000005,-127.75716020000002,-1.1652059554999998,0.07334786650000003,14.557511805,15.07002449,-14.75892687,0.6522923965
190,1.583270000000084,-3.793027639,4.068808317,-127.74405290000001,-1.5309837465,0.25876477350000004,13.693269255,15.399091245000001,-14.09758091,0.18193160749999998
191,1.59160299999985,-3.6589580775,3.962010384,-127.7209358,-1.981079638,-0.9486501220000001,15.317208765,15.800327300000001,-13.5165596,1.4687849585
192,1.5999360000000706,-3.518169403,3.867492199,-127.69869614999999,-1.548166335,-0.907654524,15.368817329999999,16.615664005,-12.036363125,1.492554724
193,1.6082689999998363,-3.3804308174999997,3.775340557,-127.6716385,-0.9935526849999999,-0.9526950415000001,13.44820881,16.216300490000002,-11.78110361,2.1100501415
194,1.6166020000000572,-3.2595005035,3.6975022555,-127.65270615,-1.2648494245,-0.7596885265,14.839961525,14.26642227,-10.006542684500001,1.273008585
195,1.624934999999823,-3.1521869895,3.614577055,-127.62525175,-1.420411348,-1.6763008234999999,14.276638985,12.571808815,-10.667557235,2.2581834795
196,1.6332680000000437,-3.068608761,3.5444680455,-127.6060181,-1.548918188,-1.0854005515,12.813501835,9.789160251,-9.0762648585,1.3992547395
197,1.6416009999998096,-2.992288589,3.4687633515,-127.57779694999999,-1.152708828,-1.5142500995,13.236950875,8.8547911665,-9.800532818499999,2.455573082
198,1.6499340000000302,-2.9163558485000003,3.4016691444999996,-127.56010434999999,-1.732249677,0.0010685029999999984,15.30795908,8.887538909,-8.700643778,1.269723296
199,1.658266999999796,-2.8370696305000003,3.3453508615,-127.53537370000001,-1.399879515,-0.41227143999999993,14.730692865,9.2448515905,-7.4466810225,2.1525759695
200,1.6666000000000167,-2.7624912265,3.3011238575,-127.52716065,-1.498421252,-0.21706558800000003,12.30318546,8.7951226235,-5.898177862,0.2737202345
201,1.6749329999997826,-2.69585228,3.290220857,-127.5128517,-1.5853827594999998,-1.223004043,11.275091175,7.8002643585,-1.938972141,1.2283561525
202,1.6832660000000033,-2.6228278875,3.270459771,-127.51841734999999,-1.9488852620000001,-0.017958581499999987,10.5841479325,8.702832699,-2.886583447,-1.2003918734999999
203,1.6915989999997691,-2.5694756505000003,3.3014303445,-127.5338554,-2.090327978,-1.306408018,7.3253402705,6.4110765455,3.2455288175,-2.097165644
204,1.6999319999999898,-2.5297665594999996,3.3548414705000003,-127.56020734999998,-1.0213010605,-0.883108109,7.325466871000001,4.851291418,5.9947880510000005,-3.2967634200000004
205,1.7082649999997557,-2.5097937585,3.386021972,-127.5808792,-1.539076358,-1.824863255,9.345803978500001,2.4442129735,3.2936962845,-2.7165818809999998
206,1.7165979999999763,-2.5227315425,3.52384758,-127.6164551,-2.6166973115000003,-1.1632281245,6.180571914000001,-1.391602695,16.158077715,-3.940072179
207,1.7249309999997422,-2.5261625055,3.6161583659999996,-127.62635424999999,-0.23152934,-1.4071989655000001,6.3503092525,-0.43516672400000006,10.561839817500001,-1.1223453284999998
208,1.7332639999999628,-2.598889351,3.7313222885000004,-127.62481689999998,-2.421095669,-0.9860226215000001,4.8896211385,-8.832853794,13.247070792,0.319742583
209,1.7415969999997287,-2.6589905025,3.944020271,-127.61667249999999,-0.37730608899999996,-1.455883086,6.306622505,-7.375552654,24.895661355,1.7120312155000001
210,1.7499299999999494,-2.759385109,4.0155011415,-127.58005525,-1.8255985975,-0.8327481445,3.0748540165000002,-12.444089415,7.8141362665,4.327333927
211,1.7582629999997152,-2.8685048815,4.2734143735,-127.5805664,-0.24087375049999998,-0.509487629,3.1790602205000003,-13.1879487,30.360925674999997,1.005942285
212,1.766595999999936,-3.0136351585,4.357209444,-127.52625275,-0.08017858900000002,-1.589947045,7.0894525055,-18.00057793,9.1571822165,6.5715010165
213,1.7749290000001563,-3.1079809665,4.6039316655,-127.53156279999999,-2.0317087175,0.8578334675,6.0777013305,-11.36681366,29.046733855,0.5082701525
214,1.7832619999999224,-3.2363957164999997,4.707831383,-127.4665909,1.012319952,-1.3531995415,1.9778924884999998,-16.13734627,11.46154213,8.002684116000001
215,1.791595000000143,-3.355768561,4.868231296499999,-127.4713211,-1.148246646,0.700288465,3.5053928495,-14.371041298,18.708928110000002,0.08265125750000002
216,1.799927999999909,-3.464220047,5.0161185265,-127.41659164999999,0.9239574670000001,-0.682718873,5.991061091500001,-13.67668867,16.76136112,7.161229968000001
217,1.8082610000001296,-3.5702575445,5.1218817235,-127.4252052,-1.5783523735,0.1861184835,6.166810274,-12.726306914999999,12.19728422,-0.685162306
218,1.8165939999998957,-3.641135693,5.2439098355,-127.3862381,0.7933745979999999,-0.651968643,3.6430125235,-9.026958942,13.747483729999999,5.1346250755
219,1.824927000000116,-3.701803684,5.3010337355,-127.39056015,-0.5020572540000001,0.495599151,1.9195417615,-7.3258719144999995,6.346690536500001,-0.5321733955000001
220,1.833259999999882,-3.7735289334999997,5.3973279,-127.37794875,0.20225966000000017,-0.052785158000000054,4.575483241,-8.8418008695,10.860509873000002,1.807224035
221,1.8415930000001024,-3.817551494,5.423716068,-127.37620925,-0.23797297449999988,-0.003602277000000001,4.698670268,-5.400031328000001,2.6141696574999997,-0.029321193499999954
222,1.8499259999998685,-3.8536913395,5.4841625695,-127.38972855,-0.39852976799999995,-0.048885763000000027,4.751056671000001,-4.2768605945,6.773634195500001,-1.5574927329999997
223,1.8582590000000887,-3.8508690595,5.4788656235,-127.3824272,0.3820520635,-0.04129481300000004,2.5184398889999997,0.15668227499999998,-1.2183605435,0.36809563600000006
224,1.866591999999855,-3.8497149945,5.495877981,-127.4128952,-0.7363969085,0.37679319099999997,3.591369927,0.3953619005000002,1.7064076365,-3.9250940069999998
225,1.874925000000076,-3.8221948145,5.457087039999999,-127.39749524999999,0.5722271205,-0.24858629699999998,2.7042394875,3.0261373540000003,-5.3046515585,1.0747406480000001
226,1.8832579999998416,-3.7917518615,5.445413351,-127.4336014,-1.0603841545,0.43166208249999993,4.268470466,3.9707959889999995,-1.6775723695,-4.780154465
227,1.8915910000000624,-3.7309347390000003,5.380208731,-127.4096222,0.8193440439999999,-0.5330128670000001,3.1520794629999997,6.9246366025,-8.5431623465,1.9174555540000002
228,1.899923999999828,-3.661805153,5.339482069,-127.4443512,-1.2840297225,0.7179267255,3.4623632435,8.5905041695,-5.169043064,-4.859636247
229,1.9082570000000487,-3.5695620774999997,5.243006229500001,-127.41282654999999,1.1124323605,-0.604300171,1.9986957465,10.620137691,-12.3410310755,2.6062491535
230,1.9165899999998144,-3.4731179475,5.1676876545,-127.4445,-1.3347027299999998,0.9276729225,3.0786446334999997,11.821945908,-9.346124649,-4.723739624
231,1.9249230000000352,-3.358367324,5.042802811,-127.41508485,1.3173789980000001,-0.8397486805000001,2.1957540515,13.358957765,-15.72162819,2.193424761
232,1.9332559999998007,-3.2357163425,4.933934927,-127.44841765,-1.4469748734999999,0.8790112434999999,3.167556286,14.964736935000001,-13.36808491,-5.122541308500001
233,1.9415890000000215,-3.1060094835000003,4.7913913725,-127.4232216,1.047466397,-0.8846159279999999,1.9534440634999999,15.214453695,-17.799303055000003,1.6382810174999998
234,1.949921999999788,-2.965776682,4.6643247599999995,-127.45211789999999,-1.5323109625,0.591395378,2.965850711,17.010946269999998,-15.598537445,-4.6489599945
235,1.9582550000000083,-2.810604811,4.501093625999999,-127.43099215,1.0082212685,-0.22480946749999997,1.651928842,18.327829835,-20.245748515000002,1.1310682294999999
236,1.9665879999997744,-2.6433720585,4.3492310045,-127.4480934,-1.459817767,0.707088649,2.7012507915,20.121944425000002,-18.661367415,-3.296477735
237,1.9749209999999948,-2.4585148095,4.1871533395,-127.4247055,-0.17052519350000006,-0.3902236485,2.3581246140000003,21.88094139,-20.10767937,1.538258612
238,1.9832539999997607,-2.2757360935,4.0596499445,-127.4310036,-1.612237811,0.220823765,2.517759502,21.883189205,-15.812727455000001,-1.7644440085000002
239,1.9915869999999811,-2.0815649030000003,3.902853489,-127.41134639999999,0.7322328684999999,-0.4252598284999999,2.371849537,23.04342079,-19.44550228,1.2560976744999999
240,1.9999199999997472,-1.880439639,3.7650699615,-127.41363525,-1.836019941,-0.0010039804999999458,3.5266070364999997,24.04944229,-17.070734975,-1.236470997
241,2.008252999999968,-1.6765305995,3.6305025815,-127.401844,0.146489978,-0.46854558599999996,1.5920346975,24.286129000000003,-16.73812103,0.52846694
242,2.0165859999997338,-1.4797296525,3.502796054,-127.405262,-0.961845234,-0.07385879799999995,1.6737644075,23.53741169,-15.865033149999999,-1.2039406895
243,2.0249189999999544,-1.2813666465,3.3674912455,-127.39933015,0.20278576000000004,-0.7387142775,2.814800024,23.66521454,-16.801080705,-0.045958161500000205
244,2.0332519999997203,-1.08455205,3.2474663254999996,-127.39741520000001,-1.4840878585,0.08219742750000003,2.728290081,23.502682685,-14.96212387,-0.42026591299999994
245,2.041584999999941,-0.8838177025,3.115830183,-127.40637205000002,0.326899886,-0.260958914,2.7224656345,24.05494213,-16.327250005,-1.7357623279999999
246,2.049917999999707,-0.6878908575,3.0125626325,-127.40220260000001,-1.6828932165,-0.794143379,3.5799154040000003,23.38066101,-12.95403385,-0.02387869350000016
247,2.0582509999999274,-0.5029123275,2.884501576,-127.41425325,1.042245865,-0.002308786000000007,2.399233699,22.178918835,-15.904196735,-1.9744036720000002
248,2.066584000000148,-0.3300638495,2.775309086,-127.4129028,-1.659380555,-1.0041101575,4.302050352,20.631983755,-13.66020632,-0.2706207635
249,2.074916999999914,-0.165154882,2.642474532,-127.41724395,0.9207757115,-0.47077290699999996,4.1114079955,19.72512531,-16.490610125,-1.0164054034999999
250,2.0832500000001346,-0.020386183000000002,2.5495057105,-127.4085617,-2.4564905164999997,-0.549566098,4.0428938865,17.222888945,-11.7115488075,0.6529904605000001
251,2.0915829999999005,0.121959884,2.4128843545,-127.41451645000001,2.152832627,-0.37748011899999995,5.41892004,17.023357394999998,-16.948627469999998,-1.190710068
252,2.099916000000121,0.2748818845,2.3009421825,-127.40132525,-2.8014410735000004,-0.207264185,5.623627186,18.18688488,-13.980987070000001,1.1958331465
253,2.108248999999887,0.423449725,2.1428768635,-127.4252968,2.250169635,0.1531893945,5.8975076675,17.852891919999998,-19.53637648,-3.275178969
254,2.116582000000108,0.5487823485,2.0010879635,-127.3968086,-1.571214229,-1.316118002,10.005753518999999,14.817892075,-17.541007039999997,3.108673096
255,2.124914999999873,0.7041067485,1.8433248995,-127.4374809,-0.253911212,0.7919570655000001,7.480494499,18.710748674999998,-19.537437435,-5.195812463499999
256,2.133248000000094,0.8773492869999999,1.638508856,-127.39892195,0.04853404299999999,-1.188197434,8.9064344165,20.55886364,-25.070454599999998,4.443869233
257,2.14158099999986,1.0279293059999999,1.4787691235,-127.44006730000001,-1.0261559485,0.771000773,11.609847543499999,18.10346365,-19.79935646,-5.1055611370000005
258,2.1499140000000807,1.2189489605000001,1.276440263,-127.43077084999999,-0.542499423,-0.8551380635,10.94879055,22.81242371,-24.810990335,1.131035805
259,2.1582469999998466,1.4165992735000001,1.086828828,-127.4603043,-0.4439703075,0.728671968,9.4027273655,23.68810749,-23.382759094999997,-3.5136309414999998
260,2.1665800000000672,1.634276271,0.889080018,-127.445076,-1.6482214329999998,-0.3331262545,11.29522705,26.011731145,-24.229260445,2.003605962
261,2.174912999999833,1.881081641,0.767988503,-127.4622879,-1.9166350365,0.6629905399999999,12.898599149999999,29.541078570000003,-15.14427662,-2.1240820879999998
262,2.1832460000000538,2.164401889,0.566642821,-127.46020125000001,-0.1127874255000001,-0.292592019,14.235286715,33.9175663,-24.690686225,0.6484451295000002
263,2.19157899999982,2.45139277,0.5025268795,-127.458313,-4.106857419,-0.0177048145,7.639393092,34.334318159999995,-8.240570068499999,0.0501837730000001
264,2.1999120000000403,2.749990225,0.44429543650000003,-127.45041275,-0.6304193140000001,-0.7252877949999998,15.768377305000001,35.73868942,-7.488368630999999,0.8067801000000001
265,2.208244999999806,3.0571632385,0.4079639315,-127.4223938,-3.387182236,-0.8611856999999998,13.67455387,36.740913395,-4.7451200485000005,3.111371338
266,2.216578000000027,3.369067073,0.48263870200000003,-127.40205005000001,-1.8656007870000002,-0.5743217265,9.482970715,37.318906784999996,8.532157658,1.5024564265000002
267,2.2249109999997927,3.6545995475,0.5084839615,-127.3625145,-2.261507809,-1.611732602,13.39208221,34.1316185,2.8258421715,4.086307153
268,2.2332440000000133,3.9365302325,0.682960987,-127.33364485,-2.035558656,-0.5553520765,12.75370884,33.708612439999996,20.545129775,1.626603007
269,2.241576999999779,4.214541912,0.7806810145,-127.2749176,-0.7750061155,-1.586260274,14.430531975000001,33.18084812,11.659170626000002,5.747897148
270,2.24991,4.461222887,1.0021508335,-127.24510195,-3.257900521,-1.2464455965,15.903557300000001,29.451690675000002,26.205121995,0.9868153335000001
271,2.2582429999997657,4.6797697540000005,1.2412781115,-127.1729202,-1.3828372960000002,-2.3742061855000003,10.320422171,25.9732399,28.73179436,5.8562543394999995
272,2.2665759999999864,4.8859949115,1.4550313355,-127.14984129999999,-1.4397249225,-0.11997365950000005,15.809229375000001,24.589257240000002,25.220202444999998,0.05484688299999996
273,2.2749089999997523,5.054059028999999,1.720514059,-127.07604215,-0.8584551810000001,-2.284345269,12.280157084999999,19.84055519,31.943194390000002,5.5654683115
274,2.283241999999973,5.182648181999999,2.0134322645,-127.03708265,-1.962819606,-1.640381634,10.86230755,15.19038725,34.854384425,0.9922393860000001
275,2.291574999999739,5.289484978,2.2763236759999996,-126.9587097,-0.6984155919999999,-1.8567334415,16.181313515,12.383866785,31.7149477,6.0107440945
276,2.2999079999999594,5.361875534,2.561265707,-126.90945435,-2.1131280955,-1.480845928,14.311749455000001,8.358458757,34.016420365,2.1337448955
277,2.3082409999997253,5.3791134355,2.8786634204999997,-126.83753205,-0.4869980515,-2.437666357,9.573010923,1.578940421,38.17546463,4.6113752125000005
278,2.316573999999946,5.369256258,3.180947185,-126.80392454999999,-0.6449937819999999,-1.059018046,13.49508095,-1.471129656,35.914873119999996,0.0473671735
279,2.324906999999712,5.333339691,3.4391000270000003,-126.75865935,-1.3681526665,-2.088225484,14.131492614999999,-4.7060945035,30.798427580000002,2.131784916
280,2.3332399999999325,5.253649235,3.7558766605000002,-126.73764804999999,-1.2214725835,-1.1867441835,9.690443516,-9.7901830695,37.509510039999995,-1.5687841175
281,2.341573000000153,5.15746212,4.007574916,-126.70715715,0.6217471360000001,-1.4854738115,11.768499373000001,-11.869896887,29.86115837,0.5320272885
282,2.349905999999919,5.0476675035,4.2600119115,-126.70911025000001,-1.4960121215,-0.69035805,15.993411545,-13.225038054999999,29.57825565,-3.4990352390000004
283,2.35823900000014,4.920089483,4.5432879925,-126.680397,-0.45835158249999997,-1.5292159915,10.0436487215,-15.652608395000001,33.60563469,0.04928812399999999
284,2.366571999999905,4.790851116,4.767822504,-126.68885420000001,0.0052164795000000375,0.5824143135000001,12.492777825000001,-15.491196630000001,26.19034767,-3.8532037734999998
285,2.374905000000126,4.655823946,4.955733776000001,-126.6742744,-0.8122318984999999,-1.320772141,13.388470175,-16.429432865,22.05625534,-0.5524424014999999
286,2.383237999999892,4.5151700975,5.197158575,-126.67829895,-1.5878367985000001,-0.5950939205,8.9800899035,-16.898301125,28.273016929999997,-3.3395484685000003
287,2.3915710000001127,4.382414579500001,5.3504905705,-126.6644592,0.880081594,-0.74297148,13.78428078,-16.162231925,17.912389755,-0.16391211750000012
288,2.3999039999998786,4.246031046000001,5.5453207495,-126.66131589999999,-2.430828869,-0.7899414305000001,11.6246809965,-16.461678505000002,22.77524662,-1.9328384694999998
289,2.408237000000099,4.137456894,5.705673217999999,-126.6495552,0.910382137,0.09348314999999996,11.161351679500001,-13.24701023,18.732263565,-0.39003491449999994
290,2.416569999999865,4.026585579,5.8370597360000005,-126.65329745,-2.0553031265,-0.16211390500000006,11.950522898,-13.318476675,15.130877015,-2.113942802
291,2.4249030000000857,3.9218175410000002,6.0509085655,-126.64468765000001,-0.8653017429999998,-0.5228125455,7.261475562999999,-12.7548542,25.10822487,-1.1659991145
292,2.433235999999852,3.836738229,6.1506676675000005,-126.64670565,-0.0038019925000000003,-0.7315547915,13.432214740000001,-10.2452993395,11.36765051,-1.5424187185
293,2.4415690000000723,3.7551659345,6.3331251145,-126.6487274,-1.715229243,-0.015390426000000013,12.053351403,-9.834974287000001,21.268110275,-2.137713971
294,2.449901999999838,3.701024532,6.474444389,-126.65054705,-0.4710764215,-0.43609893349999995,10.003393173,-6.534923792,16.346511839999998,-1.79933656
295,2.458235000000059,3.621818185,6.637173891,-126.6661072,-1.0994147655000002,-0.8717569114999999,9.494983671,-9.3643634335,18.810422895000002,-3.514376879
296,2.4665679999998247,3.5760542155,6.7898344994999995,-126.66659925,-0.31257179399999996,-0.238343358,11.9378766995,-5.5445226430000005,17.71711445,-1.6936521235000002
297,2.4749010000000453,3.5098724370000003,6.9089117049999995,-126.68189999999998,-0.9811007825000001,-0.6309287695,11.2421398165,-7.798947334999999,13.591991427,-3.0932911635
298,2.483233999999811,3.472274303,7.127847194999999,-126.67864605,-1.7552760539999999,-0.042910553500000004,9.708600042499999,-4.619055748,25.685508730000002,-1.698058423
299,2.491567000000032,3.4390803575,7.221633911,-126.70305635,0.8442015425,-0.3609605285,11.7841382025,-3.6894234420000003,10.5021705635,-3.9811697010000002
300,2.4998999999997977,3.4202891585,7.3743271825,-126.69393919999999,-1.264129877,-0.31695568550000003,8.2434573175,-2.451974392,17.792741775,-0.515172899
301,2.5082330000000184,3.3966364860000002,7.4972724915,-126.70621105000001,-0.2795140445,-0.428827196,10.1180377025,-2.715020239,14.081966874999999,-2.7862917185000002
302,2.5165659999997843,3.368121147,7.6452486515,-126.69952774999999,-1.7058720585,-0.472385589,9.157775642499999,-3.5842261315,17.208761215000003,-0.7583480029999999
303,2.524899000000005,3.3766524794999997,7.72487545,-126.71958925,0.98554682,0.3167491705,13.794232845,1.2768250105,8.8449029925,-3.3581677675
304,2.533231999999771,3.3777986765000003,7.817732096,-126.71726989999999,-1.5865621565,-0.48484411850000003,8.919690373,0.045702219000000044,10.571878910999999,-0.9071537255
305,2.5415649999999914,3.4005451200000003,7.9469127655,-126.72691725,-1.047708571,-0.006021656,8.5201911925,2.8207806349999998,14.852774620000002,-2.4852854014999997
306,2.5498979999997573,3.4285035135,7.9993298054999995,-126.71995545,0.076914802,-0.5254379435000001,12.165024755000001,3.1835802195,5.7618837355,-0.051990494499999984
307,2.558230999999978,3.4905723330000002,8.104345798499999,-126.7197342,-0.504082211,0.1770735085,10.069466115,7.3767340180000005,12.029228211,-1.152845651
308,2.566563999999744,3.5567706825,8.149625778499999,-126.71817395,-0.444158301,-0.5173141325,10.248229025499999,7.8651206505,4.8670380115,-0.6732766139999999
309,2.5748969999999645,3.6123042109999997,8.228234768,-126.7205696,-0.436850846,-0.9116041065,9.945517538499999,6.6421558855,8.845416068999999,-1.320529252
310,2.5832299999997304,3.681301117,8.2496981625,-126.71884915000001,0.30316175900000003,-0.5922921170000001,11.897517685,8.199271202,2.0165961385,-0.4807983935
311,2.591562999999951,3.725049853,8.276175022,-126.71803285,-1.3119948205,-1.507731795,13.239002225,5.1745371815,2.624876976,-0.5616689625
312,2.599895999999717,3.767952442,8.33445549,-126.71082305,-0.49661609549999997,-0.7564737495,12.781155585,4.973144769499999,6.468926907,-0.12464532250000004
313,2.608228999999937,3.8096494675,8.3217158315,-126.70983505,-0.5227213205,-0.924343284,12.71018934,4.9332380295,-2.0719354155,-0.2833382655
314,2.6165619999997034,3.8281433585,8.336331844,-126.70703505,-0.9241858574999999,-1.2767663004999998,11.985417365,2.1211147905,1.208652377,-0.29554334299999996
315,2.624894999999924,3.8225973845,8.296468258,-126.7045288,0.147714436,-0.8652599599999999,12.092823505,-0.7650331324999999,-5.3043624755000005,0.1404108555
316,2.6332280000001447,3.8158775565000003,8.293648243,-126.70028685,-1.0445628765000001,-0.6570525614999999,14.416293620000001,-0.92863141,-0.866631985,0.022482856999999995
317,2.6415609999999106,3.805882573,8.2572164535,-126.69622425,-0.281246908,-1.344764054,14.449491025,-1.3243969235,-4.880574703,0.312071033
318,2.649894000000131,3.7852778435,8.2364869115,-126.6942825,-1.4868465665000001,-0.7477378175,14.07790089,-2.5519719125,-3.0268085005,-0.1259388105
319,2.658226999999897,3.7517080309999997,8.2083725925,-126.68784715000001,-0.6895370485000001,-0.8250283975,13.78358507,-4.189297795,-3.86563611,0.50398571
320,2.6665600000001177,3.7065109014999997,8.167204380000001,-126.68722915000001,-0.819213532,-0.9292634280000001,14.217542170000002,-5.4792692665,-5.4850707055,-0.126534324
321,2.674892999999884,3.6535122395000004,8.1213026045,-126.6833153,-0.2208375745,-0.8474324495,13.306102275,-6.480670452,-6.0135054585,0.362146892
322,2.683226000000104,3.5915133955,8.066443681500001,-126.68586729999998,-0.81712082,-0.8073508739999999,14.413385864999999,-7.4468147755,-7.1437849995,-0.3478669525
323,2.69155899999987,3.5217348335,7.998241901,-126.68682860000001,-0.873514235,-1.092383653,13.874758244999999,-8.409780741,-8.7192265985,-0.0541420915
324,2.6998920000000908,3.4382097725,7.915787935,-126.6979446,-1.382154584,-0.7424666885,12.777761935000001,-9.890004158499998,-10.50595045,-1.1468263195
325,2.7082249999998567,3.3589655159999996,7.8332231045,-126.70860675,-0.52277001,-1.121353209,14.577208995,-9.386273384999999,-10.508382319999999,-1.1074956360000001
326,2.7165580000000773,3.2823668715,7.7460095885,-126.72226330000001,-0.8992657959999999,-0.9965158700000001,14.61667967,-9.016967535000001,-11.09564018,-1.480362177
327,2.724890999999843,3.203019619,7.6563105579999995,-126.73590469999999,-0.8091988265,-0.6784216765,14.033051965,-9.352309703,-11.380547048499999,-1.451456547
328,2.733224000000064,3.1200950145,7.5616769795,-126.74859235,-1.051621735,-0.478543587,14.133925439999999,-9.7936043735,-11.975079534999999,-1.3545961975
329,2.7415569999998297,3.041298151,7.464222908,-126.7623825,-0.6950448155,-0.250132099,13.597739215,-9.287786961,-12.305605415,-1.4354218840000001
330,2.7498900000000503,2.9644970895,7.3811922075,-126.77810665000001,-1.2857358455,-0.6411551384999999,13.99182701,-9.0121264455,-10.600170611500001,-1.827704072
331,2.758222999999816,2.8910622595,7.30557394,-126.79260255,-1.343121648,-0.8039053380000001,14.510403635,-8.638043642,-9.6912117005,-1.6861599085
332,2.766556000000037,2.8309565785,7.2270491125,-126.81039810000001,-1.0240382255,-0.691409305,14.832562450000001,-6.984464644999999,-10.067112920500001,-2.1107285620000003
333,2.7748889999998028,2.7725704904999997,7.162562132,-126.83057785,-0.725425765,-0.6699351145,14.04280138,-6.7512087825,-8.383489132,-2.444648385
334,2.7832220000000234,2.7186523675,7.1060864925,-126.8533249,-0.8961150050000001,-0.8989774884999999,14.789145470000001,-6.1735054255,-7.447787523000001,-2.8328067065
335,2.7915549999997893,2.662915945,7.0451004505,-126.8783226,-0.915659934,-0.6338333785,14.894310955,-6.364356756,-7.988145351,-3.0729143619999997
336,2.79988800000001,2.602205396,6.97956419,-126.89924239999999,-0.456336215,-0.9549245534999999,13.585463520000001,-7.016546011,-8.520485878,-2.6051728725
337,2.808220999999776,2.5321935415,6.9092547895,-126.9217224,-1.418863952,-1.3032975195,14.140940669999999,-8.120265007,-9.084819317000001,-2.7298375365
338,2.8165539999999964,2.448301196,6.829615355,-126.93879319999999,-1.294323146,-1.227129102,14.46551037,-9.856640817,-10.184695243,-2.100969374
339,2.8248869999997623,2.356232405,6.7381165030000005,-126.95400620000001,-0.4377310685,-1.170407325,14.572644230000002,-10.870991230000001,-11.585871695,-1.8228758575000001
340,2.833219999999983,2.2568845745,6.649199963,-126.9685326,-1.0290361495,-1.2499347925,13.446778295000001,-11.74873972,-11.2798328415,-1.8380265835
341,2.841552999999749,2.1332414745,6.559033155,-126.98199845,-1.1414825915,-1.2607793214999998,14.164521695000001,-14.690843104999999,-11.41248894,-1.6306154130000001
342,2.849885999999969,1.9929292204999998,6.4709899425,-126.98576735,-0.6428891125,-0.9922792015,14.808120724999998,-16.81320286,-11.124650005,-0.5966454075000001
343,2.8582189999997354,1.8319041135,6.3893089295,-126.99422455000001,-0.782213323,-0.8359085915,13.48784256,-19.2491436,-10.36731434,-1.1114788949999999
344,2.866551999999956,1.6523372535,6.3029198645,-126.98746495,-0.8934016524999999,-0.565614313,13.748723505000001,-21.667196275000002,-10.883968352,0.635899395
345,2.874884999999722,1.4729646445,6.212893009,-126.99308010000001,-1.407636702,-0.8009747265,13.450129035,-21.491518974999998,-11.346996785,-0.7939072545
346,2.8832179999999425,1.29354018,6.118768215,-126.99946215,-0.393121783,-0.5811084209999999,13.320701119999999,-21.48273468,-11.853274825,-0.9447686375
347,2.8915509999997084,1.1100620925,6.0443201065,-127.01278305,-1.322062552,-0.8069576920000001,12.56764746,-21.889867785,-9.4936842915,-1.8004704120000001
348,2.899883999999929,0.9242462815,5.9600412845,-127.0373993,-0.623909235,-0.7050202055,12.253539085,-22.021255495,-10.704598425,-3.218282938
349,2.9082170000001497,0.756756872,5.883199214999999,-127.0703583,-1.082506359,-0.027355462499999983,12.579429625,-19.73367596,-9.8043141365,-4.165619254
350,2.916549999999916,0.6025250705,5.794154167,-127.113945,-0.20000743849999997,-0.24558504650000001,11.620564935,-18.013587955,-11.286622999999999,-5.446497679
351,2.924883000000136,0.4513290075,5.732230425,-127.15463255,-1.5999836925,-0.5058249085,7.038697481,-17.69347477,-8.007755518,-5.184899807
352,2.933215999999902,0.3024189585,5.6807074545,-127.20274735000001,-0.7574740385000001,-0.433959335,7.1249547005,-17.330251695,-6.7630062099999995,-6.063224554
353,2.9415490000001228,0.162547257,5.580569029,-127.24168015000001,0.09721823050000002,-0.2603249845,7.685866594,-16.365555765,-12.570689205,-4.979076147000001
354,2.9498819999998886,0.010846398499999993,5.5415024755,-127.2708015,-1.2829153835,-1.0998564960000001,6.642880440000001,-17.903485295,-5.236691475,-3.8122577665
355,2.9582150000001093,-0.13384128,5.4763264655,-127.2806435,-1.077147901,-0.3877930995,3.6621648665,-17.287321565,-8.356569529,-1.5833317040000001
356,2.966547999999875,-0.30278379450000004,5.4326941965,-127.2994156,-0.005835979999999991,-0.8483565150000001,7.444260836,-20.09752083,-5.768821239499999,-2.609508872
357,2.974881000000096,-0.463450432,5.394949198,-127.30143735,-1.8785143495,-0.5852525385,6.36619091,-19.294581415,-5.065946579,-0.6536945995000001
358,2.9832139999998617,-0.6137385074999999,5.3507053849999995,-127.2999039,0.905562505,-0.2564669775,2.81499517,-18.089193344999998,-5.849172472999999,-0.21656841050000003
359,2.9915470000000823,-0.7811856865,5.3146245475,-127.3101921,-2.267833173,-0.1520802785,5.584469437499999,-20.015776635,-4.8507361415,-1.6636964079999998
360,2.999879999999848,-0.9369017485,5.3034861085,-127.3020592,0.8352302015,-0.500693567,3.3707954884999998,-18.810240745,-1.8927061260000002,0.562872991
361,3.008213000000069,-1.094614148,5.2567389015,-127.31427384999999,-2.168114543,0.519879184,3.842920065,-18.826987265,-6.1149083375,-1.946291745
362,3.0165459999998347,-1.2348962425,5.2709333895,-127.3053207,0.44446957100000006,-0.31563971550000003,5.7774643900000004,-16.960719105,1.134864569,0.6417520045
363,3.0248790000000554,-1.3626672625,5.247756004499999,-127.3215027,-1.7564961315,0.3612499535,4.1067420245,-15.19035816,-3.265565738,-2.3924212154999998
364,3.0332119999998213,-1.47489208,5.2732057569999995,-127.30129245,0.26828980449999995,0.024914637500000003,2.8804537655000004,-13.716014385000001,2.440370977,2.024350673
365,3.041545000000042,-1.5844972730000002,5.2636437415,-127.31689835,-2.3997695895,0.5352698265,3.572239041,-13.017189503500001,-1.619178891,-2.2995690705
366,3.049877999999808,-1.6698433755,5.301849841999999,-127.29230115000001,1.3109621404999998,-0.12674671399999998,5.3916796445,-10.5426602355,3.9395727515,2.639892936
367,3.0582110000000284,-1.742635012,5.314191579499999,-127.30350874999999,-2.8895914145,0.3191702515,2.7994433045,-8.649582149,1.0021250249999998,-1.710333109
368,3.0665439999997943,-1.8138577345,5.365858316500001,-127.28522494999999,1.7975474599999999,-0.10689175150000002,4.394707322,-8.777999400999999,5.565602302499999,1.9403746129999995
369,3.074877000000015,-1.8712230319999998,5.388830185,-127.29182814999999,-3.3979930279999997,0.35769373150000006,3.4954627755,-6.8462512495,2.2689929010000003,-1.100419998
370,3.083209999999781,-1.9197236295,5.4475643635,-127.2861862,2.2506805659999998,-0.27268246949999997,3.7313202619999997,-5.9211289885,6.449409485,0.5254302025000004
371,3.091543000000001,-1.961334586,5.48913312,-127.29490285,-3.6403928695000003,0.19249883300000004,2.311356306,-4.9307406545,4.5116222795,-1.2587294554999997
372,3.099875999999768,-1.9976671934999999,5.547472238499999,-127.3031044,2.880608201,-0.4342922045,3.616451383,-4.29536742,6.4609175335,-1.1813364030000004
373,3.108208999999988,-2.0313384535,5.5979287625000005,-127.3124237,-3.9450964330000002,-0.05728367000000001,2.7274501174999997,-3.9657503519999997,5.574600041,-1.3279001715000005
374,3.116541999999754,-2.0659475919999997,5.6627612114999994,-127.3286514,2.9822751954999998,-0.4701104465,3.492587328,-3.9925812485,7.2801440665,-2.104768038
375,3.1248749999999745,-2.0941110849999998,5.7251269815,-127.33597565,-4.0063854455,0.010912731000000009,3.0595810415,-3.3269820215,6.9921371064999995,-1.0324521065
376,3.1332079999997404,-2.1241109965,5.7871971129999995,-127.36099240000001,3.086062074,-0.172707075,2.1433362364999997,-3.329005718,6.9881409635,-3.1609449389999993
377,3.141540999999961,-2.1532441975,5.847765446,-127.36582565,-3.5755622385,-0.1808184685,2.4574673175,-3.4706647395,6.763311505,-0.7220973970000002
378,3.149873999999727,-2.1857540605,5.899665117,-127.3913689,2.5332912204999998,0.16731891050000003,2.898417115,-3.6197017435,5.778373955,-3.259175062
379,3.158206999999948,-2.2217501405,5.976905584000001,-127.3898468,-3.6675797704999997,-0.68430762,3.012543857,-4.370121956,8.7307151555,0.10414099700000023
380,3.166539999999713,-2.25556767,6.0323913099999995,-127.4164734,2.6437659265,0.38346357650000007,2.222366631,-3.754169941,6.219578935,-3.3703089655
381,3.174872999999934,-2.293144345,6.082249641500001,-127.40729525,-2.5481535195,-0.5567991135,1.9934344290000001,-4.660817623,5.407408416,0.913000464
382,3.1832060000001547,-2.3406306504999996,6.1302948,-127.42180635,1.624017835,-0.21072125399999997,1.4956834314999998,-5.541973591,5.2745226875,-1.9598286744999998
383,3.1915389999999206,-2.3912614585,6.1813097,-127.41139224999999,-2.4970164895,0.08536589149999996,2.5013120774999997,-6.2461600299999995,5.537490368,1.0896106955
384,3.1998720000001413,-2.4354332684999997,6.2330851554999995,-127.42599870000001,1.2834431954999999,0.2841628195,2.8445943590000002,-5.140649557,5.728406906,-1.9405671205000001
385,3.208204999999907,-2.476053357,6.289450169,-127.41261675000001,-1.535659656,-0.74040252,3.4069001675,-5.087678194,6.1542425155,1.491632074
386,3.216538000000128,-2.524784565,6.312412739,-127.4243736,1.4487118925,0.0036888720000000097,1.2359593515,-5.7259471415,2.26723814,-1.720226526
387,3.2248709999998937,-2.5811060665,6.344226599,-127.41810229999999,-1.4697867034999998,-0.2805559634999999,1.4591371414999998,-6.874060154,3.2413086294999998,0.4789862629999999
388,3.2332040000001143,-2.6385624405,6.3625488279999995,-127.4140282,0.681803875,-0.3557370305,0.8468427065,-6.983490944,1.6283165815,0.16259288799999994
389,3.24153699999988,-2.692674637,6.388924360000001,-127.4035263,-0.8301210700000001,0.302423656,2.881956935,-6.6627755165,2.567776084,0.923137106
390,3.249870000000101,-2.7441378829999996,6.382359743,-127.4036446,0.6212492885,-0.342881918,3.4632738825000002,-6.207891225999999,-1.3337398769999997,-0.4537241455
391,3.2582029999998667,-2.7974554300000003,6.405261755,-127.40183255,-1.1193643954999999,-0.5739853385000001,2.4464168545,-6.458616376,2.1989053485,-0.08024296149999999
392,3.266536000000088,-2.858905315,6.383694887,-127.4058914,1.064444244,0.1798731090000001,1.8033236860000001,-7.348123312,-3.101692215,-1.1024686995000001
393,3.2748689999998533,-2.916083455,6.373018503,-127.42059330000001,-0.5695418714999999,-0.231712103,3.8314466475,-6.6917836665,-1.7257079480000002,-2.3103657365
394,3.283202000000074,-2.9771476984999996,6.3286507125,-127.42904659999999,0.466004133,-0.5035780670000001,3.3660333155,-7.2438602455,-5.8081051115,-1.760428101
395,3.29153499999984,-3.040391803,6.2933533189999995,-127.45277784999999,-0.16238534449999986,0.18631577450000003,5.155507803,-7.300710678,-4.615057707,-3.5633240935000003
396,3.2998680000000604,-3.1085404160000003,6.1888775825,-127.45298005000001,0.6627209189999999,-0.556011498,5.49011302,-8.2008793345,-13.059556245,-1.2305145735
397,3.3082009999998263,-3.1728446485,6.1267068385000005,-127.47218319999999,-0.6340398789999999,0.05592286550000014,7.6628768444999995,-7.495872259,-7.8626937864999995,-3.1715484855
398,3.316534000000047,-3.248376608,5.946837902,-127.44856645,1.8006032705000001,-0.7067130805,6.9175026415,-9.398603915999999,-22.250387189999998,1.1776788530000002
399,3.324866999999813,-3.315438986,5.779121637499999,-127.46088789999999,-1.3669426445,0.2893596665,7.742529631,-7.9108060595000005,-20.544802665,-3.201339241
400,3.333200000000033,-3.3838636875,5.5813691615,-127.4083595,1.7976733444999997,-0.4465370175000001,7.1823096275000005,-8.8667566775,-24.59120655,4.3325727579999995
401,3.3415329999998,-3.4652888775,5.3263423445,-127.42201235,-1.2930704355,0.5399749275,11.685530660000001,-9.6321010565,-30.98127842,-4.024704814
402,3.34986600000002,-3.483698487,5.080335617,-127.37399675,0.13544821699999998,-0.0762025415,12.033473015,-2.764213324,-30.35444832,3.4426714185
403,3.358198999999786,-3.5182688234999997,4.855496168,-127.39318085000001,-1.6417118310000003,0.7874133870000001,9.335403203,-3.975704014,-27.314656255,-4.477089405
404,3.3665320000000065,-3.508124471,4.553208113,-127.342083,1.1982976195,0.46631929299999997,11.698951721,0.688922882,-37.12569618,3.3807311054999998
405,3.3748649999997724,-3.4769521955,4.34369874,-127.36364365,-3.801520288,0.6489923,11.7370562535,3.9097789525,-25.45774746,-4.697154284
406,3.383197999999993,-3.4135608675,4.0894899365,-127.33449555000001,0.8292882440000002,0.048352271500000044,11.3704147345,7.315610884,-31.203941344999997,1.1954174045000001
407,3.391530999999759,-3.31759572,3.861414075,-127.356472,-3.5415970089999997,1.122231215,14.132230285,11.662081002499999,-27.693043709999998,-4.7656476495
408,3.39986399999998,-3.213703871,3.7489665745,-127.35133359999999,-2.0105127095000004,-0.901099175,11.34510946,12.393246175,-14.055687429999999,-0.574252367
409,3.408196999999745,-3.0724539760000003,3.5822017195,-127.3700905,-1.709398985,0.5163110344999999,14.950212005000001,17.054915905,-20.381901265,-3.8913167714999997
410,3.416529999999966,-2.927912235,3.469183207,-127.3657341,-2.1144651175,-0.9192567465,11.822372914999999,17.280241009999997,-14.120877740000001,-0.595357895
411,3.424862999999732,-2.8049396275,3.455631137,-127.38098529999999,-3.1205018165,-0.710259914,9.361359597,14.82387018,-2.0619140865,-2.400003225
412,3.4331959999999526,-2.6812307835,3.4006148575,-127.37176514999999,-1.07026121,-0.5362368155,15.641718865,14.7430954,-7.1972302795,0.3633316755
413,3.4415289999997185,-2.5462745425,3.418367028,-127.36771015,-3.161962271,-0.7146549375,17.394148825000002,16.128979205,1.5773888825,0.02138143800000003
414,3.449861999999939,-2.43209517,3.509440303,-127.3621063,-2.5064070225,-0.686181353,9.3803458235,13.621243,10.3380484575,0.725337863
415,3.458194999999705,-2.3305308819999997,3.623244405,-127.35485840000001,-2.0296565295,-0.6561895905,13.093811985,12.098253249999999,13.081212043,0.860740721
416,3.4665279999999257,-2.245037079,3.7629749775,-127.3493881,-2.2746696475,-1.1677026449999999,14.752624515,10.177095415,16.177232265,0.8108960984999999
417,3.4748610000001463,-2.182907939,3.9514280555,-127.33358765,-1.7270397545,-1.1329298615,10.198721409000001,7.29453969,21.995451924999998,2.200122569
418,3.483193999999912,-2.137716651,4.1429100035,-127.3301315,-1.253844023,-0.51175639,13.727968215,5.354235410499999,22.395675660000002,0.776054233
419,3.491527000000133,-2.108737707,4.3594841955,-127.31711200000001,-1.3183933620000001,-1.3473647535,16.790391919999998,3.3245759009999998,25.379777904999997,2.0066972375
420,3.4998599999998987,-2.1137683985,4.6152527335,-127.32131575,-2.7669963835,-1.2558720705,13.741836545,-0.5992262955000001,30.14282894,0.09962023449999999
421,3.50819300000012,-2.1606363055,4.893658638,-127.31613925,-1.2663124799999999,-1.4937396045,12.466584685,-5.7142727375,32.830053325,1.3269980549999998
422,3.516525999999885,-2.2374386790000003,5.162767886999999,-127.32576370000001,-0.934182137,-0.815313682,13.66869354,-9.149195672,31.76552105,-0.4303451625
423,3.524859000000106,-2.3488013745,5.432793140499999,-127.33388905000001,-0.8977808955,-1.7670717835,13.79595089,-13.309220790000001,31.883120534999996,-0.2349275985
424,3.533191999999872,-2.5042070155,5.708328723999999,-127.35560229999999,-2.150835931,-1.637758851,14.24490404,-18.430090905,32.59860802,-1.7256202100000002
425,3.5415250000000924,-2.6777665615,5.96975112,-127.37106320000001,-0.15653839700000002,-1.2506724224999999,14.97478914,-20.675334929999998,30.89249325,-0.9896966515000001
426,3.5498579999998583,-2.878862977,6.2272696495,-127.40586090000001,-1.177637935,-1.4386608305000002,13.404765130000001,-23.721219065,30.52499485,-3.1746449475
427,3.558191000000079,-3.106908083,6.4896564485,-127.42580415,-0.5921800285000001,-1.556260407,13.739077094999999,-27.13995171,31.034754754999998,-1.272325128
428,3.566523999999845,-3.3505001065,6.736472845,-127.45784375,-1.700174272,0.08341831,17.051754475000003,-28.826197625,29.240958215,-2.648131728
429,3.574857000000065,-3.589675069,6.991194725,-127.47529220000001,-0.5621986685,-0.600318726,14.85994196,-28.49148941,30.10582924,-0.740950346
430,3.583189999999832,-3.8507370945,7.237808466,-127.50777435,-1.3526747825,-0.7881383,13.185148715,-30.885544775,29.235423089999998,-2.450139821
431,3.591523000000052,-4.1214904785,7.4774439335,-127.5085449,-1.4680150745,-1.2941083610000002,14.355405805,-32.522490505,28.161288265000003,1.3782464564999999
432,3.599855999999818,-4.38223505,7.693814278,-127.53050235,-1.2965390085,0.006840758000000002,15.61231613,-30.980295185000003,25.549954415000002,-1.1847878395
433,3.6081890000000394,-4.6303195955,7.9257199765,-127.53622440000001,-0.2644651085,-0.4242650885,15.009433269999999,-29.72295475,27.264803885,0.994883731
434,3.616521999999805,-4.876948595,8.142090321000001,-127.56287765,-1.7317377624999999,0.419849217,14.192016124999999,-29.190790175,25.602563859999997,-1.4903534055
435,3.624855000000025,-5.106042147,8.340878009499999,-127.57888410000001,-0.44849449399999997,0.08916029349999999,15.28515291,-27.26424694,23.399847985,-0.318410987
436,3.633187999999791,-5.3153865335,8.5409808155,-127.61576840000001,-1.4279911515,0.5930609405,14.844833375,-24.517579079999997,23.776788715000002,-2.6538614035
437,3.641521000000012,-5.5033547875,8.707653046,-127.64171985,-0.37968146599999997,-0.409353167,14.91078424,-22.14420891,19.671632765,-1.6538676620000001
438,3.6498539999997774,-5.672654152,8.864956378999999,-127.67688749999999,-0.9971053599999999,0.31407656700000003,15.117396355,-19.725163459999997,18.65356636,-2.7784290315
439,3.658186999999998,-5.815927266999999,9.002278805,-127.70232010000001,-0.5793967099999999,0.5306832345,15.10130167,-16.774924755,16.17147875,-1.843034625
440,3.666519999999764,-5.9315388205,9.1216893195,-127.7391243,-1.3737735155,0.2354506105,14.799206735,-13.2337284065,14.164471625000001,-3.3388170004999997
441,3.6748529999999846,-6.029102802500001,9.2301425935,-127.76831820000001,-0.9555673305,-0.773172729,14.572157859999999,-11.211378099000001,12.7763314235,-2.554917932
442,3.6831859999997514,-6.1133883,9.328300476,-127.80813979999999,-1.3455230595,0.122087799,15.65634012,-9.401526927,11.67727566,-3.9119601250000002
443,3.691518999999971,-6.1733515265,9.4108157155,-127.84527205,-0.24343568100000001,0.11227478850000001,14.805111884999999,-6.53228426,9.788891316499999,-3.7844144105
444,3.699851999999737,-6.229055166,9.4882164,-127.8968468,-1.1370950935000002,-0.010205641500000001,12.287007809999999,-5.729981184,9.364757060999999,-5.533392667499999
445,3.7081849999999577,-6.279397726,9.5410113335,-127.9539337,-0.140636593,-0.16530443,14.05116987,-4.9771406655,6.506144047,-6.489200115
446,3.716517999999724,-6.3114430905,9.5776691435,-128.01623155,-1.408959568,-0.3578934075,14.782166485000001,-2.667960018,4.6506873365,-7.306409836
447,3.724850999999944,-6.3256690505,9.589691639,-128.07601165,-0.131575644,-0.30360007299999997,13.997770785,-0.5807840824999999,1.6859871149999999,-7.341719389
448,3.73318399999971,-6.326329707999999,9.5849070545,-128.1310768,-0.712137401,-0.3115921075,14.223091605,0.9528816935000001,-0.3827087880000001,-7.0112183095
449,3.7415169999999303,-6.3205568795,9.5721888545,-128.18448635,-0.489895448,-0.827125609,12.62361813,1.6881001590000002,-1.3466622830000001,-6.9076595305
450,3.7498500000001513,-6.3016548155,9.538105010999999,-128.23210145,-0.879959494,-0.218903661,12.659580705,3.145588428,-3.9773272275,-6.4993567465
451,3.758182999999917,-6.271795987999999,9.4928355215,-128.27631375,-0.77079846,-0.22568955550000003,11.376061438,4.383927941,-5.354592085,-6.224515437999999
452,3.766516000000138,-6.2330126759999995,9.433344841,-128.30910875,-0.6415376515,-0.2152686285,12.03866625,5.224112868000001,-7.2082169060000005,-5.055609226
453,3.774848999999904,-6.1816744805,9.3786678315,-128.33174895,-1.5634679795,-0.5555573475,8.8646686065,6.5232281685,-6.762810707,-3.7814425825
454,3.783182000000125,-6.1303386685,9.37302351,-128.34602355,-1.6325113180000002,-0.471611023,8.05596447,6.3618204590000005,-1.0237560275,-2.1805397275
455,3.7915149999998894,-6.0786762235000005,9.300470829,-128.3367691,-0.589581128,-0.9745461945,9.261993885,5.9386863705,-9.302693369,-0.2613996864999999
456,3.799848000000111,-6.045979977,9.392547607000001,-128.33576205,-2.7560555935,-1.0371530055,7.6689572345000006,3.8213880065,10.4414656165,0.88079679
457,3.808180999999877,-6.024261951,9.327785015,-128.32165145,0.22995176150000002,-0.8649604915,3.9612581135000005,2.2478415965,-8.430261135,0.42457519500000007
458,3.8165140000000974,-6.0222256185,9.444817066,-128.30691145,-1.9237597585,-0.9792127015,5.524277091,-0.128244072,13.247275355,2.8031967284999997
459,3.8248469999998633,-6.0400259495,9.4491901395,-128.28025055,0.3993766305,-1.197260499,5.208747625,-2.7456029655,-0.333465308,2.7836143975
460,3.833180000000084,-6.058113098,9.5119738575,-128.27875515,-1.0930442215,-0.12310852150000001,5.9631905555,-2.2832148075,6.939934492000001,0.5596198885
461,3.84151299999985,-6.086656809,9.552052021,-128.25811005,0.7386613934999999,-1.363577634,5.617125511499999,-3.9199644329999996,3.995347142,2.5183019635
462,3.8498460000000714,-6.1244060995,9.5933260915,-128.25867845,-0.7630122305,-0.1797205955,5.990346193500001,-4.6024940015,4.4038680789999995,0.047367155499999924
463,3.858178999999837,-6.156425237500001,9.5792303085,-128.2513237,0.7564414589999999,-0.522721812,5.5640182495,-4.072483838,-2.3039365115,0.24250918649999997
464,3.866512000000057,-6.189755916499999,9.6132559775,-128.23433684999998,-0.4499014765,-0.6602121440000001,4.8903332355,-4.4224390985,3.3146300765,1.999921262
465,3.874844999999823,-6.240024805,9.537111282000001,-128.22729875,0.77260533,-0.379009796,6.1793534755,-6.2533955575,-9.699777603000001,-0.6068717545000001
466,3.883178000000044,-6.264215946,9.531642437,-128.20072935,-1.552588284,-0.04591321949999999,6.3939630985,-3.5124034885,-1.5281580685,2.617698133
467,3.8915109999998094,-6.293972015,9.4525060655,-128.16463855,0.7263712809999999,-0.6847825495,5.391471624,-4.3692890405,-10.431807517500001,2.7744573355
468,3.89984400000003,-6.335793495,9.432267666,-128.1431999,-2.118342519,-0.13220478600000002,5.610009968,-5.5235118865,-3.2246599794999997,1.8303998110000002
469,3.908176999999796,-6.3775677680000005,9.3742575645,-128.0935478,0.25321083650000004,-1.0980035065,3.2213287205,-6.0713939665000005,-8.0969042775,4.65468359
470,3.9165100000000166,-6.4256999495,9.340572357,-128.06059265,-1.4203701020000001,-0.2805955335,5.03829813,-6.504556656,-4.978767753,2.9908593295
471,3.9248429999997834,-6.4864578250000005,9.3147363665,-128.0356903,-0.7326826155,-0.6104899645,6.324050665,-7.8590371605,-3.943388939,2.157359347
472,3.933176000000003,-6.543816566,9.2880067825,-127.98426054999999,-0.2106054245,-1.195933163,3.5872482065,-7.9686086175,-4.4063469175000005,5.270033121
473,3.941508999999769,-6.630104542,9.261481285,-127.98020555,-1.151886329,-0.275761601,2.8393557075,-10.5203681015,-3.7447118754999997,-0.2953321485
474,3.9498419999999896,-6.715572357,9.240764141,-127.92599870000001,0.2841008865,-1.1240378915,5.329438447999999,-11.390153405,-3.751730561,5.6843123435
475,3.958174999999756,-6.8092796799999995,9.2068247795,-127.9360008,-1.057621658,0.11056618399999998,3.8373667005,-11.142724515000001,-4.4260058405,-2.0677220225
476,3.966507999999976,-6.8962678905,9.1922702785,-127.88525390000001,0.48398933899999996,-1.099827938,2.7148094175,-11.499402525,-2.9979224804999998,5.3552517295
477,3.974840999999742,-6.999471903,9.14657259,-127.8952103,-1.4085205200000002,0.470749602,3.485281825,-12.290044785,-5.8109486105000006,-2.2522788049999996
478,3.9831739999999622,-7.091579676,9.124057293,-127.84671019999999,1.1796598655,-0.704450905,4.3166092635,-12.060452935,-3.9468733075,4.978825688500001
479,3.991506999999729,-7.1911211015,9.0666570665,-127.84931184999999,-1.9633404314999998,0.24297851350000005,2.786180973,-11.998146055,-7.2963826654999995,-1.5609900945000001
480,3.999839999999949,-7.2845773695,9.024597168,-127.80533600000001,1.91412472,-0.6009499150000001,3.513195157,-12.12246561,-6.237632036000001,4.1392049790000005
481,4.008172999999715,-7.3740746975,8.959168910999999,-127.79709245000001,-2.7892564085,0.16755133899999997,2.537139297,-11.0037760725,-8.403635979,-0.40907716999999977
482,4.016505999999936,-7.461008787,8.901301861,-127.76638410000001,2.455460429,-0.09249407100000001,2.6985012295,-11.079990865500001,-7.9360091665,2.3149709720000002
483,4.024839000000156,-7.539512633999999,8.8374323845,-127.74637225000001,-3.3193125725,0.10076403649999999,2.73502177,-9.8978824595,-8.3968100535,0.9402928350000002
484,4.033171999999922,-7.6118032929999995,8.778100967499999,-127.728817,2.6232761444999997,-0.049604356499999946,3.597973585,-9.073499201,-7.906168222000001,0.718895915
485,4.041505000000143,-7.668397427,8.723081589,-127.69032669999999,-3.4629513024999996,-0.2609637085,2.419565916,-7.599092245,-7.6493227505,3.2515053744999998
486,4.049837999999909,-7.7243685724999995,8.663922786499999,-127.69338984999999,2.2387021779999996,0.5112177059999999,1.914031595,-6.742040157,-7.551642417,-1.7156476960000004
487,4.058171000000129,-7.7597122195,8.6169219015,-127.66487885,-3.2494289875,-0.3547862845,2.4179135560000002,-4.8606215715,-6.547870635,2.2012312415
488,4.066503999999895,-7.795041084499999,8.5685806275,-127.69021985,2.422085762,0.5443028285,2.289399266,-3.8709137664999997,-5.9020842315,-4.1584398765
489,4.074837000000116,-7.821825981,8.525905609,-127.6564865,-2.658863962,-1.0576171575,2.10638839,-3.9188889265,-6.1286677125,2.87336135
490,4.083169999999882,-7.8415822985,8.474434376,-127.697876,1.2355104385,1.0127331915,1.481176317,-1.724831462,-6.007537365,-6.0887936065
491,4.091503000000103,-7.8400447369999995,8.438954353500002,-127.6724968,-1.6340379715000002,-0.56336724,1.9393870235,-0.37036258,-5.1522010565,2.0459694864999998
492,4.099835999999868,-7.8397915365,8.38329649,-127.7087517,0.953445196,0.6700349449999999,2.0685061215,0.5682583449999999,-6.585997105,-5.516051829
493,4.108169000000089,-7.8176748755,8.3434023855,-127.68299479999999,-1.8301009835,-0.34219235149999994,2.8896742465000003,2.1018659025,-5.692449808,2.0155456810000003
494,4.116501999999855,-7.7831578255,8.2975697515,-127.71577075,0.766622484,0.80855751,2.1573306325,4.6070024965,-5.4736477135,-4.9156928065
495,4.124835000000076,-7.7421450615000005,8.252091408,-127.67915345,-0.6799938830000001,-0.696028158,2.6462801695,4.190091848,-6.5304391385,3.1944153305
496,4.133167999999841,-7.6902103425,8.195050716499999,-127.69934085,-0.3607151285,0.6006470380000001,2.7181831595,6.467480420999999,-7.010501623000001,-3.5903732775
497,4.141501000000062,-7.623073578,8.151125908000001,-127.66013335,0.2958357185,-0.352453351,2.2291995285,7.29126048,-6.38940835,3.553483054
498,4.149833999999828,-7.5639076235000005,8.0864844325,-127.65850449999999,-0.5782635065,0.372366339,0.8117482069999999,6.9572622775,-8.2599771025,-1.1180931330000001
499,4.158167000000049,-7.4854102135,8.048816681,-127.62733455,-0.7203875405,-0.217496812,1.350167334,8.8009631635,-5.512120247,2.721532583
500,4.166499999999815,-7.403568744499999,8.013112068,-127.61445615,-0.49374618400000003,0.22806654849999997,1.5982731284999998,9.487655638500001,-4.9901919365000005,0.6761710645000001
501,4.174833000000035,-7.315501451,7.9811098575,-127.5920868,-0.4007282705,0.176889643,3.11064899,10.10292244,-4.6926054955000005,1.7584246395
502,4.183165999999801,-7.2216959,7.972361565,-127.58118820000001,-1.2070600985,-0.506056957,3.1251103875,10.972435472499999,-1.737567544,0.7704062460000003
503,4.191499000000022,-7.1300313475,7.9513828755,-127.57346725,0.5325845035,-0.4470581415,2.3400189874999997,10.776896477000001,-3.1534456015,0.20965981450000015
504,4.199831999999788,-7.043831587,7.9511113165000005,-127.5672951,-1.4485058335,0.0857611485,2.273984015,10.1384999745,-0.656544194,0.3540720939999997
505,4.208165000000008,-6.9668264385,7.9603602885,-127.58698275,0.13564005500000004,-0.525190473,2.2208060025,9.474968433,0.8513851465,-2.602982998
506,4.216497999999774,-6.891907692,7.977626562,-127.5834465,-1.0055840315,-0.8268299845,2.503923774,8.8288109315,1.4690596464999999,0.303272486
507,4.224830999999995,-6.827832222,8.006155491,-127.6169319,-0.35644021600000003,0.40718032449999997,3.1375169755,8.1573915485,3.341313124,-3.988380313
508,4.233163999999761,-6.765798569,8.04277277,-127.61309815000001,-0.9600449199999999,-0.8974656460000001,2.8376686575,7.2791552545,3.7703510525,0.607550487
509,4.241496999999981,-6.7068564895,8.087070465,-127.6488075,-0.11458533999999998,-0.0017849210000000504,4.565623999,7.5863990779999995,5.24676919,-4.0550922155
510,4.249829999999747,-6.6585700515,8.1300411225,-127.62702945000001,-0.66861105,-0.8044100255000001,4.000444293,5.3302075865,4.285953283,2.751494169
511,4.258162999999968,-6.623286724,8.1714735035,-127.66561125,-0.043766856500000006,0.11182343949999995,3.8644176725,4.797725916,4.9371187684999995,-4.4060326815
512,4.266495999999734,-6.592296362000001,8.172718048,-127.62142564999999,0.5112603304999999,-1.5166596169999997,4.8288505075,2.8784124854999997,-0.9876531365000001,4.7392613885
513,4.274828999999954,-6.5700223445,8.198016167,-127.6582413,-0.7752046584999999,0.7308472395,7.7508118150000005,3.214202404,2.995725811,-4.4751399755
514,4.28316199999972,-6.5532062055,8.143416405,-127.5906868,2.458172321,-1.997907817,7.4282808305,0.783507824,-7.963928698,6.720113395499999
515,4.291494999999941,-6.525917053,8.0772414205,-127.61019135000001,-2.246883124,1.0204747470000002,5.63244915,3.5250697134999998,-8.130618095500001,-3.791009441
516,4.299827999999707,-6.526232481,7.975681305,-127.53899385,3.4660196305,-1.194121793,9.76349735,-1.3039761185,-13.6078567485,6.5102769160000005
517,4.308160999999927,-6.5118553635000005,7.849440336000001,-127.5421028,-2.8678255085,-0.05007159700000008,10.547275067000001,1.682721332,-15.511178015,-2.6455857755
518,4.316494000000148,-6.4658105374999995,7.631551027,-127.4824257,4.380488038,-0.3726360205,11.304734109,4.4927533865000004,-27.32093334,3.5648206474999995
519,4.324826999999914,-6.4540781974999994,7.4460349085,-127.4716339,-4.869797945,0.5867484810000001,6.854507626,1.1369211674999997,-22.76814747,-1.7808640000000002
520,4.333160000000135,-6.3973701,7.2555167675,-127.43175125,3.4974782465,0.16639894249999998,12.3103306315,6.121358096,-23.796035765,1.7277660370000003
521,4.3414929999999,-6.296610355,6.977786541,-127.39910505,-3.910076976,0.7064586575,14.090017796,11.492045881000001,-34.06429672,-0.3230929374999998
522,4.349826000000121,-6.1679463385,6.8467330935,-127.38629915000001,0.460962005,0.29319944600000003,9.8593788135,15.181870465,-16.341517449999998,-0.6042585374999998
523,4.358158999999887,-6.0326046945,6.5484793185,-127.34746935,-1.8082240225000001,-0.24821262449999998,15.046452525,15.587307930000001,-36.595352175,0.2873089310000001
524,4.366492000000108,-5.8715429305,6.4569778445,-127.34671405,-2.7058176995,0.30868074300000004,13.373195173,19.239118575,-11.4687299745,-1.4659733769999996
525,4.374824999999873,-5.6881978515,6.2688543795000005,-127.32516095,-1.644193053,-1.0760771930000002,12.9463253045,21.604000095,-23.2383194,-0.18295526499999992
526,4.383158000000094,-5.533588409,6.145273685499999,-127.3318939,-1.5101420285,-1.000063956,11.021565437,18.552350044999997,-15.21677208,-2.6712783575
527,4.39149099999986,-5.3813774585,6.084559202,-127.3191376,-2.2460029125,-1.2971165925,11.947845935,18.00367546,-7.9171705245,0.33450317399999996
528,4.399824000000081,-5.259662151000001,5.9868044855,-127.33263015,-1.066268414,-1.250621319,15.359808919999999,14.680670265,-12.07234478,-3.0746567845
529,4.4081569999998464,-5.1656057835,6.0452342035,-127.3314819,-3.469757557,-1.459910512,12.3075122835,11.177414419,6.4517019995,0.28596365450000016
530,4.416490000000067,-5.0966293815,6.0345733164999995,-127.35588455,0.272025242,-1.1010772135,14.50843811,8.481796265,-1.5576337575,-3.3587182835
531,4.424822999999833,-5.0560567380000005,6.091989279,-127.35181425,-3.0306783915000004,-2.028144717,15.330697059999999,4.7204351424999995,6.2981822495,0.6234697105
532,4.433156000000054,-5.0592212675,6.175329446999999,-127.37984845,-0.24745552250000002,-1.0563854579999998,11.284112450999999,-0.12225037800000005,9.7169265755,-2.8282726405000003
533,4.44148899999982,-5.083723307,6.228475094,-127.3731384,-1.4143539665,-1.1604885165,14.752469065,-3.118072152,5.761333227,0.8646406085
534,4.44982200000004,-5.127969742,6.3043725495,-127.40404509999999,-0.7082150425,-0.4103976785000001,16.720558165,-4.9969537255,8.8710563195,-3.352852464
535,4.458154999999806,-5.187018871499999,6.388885736500001,-127.40842055,-1.7981967925000002,-1.083658099,14.746620175,-7.117044687,9.62831497,-0.12697615499999998
536,4.466488000000027,-5.2591748235,6.4813354015,-127.44858935,-1.407765299,-0.464276746,11.54435539,-8.207634924499999,10.958655355,-4.252706647
537,4.4748209999997925,-5.341902017500001,6.556583643,-127.46459200000001,-1.3772572875,-1.104613602,13.39846373,-9.801262379,8.644074914499999,-1.5558600425
538,4.483154000000013,-5.4310605525,6.6476266385,-127.5069809,-1.2930716575,-0.2915917415,14.331804275,-10.2097072585,10.822822569,-4.445351124
539,4.491486999999779,-5.520544529,6.754612445499999,-127.5327263,-1.9963539245000002,-0.5538354215000001,15.365597725,-10.47065258,12.548006059999999,-2.3219566345000002
540,4.49982,-5.6135189535,6.9088947775000005,-127.58417125,-2.330876231,0.15655982499999993,15.018172265,-10.50515652,18.506010054999997,-4.86741066
541,4.508152999999766,-5.6956264975,7.0655236245,-127.6150055,-1.2173722384999999,-0.377975697,14.925085545000002,-9.497364283,18.53766823,-2.2855847775
542,4.516485999999986,-5.784415722,7.252396107,-127.66410825,-1.9586230515,-0.28247942049999997,13.48859453,-10.004604817,22.381601330000002,-4.114737153
543,4.524818999999752,-5.870617628,7.4580235485,-127.69885635,-1.585247099,-0.6343944665,16.98088646,-9.9046459205,24.443128585,-2.1094102265
544,4.533151999999973,-5.938898325,7.6514422895,-127.74307249999998,-1.5742670895000002,-0.424302213,17.45822048,-7.5861468325,23.10662842,-3.368056178
545,4.541484999999739,-5.9948313235,7.880493878999999,-127.77554325,-0.4725200235,-0.44529753949999995,14.368162635,-6.280461073000001,27.21210861,-1.4908839465
546,4.549817999999959,-6.0492761134999995,8.082610130499999,-127.8111992,-1.2018105685,0.1861281395,14.804712295,-6.0304141045,24.042598725,-2.1525191065
547,4.558150999999725,-6.0889081955,8.3046889305,-127.8335304,-1.263445377,-0.413582295,15.887097355000002,-4.4637955425,26.259500505,-0.383925557
548,4.566483999999946,-6.1093308925,8.5050702095,-127.8478546,-0.7435439079999999,-0.18202495600000002,13.608452795,-2.2944668530000003,23.5670433,0.37876436150000004
549,4.574816999999712,-6.1164460179999995,8.708752154999999,-127.85679245,-1.0349702834999999,-0.37309575800000006,14.156374455,-0.7858518364999998,23.893944740000002,1.0234106779999999
550,4.583149999999932,-6.0948176385,8.895749569,-127.85112760000001,-0.9566355945,-0.481218405,16.431207655,2.3975565430000003,21.714943885,2.573712945
551,4.591483000000153,-6.0594468115,9.062391281,-127.83450315,-0.28889133050000004,-0.07661652550000009,15.172716144999999,3.8395110370000003,19.152719500000003,3.5664245484999997
552,4.599815999999919,-6.017153978,9.217443943,-127.80207825,-0.4549291435,-0.183805585,14.207428455,4.358942032,17.572637555,5.315326452
553,4.60814900000014,-5.9749078749999995,9.338862419,-127.763855,-0.5580434950000001,-0.9712422785,16.370720385000002,4.233470559,13.49459362,5.5189211364999995
554,4.616481999999905,-5.928265571500001,9.428197384,-127.70838165,-0.567348003,-0.422709224,14.75081158,4.4135506155,9.456545352500001,7.1726143360000005
555,4.624815000000126,-5.8985016345000005,9.469303608,-127.65781784999999,0.49282226,-0.8877065480000002,13.2415061,2.4804441930000003,3.767745376,5.963147879
556,4.633147999999892,-5.889924526,9.468200683500001,-127.59009555,-0.6101694855,-1.9942839745,14.957300185,-0.40616482499999995,-1.4808232785000002,7.486573696500001
557,4.6414810000001125,-5.9095506669999995,9.4191827775,-127.5309906,0.18458762750000002,-1.317819707,15.703666689999999,-3.6144379375,-7.088356019000001,5.8534038065
558,4.649813999999878,-5.9540505405,9.331622123999999,-127.45960994999999,-0.04950839249999994,-1.2513961194999998,14.555623055,-6.837029934,-11.850941658,6.8717114925
559,4.658147000000099,-6.011348963,9.2347459795,-127.4110794,-0.725653599,-0.5263507405,16.698003765,-7.909876585,-12.679619315,4.009109378
560,4.666479999999865,-6.0685775280000005,9.1132826805,-127.35123825,-0.7696940375,0.365838746,16.25097847,-8.108283996499999,-15.76301098,5.039313077999999
561,4.674813000000086,-6.147670269,8.978550433999999,-127.31615065,-1.5199068785,-0.5390207174999999,13.70731926,-10.2575185275,-17.035431860000003,1.951882094
562,4.683145999999852,-6.236147165,8.850304127000001,-127.27627185,-1.811911702,-1.4428975135,15.472830295,-11.4527692775,-16.336508754999997,2.560745776
563,4.691479000000072,-6.3278849125,8.7056388855,-127.24649045000001,-1.257748693,0.2283415795,16.656303885,-11.65841293,-18.158539775,1.1543890239999999
564,4.699811999999838,-6.4227478505,8.568038464,-127.21327595,-1.03840965,0.40339728799999997,15.96133566,-12.079197405,-17.376797675,1.624282449
565,4.708145000000059,-6.517469883,8.433327198,-127.19250109999999,-1.9767184855,-0.19188693950000002,16.004984855,-11.84275818,-16.858067515000002,0.18846333000000004
566,4.7164779999998245,-6.5952098370000005,8.2787480355,-127.1600189,-1.352679014,-0.532937914,15.991015909999998,-9.9947161685,-19.399204255,1.2688462955
567,4.724811000000045,-6.657483815999999,8.136244297,-127.13953015,-1.4168558715000001,0.529641509,14.65970755,-7.931156399,-17.7854805,0.010905265999999969
568,4.733143999999811,-6.7166104319999995,7.985092878500001,-127.1172409,-1.1047779915,0.16248432549999997,15.8711524,-7.5740036945,-18.854913709999998,0.09144914149999994
569,4.741477000000032,-6.764032364,7.832615614,-127.1042099,-2.565976083,-0.28457042600000004,16.53206587,-6.013801991,-18.86918068,-1.0606539845
570,4.749809999999798,-6.796433687,7.6894671915,-127.09509655,-0.2899391355,0.0374986375,15.634794235000001,-4.1370717290000005,-17.71955013,-1.3755425215000001
571,4.758143000000018,-6.8276391025,7.5488717555000004,-127.0893097,-2.110432446,0.381497383,15.240518569999999,-3.9448297025,-17.35005474,-1.7787426415
572,4.766475999999784,-6.8517959115,7.408289194,-127.08913805,-2.2512489555000004,-0.2302595375,16.052309989999998,-3.0072654485,-17.28764057,-2.3954823165
573,4.774809000000005,-6.8438293935,7.2984793185,-127.08657840000001,-1.344259381,0.6659879015,15.589734555,0.8088527915000001,-13.636611465000001,-1.7200217249999998
574,4.783141999999771,-6.825690508,7.1882407665,-127.09282685,-1.822277546,0.7021268384999999,14.716651915,2.1637818815000003,-13.57835245,-2.717722118
575,4.791474999999991,-6.795018196499999,7.111013651,-127.101738,-2.883106351,-0.145380497,14.573029515,3.7089988590000003,-9.5976800935,-2.6134333014999998
576,4.799807999999757,-6.736651659,7.0396368505,-127.11426545,-0.980756998,0.6104961335,15.867862225,7.0823945980000005,-8.861725807,-2.900588393
577,4.808140999999978,-6.6600193975,7.002370119,-127.1326599,-2.1024389865,0.7773600225,14.55275154,9.3587503435,-4.706193209,-3.156788111
578,4.816473999999744,-6.566000223,6.9846282004999996,-127.15571975,-2.6071765425,-0.06653058499999998,13.748387335,11.513791565,-2.326444596,-3.4166829585
579,4.824806999999964,-6.446069479,7.0050663945,-127.17834475,-2.309171319,0.228683062,14.63377142,14.614397045,2.2170855405000003,-2.831539035
580,4.83313999999973,-6.315998554,7.044422865,-127.20993039999999,-1.564615071,0.8969382939999999,11.726948265,15.967139245,4.584271431,-3.6537053585
581,4.841472999999951,-6.1848652365,7.121965885,-127.24276355,-2.39857471,0.0489579975,12.716312885,16.114012715,9.1497163765,-3.3117427825
582,4.849805999999717,-6.0238718984999995,7.222839832,-127.2866707,-2.0700904135,0.49182081199999994,13.809208389999998,19.868881225000003,12.06515503,-4.3436000345
583,4.858138999999937,-5.8569664955,7.3748881815,-127.32677075,-2.296834767,-0.1823737025,9.14809847,20.53347206,18.11612892,-3.3025095465
584,4.866471999999703,-5.686568499,7.5303738120000006,-127.37106700000001,-0.532155853,0.071754709,8.704627273,21.029660225,18.56442928,-3.7943671945
585,4.874804999999924,-5.4987375735,7.6657035350000005,-127.39488220000001,-1.8628422615,-0.2784076035,9.9858255395,22.80592346,15.910630225,-1.6688515245
586,4.8831380000001445,-5.328070879,7.9065797325,-127.43008805,-1.479977548,0.128683746,6.969530344,20.941846845,28.641469004999998,-1.85830158
587,4.89147099999991,-5.130321026000001,8.0331857205,-127.43294905,-0.394376367,-0.33807935,7.90286541,23.66622448,14.63129711,0.625288874
588,4.899804000000131,-4.941724300500001,8.276377200999999,-127.45552065,-1.5095924735000001,-0.342618093,8.0121119025,22.90568924,28.776287080000003,-0.5277370809999999
589,4.908136999999897,-4.7554397585,8.4348106385,-127.45359425000001,0.14167543700000002,-0.748766154,3.092926502,22.208395959999997,18.39509964,1.411614299
590,4.916470000000118,-4.587732315,8.6332740785,-127.45858765,-0.4559993,-0.386721954,4.014014244,20.104925155,23.25456905,0.9403249325
591,4.924802999999884,-4.4494187830000005,8.7835879325,-127.45084,-0.2836335525,-1.154086441,5.727885008,16.3448596,17.37860012,1.919825986
592,4.933136000000104,-4.304403305,8.956188202,-127.45443345,0.283212274,-0.4306449295,4.8072779180000005,17.357562065,20.15694332,0.7369797975
593,4.94146899999987,-4.1834440235,9.076239109,-127.43774795,-0.234328821,-1.057458043,4.765093207,14.090343475000001,13.688635824999999,2.6181343345
594,4.949802000000091,-4.077790022,9.1987361905,-127.43772125,0.33724820599999994,-0.2091026385,3.164151311,12.5719308845,14.134463787000001,0.6439740660000002
595,4.9581349999998565,-3.9801193479999997,9.268949508999999,-127.42373275,0.5734301509999999,-0.5759445280000001,3.4952560664999996,11.340390679999999,7.755280733,1.8226709369999998
596,4.966468000000077,-3.898554206,9.355513096,-127.41540144999999,-0.8261659445000001,-0.2818661335,5.4326648715,9.517918588,9.7696685785,1.2807439565
597,4.974800999999843,-3.8156163695,9.395692348499999,-127.41961285,1.0845315755,-0.029468879000000003,4.2873660325,9.9265425195,4.310633063,-0.5922080279999999
598,4.983134000000064,-3.7389999625000003,9.444557190000001,-127.39204025000001,-1.17598778,-1.0336973665,2.842663288,8.5443086625,5.1147789955,3.2141582069999997
599,4.99146699999983,-3.6784032585,9.4645066265,-127.41980745000001,0.816954717,0.586866375,2.5304787159999997,7.709666729,2.066864252,-3.5439414605
600,4.99980000000005,-3.6153366565000002,9.481529236,-127.37165829999999,-0.7114937004999999,-1.1045127215,4.189733148,6.5106394315,1.150994867,5.3792967795
601,5.008132999999816,-3.5690596105,9.4902043345,-127.42173005000001,0.07734167599999997,0.746679455,3.939270735,6.434526205499999,0.880399803,-6.2610418795000005
602,5.016466000000037,-3.518121004,9.485440731,-127.36292645,0.3435531855,-1.7420969309999998,3.0552815200000003,4.8425383570000005,-1.531711891,6.4863061905
603,5.024798999999803,-3.487301469,9.4773960115,-127.42354965,-0.9256439805000001,0.9784940854999999,3.256092548,4.784150481,-1.052117571,-7.607620716
604,5.033132000000023,-3.4482505325,9.4481887815,-127.3561249,1.335723102,-1.8259961605000001,2.7171409129999997,3.247360468,-4.520836711,7.344909309
605,5.041464999999789,-3.430945039,9.4291043285,-127.4116974,-1.8855131864999999,1.138370514,3.3289557695000003,3.0565854315000003,-2.4091982245,-7.0977059605
606,5.04979800000001,-3.407143235,9.382825374500001,-127.34531785000001,2.0379606485000004,-2.0168398025,3.0176476240000003,1.4497467275,-6.558845997,7.112651942
607,5.058130999999776,-3.404983401,9.358473778,-127.39405439999999,-2.5143904685,0.940569997,3.133596361,1.092735529,-3.0902424455000004,-6.321152539
608,5.066463999999996,-3.4010312555000004,9.2970156665,-127.339756,2.5895556209999997,-1.93354398,2.3775333165,-0.6835544705000001,-8.2950694535,5.5916092415
609,5.074796999999762,-3.4102790355000003,9.256946087,-127.37794110000002,-2.4330326319999998,0.934389852,2.8961821795000002,-0.49585974200000016,-5.0417144295,-5.168408754
610,5.083129999999983,-3.4140288830000003,9.1747136115,-127.34252165000001,2.6176553965,-1.348994598,2.137300849,-1.231731027,-10.6545438755,3.2152786229999997
611,5.091462999999749,-3.427167773,9.1237158775,-127.3650093,-2.6271052360000002,0.42805749150000005,3.4300533535,-1.2674372200000001,-6.4578614235,-3.4142184280000003
612,5.099795999999969,-3.444633484,9.049116135,-127.34962845,1.6507931944999998,-0.8655604125,2.136654556,-2.4864895044999997,-9.598692894500001,0.8806755545000002
613,5.108128999999735,-3.468230963,9.016829490500001,-127.3589058,-2.6417953224999997,0.04354166999999998,1.914449394,-2.7762502435,-4.312477112,-1.722859621
614,5.116461999999956,-3.493911028,8.9564766885,-127.36568449999999,1.589215815,-0.062377393499999934,1.089018762,-3.0518600645,-7.7301084995,-1.6515364645
615,5.124794999999722,-3.508828163,8.9177579875,-127.3615494,-1.5033943355,-0.062883638,3.1506365535,-1.9854746460000001,-5.181785345,-0.159646988
616,5.133127999999942,-3.5254962445,8.858392715,-127.38073729999999,0.9233145114999999,-0.06343698500000006,2.9719021320000003,-1.745302722,-7.519621849,-3.1148512365000003
617,5.141460999999708,-3.534175396,8.828098297,-127.3642731,-1.3714151975,-0.229300022,2.2487306595,-1.462137401,-4.2689903975,1.370886326
618,5.149793999999929,-3.5439777375,8.768972397,-127.39427565,0.8513527215000001,0.5580696464999999,0.5036766085,-0.7313761115,-7.408277511500001,-4.3540427385000005
619,5.15812700000015,-3.546807051,8.7341685295,-127.36485295,-1.0154060125,-1.0889065265,1.388714984,-0.9978349209999999,-4.9119138719999995,2.8967203495
620,5.166459999999916,-3.5644500255000002,8.6840200425,-127.3948059,0.2652176765,0.2777011395000001,2.047673583,-1.682637453,-6.3273439405000005,-4.2658206825
621,5.174793000000136,-3.5698878765,8.6350741385,-127.35655210000002,0.07859442200000001,-0.7798672914999999,3.2239325045,-1.4599345325000002,-6.676593781,3.8289438485
622,5.183125999999902,-3.5719944234999996,8.5731449125,-127.38040545,-0.181490276,0.475082785,1.9129450915000001,0.05743360499999994,-7.7779934404999995,-3.6146428585
623,5.191459000000123,-3.5639811755,8.5086598395,-127.34303665000002,0.4580434565,-0.8047971764999999,0.7661198675,0.182853652,-8.536994221,3.6111336945000003
624,5.1997919999998885,-3.574191332,8.428092003,-127.36849974999998,-0.2023600375,0.47372680899999997,1.073566854,-0.8984130024999999,-9.9957127555,-3.9112813475
625,5.208125000000109,-3.585855365,8.344195366000001,-127.33215715,0.6200302245,-1.6147184375,3.4739735125,-2.1431559325,-10.8562998765,3.3132656215
626,5.216457999999875,-3.596779108,8.2507953645,-127.35114285,-0.8420581195,0.6634101270000001,2.9576430325,-1.1076364815,-11.57780361,-3.2305579185
627,5.224791000000096,-3.606349468,8.161298275,-127.32899474999999,0.5971452,-0.847614646,2.581586957,-1.6287834645000001,-11.422668455,1.555892229
628,5.2331239999998616,-3.6135367155,8.041784763499999,-127.33936689999999,-0.237297714,0.237615131,3.0389665365000003,-0.8038069010000001,-14.766948225,-2.4773645625
629,5.241457000000082,-3.6254512070000002,7.9353158475,-127.32754895,0.2186301275,-0.2314330335,4.620566845000001,-1.7268799395,-13.376953125,0.19922745249999996
630,5.249789999999848,-3.6159217355,7.7957069875,-127.32538605,0.15244187450000002,0.016979038500000043,4.8992853165,0.99053514,-17.267597675,-1.142017484
631,5.258123000000069,-3.6103253365,7.673233986,-127.3271141,-0.9153363700000001,-0.12548160549999987,5.025956988,0.5976250769999999,-15.191742900000001,-1.5212748349999998
632,5.266455999999835,-3.589901686,7.5155842305,-127.31650925,1.374011576,0.244869173,4.5096880195,2.1804384289999996,-19.486163615,-0.3841307159999999
633,5.274789000000055,-3.575152397,7.362937689,-127.3210564,-1.6857386825,-0.4340628535,7.9018652435,1.7403338255,-18.784267425,-2.089994207
634,5.283121999999821,-3.5456188915,7.2166593075000005,-127.3188629,1.006705791,-0.11007329850000003,8.020544529,3.4054780005,-18.0668149,-1.2387498915
635,5.291455000000042,-3.5120266675,6.9964387415000004,-127.31142804999999,-0.014815494499999998,0.458980933,5.565226078,3.8306370375,-26.959870340000002,-1.250237867
636,5.299787999999808,-3.4687502385,6.838251591000001,-127.29688265,0.235140413,-0.796903014,11.135019775,4.881927729,-19.581379415,0.1168392305
637,5.308121000000028,-3.423328638,6.578699827,-127.30238725000001,-1.415807724,0.6146867165000001,8.408982277,5.4376574755,-31.577507975,-3.036615491
638,5.316453999999794,-3.3386540415,6.451198339499999,-127.30374145,-0.2094326615,0.47263298150000005,12.445271015,10.076514957,-15.794189455000001,-1.4937969445000001
639,5.324787000000015,-3.2330566645000003,6.1721146104999995,-127.3097496,0.09623578199999999,0.05239787699999998,11.688779355000001,12.6574735645,-33.920734405000005,-3.1502662895
640,5.333119999999781,-3.105582118,6.038520813,-127.31149675,-2.183486462,0.088417359,8.4052662855,15.21954441,-16.525255205,-1.531943321
641,5.341453000000001,-2.969656825,5.876769304,-127.33406450000001,-1.2517538665,0.15795870099999998,11.8421206495,16.49632025,-19.766453745,-4.223956585
642,5.349785999999767,-2.8024107220000003,5.757781505500001,-127.346756,-2.1073380705,0.2210342065,15.23479462,20.125564100000002,-14.716294765,-2.6603342295
643,5.358118999999988,-2.5882406235,5.7384634015,-127.38001249999999,-2.001555085,0.35925843199999996,12.96821594,26.007505414999997,-2.6526174845,-4.6207854745
644,5.366451999999754,-2.3492079975,5.694958687,-127.4025345,-1.2227579355,0.330086373,11.935967925,28.848350525,-5.6325486895,-3.2837858205
645,5.374784999999974,-2.095368624,5.735121726999999,-127.43831635000001,-2.4862797855,-0.4598589835,12.035683155,30.793444635,4.4541271925,-4.5856177805
646,5.38311799999974,-1.8370277285,5.7862603665000005,-127.46588514999999,-0.3217972815,-0.9710053205,12.752937320000001,31.226291655,5.713708639,-3.4426459075
647,5.391450999999961,-1.5706794855,5.8528547285,-127.4945297,-1.027927756,-0.715178892,13.745571135,32.214681625,7.560342789,-3.6620703935
648,5.399783999999727,-1.3083901405,5.925951481,-127.52229689999999,-0.106719587,-1.428331792,12.79120445,31.721594815,8.3179876805,-3.5374703409999997
649,5.408116999999947,-1.069815159,5.990371227500001,-127.5506058,-0.7541680485,-1.4434022905,13.728005885,28.88362026,7.2767410275,-3.7244791985
650,5.416449999999713,-0.8595428169999999,6.061629534,-127.57770160000001,0.0011941720000000072,-1.899650216,13.79937458,25.479330065,8.073933125,-3.5681678055
651,5.424782999999934,-0.6938795145,6.1279881,-127.60552215,-0.606301248,-2.387439847,12.598531245,20.141043664999998,7.479026556,-3.712118864
652,5.433116000000155,-0.5804838535000001,6.176144123,-127.62200544999999,-0.5456286960000001,-2.578249574,13.3505435,13.72939873,5.2690411805,-2.4277817905
653,5.4414489999999205,-0.5029793379999999,6.216865778,-127.62997435,-0.4652947525,-2.092339098,13.531999110000001,9.3100576415,4.367393732,-1.400842607
654,5.449782000000141,-0.47814300649999997,6.236630201,-127.62863155000001,0.3036919905,-1.802538395,11.957788465,2.8754608035,1.837065935,-0.35808056599999993
655,5.458114999999907,-0.508116335,6.2620677945,-127.6193962,-1.0489473715,-2.2808035615,13.861573700000001,-3.81421569,2.5141267775,0.7013305725
656,5.466448000000128,-0.5864275545000001,6.265733242,-127.60323335000001,-0.5453204215,-2.111895859,15.537383075000001,-9.6944010245,-0.11074984100000007,1.3565174340000001
657,5.4747809999998935,-0.7200320065,6.2544066905,-127.5866089,-0.5849253235,-2.2872346045,14.051229,-16.345588685,-1.9081395865,1.506463289
658,5.483114000000114,-0.9097292124999999,6.2063584325,-127.5669937,0.7910994885,-2.1556640264999998,13.20563173,-23.10343647,-6.32957506,1.6847131255
659,5.49144699999988,-1.1537139715,6.1521222595000005,-127.5517616,-1.3636562225,-2.5238553285,15.287603375,-29.57168293,-7.060851335500001,1.2428033625
660,5.499780000000101,-1.4459207655,6.0605897905,-127.5290222,-0.9760372935,-2.08198303,14.73133087,-35.440561294999995,-11.577955245,1.926961273
661,5.508112999999867,-1.7881774309999998,5.9699497225,-127.49922180000002,-0.7303647280000001,-2.395507038,12.124563215,-41.548046115,-11.492895605000001,2.8517265915000003
662,5.516446000000087,-2.1703000665000003,5.8640387055000005,-127.47544094999999,-0.126506715,-1.5933312175,14.410128115,-46.235931394999994,-13.334420685000001,1.8925822079999999
663,5.524778999999853,-2.580939293,5.765399932499999,-127.4377594,-1.5093337894999999,-1.7824183105000002,14.697949885,-49.834194185,-12.53527021,3.613081813
664,5.533112000000074,-3.0181224345,5.6504435535,-127.41222765,-1.0525098145,-1.342689663,14.21385336,-52.859838485,-14.454317565,1.9151687625
665,5.54144499999984,-3.4689042565,5.556332827,-127.3787384,-0.23828017700000004,-1.0728328225000001,14.787341595000001,-54.582073210000004,-12.02436638,2.90841496
666,5.54977800000006,-3.914314866,5.470250845000001,-127.36095425,-0.986027181,-0.13086143149999996,14.833828924999999,-53.749788285,-10.969875810000001,1.021895617
667,5.558110999999826,-4.3423310520000005,5.3904347415,-127.35038755,-1.518490791,0.8186698555,16.254529475000002,-51.577121735000006,-10.1544938095,0.1076388359999998
668,5.566444000000047,-4.7417035105,5.3206977845,-127.36675265,-1.1117811199999998,0.2604461085,15.347685814999998,-47.840538025,-8.7080008985,-3.006899357
669,5.574776999999813,-5.1236433985,5.272006273000001,-127.39584735,-1.2999519705,-0.46407279349999997,14.448609355,-45.60179900999999,-6.037184,-4.4614059925
670,5.583110000000033,-5.4710304735,5.2379209995,-127.43699265,-1.3324884775,0.4058383685,15.93170357,-41.332319260000006,-4.1512026785,-5.658551215999999
671,5.591442999999799,-5.776878356999999,5.216014385,-127.48069,-1.127967894,1.2217200395,15.95751238,-36.319213865,-2.626288116,-5.9057979585
672,5.59977600000002,-6.0399768355,5.1905117035,-127.52948380000001,-1.1868711115,1.3225078585,15.145941735000001,-31.138724330000002,-2.9784322975,-6.5130717755
673,5.608108999999786,-6.2607357505,5.1739237305,-127.5723381,-1.431753695,0.16349426649999999,15.139448645,-26.1192379,-1.952126205,-5.806776285
674,5.616442000000006,-6.4296445845,5.1643941405,-127.61407855,-0.9051024315,0.249503702,15.501950745,-19.91475582,-1.1212633845,-5.5002110005
675,5.624774999999772,-6.5495991705000005,5.1646690369999995,-127.64535905,-1.3886796835,0.862022102,16.108252045,-14.1505646685,-0.0686654115,-4.1942299604999995
676,5.633107999999993,-6.613185166999999,5.1717693805,-127.67670439999999,-1.0792580845,1.205740273,16.662960055,-7.386980087,0.744311273,-4.0656708475
677,5.641440999999759,-6.6298706535,5.190793276,-127.70119095,-1.3152979020000002,0.2587087585,14.91169786,-1.8331274985000001,2.0833721755,-3.1344778535
678,5.649773999999979,-6.6123692985,5.2106003765,-127.7210617,-0.9549967945,-0.2685304655,15.00473118,2.218916774,2.1033385989999998,-2.528496325
679,5.658106999999745,-6.559039116,5.233533382499999,-127.72900390000001,-1.1687863465000001,-0.01815443500000001,15.17448616,6.391712427,2.3195866945,-1.1289089915
680,5.666439999999966,-6.484591007000001,5.237804174500001,-127.72898864999999,-0.058980009,-0.07736609900000002,15.200862404999999,8.8357591625,-0.02207326899999984,-0.389137864
681,5.674772999999732,-6.396894455,5.2342643735,-127.7195396,-0.204404876,-0.2882941365,14.876586435,10.324376581,-1.0730704065,0.588167056
682,5.6831059999999525,-6.3063132765,5.201325655,-127.70285415,-0.637602776,-0.3685997725,15.209585664999999,10.589093208,-4.679299474,1.095149681
683,5.691438999999718,-6.2129130365,5.147588730000001,-127.67505645,-0.542964127,-0.750321746,15.00113201,10.8104000095,-7.298149824,2.1211791635
684,5.699771999999939,-6.1188595295,5.078152418,-127.6466446,-0.6503944989999999,-0.7241420445,14.731250285000002,10.8837208745,-9.180540085,2.0495744945
685,5.708104999999705,-6.0213785170000005,5.002854108999999,-127.61476135,-0.8749921025,-0.704780012,14.95799637,11.262818809999999,-9.9140501035,2.3663396835
686,5.7164379999999255,-5.9179532525,4.9167671205,-127.5828972,-1.0645032825,-0.609057199,14.870940685,11.981898785,-11.20234251,2.285654664
687,5.724771000000146,-5.81465888,4.831451416,-127.54870604999999,-0.5277570335,-0.690314695,15.30069494,11.947583195,-11.1281571385,2.5560065510000003
688,5.733103999999912,-5.7127490045,4.738366127,-127.51249695,-0.8912989794999999,-1.0013483465,15.745295044999999,11.7665028585,-12.082492349999999,2.7627648115000003
689,5.741437000000133,-5.620365381,4.6464869975,-127.46962735,-0.9873277245000001,-0.6499633195000001,15.072087289999999,10.568384411,-12.004971505,3.5501847270000004
690,5.749769999999899,-5.5436131955,4.537745714,-127.41807555,-0.621336967,-0.6361722984999999,15.16646719,8.6151194575,-14.118672844999999,4.434798598
691,5.758103000000119,-5.4781525134999995,4.428177118000001,-127.3578186,-1.1032940144999999,-0.9745103420000001,15.066401955,7.192157984,-14.30797815,5.454411268
692,5.766435999999885,-5.4253690245,4.3112761975,-127.29096220000001,-1.5498796700000002,-1.2445517185,14.81918812,5.621045350999999,-15.254523275,6.1960589885
693,5.774769000000106,-5.388353109500001,4.190757036,-127.2236557,-0.791958809,-1.0316400825,15.05910635,3.7446483375,-15.684982774999998,6.2036533355
694,5.783101999999872,-5.3693625925,4.087711215000001,-127.1551819,-1.549200505,-0.9919502435,14.76557255,1.5835109054999998,-13.608051775,6.569411993
695,5.791435000000092,-5.3761663434999996,3.988528371,-127.09871290000001,-1.031785123,-0.7600181699999999,15.04978323,-1.395297453,-13.0093708,5.1656501295
696,5.799767999999858,-5.400607824,3.911391258,-127.0454407,-1.9533127544999997,-0.8174293859999999,14.899645329999998,-3.4753848315,-10.3426647205,5.0627374645
697,5.808101000000079,-5.445313453500001,3.8558729885,-127.0185318,-1.902642846,-0.8574400249999999,14.833836555000001,-5.687666892999999,-7.4622340205,2.1506100595
698,5.816433999999845,-5.491505146,3.816348672,-126.99777985,-1.472493112,-0.695820898,16.128644465,-5.81307435,-5.488260269,1.6193194685
699,5.824767000000065,-5.5396142005,3.8187940119999997,-127.0057602,-1.3615364135,0.05668467299999996,14.51835966,-5.811012745,-0.14139729749999996,-1.345989674
700,5.833099999999831,-5.5951678755,3.8333951235,-127.0180397,-1.9148982765,-0.12217837000000001,14.80942297,-6.668436768,1.355787143,-1.715526402
701,5.841433000000052,-5.631875276500001,3.8634995225,-127.04792404999999,-1.610183895,0.207915019,15.87352276,-4.2661985755,3.418136716,-3.6480243205
702,5.849765999999818,-5.6447262765,3.9031347035,-127.07435225,-0.8209391235,0.5061146615,15.66975975,-1.4296392800000002,4.509860038499999,-3.092707753
703,5.858099000000038,-5.6370871065,3.9574011565,-127.10980225,-1.3741220235,1.151170373,14.69256592,1.1063878535,6.3701460364999996,-4.0386098619999995
704,5.866431999999804,-5.5971479415,4.003111124,-127.13829425,-1.273253739,0.7702091185,15.6854701,4.92839092,5.2605941295,-3.3005548715
705,5.874765000000025,-5.508842468,4.047164202,-127.1615906,-1.180825233,0.7616070509999999,15.4819355,10.691530464500001,5.0043241975,-2.736132026
706,5.883097999999791,-5.3847055435,4.091041088,-127.17650985,-0.7079824210000001,0.7415948435,13.785869600000002,14.921026230999999,4.879025936,-1.7198295295
707,5.891431000000011,-5.2378947735,4.1259522435000004,-127.1854744,-0.9042301775000001,0.7329726815,15.26815414,17.59371376,3.74352777,-1.156450853
708,5.899763999999777,-5.0587260725,4.16498065,-127.18901825,-1.234229326,-0.059325605000000003,16.09709406,21.42752552,4.1722595694999995,-0.44710303800000006
709,5.908096999999998,-4.865401268,4.194199084999999,-127.19275665,-1.042939633,-0.45192521799999996,14.0072875,23.128308295,3.0038725135,-0.6109446435
710,5.916429999999764,-4.665767193,4.2222621445,-127.1902046,-0.8038327399999999,-0.12866474700000002,13.41445971,23.830395699999997,2.8008792995,0.1291662685
711,5.9247629999999845,-4.4613184925,4.247746706,-127.1930542,-0.7899466675,0.085949421,14.872383594999999,24.457407,2.549463093,-0.5865535845000001
712,5.93309599999975,-4.240731001,4.275270462,-127.18883894999999,-1.3232913615,-0.370593205,16.226875305,26.328811645000002,2.7239729759999998,0.30807546150000004
713,5.941428999999971,-4.013459921,4.293944120500001,-127.1926117,-1.007577628,-0.500240758,13.236140729999999,27.204525945,1.740219593,-0.7720390855000001
714,5.949761999999737,-3.7812713385,4.311170816000001,-127.1857414,-0.822795473,-0.33766543849999997,13.530642985,27.696974755,1.4752401115,0.5149554235
715,5.9580949999999575,-3.5269191265,4.3348855969999995,-127.18385695,-0.950405061,-0.1855916735,16.08635902,30.403328895,2.2985978125,-0.080806494
716,5.966427999999723,-3.2500013115,4.3579013345,-127.17085265,-0.964894116,-0.20004174149999998,15.000781060000001,33.006713865,2.131644249,1.3123594225
717,5.974760999999944,-2.968394756,4.3761191365,-127.16310885,-0.5860714355,-0.35316461349999995,13.567394255,33.619792939999996,1.604227349,0.5641924739999999
718,5.98309399999971,-2.6845484975,4.3766965865,-127.1537323,-0.284693994,-1.1956959365,14.433567525,33.87081623,-0.5189005735,0.7153551579999999
719,5.991426999999931,-2.4060873985,4.3647477625,-127.155674,-0.458631918,-1.2904413940000001,15.708853245,33.32782745,-1.9546053709999998,-0.740143329
720,5.999760000000151,-2.1510545015,4.3230919835,-127.1616287,-0.22229222199999998,-1.6523343325,14.311503885,30.552747725,-5.4992780685,-1.296017289
721,6.008092999999917,-1.9311056135,4.263489485,-127.16906735,-0.2990549285,-2.0583112239999997,13.457259655,26.35549164,-7.6462643145,-1.596728504
722,6.016426000000138,-1.7549315695,4.1826803685,-127.17061615,-0.5723799915,-2.3198335175,14.103918075,21.05525875,-10.217421057,-0.9608161005
723,6.024758999999904,-1.623342276,4.080936909,-127.1645317,-1.2131980065,-2.1359746455,14.21446085,15.635434624999998,-12.755561830000001,-0.0662705005
724,6.033092000000124,-1.536908209,3.9452492,-127.1478691,-0.123072032,-1.7464253905,12.878240585,10.132777214,-16.863587375,1.0546537935
725,6.04142499999989,-1.498826444,3.798525214,-127.12694929999999,-0.9801812169999999,-1.819539249,12.645537855,4.296661019,-18.198536875,1.6251726745
726,6.049758000000111,-1.5057419539999999,3.6403278114999997,-127.10270305,-0.9890517590000001,-1.968209147,12.510601045000001,-1.12134701,-19.587659835,2.0172368885000003
727,6.058090999999877,-1.552375734,3.4843130110000002,-127.07292174999999,-1.4464995265,-1.790529907,10.956422328999999,-5.9220840930000005,-19.34063053,2.6897836925
728,6.066424000000097,-1.633642137,3.325395942,-127.05633925000001,-1.182233244,-1.0918703005000001,10.184120176,-9.976146221,-19.64822674,1.0867868360000001
729,6.074756999999863,-1.7497425674999998,3.1882828475,-127.0558853,-2.142376363,-1.46822083,7.4387128350000005,-14.040348054999999,-16.976573465,-0.789386213
730,6.083090000000084,-1.9056726099999999,3.082282424,-127.07289885,-1.0550688505,-1.5552031995000002,7.6937317825000004,-18.705817224999997,-13.1760468495,-2.7932723165
731,6.09142299999985,-2.0875784755,2.9798839095,-127.08826445,-2.8968120815000002,-1.420342684,8.766408441500001,-21.83466053,-12.749185085,-2.629020929
732,6.09975600000007,-2.2973433730000004,3.03311646,-127.12665935000001,-2.960923314,-1.339610249,6.313472986500001,-25.03444767,6.025869309,-4.626087189
733,6.108088999999836,-2.528346181,3.0062204599999998,-127.1418114,-2.005807698,-1.538139999,7.150146604000001,-27.727557185000002,-3.6950560794999996,-2.2734061199999998
734,6.116422000000057,-2.8030204775,3.1848978995,-127.15232085,-4.341504097,-0.8597429544999999,4.6696408074999995,-32.997892379999996,20.935463905,-0.5694756955
735,6.124754999999823,-3.077813625,3.3701570035,-127.14262395,-0.5920304654999999,-1.1525298949999998,6.481139987000001,-33.14426708,21.597409725,1.9790170395
736,6.133088000000043,-3.3752886054999998,3.5479519365,-127.12194059999999,-4.3109861615,-0.151688486,3.1912420985,-35.94989967,20.627928734999998,3.380687237
737,6.141420999999809,-3.6582297085000004,3.9495714905000003,-127.129509,-0.165622704,-0.68355304,3.7677609325,-33.993404389999995,47.626581189999996,1.6749581695
738,6.14975400000003,-3.9744051695,4.1692652705,-127.1194191,-1.7665045265000001,-0.39639818699999996,5.499707222,-38.123147965,25.69690323,2.6718519035000003
739,6.158086999999796,-4.236804128,4.619904518,-127.15784075,-0.8354849815000001,0.293900929,3.5442508459999997,-31.23593521,53.72929001,-1.159944877
740,6.166420000000016,-4.526992321,4.9389820095,-127.16825865,-0.6814941760000002,-0.35962799199999995,5.0251967905,-34.81506729,37.740190505,1.3766336145
741,6.174752999999782,-4.783285141,5.365775585,-127.22434235,-1.14784145,0.204958886,2.6563120485000002,-30.252693174999997,51.052835465,-2.9312376380000003
742,6.183086000000003,-5.0239441395,5.706944704,-127.22237774999999,0.4633931145,-0.21885280350000003,3.1252626775000003,-29.008135795,40.227514264999996,3.375758648
743,6.191418999999769,-5.238855361500001,6.114170313,-127.2896614,-1.437076196,1.2997973565,4.065892074000001,-25.05479336,48.85952377,-4.067314267
744,6.1997519999999895,-5.4394209385,6.469675302500001,-127.2756081,1.102489263,-0.36696344599999997,3.532425463,-24.364620205,41.772050855,5.2596120835
745,6.208084999999755,-5.603608131,6.8223354815,-127.34748455,-1.5264590605,1.8002141715,4.0749256615,-18.791189195,42.42813873,-4.870773852
746,6.216417999999976,-5.729377985,7.1689138415,-127.32957074999999,1.177653212,-0.688936256,3.4489150945,-15.47399712,40.61543846,5.830629704
747,6.224750999999742,-5.813951969,7.479003906,-127.39585115,-1.7828923465,2.059661552,2.5286082625,-9.214657305,37.30777359,-4.5269436845
748,6.2330839999999625,-5.8745458125,7.7869172095,-127.3832779,2.0938726665000003,-0.5561519115,2.5142499205,-7.5999604445,36.042928695,4.82721746
749,6.241416999999728,-5.902886152500001,8.0478129385,-127.44041065,-1.9721409975,1.5219857095,3.240075052,-2.5341343879999996,31.32577133,-3.9597466004999995
750,6.249749999999949,-5.906689405,8.2918429375,-127.43587495,2.6318261625000003,-0.94503583,3.4902225735,-0.6590486465000001,28.516685485,3.1139428595
751,6.258082999999715,-5.888109207499999,8.4911818505,-127.4763374,-1.9159635305,1.099207118,2.5750404595000003,2.8575769815,23.77473736,-2.749183894
752,6.266415999999936,-5.853040218,8.648604393,-127.48212815,3.2088392975,-0.7854177655,3.4001150129999997,4.1933721305,18.302442075000002,0.8264341329999993
753,6.274749000000156,-5.8006243705,8.770225525,-127.50617215,-1.5921293795,0.75889498,2.4203480485,6.635965705,14.29486799,-1.7810482995
754,6.283081999999922,-5.7417366505,8.82848835,-127.52957915,3.5936381820000003,-0.480589256,2.6178418394999996,7.3861215115,6.6770239075,-2.4614706044999997
755,6.291415000000143,-5.662741184,8.8576102255,-127.5336266,-1.4150313735000002,0.23955214800000002,2.8807916639999998,9.4484663,3.004153192,-0.5475759500000006
756,6.299747999999909,-5.5760970115,8.8165106775,-127.56389615,3.318989873,-0.0847469495,2.637074709,10.85977173,-5.1097781035,-4.452043531
757,6.308081000000129,-5.465707779,8.752489090000001,-127.53462984999999,-1.2880190015,-0.021691762000000003,2.2134961485,12.5934853545,-8.5079371945,2.3024830814999997
758,6.316413999999895,-5.354349375,8.619129181,-127.55495454999999,2.67201376,0.42825886599999996,2.1788516045,13.642992495,-16.254327775,-4.3039166904999995
759,6.324747000000116,-5.2131085395,8.476232052,-127.48777390000001,-1.1104115395,-0.25492017749999996,2.462146044,15.63501453,-18.338918685,5.9443427365
760,6.333079999999882,-5.0784022805,8.2689561845,-127.49860385,1.8429917690000002,0.6981556415000001,2.228233576,16.264194965,-25.20238018,-3.904591322
761,6.341413000000102,-4.917821407,8.065961838,-127.4163246,-0.6319921015000001,-0.826088965,2.9920828344999997,17.752059459999998,-25.651457784999998,7.209254979
762,6.349745999999868,-4.774694204499999,7.8072009090000005,-127.4293785,0.7880478204999999,0.52046847,2.1972982885,17.294750215,-31.35006714,-4.5660111905
763,6.358079000000089,-4.618152142,7.563384056,-127.35643385,-0.18801951449999998,-1.4311309755,2.66243124,17.50412321,-30.40423584,5.8480175735
764,6.366411999999855,-4.488541603,7.2785665989999995,-127.3783226,-0.4848309755000001,0.405547768,1.76126647,15.786560535,-34.401498795,-5.703529119000001
