,time,Euler_X,Euler_Y,Euler_Z,Acc_X,Acc_Y,Acc_Z,Gyr_X,Gyr_Y,Gyr_Z
0,0.0,-7.5270395274999995,-2.516806126,-26.980094899999997,-3.505669117,0.38670718699999995,1.1813496350000001,30.26007652,0.6214275065,-7.8015164729999995
1,0.0083329999997658,-7.289596796,-2.513247132,-26.902011899999998,3.7101075650000004,-2.570495665,1.7753683919999999,27.096527100000003,-0.8368496895,9.002655267
2,0.0166659999995317,-7.0022559165,-2.530017257,-26.970714550000004,-3.7747896909999996,0.5624771749999999,8.600514175499999,32.41522026,-1.092814326,-8.793617725999999
3,0.0249989999992976,-6.6901476385,-2.5130161045,-26.885559099999995,2.354572654,-2.703139186,10.9884080895,36.14665413,0.7178776265000001,10.055885316
4,0.033331999999973,-6.418217659,-2.5251082179999997,-26.949264550000002,-1.9891308545,0.8213816544999999,7.152326584,30.51375961,-0.6421365740000002,-8.144366978
5,0.0416649999997389,-6.167975664,-2.5141464475,-26.875198399999995,0.986673534,-2.579417527,7.292330742000001,28.723174094999997,0.20207762750000002,8.6802744845
6,0.0499979999995048,-5.897398948499999,-2.4758657215,-26.9241028,-0.36304467949999997,0.2087811825,6.8120987415,30.387143135000002,5.1376180499999995,-5.7272322935
7,0.0583309999992707,-5.666778326,-2.49084872,-26.865417499999992,-0.062477022500000035,-2.3158681395,6.884175062000001,26.31833553,-2.6428528425,6.4687058035
8,0.0666639999999461,-5.434681654,-2.439064026,-26.8994522,0.3366274235,-0.864174694,6.535847664,25.832574845,6.5402405265,-3.8019816865000005
9,0.0749969999997119,-5.2309007645,-2.4419205785,-26.85582734999999,-1.0709121824999999,-1.4942122100000002,9.5737667085,23.014772415,-0.9689550995000001,4.8020758035
10,0.0833299999994778,-5.0123422145,-2.4279204605,-26.8693466,0.947740249,-1.0367719229999999,8.9455828665,24.315080645000002,1.7722183465,-1.7847700115
11,0.0916630000001532,-4.7982735635000004,-2.373781025,-26.840145100000008,-0.9198213815,-0.9943692685000001,8.777436015500001,24.181620595,6.027045965,3.6755352000000006
12,0.0999959999999191,-4.627177954,-2.41012007,-26.83959575,1.0568173674999999,-1.456308365,6.949963093000001,18.69162464,-4.390051484,-0.6409018040000003
13,0.108328999999685,-4.4554783105,-2.315567613,-26.82548905000001,-0.7125341890000001,-1.528586328,7.8307414054999995,19.002838134999998,11.034258604,2.271708727
14,0.1166619999994509,-4.300256014,-2.451564491,-26.806014999999995,1.806939855,-0.645299405,11.505692007,16.883792874999997,-16.49180317,0.7482426165000002
15,0.1249950000001263,-4.104833722,-2.293161869,-26.808357200000003,-3.5289452675,-0.318853814,6.3963732715,21.776726725,18.831933024999998,0.7754392625
16,0.1333279999998922,-3.9748117924999997,-2.465203345,-26.769885999999993,4.102328062,-2.6856426,8.3657338615,13.977606295000001,-20.975496295,2.8049203155
17,0.1416609999996581,-3.8115990159999997,-2.365795255,-26.767147050000005,-3.607842803,-0.33029809250000003,9.330061436000001,17.904050825,11.755492685,0.7740688325
18,0.1499939999994239,-3.676836014,-2.4608252645,-26.737720500000002,2.9632045629999997,-0.8713329435,8.2752079965,14.50488615,-11.666519645,2.4310668709999996
19,0.1583270000000993,-3.487416983,-2.3842852115,-26.747158049999996,-3.3690599205000002,-0.742556855,7.967022419000001,21.003502845,9.104058742500001,-0.9064815039999998
20,0.1666599999998652,-3.3380367755,-2.489946008,-26.720974000000005,5.030270815,-2.370722234,9.1171369555,16.243989945000003,-12.9032387745,2.085287213
21,0.1749929999996311,-3.2013522385,-2.4351985455,-26.731323249999996,-5.055257559,-0.1944686395,14.440951347,14.656378745,6.5072599625,-1.2526462079999998
22,0.183325999999397,-2.996599078,-2.533283174,-26.703437800000003,4.586286306,-1.016332159,9.2737030965,22.912627225,-12.001648428500001,2.4047368765
23,0.1916590000000724,-2.827644944,-2.523959875,-26.713558199999994,-4.9046549795,-1.5303705035000001,10.184109210999999,18.52643585,1.0572086569999999,-1.5384359355000001
24,0.1999919999998383,-2.7326329950000003,-2.5522341725,-26.688110349999995,4.8208198545,-2.6786305905,9.905925071,9.7351903925,-3.6052870750000006,2.5708176490000003
25,0.2083249999996042,-2.6469134094999998,-2.7191727759999997,-26.691162149999997,-1.968116045,-0.5762038675,11.3534648405,8.566991329499999,-20.111653325,-1.658374667
26,0.21665799999937,-2.5640423295000003,-2.6828158495,-26.655830400000006,1.3915603165000001,-1.9521262945000002,3.1637328865,8.3606917855,4.0881601575,4.109560847
27,0.2249910000000454,-2.5084751845,-2.9077653884999997,-26.669502300000005,1.8774802684999998,-1.6554679870000002,10.825165511500002,4.8549129959999995,-26.99719143,-3.1786137225
28,0.2333239999998113,-2.4486153125,-2.9303194285,-26.64640045000001,-3.2419399025,-1.396478653,11.3419567325,5.5717745425,-2.916122675,2.268422127
29,0.2416569999995772,-2.352103829,-3.0256437065000004,-26.686668399999995,0.8160579800000001,-1.8311637045,11.435452939,9.59308386,-11.322518825,-5.6536011695
30,0.2499899999993431,-2.309126973,-3.16685307,-26.670517000000004,-0.5181596575,-1.6989843545,12.7829759115,3.519908726,-17.11017084,0.8894546145
31,0.2583230000000185,-2.3066696525,-3.2156746385,-26.699993149999997,-0.7412952930000001,0.068487823,11.65185547,-1.680198312,-5.785794735,-4.110905528
32,0.2666559999997844,-2.281181574,-3.3050068615,-26.69180680000001,2.1906557085,-0.964367526,2.8570325320000003,1.3871967195,-10.862651825,0.22512972350000005
33,0.2749889999995503,-2.2159964445,-3.441959262,-26.70663075000001,-0.21916330600000003,-0.8915879425,6.5524389745,5.942779957,-16.424909595000003,-2.7631430330000004
34,0.2833219999993162,-2.155666828,-3.4865499735,-26.694690699999995,-1.3072711825,-2.5353273155,15.464369775,5.6009381715,-5.5110313895,0.8642823099999999
35,0.2916549999999915,-2.109584689,-3.629626393,-26.696529399999996,1.1317341625,-0.9451465699999999,15.24870872,3.7368358375,-17.223619460000002,-1.2057072815
36,0.2999879999997574,-2.043406844,-3.7954106330000004,-26.668464649999997,-0.5920655575,-0.5023600535,11.626672269,6.4475787879999995,-20.12137127,2.2905985115
37,0.3083209999995233,-2.035638213,-3.8532384635,-26.66274645,-0.517928714,-0.8796949089999999,4.326328039,-0.7979536055,-7.033528566499999,0.10478150850000001
38,0.3166539999992892,-2.057610512,-4.016237378,-26.655754099999996,1.6008068919999998,-1.899621487,7.86242187,-4.305510759000001,-19.690269475,-0.1978380679999998
39,0.3249869999999646,-2.0677548055,-4.112086177,-26.654136650000005,-1.283859402,-2.0865632295000003,6.4497672790000005,-2.981490374,-11.573742392,-0.5892875790000001
40,0.3333199999997305,-2.087502122,-4.1736847165,-26.65790175,-1.1301419435,-2.581678271,10.81164408,-4.1045471430000005,-7.4927022455,-1.069503307
41,0.3416529999994964,-2.116646707,-4.3073540925,-26.645130150000007,2.1086826325,-1.9518250525,13.9679681075,-5.1780980825,-16.15424967,0.587135792
42,0.3499860000001717,-2.1818338635,-4.367063165,-26.640293099999994,-3.4796296360000003,-0.591004416,14.294664385,-9.4825062745,-7.298559426000001,-0.060852766
43,0.3583189999999376,-2.2223426105,-4.4261556865,-26.622135150000005,2.2699790595,-0.09732481849999997,8.475558758,-6.4877532890000005,-7.238339901,1.5683534145000002
44,0.3666519999997035,-2.2994990945,-4.563753724,-26.60567475,-0.1270380615,-0.422801092,4.8459988835,-10.824875114000001,-16.69176626,0.9811603425
45,0.3749849999994694,-2.371620059,-4.600146532,-26.564613349999995,0.1512666345,-1.6021200905,8.266423463,-10.058135035,-4.6251630785,4.3689946235
46,0.3833180000001448,-2.429289937,-4.7306215765,-26.546112050000005,1.060053408,-0.303835705,5.834451201,-8.4511117935,-15.856829639999999,1.233677268
47,0.3916509999999107,-2.473555803,-4.8889365195,-26.489707949999996,-0.1277733445,-2.1141142845000003,12.9200153325,-6.5141248715,-19.34728527,5.5532711745
48,0.3999839999996766,-2.46615684,-4.890553474500001,-26.480239849999997,-1.1793816855,-1.005505666,12.78782511,-0.749043405,-0.3477837145,0.779191494
49,0.4083169999994425,-2.5009481905,-5.101454258,-26.422553999999998,1.1985321345000002,-0.35096702,12.412440300500002,-5.3355121615000005,-25.667323115000002,5.437444210000001
50,0.4166500000001178,-2.5188100340000004,-5.1053125855,-26.414882649999996,-3.6174117325,-0.9696267839999999,12.210258962,-3.7940389215,-0.6100031735,0.538513958
51,0.4249829999998837,-2.5730899575,-5.264103174,-26.371074650000004,4.5317211155,-0.885807097,3.940699818,-7.789496420500001,-19.36097765,4.0768016575
52,0.4333159999996496,-2.6472347975000003,-5.3989992145,-26.365253450000004,-3.006287545,-1.0570400355,8.7652971755,-10.5819869035,-16.2970128055,-0.4388616905
53,0.4416489999994155,-2.6961740255,-5.4176445005,-26.34453585,2.3779777285000003,-2.09417665,4.57586682,-7.3797311785,-2.4497779604999996,2.0641106965
54,0.4499820000000909,-2.7487256525,-5.612652063500001,-26.331199650000002,-2.2218165845,-0.7624040245,11.96485901,-7.9169037335,-23.537306785,0.09900522199999995
55,0.4583149999998568,-2.740246773,-5.532383918500001,-26.313194250000002,-1.4051828535,-1.1741259995,11.307174207500001,-0.5003678505,9.417689798000001,2.223494977
56,0.4666479999996227,-2.7605251075000004,-5.7172291275,-26.290905000000002,1.7303120345,-0.532162633,12.212299225499999,-3.9481796024999998,-22.368881225000003,1.2618284525
57,0.4749809999993886,-2.7631016969999997,-5.735458374,-26.250095349999995,-1.6372377280000001,1.389421254,14.6422941695,-1.5414716005,-2.524609894,4.3910361525
58,0.4833140000000639,-2.7352488045000003,-5.8039081095,-26.221496599999995,3.2439733745,-0.442852728,0.15210771600000017,1.9023640155,-8.450312135999999,2.7492789925
59,0.4916469999998298,-2.6742023230000003,-5.9447546005,-26.173786149999998,-1.3844134810000002,-1.0173865855,10.934194087000002,6.1865069865,-17.25484514,4.5024850365
60,0.4999799999995957,-2.583037496,-5.876722574,-26.151847850000003,-1.2594513295,-0.770006895,9.549203395,9.4516155705,7.942693472,2.631798744
61,0.5083129999993616,-2.4695470335,-6.108999014,-26.115123749999995,1.2605226935,-1.04091233,15.60540867,12.363425255,-28.15015602,2.804696547
62,0.516646000000037,-2.3579348325,-6.0592823025,-26.090705900000003,-2.868176937,-0.1877001225,8.7673625965,11.9309849755,5.7533166405,2.7959223985
63,0.5249789999998029,-2.2959514855,-6.159514189,-26.07533645000001,3.289443791,-1.4981909395,3.4488146315,5.898907899999999,-12.1944525245,1.04341504
64,0.5333119999995688,-2.1718935965,-6.1468296055,-26.047756199999995,-3.550236225,-1.436681479,10.0835679485,13.4779963485,1.3048214915000003,2.935328305
65,0.5416449999993347,-1.999689281,-6.0768835545,-26.03285979999999,0.26968821899999995,-0.8602558675,13.057686803500001,19.129795075,8.218061447,1.7425693125000001
66,0.5499780000000101,-1.8574743269999998,-6.1877675055,-25.984043149999998,1.2477231400000002,0.17872339449999997,14.266053916,15.9212513,-13.582861425,5.0240678785
67,0.558310999999776,-1.725211322,-6.0773744579999995,-25.955707549999993,-2.113627255,-0.28683483600000004,7.2599405075000005,14.48612356,13.042055609999998,3.4446547030000003
68,0.5666439999995418,-1.561135173,-6.0997366905,-25.90405655,4.423124671,-1.1422435194999998,2.7280940415,18.585803985,-2.953424573,5.773712873499999
69,0.5749769999993077,-1.356519848,-6.1160805225,-25.864040350000003,-4.1198718545,-0.746120669,14.115043402,23.33465195,-2.184345961,4.330774307
70,0.5833099999999831,-1.122977704,-6.0149993895,-25.813262900000005,0.697049782,-1.936542213,13.496818543,26.91274929,11.899107455,5.98458457
71,0.591642999999749,-0.9520204665,-6.1396865845,-25.774898549999996,0.320321366,-0.301952481,11.984340667500001,19.263059615,-15.14090824,3.9556274415
72,0.5999759999995149,-0.7705928830000001,-5.980321884,-25.7386055,-1.801603675,-0.4805853665,8.248476804500001,20.48077202,18.953035355,4.2814605235
73,0.6083089999992808,-0.6241057289999999,-6.008317232,-25.7184143,3.8819577694999996,-2.836031437,3.8235675094999997,16.086551665,-3.4837484954999995,2.058360338
74,0.6166419999999562,-0.4289844275,-6.0116894245,-25.682594299999998,-2.307410419,-0.9076785145,13.861869814,22.112880705000002,-0.5430810450000001,3.879264474
75,0.6249749999997221,-0.2578476365,-5.9111306665,-25.666763300000007,-0.3584446905,-1.2244000435,10.714083670499999,18.985406875,11.963415144999999,1.606384754
76,0.633307999999488,-0.09019732450000001,-6.026331663,-25.62424465,1.558478832,-2.2761684655,15.003901005,18.917185785,-13.95140266,4.6911469695
77,0.6416410000001633,0.06187023250000001,-5.898474455000001,-25.597755450000008,-2.969834566,0.7513215095,10.749686003999999,16.818202015,15.258704185,2.8107669355
78,0.6499739999999292,0.1802940665,-5.9431555275,-25.562568649999996,3.8598134515,-1.7620750665,3.5158122794999995,12.8980503085,-5.4578897,3.91187048
79,0.6583069999996951,0.2921954465,-5.930145979,-25.528965000000007,-2.8178808689999997,-1.1467002609999999,8.0076019775,12.085219859999999,1.4944823979999997,3.6138874295
80,0.666639999999461,0.390690066,-5.8168456555,-25.491901400000003,1.680125415,-2.0342718365,4.71033898,10.541977408000001,13.508159160999998,4.0362539295
81,0.6749730000001364,0.483475432,-5.9847459794999995,-25.449336999999993,1.343271822,-1.9946202935,15.322635655,9.897294285,-20.190405845,4.8639018535
82,0.6833059999999023,0.6084211989999999,-5.8121218685,-25.4161644,-3.181196332,-0.3776627705,12.370360376,13.670900345,20.637131695,3.40527308
83,0.6916389999996682,0.6897482425,-5.937749386,-25.379158050000008,2.9470790625000003,-1.300424665,9.6507842555,8.459474325,-15.1122756,4.262798785999999
84,0.699971999999434,0.783610821,-5.8191068175,-25.3569107,-3.691847086,-1.421632171,10.712404966000001,9.793221951,14.163269518,2.077020407
85,0.7083050000001094,0.8281146585,-5.840355873,-25.325595849999992,3.7003377680000002,-0.551065788,5.049142359499999,3.983206391,-2.5947036760000004,3.5021958355000002
86,0.7166379999998753,0.856683582,-5.8725988865000005,-25.303802500000003,-2.891812533,-1.4484741095,14.4998137935,1.9525094330000001,-3.9372365494999997,2.220997691
87,0.7249709999996412,0.928111926,-5.8217372895,-25.27307890000001,3.253645718,-2.050036192,5.7439106705,7.1918118,6.071723459,3.3033273220000003
88,0.7333039999994071,0.9264594614999999,-5.8905727865,-25.259197200000003,-2.425856233,-0.761496641,11.1118788705,-1.772646189,-8.3400166055,1.361435324
89,0.7416370000000825,0.9263813495000001,-5.7977428435,-25.232410450000003,1.216094613,-1.5810341239999999,5.502658606000001,-1.4245042204999998,11.093951048000001,2.732924223
90,0.7499699999998484,0.9086522905000001,-5.9453828335,-25.2161293,0.7269365790000002,-1.0433932845,15.55072212,-3.6848264935,-17.782151220000003,1.825834215
91,0.7583029999996143,0.924162418,-5.822017669999999,-25.192173000000004,-1.3825533389999998,0.5740522779999999,3.777443618,0.41056418399999994,14.754239082,2.31573236
92,0.7666359999993801,0.8816153855,-5.933740854,-25.178348550000003,-0.646529675,-2.1792532204999997,11.918434383,-6.679386616,-13.489176512499998,1.4531470535
93,0.7749690000000555,0.8952709735,-5.8051769735,-25.153686550000003,-0.07306456549999996,-1.1872882845000001,7.694366691999999,0.19407278299999997,15.378276345,2.3881950375
94,0.7833019999998214,0.843224138,-5.8821246625,-25.135158550000007,0.7475750445,-0.055109768999999975,11.662394044500001,-7.760179758,-9.307908058,1.9725398420000002
95,0.7916349999995873,0.8032320735,-5.7964499,-25.099315649999994,-0.7752095465000002,-1.0368321535,6.5998744965,-6.1198571335,10.254315852000001,3.8111299275
96,0.7999679999993532,0.794264451,-5.820486784,-25.0685425,0.5492079255000002,-0.46420761950000006,11.729509114,-2.4503091575,-2.9399704929999997,3.318798423
97,0.8083010000000286,0.8153267055,-5.739431381,-25.041633599999997,-0.16952109349999978,0.9736870375,2.7646849135000005,1.101841211,9.6795434945,2.7810401915
98,0.8166339999997945,0.759481415,-5.7792117595,-24.999588000000003,-0.26745772349999974,-1.6990873815,12.774381640000001,-7.931642055499999,-4.8178144695,4.672126889499999
99,0.8249669999995604,0.7912452369999999,-5.7206101415,-24.978511799999993,0.15147125700000008,-0.779957652,10.434782268,2.2992361785,6.985444484499999,2.131527185
100,0.8332999999993262,0.8444265424999999,-5.6875474455,-24.952178949999997,-0.43670892699999997,1.8338257075,7.4340496819999995,4.977448225,3.8860701300000002,2.6815801855
101,0.8416330000000016,0.874081388,-5.7043709755,-24.9427528,1.0355117919999999,-2.865840614,6.0301320574999995,1.917379409,-2.0907814505,0.8666449190000001
102,0.8499659999997675,0.882035449,-5.693465948,-24.90750885,0.3584541079999999,-1.1901376245,14.745977880000002,-0.36394631850000003,1.2612259384999995,3.7775878904999995
103,0.8582989999995334,0.8896518945,-5.7068727015,-24.911674499999997,-0.24208378799999997,0.3641382005,7.006989718,-0.8977404535,-1.6984481810000003,-0.7615816295
104,0.8666319999992993,0.94224526,-5.6661844255,-24.878570550000006,-0.25786387899999996,-0.7435998914999999,6.844193339,4.9822121855,4.821655749,3.4615849255
105,0.8749649999999747,0.96958375,-5.772690773000001,-24.888828250000003,1.3391780260000001,-2.0148268345,8.688646436,1.388771534,-12.877828835,-1.3009536114999998
106,0.8832979999997406,0.9725520315,-5.681210041,-24.85723495,-2.1994103195,0.0027052909999999986,11.250853065000001,-0.9863851665000001,10.916789532,3.200486541
107,0.8916309999995065,0.9995410140000001,-5.75689435,-24.857669800000004,0.696778208,-0.66122096,8.712267339,1.456560105,-9.154220818999999,-0.22699999799999993
108,0.8999639999992723,1.069377333,-5.6734678745,-24.818363149999996,0.015324744500000001,-1.1490158289999999,8.3870263105,7.1473202705,9.9587903025,4.1579722465
109,0.9082969999999476,1.064820379,-5.792775631,-24.806030299999996,1.826074004,-0.7398511025000001,8.7219188215,-2.1891336885,-14.351581095,1.382227659
110,0.9166299999997136,1.104536861,-5.7032909395,-24.767868050000004,-2.618856132,-0.055399537,11.7704730055,3.5361607074999997,10.67870426,3.9976078275
111,0.9249629999994796,1.1848353445,-5.7938678265,-24.75087735000001,2.2200320065,-0.5383377970000001,12.013877390000001,8.028975487,-10.877291205,1.9007753134999998
112,0.9332960000001548,1.2678235174999999,-5.704566479,-24.726840950000003,-2.478638477,-0.2270366515,7.148864149,8.5730102075,10.620893954,2.26878798
113,0.9416289999999208,1.3305782375000001,-5.8214056495,-24.713211049999998,1.4994452594999998,-0.9650478365,12.9371452315,5.8899178505,-14.03414488,1.6207474475
114,0.9499619999996868,1.430291861,-5.6570281985,-24.683483149999994,-2.6016896965,1.3593986034999999,9.3253443225,10.636752603,19.65246868,2.7033333775
115,0.9582949999994526,1.5326963065,-5.754045963499999,-24.659812949999996,1.8787696360000001,-1.001096636,6.753079176,10.760530948,-11.610360145,2.7857347725
116,0.966628000000128,1.6743267775000001,-5.648171662999999,-24.645904550000004,-1.4063494800000003,-0.482894361,7.809203386,15.491226195,12.58317709,0.9281377795000001
117,0.9749609999998938,1.7542186975,-5.70082736,-24.60429765,2.64624463,-1.394476205,9.446559427,8.27885437,-6.217068389,4.8715335725
118,0.9832939999996596,1.8991590145,-5.606926918,-24.5996933,-2.6469116804999997,0.32900328900000003,10.12591207,15.746716025000001,11.1374205945,-0.24878525750000002
119,0.9916269999994256,2.041193664,-5.637940884000001,-24.55648039999999,3.622271061,-1.9461498555,8.1885138135,15.767461775000001,-3.6064925179999996,5.02956152
120,0.999960000000101,2.1645906569999998,-5.588412285,-24.554378500000006,-3.8305454254999995,-0.7850836349999999,13.1888396735,13.126646515000001,5.8100101935,-0.40901505949999994
121,1.0082929999998669,2.322850764,-5.5867307185,-24.512928000000002,3.1573358775,-1.052559793,11.0372872335,17.711687085,0.316854953,4.673677682999999
122,1.0166259999996328,2.4450784325,-5.578862667,-24.5231476,-3.6764787434999997,-0.7201167495,13.646289825,12.82288647,0.7660901545000001,-1.6846616490000001
123,1.0249589999993989,2.5613734719999997,-5.4715681074999996,-24.483875250000004,1.7341935039999998,-1.1432053595,8.881259918,12.6633477225,12.9749481665,3.8298029899999997
124,1.033292000000074,2.6939899919999997,-5.560099125,-24.496292099999998,-0.09583437449999987,1.0852596760000002,10.2936811455,14.018957135,-10.785710099,-1.368300229
125,1.04162499999984,2.790403247,-5.4017241,-24.45724485000001,-1.7311245204999999,-3.226243973,4.521765828,10.279803755,19.105485915000003,3.4102170465
126,1.0499579999996058,2.8807975055,-5.449746609,-24.454353349999998,3.771691084,-0.7833474725,11.649426402,9.139082906999999,-5.850419521,0.3077998895
127,1.0582909999993717,2.9826691155000002,-5.3729195595,-24.424587249999995,-3.7202334400000003,-0.574627638,14.137739419999999,10.8283944135,9.284445406,2.6791085305
128,1.066624000000047,3.1343662735,-5.300112724,-24.415489200000003,0.7544571760000001,-1.6300716994999997,16.666650769999997,16.55211449,8.677720546500002,0.26980128900000006
129,1.074956999999813,3.206541181,-5.2679612635,-24.400604250000008,-0.670133859,-0.8693676595,10.696550848000001,7.095131397,3.8451451064999995,1.2013781965
130,1.0832899999995789,3.2741520404999997,-5.148639202,-24.391521450000006,1.541710734,-0.7238873095,7.599598648000001,6.450946331,14.2601799955,-0.036455869500000126
131,1.0916229999993448,3.351190448,-5.0676336289999995,-24.3716011,-2.544206381,-1.494468391,12.3846778885,7.7373318675,9.7268793565,1.425771713
132,1.09995600000002,3.447306037,-4.9430344105,-24.357501999999997,0.857984841,-0.5956353990000001,13.0800519,9.9230594615,14.92531538,0.4547614459999999
133,1.108288999999786,3.4936277870000003,-4.839944362500001,-24.369609850000003,0.6632005275,-2.8988064529999997,13.489331242999999,3.709825158,12.1526489275,-2.5273696780000003
134,1.116621999999552,3.5628944635,-4.7180074455,-24.358665449999997,-2.396514058,-0.6507024245,19.563613415,6.6588578225,14.583278417,-0.006191909499999926
135,1.1249549999993178,3.6055898665,-4.567030072,-24.357227349999995,2.9836574195,-1.7017269135,8.237658262,3.4134825465,17.9874382035,-1.2473044995
136,1.1332879999999932,3.6603187320000004,-4.4648182395,-24.333637250000002,-1.8063051105,-1.2934219835,17.69496918,5.0282679795,12.315305353,1.6088821515
137,1.141620999999759,3.6458590035,-4.3097560405,-24.329368600000002,0.6835422215,-1.2768239975,9.3155585505,-3.43147701,18.504500865,-0.965246968
138,1.149953999999525,3.6597466465,-4.1386823655,-24.293899550000006,-3.2951912875,0.010153338000000012,16.552194595,0.23549187199999988,20.640587805000003,2.495493531
139,1.1582869999992909,3.6381491419999996,-3.9346599575,-24.283126850000002,3.0244508984999996,-4.220283985,5.474391998000001,-4.2330621485,24.4175725,-0.5184001850000001
140,1.1666199999999662,3.6069564815,-3.7660855054999995,-24.253025049999998,-2.7505788805,-0.755396545,17.530313489999998,-5.251138449,20.30511999,1.8874242900000002
141,1.174952999999732,3.5271378755000002,-3.4903081655,-24.23375320000001,3.3105033634999996,-2.9997979405,10.4864749885,-11.164935825,33.074114800000004,-0.03251045950000003
142,1.183285999999498,3.4782470465,-3.4161243435,-24.21920395,-2.7052172420000002,-1.102934569,21.087017535,-7.515066148000001,8.8806723335,0.7510033995000001
143,1.191618999999264,3.4321030375,-3.0318112370000003,-24.1799507,1.8728904725,-1.867612749,13.3635125175,-7.013330460000001,46.223306655,1.6349089145
144,1.1999519999999393,3.310762644,-3.0500085355,-24.1949501,0.04965204000000001,-0.691750713,21.735628124999998,-16.382318495,-2.412919283,-2.0573102235
145,1.2082849999997052,3.2359290124999998,-2.6061499115,-24.163021049999998,-1.5165349844999998,-1.3980168700000002,12.1464264395,-10.5629171135,53.317159649999994,0.42002961050000004
146,1.216617999999471,3.0600857735,-2.62700814,-24.1790733,3.5685682300000003,-2.7070908545,9.291137246000002,-22.888238905,-2.747262299,-2.0991322995
147,1.2249510000001465,2.8863122465,-2.2353046535,-24.160861949999997,-5.0324789285,-0.12672445200000002,11.9703762515,-22.544397355,46.985572815,-0.6623651985000001
148,1.2332839999999123,2.642447829,-2.113175988,-24.172492999999996,5.43875289,-6.0722062585,11.5628643055,-31.012443545,14.4302685265,-2.3672833965
149,1.2416169999996782,2.45556283,-1.8831736445,-24.174980149999996,-4.188871145,0.2414643315,20.418667794999998,-24.21619606,27.48408413,-1.9755885005
150,1.249949999999444,2.2450297475,-1.5738902984999998,-24.178531650000004,3.5993448495,-2.620729208,17.171640395,-26.986691475,36.93612766,-2.248510718
151,1.2582830000001195,1.9772927165,-1.5758551060000001,-24.1939354,0.11933636700000005,-0.9936307075,20.445487975,-33.940255164999996,-0.38992190350000033,-2.2446677685
152,1.2666159999998854,1.7272257805,-1.1958718595,-24.199413300000003,-1.766117871,-1.009482797,10.602304457999999,-31.755482675000003,45.436275484999996,-2.43844378
153,1.2749489999996513,1.389349997,-1.2228937445,-24.208747849999995,6.4951593875,-2.5566693545000003,7.596796391,-42.307497025,-3.3699927554999998,-1.354553163
154,1.2832819999994172,1.110489875,-0.964578621,-24.226738000000005,-4.705552578000001,-0.110449679,14.0664281865,-35.238484385,30.83061409,-3.234917641
155,1.2916150000000926,0.8133983165,-0.9060952440000001,-24.228389750000005,6.5914137365,-4.1316212414999995,15.634101395000002,-37.396295550000005,6.9192956699999995,-0.6237331335
156,1.2999479999998584,0.5286991375,-0.966121748,-24.253978699999998,-1.0635521410000002,0.4365657865,22.50141907,-35.955671315000004,-7.348918912499999,-3.3964259625
157,1.3082809999996243,0.2515094805,-0.7860395425,-24.263999899999995,1.7561765905,-1.167572856,13.1581201555,-34.996347425,21.49223423,-1.6411816475
158,1.3166139999993902,-0.11300705399999997,-1.028583318,-24.30437849999999,5.643179655,-1.918114353,9.1915028085,-45.56188774,-29.217373845,-5.133797406999999
159,1.3249470000000656,-0.43461526300000003,-0.9817782785,-24.32605745,-4.6038867235000005,0.076148033,9.764927031,-40.3659935,5.5246140955000005,-2.9365227225
160,1.3332799999998317,-0.7766013589999999,-1.139959246,-24.354312900000004,4.7206299304999995,-3.1217523815,11.191143034,-42.84149933,-19.0503211,-3.902578831
161,1.3416129999995974,-1.1125559805,-1.381032735,-24.386703500000003,0.4218816755,-1.9538191635,22.06492519,-42.123859405000005,-28.962953570000003,-4.759750962
162,1.3499459999993633,-1.3551980255,-1.578620404,-24.41636655,-0.22110226750000006,1.4152669310000001,21.03577328,-30.945162769999996,-23.736243245,-4.419140339
163,1.3582790000000386,-1.614145577,-1.856713235,-24.435344699999995,4.9021396635,-0.13676011600000004,15.767935755,-32.87421131,-33.400390625,-3.4648828505
164,1.3666119999998043,-1.9087420705,-2.2642411585,-24.449352250000004,2.070971191,-2.145884305,10.185916424,-37.137012479999996,-48.943841935,-3.500375986
165,1.3749449999995704,-2.1713354584999998,-2.6640789509999996,-24.464202899999997,1.1851454975,0.02113151550000003,12.433634521,-33.305280685,-47.99817276,-3.8341555595
166,1.3832779999993363,-2.349211812,-3.095701337,-24.50075915,-0.9210196135,0.5321842729999999,15.36011124,-23.293206214999998,-51.69012833,-6.758181572
167,1.3916110000000117,-2.5124589205000003,-3.571992278,-24.496192899999997,3.637337327,-1.204610301,19.501732824999998,-21.279416085,-57.23281479,-2.2415730209999998
168,1.3999439999997776,-2.6606063845000003,-4.0900200605,-24.54018785000001,-0.795537174,0.117411867,17.11260891,-19.848125935,-61.97781181,-8.423247814
169,1.4082769999995437,-2.803327918,-4.591837883,-24.534267400000004,3.067982078,-1.559972614,10.999792575499999,-18.801427365000002,-60.285402295,-2.5278391239999998
170,1.4166099999993094,-2.9390729665,-5.080212116,-24.569488549999996,-4.2204635145000005,-0.7367047664999999,12.95193863,-18.36786175,-58.432983394999994,-7.505392313
171,1.4249429999999847,-3.0625776055,-5.5125656125,-24.552719099999997,0.33571103199999996,-1.177677363,15.561876300000002,-16.351682665,-52.02355957,-1.1068767904999999
172,1.4332759999997506,-3.1467484235,-5.899853468,-24.582019799999998,-3.920980215,-0.663804546,20.515727995,-12.1807856575,-46.32548904,-6.377996206000001
173,1.4416089999995163,-3.2063122985,-6.2229807375,-24.547912600000004,1.9300709965,-3.04911834,20.64767838,-8.441823244,-39.041736605,1.5385982770000002
174,1.4499419999992824,-3.2756291624999996,-6.524224520000001,-24.5533905,-1.8455951210000001,-0.40648688,19.194652555,-10.125267265,-36.16615295,-3.0428721905
175,1.4582749999999578,-3.365374923,-6.735483408,-24.54645155,-0.8117325305,-0.04010984299999998,13.43547392,-12.386838673,-25.468307494999998,-1.010372937
176,1.4666079999997237,-3.4549723859999997,-6.910227775499999,-24.59189225,-3.0982549785,0.27849978249999996,13.432561875,-13.130877256,-20.72304249,-7.0216476915
177,1.4749409999994896,-3.535966396,-7.054740905999999,-24.59108355,1.79249084,-1.3389474835,10.9753556275,-11.442843912,-17.413959505,-1.3268689515
178,1.483274000000165,-3.5985664130000004,-7.181734085,-24.61720655,-0.7283732445,-2.248663068,11.302885055,-9.621797085499999,-15.13650465,-4.4196600915
179,1.4916069999999308,-3.6608392,-7.2772688865,-24.62397384999999,0.1904663445,-1.044179618,15.142774585,-9.2994418145,-11.4943652165,-1.904047236
180,1.4999399999996967,-3.6917309759999997,-7.324652909999999,-24.660999300000007,-0.7767396274999999,-0.326279253,20.58415127,-6.001710595,-5.5066773294999996,-5.150792837
181,1.5082729999994626,-3.7080539464999998,-7.341107607,-24.65483855,0.1252439765,-1.8457637875,22.18780041,-3.600093484,-2.11485225,0.25105154499999993
182,1.516606000000138,-3.6978076695,-7.3398759365,-24.682525649999995,-0.14222997449999997,-0.0661106485,16.84320593,-0.9243860839999999,0.2400886025,-3.640589476
183,1.524938999999904,-3.7073578835000003,-7.3095142840000005,-24.691478699999998,-0.45443659999999997,-0.5299272385,13.369562628,-3.0170819165,3.6047682764999998,-1.1807393805
184,1.5332719999996698,-3.7074192765,-7.2540800574999995,-24.716876999999997,-0.947078824,-1.313709885,13.4627938285,-2.127243042,6.714593172000001,-2.9631187915
185,1.5416049999994357,-3.7089602945,-7.165109396,-24.737705249999998,-0.5303040219999999,-0.12762538299999998,14.68296862,-2.229373604,10.7115411745,-2.150827289
186,1.549938000000111,-3.6992889645,-7.070739269000001,-24.779540999999995,0.45995491750000006,-1.1514421405,13.356786725,-1.2076216339999999,11.510846615,-4.6060160395
187,1.558270999999877,-3.6724665165,-6.9549548625,-24.793476099999992,0.9783850905000001,-2.9734653235,14.204061985,1.2848297360000003,13.86792183,-1.107271582
188,1.5666039999996428,-3.625825763,-6.830266952500001,-24.830169650000002,-0.80047673,-0.164059654,17.904239655,3.3351852035,15.091153625,-3.7866039275
189,1.5749369999994087,-3.5698822734999998,-6.6953186989999995,-24.867549899999993,-1.0190573335,0.403502226,18.153794285,4.465202570000001,16.332255840000002,-3.777524173
190,1.583270000000084,-3.4926296475000003,-6.542630911,-24.90777205,-0.023295879500000005,-0.021218031999999998,17.497576715,6.954216003499999,18.47768116,-4.017670989
191,1.59160299999985,-3.4191360470000003,-6.406092405500001,-24.925594300000007,1.0864987075,-1.166441977,15.966965674999999,6.85635519,16.374235155,-1.4850945175
192,1.599935999999616,-3.3469545844999997,-6.2755067345,-24.963829050000008,0.7944237144999999,-1.5736390055,13.702734945,6.4022673354999995,15.800274375,-3.98521769
193,1.6082689999993818,-3.2565824985,-6.1385040285,-24.990306849999996,1.1293347029999998,-0.2707665265,12.03617525,8.7710595135,16.49079609,-2.5628332495
194,1.6166020000000572,-3.16088593,-5.983138799500001,-25.012786849999998,0.9128320815,-1.53481853,11.669636724,9.4499282855,18.652742385,-1.9885235425
195,1.624934999999823,-3.0523443224999998,-5.8194599154999995,-25.034629849999995,-1.432372719,-1.146188706,13.83414793,11.032401563,19.645178795,-1.905021088
196,1.633267999999589,-2.9248427155,-5.6327531335,-25.051158899999997,-0.466286585,0.039950055,16.463958265,13.352567669999999,22.366427424999998,-1.1632008105
197,1.6416009999993548,-2.7906292675,-5.460226059,-25.064765900000005,-0.3080511765,-1.857060969,14.84101057,14.216407775,20.65406418,-0.938704625
198,1.6499340000000302,-2.677942157,-5.3149416445,-25.0653305,2.123725109,-2.669891715,14.01240921,11.7707324,17.301258085,0.42141202099999997
199,1.658266999999796,-2.579904914,-5.197960138,-25.070308700000005,0.5094516725,-0.7905086429999999,13.70772028,9.9660277375,13.955779074999999,-0.3018702325
200,1.666599999999562,-2.4660513405,-5.040763617,-25.0586586,0.5281859935,-0.42906399049999994,15.075592995000001,12.055447574999999,18.660719874999998,1.858749032
201,1.674932999999328,-2.356865585,-4.902389526,-25.0525856,0.6456617265,-1.6302217245,13.684640405,11.405549050000001,16.474491595,1.085467607
202,1.6832660000000033,-2.2824427485000003,-4.807439327,-25.026199299999995,1.9190752510000002,-1.641906917,14.13003349,7.4736073014999995,11.128912925,3.257849336
203,1.6915989999997691,-2.2108834385000002,-4.711419343999999,-25.013809199999997,-0.8504265845,-0.3150032985,14.478691099999999,6.9620141985,11.36462736,1.571215749
204,1.699931999999535,-2.1376526355000003,-4.5672812465,-24.9889679,0.36865335499999996,-1.990104914,13.391443725,7.301224947,17.044895169999997,3.2707469465
205,1.708264999999301,-2.0950087905,-4.473692417,-24.978141799999996,0.8234088425,-2.158611357,12.89870453,3.4749432799999997,11.081488610000001,1.3657128214999998
206,1.7165979999999763,-2.0787793995,-4.383250952,-24.961387649999992,0.09753884399999999,-1.0839952830000001,13.697096825,0.378110945,10.6464691185,2.0236785415
207,1.7249309999997422,-2.05583626,-4.2115436795,-24.957946750000005,-0.892276585,-1.8253217935000001,12.736588000000001,1.0270415545,20.489025115,0.8057729305
208,1.733263999999508,-2.0833598374999998,-4.0959781405,-24.94257354999999,1.9685354235,-3.1291544435,12.91295433,-4.8928442005,13.664682865,1.9852570895000001
209,1.741596999999274,-2.1318520899999998,-4.0121620895,-24.937911999999997,-0.0007587674999999794,-0.4710208025,13.742095469999999,-7.5369763375000005,9.944497107,0.56501811
210,1.7499299999999494,-2.1736508015,-3.831278205,-24.921455350000002,0.07296168800000002,-1.4773287769999999,12.34489775,-6.604774475,21.48934078,2.4330716135
211,1.7582629999997152,-2.249511063,-3.778675556,-24.90387725,2.9369575974999997,-2.685677648,10.798260448,-10.721735955,6.1409881115000005,2.008630037
212,1.7665959999994811,-2.329794943,-3.6949506994999997,-24.892036400000002,-0.5215229244999999,-0.431825936,12.702600480000001,-11.260954380000001,9.857511521,1.440314263
213,1.7749290000001563,-2.4103158115,-3.5643053054999996,-24.87454605,1.1745619775,-1.7815630435,13.017962455,-11.289708135,15.491956715,2.41135031
214,1.7832619999999224,-2.5204540495,-3.5843679905,-24.867359200000003,1.9853789805000002,-1.2939268945,12.058169365000001,-14.889492515,-2.5642287135,0.3895093575
215,1.7915949999996883,-2.5959546565,-3.4471576209999997,-24.851257350000004,-1.7380705475,-0.158029765,12.511250020999999,-10.69686699,16.27685356,2.2837405205
216,1.7999279999994542,-2.707162857,-3.436729908,-24.838478100000003,2.9098248485,-1.6201932430000001,10.015850544,-14.979028705000001,1.0551081894999998,1.2140380335
217,1.8082610000001296,-2.8138923645,-3.4116996525,-24.815750099999995,-1.018375687,-0.7682581245,13.509945391999999,-14.40663147,2.7885456084999998,2.4943849445
218,1.8165939999998957,-2.9025509355,-3.293973565,-24.811737100000002,0.8333232995,-1.472457886,9.0785205355,-12.34076929,13.964724064999999,0.8227294980000001
219,1.8249269999996611,-3.0205068585,-3.364824295,-24.77776335,1.5090404450000001,-1.7229774,12.803907395,-15.671407219999999,-8.7864019875,3.2152916190000003
220,1.8332599999994272,-3.0926805735,-3.217519641,-24.7802086,-2.002494499,0.098740736,11.474695205,-10.4078874605,17.550956725,0.2386286705
221,1.8415930000001024,-3.21766448,-3.2922929525,-24.753913899999993,4.2939227815,-2.4633147715000003,9.975133658499999,-16.564256665000002,-9.228132961,2.3319845200000002
222,1.8499259999998685,-3.3010178805,-3.194981098,-24.75848390000001,-3.195767045,-0.17644208649999998,13.7693662665,-11.774405003,11.5846550445,-0.2971571985
223,1.8582589999996344,-3.409597397,-3.177691579,-24.73749925,3.5923405885,-1.5353456140000001,6.747105598,-14.63057232,1.823907137,2.340513885
224,1.8665919999994005,-3.504766107,-3.189295769,-24.72788235,-2.035239458,0.028190493499999997,15.10848665,-13.09898138,-1.565344095,0.68268995
225,1.874925000000076,-3.5796741245000003,-3.1013261080000003,-24.709686299999994,2.4270503815,-1.3994799254999999,8.060602665,-10.60021019,10.290969251,2.6567602755
226,1.8832579999998416,-3.653673649,-3.2019467355,-24.6940422,-0.11420869850000004,0.394872248,12.89722347,-10.523379801499999,-12.269989013,0.713362828
227,1.8915909999996077,-3.728230238,-3.076325059,-24.689262400000004,0.558705941,-1.8641309145,11.202990055499999,-10.64944124,14.902186395000001,1.2334858924999998
228,1.8999239999993731,-3.801696062,-3.195658922,-24.680675500000007,1.110314816,-0.5739993155,12.662596704,-10.508191584999999,-14.456231115000001,-0.306852341
229,1.9082570000000487,-3.8482056855,-3.062022805,-24.68284225,-1.49756423,-0.7292989345,8.479847908,-7.3241736885,15.9132185,0.4828094840000001
230,1.9165899999998144,-3.928485632,-3.1970870495,-24.665904999999995,3.0754756925,-1.121831298,10.845076201,-11.2802424455,-16.40511513,0.5824102164999999
231,1.9249229999995805,-3.9954360725000004,-3.119895697,-24.665771499999998,-1.5936669115,-1.6896992924999998,9.731083392,-9.763788220999999,9.136431693999999,0.29366075999999997
232,1.9332559999993464,-4.0924739835,-3.2236381764999997,-24.65457155,2.414170206,-0.9202686175,10.921155451,-13.32140398,-12.614156245,0.129806608
233,1.9415890000000215,-4.1762627365,-3.139269352,-24.66441729999999,-1.3457476275,-0.8898391205,9.327121256,-11.845016005,10.076712130499999,-0.7913902399999999
234,1.949921999999788,-4.259289026,-3.2626336814999997,-24.6465683,2.9243179560000003,-1.5233614445,9.0458062875,-11.600704669999999,-15.01638985,0.6844958364999999
235,1.958254999999553,-4.334146261,-3.2758464815,-24.642894749999996,-0.2978455725,-0.0834467485,9.435755727499998,-10.690959455,-1.7149754759999998,-0.025582313500000065
236,1.9665879999993197,-4.4128297565,-3.3652318715,-24.62956235,0.24620810150000005,-0.702855423,12.441094638,-11.093680384999999,-10.9172108195,0.39541342850000005
237,1.9749209999999948,-4.4816089869999995,-3.3524477480000003,-24.628498049999997,0.9359995130000001,-1.628519118,7.087947607,-9.990230559,1.4246193175,-0.08279162649999999
238,1.9832539999997607,-4.5298337935,-3.457988143,-24.60843275,0.9805411099999999,0.246507466,10.753404380500001,-7.390336037,-12.91532755,1.026196152
239,1.9915869999995264,-4.6041727065,-3.5579302310000003,-24.599571250000004,0.3787309975,-1.2517914175,9.109809398500001,-10.597314833999999,-12.13521862,-0.23754000700000003
240,1.9999199999992925,-4.665228605499999,-3.551767945,-24.59339525,-0.7610297204999998,-1.1468070145,9.777225015,-9.019566536,0.569206074,0.4569900475
241,2.008252999999968,-4.719731569,-3.6872485875,-24.582244850000002,2.0084579885,-0.074475344,9.484082699,-8.206765413500001,-16.40257883,-0.339580834
242,2.0165859999997338,-4.7657661435,-3.73087728,-24.574432349999995,-0.954179585,-0.9293828605000001,9.296171903000001,-7.201020241,-5.401722431,0.140615791
243,2.0249189999995,-4.8053145409999996,-3.7604038715,-24.568714149999998,-0.21603772049999997,-0.83783026,9.8715357775,-6.4399764535,-3.6820781824999997,0.008324533999999995
244,2.033251999999265,-4.8566954135,-3.8780972955,-24.558254249999997,3.7774881125,-0.736829847,6.716655448999999,-7.827212572,-14.283114914999999,-0.25212097899999997
245,2.041584999999941,-4.8716664315,-3.9604398015,-24.54927445,-2.302399874,-0.905016899,11.137507914999999,-3.4650434255,-10.025119542,-0.1698608285
246,2.049917999999707,-4.901563883,-3.9856560229999998,-24.54805375,0.5551295285,-0.561443344,7.8601505755,-5.323701381999999,-3.1307642755000002,-0.4409746975
247,2.0582509999994727,-4.930720806,-4.073480248,-24.540527350000005,2.2306302784999996,-0.734308049,9.114865183000001,-5.18432188,-10.669328688,-0.3358667195
248,2.066584000000148,-4.951527119,-4.2091480494999995,-24.527313250000006,-1.2177654205000001,-0.707552701,11.500938654,-4.1256347895,-16.45302725,-0.22044271250000003
249,2.074916999999914,-4.952483654,-4.196495533,-24.523208649999994,0.2435516715,-0.39016967999999996,5.889796734,-1.8248350025,1.3750939365000001,0.3067369015
250,2.08324999999968,-4.943516493,-4.332707286,-24.507793399999997,1.019679308,-0.29727496200000003,9.874824048499999,-0.523766413,-16.54998207,0.06909437500000001
251,2.0915829999994457,-4.934467077500001,-4.3653234245,-24.49255375,-0.8088507505,-1.2787972095,9.174164295499999,-0.5206541124999999,-4.1460799575000005,1.1081038115
252,2.099916000000121,-4.921026706499999,-4.4251133204999995,-24.486442550000007,2.5022661685,-0.7016505945,5.927304985,-0.07818734649999992,-7.314458371,-0.198209355
253,2.108248999999887,-4.9187581535,-4.550853013999999,-24.467777249999997,-1.1370161475,-1.2419526575,11.7250094425,-1.2904709875,-15.314896585,0.5190214365
254,2.116581999999653,-4.8965806965,-4.512823582,-24.47137070000001,0.14050278050000004,-0.29643377700000006,7.4697895050000005,0.8746108115,4.484373808,-0.36801251749999997
255,2.124914999999419,-4.881969452,-4.692265272,-24.4457436,3.3545799255000004,-1.1688009205,5.654149652,0.25188440100000004,-21.80840492,0.9017621875
256,2.133248000000094,-4.8471741675,-4.6660242080000005,-24.44446945,-5.1936655045,-0.01906725749999999,10.4758465315,2.4558929105000002,3.0186947585,0.022277921499999964
257,2.14158099999986,-4.8255720140000005,-4.7500576975,-24.427928949999995,5.3369677069999995,-1.4483727815,8.8369956015,1.0014271735,-10.306650875,0.8256301285000001
258,2.149913999999626,-4.790621519,-4.863045454,-24.41863635,-1.5108144875,0.2068235945,6.6787507975,2.546599865,-13.699438808,-0.440532975
259,2.158246999999392,-4.7202007770000005,-4.779700994500001,-24.420894650000008,-0.30222445750000004,-1.2988855240000001,6.9884427785000005,6.6972272395,9.8841259495,0.2354783414999999
260,2.1665800000000672,-4.703823805,-4.98461175,-24.405933400000002,1.959469527,-1.0521184205,10.818252804,0.35005059799999994,-24.736639975000003,-0.5913498994999999
261,2.174912999999833,-4.64942956,-4.9256613255,-24.411975849999997,-1.7617119849999998,-0.25546346600000003,6.3907384265000005,4.7319227455,7.0072739125,-0.4860109090000001
262,2.183245999999599,-4.6296806335,-4.9872837064999995,-24.409065250000005,1.9070205685000001,-1.5859452484999998,3.6096751705,0.6473035810000001,-7.494572162499999,-0.5828263015
263,2.191578999999365,-4.60759449,-5.0382416244999995,-24.403438550000004,-1.2313483355000001,-1.4771048725,14.292226315,0.9821266085,-6.2484079005,-0.2342612745
264,2.1999120000000403,-4.588523626,-5.0576841835,-24.399440750000004,1.6200372575,-0.14864806799999997,5.4813296795,0.5658890010000002,-2.4533251524999997,-0.013248950499999967
265,2.208244999999806,-4.5760862825,-5.113425016,-24.389175450000003,0.3968553955,-0.978721678,7.1536083225,-0.14439386099999996,-6.8557651045,0.3253904205
266,2.216577999999572,-4.569785595,-5.0971853735,-24.386177049999993,-0.358814031,-1.008111149,6.977929028,-0.9646385165,1.8206213115,0.17423442
267,2.224910999999338,-4.556788921,-5.1725633145,-24.371505749999997,-0.41444870850000004,-0.859452426,12.260215999500002,-0.005910396500000026,-9.262287616,0.6534641985
268,2.2332440000000133,-4.5290510655,-5.129281044000001,-24.37085345,1.804116964,-0.476620719,3.942317009,1.57146585,5.0822612045,0.17349168649999996
269,2.241576999999779,-4.5399751665,-5.236409903,-24.35899355,0.3029052615,-1.2862062455,8.247889279999999,-2.933445215,-13.012418272,0.020254463
270,2.249909999999545,-4.525429964,-5.110068798,-24.368904099999995,-1.8365061505,-0.861480534,7.645305395,-0.10170137899999998,15.10501766,-0.3366095720000001
271,2.258242999999311,-4.5286455155,-5.2776458265,-24.354675249999993,2.7589015359999998,-0.766723245,11.1176295285,-1.981069386,-20.271238325,-0.2304129005
272,2.2665759999999864,-4.5087924,-5.1122710705,-24.369518250000006,-2.9657679795,0.0017925049999999998,6.3905067155,0.48163113,19.821683880000002,-0.5754433125
273,2.2749089999997523,-4.5105338095,-5.2115724085,-24.36222075,4.9851174355,-2.045882046,7.050647435499999,-1.886149466,-12.037674906,-0.362486318
274,2.283241999999518,-4.473830819,-5.1520633700000005,-24.3668251,-4.623437643,0.48826743650000004,11.6486055855,2.613542497,7.070734977,-0.449369751
275,2.291574999999284,-4.464626431499999,-5.1453034875,-24.372756950000003,4.2827023265,-1.9851564765,3.7221240985,-0.7210726590000001,0.7716088299999999,-0.8857018649999999
276,2.2999079999999594,-4.501151204,-5.163554668,-24.372241949999996,-2.137127221,-0.7472100335,10.915889264499999,-6.1165394785,-2.2870249745000004,-0.510120325
277,2.3082409999997253,-4.4742925165,-5.0466237065,-24.384960199999995,1.3724995555000001,-0.8789497239999999,9.0949482895,1.326830387,14.023591995,-0.7332845179999999
278,2.316573999999491,-4.463687419999999,-5.139144658999999,-24.3794174,-0.1326603295,-0.2198064215,7.874473094500001,-0.4061712475,-11.22103429,-0.5926237005
279,2.3249070000001666,-4.4624677895,-5.0148305895,-24.3877678,0.7176855115,-1.7046324575,5.033454,-1.691686377,14.856425285,-0.14694239199999998
280,2.3332399999999325,-4.489767432,-5.05457449,-24.383609749999998,0.635363206,-1.0089074820000001,10.110151292,-4.9851324555000005,-4.881235138,-0.2685845645
281,2.3415729999996984,-4.4647028445,-4.948000669500001,-24.389061000000005,-0.10431426750000006,-0.11830681899999998,9.779315470499998,1.204272598,12.706979275,0.009022623000000007
282,2.3499059999994643,-4.4882438185,-5.0328791145,-24.376018499999994,2.356051922,-0.947933257,5.9171216115,-4.4556605815,-10.3605875985,0.43793320649999995
283,2.35823900000014,-4.4729592799999995,-4.8687820434999995,-24.390140549999998,-2.8772399425,-0.11010634900000005,8.192079069,-0.04074591400000002,19.65971565,-0.507271111
284,2.366571999999905,-4.472081423,-4.962461233,-24.373397800000006,3.7766791585000004,-1.4337440655,6.0151564165,-1.4805669785,-11.4560971285,0.801187858
285,2.3749049999996714,-4.448236108,-4.8564720155,-24.3598213,-2.3961234090000003,-0.2116038575,10.092589378,1.2463189215000001,12.473727939,2.190261006
286,2.3832379999994373,-4.477225423,-4.8862202165,-24.333644900000003,3.5734642745,-1.2591837639999999,4.1594757435,-4.9793691635,-3.8917062285,2.570490956
287,2.3915710000001127,-4.4616976975,-4.8676140305,-24.298774749999993,-1.464648247,-0.28851840900000003,5.4446554705,0.482616991,1.8053104875,3.939379573
288,2.3999039999998786,-4.5058069225,-4.8528878685,-24.25594325000001,3.259190321,-2.950373173,3.7149405465000003,-6.6136856085,1.2675652505000001,4.9311628345
289,2.4082369999996445,-4.5789051055000005,-4.9209182264999995,-24.21167369999999,-0.676488638,-0.8889849485000001,10.609464645,-10.071288109000001,-8.642180442,4.24799335
290,2.4165699999994104,-4.6149532795,-4.9179255965,-24.183933249999995,1.019286454,-0.467042953,4.012096524,-5.7858786585,-0.008824110000000163,3.020872712
291,2.4249030000000857,-4.694665432000001,-4.9919338225,-24.152336100000007,0.8321081995,-2.0453020935,4.73044187,-10.9730620365,-9.256281378,2.6793133019999997
292,2.433235999999852,-4.8226566315,-5.043806791,-24.15696715,1.216523547,-0.6272739655,6.126768589,-17.157302855,-6.250912427499999,-1.4122667309999999
293,2.441568999999617,-4.9224312305,-5.120453596000001,-24.15703965000001,-0.1442052055,-0.8815121725,5.654548822,-13.710496424999999,-9.264044046999999,-1.1189262420000001
294,2.4499019999993834,-4.999218464,-5.2092528345,-24.179737100000004,0.8837940545,-0.7537418905,6.934350969,-11.213119985,-10.468873026,-4.004991293
295,2.458235000000059,-5.1235535145,-5.293524742,-24.19846345,0.3865789175,-0.315052569,3.6177615820000004,-16.862407685,-9.978310108999999,-3.441248119
296,2.4665679999998247,-5.259080887,-5.3935198785,-24.2241783,0.9804288145,-0.678021908,7.664164486,-18.311881065,-11.7542636395,-4.5231435300000005
297,2.4749009999995906,-5.3211302755,-5.486993550999999,-24.233516700000003,-0.6130073965,-0.102404453,6.5898671150000006,-9.301349640000002,-11.1589975375,-2.460004449
298,2.4832339999993565,-5.404394865,-5.5628721715000005,-24.25159075,1.0193612275000001,-0.09617614749999998,5.426267877,-11.949722770000001,-8.954291105,-3.375982761
299,2.491567000000032,-5.5127706530000005,-5.6397633549999995,-24.2508736,-0.5418997965,-0.5912683645,7.983820915,-14.732991215,-9.293627738,-1.1293125450000001
300,2.4998999999997977,-5.5252957345,-5.68383646,-24.26245114999999,1.0253297685,-0.30902778000000003,7.7660574905,-3.4222409725,-5.200176716,-2.2564925550000003
301,2.508232999999564,-5.5416853425,-5.7537534235,-24.27466965,-2.5528393984999997,1.27104491,8.5815162085,-3.8158168795,-8.3302111625,-2.6216236354999998
302,2.516565999999329,-5.589559317,-5.7707333565,-24.281368250000007,3.0201116800000003,-1.0167385265,4.4665426015000005,-7.607568504,-2.023991883,-1.3003641365
303,2.524899000000005,-5.5698812005,-5.763122320000001,-24.30802535000001,-2.0019577145,0.12211732549999998,7.437304789,0.31534323100000006,1.116556406,-3.4840739965000003
304,2.533231999999771,-5.5166540145,-5.788672209,-24.305954,1.5466049910000002,-0.6759785715,8.691623213,4.6383791565,-3.15242064,-0.39750087300000003
305,2.5415649999995367,-5.4519762995,-5.7479944225,-24.337696049999998,-1.8471411464999998,0.594882346,9.888741731500001,5.6487269405,5.117154836999999,-3.6542357799999996
306,2.5498979999993026,-5.401308775,-5.73337698,-24.336547850000002,2.3092172145,-1.050213665,5.960000038,4.3352413175,1.6459898649999998,-0.03443829700000001
307,2.558230999999978,-5.278565407,-5.6347351075,-24.373084999999996,-2.1723234655,0.723970771,8.343958378,12.557317255000001,12.0954289455,-3.6168460845
308,2.566563999999744,-5.1771278380000005,-5.6324465275,-24.370418550000004,2.791166961,-1.3034222425,8.9692251665,10.43474102,0.164949283,-0.008164584999999946
309,2.5748969999995097,-5.0469479565,-5.4728415015,-24.417804700000005,-2.199847519,0.33479851149999995,6.5149388315,13.320318700000001,19.491238595,-4.2709707025
310,2.583229999999276,-4.914219856,-5.468776703,-24.410606400000006,1.747133076,-1.1891385615,9.9419174215,14.27101231,0.3076398225,0.5474979879999999
311,2.591562999999951,-4.7468960285,-5.2760424614999994,-24.441394799999998,-1.6418106555,0.435252689,7.431578159500001,17.969602585,23.27736282,-2.0855379105
312,2.599895999999717,-4.601378202499999,-5.284138441,-24.426094049999996,4.17542243,-1.241762519,8.027815821,15.878843785,-1.2140443325,1.429735601
313,2.6082289999994828,-4.4290955069999995,-5.0617046355,-24.446144099999998,-3.6848298315,-0.0473234345,5.105264366,18.68481922,26.72863293,-0.6777208450000001
314,2.616562000000158,-4.2850160595,-5.0596067905,-24.390354200000004,4.2668539285,-2.0963565705000002,9.648843167,16.13420534,-0.3562998770000001,6.3712739945
315,2.624894999999924,-4.1245684625,-4.883838176499999,-24.366920450000002,-2.7722483870000003,0.3494089025,7.896081688500001,17.732016565000002,20.754755019999998,3.9591053725
316,2.63322799999969,-4.009910941,-4.847478627999999,-24.283878349999995,4.0815900560000005,-1.847751081,4.08883369,12.85512209,3.551004648,9.8758773805
317,2.641560999999456,-3.8803126814999995,-4.7596695425,-24.232669849999994,-1.0698862075,-1.128498077,6.4593935015,14.30437517,10.010020732000001,6.493543386500001
318,2.649894000000131,-3.798978329,-4.6781603095,-24.15779880000001,1.7027490134999999,-1.611887872,5.2168228029999995,8.7635159495,9.050472736,9.279245615
319,2.658226999999897,-3.7484822275,-4.650996685,-24.121540049999993,-0.032079216,-1.2957210545,5.3891615275,4.6461284755,2.893224597,4.126723051
320,2.666559999999663,-3.687470913,-4.6060760025,-24.064682000000005,1.600373864,-2.7407224775,8.194595098499999,6.153623104499999,4.8209651115000005,6.815417528
321,2.674892999999429,-3.6611008645,-4.600221992,-24.03815459999999,0.681579925,-0.40668751049999996,7.2939782135,1.6314923019999998,0.43453258249999993,2.903399175
322,2.683226000000104,-3.690129876,-4.5668580535,-24.016399399999997,0.113685187,-1.1699609309999999,1.9529017135,-4.983294785,3.7056182625,2.4955823419999996
323,2.69155899999987,-3.7706233265,-4.594164252,-23.99354555,1.6916750669999998,-2.388872862,0.4560065215,-11.209199905,-3.5216629504999997,2.1571157574999997
324,2.699891999999636,-3.8638459444999995,-4.587020993,-24.0096817,-0.277775064,-1.510088712,6.2156691535,-13.069260358500001,0.8781783579999999,-2.2356241640000003
325,2.708224999999402,-3.929389954,-4.6335060595,-24.020992300000003,0.13446740799999998,-1.3298208935,12.17127466,-9.7149815545,-5.569546938,-2.0508040185
326,2.7165580000000773,-4.013320804,-4.685538411,-24.052017199999995,2.278658271,-0.39044091100000006,9.068265436499999,-12.1225409495,-6.0652341844999995,-4.4839134215000005
327,2.724890999999843,-4.14343977,-4.737689972,-24.0918579,-0.748674542,-0.392368451,2.899072781,-17.772789,-5.984741389,-5.5069472785
328,2.733223999999609,-4.2972284555,-4.76916337,-24.125740050000005,1.078774184,-0.18016767500000008,0.773840874,-20.52705288,-3.572406292,-4.6686825755
329,2.741556999999375,-4.4514157775,-4.822187185000001,-24.16838835,0.298280418,-0.788514465,-0.8108582499999999,-20.705058100000002,-6.0265073775,-5.938688278
330,2.7498900000000503,-4.5893661975,-4.878398418,-24.190456400000002,0.23301447949999998,-1.9877168835,7.988839863,-18.4989028,-6.624303341,-3.529783726
331,2.758222999999816,-4.6825795175,-4.952834128999999,-24.221050250000005,0.04379391649999986,0.1518846155,14.323592184999999,-13.288654327,-8.6716630445,-4.729605436
332,2.766555999999582,-4.7700834274999995,-5.006174326,-24.230651849999994,0.14354568749999996,0.340420753,9.341748952,-12.301899197000001,-6.4067555665,-1.999908328
333,2.774888999999348,-4.8935790064999996,-5.043032646,-24.247528100000004,1.4860635174999999,0.2623216065,2.6701841055,-16.815029623,-4.281759322,-2.7018562555
334,2.7832220000000234,-5.012241602,-5.0897808075,-24.264125800000002,-1.522144213,0.23579967050000006,-1.4727522135000002,-16.10921812,-5.5535390375,-2.8206204175
335,2.7915549999997893,-5.134300232,-5.1113419535,-24.263336200000005,1.953019619,-1.3831892909999999,0.40168732400000007,-16.433008195,-2.638638377,-0.49901068199999976
336,2.799887999999555,-5.214860678,-5.1481645105,-24.28606415000001,-1.747461796,-0.5943598895,7.1513450149999995,-11.636907339,-4.2646170855,-3.466349542
337,2.808220999999321,-5.2461278435,-5.180309534,-24.281822249999998,2.2344857449999997,-0.442855686,10.414846421,-5.462070346,-3.9710519315,-0.20748166750000002
338,2.8165539999999964,-5.2690033915,-5.1900632385000005,-24.304328950000006,-1.7270544765000002,0.343488455,10.564557552499998,-4.738684416,-1.011877507,-3.1330691575
339,2.8248869999997623,-5.2925143245,-5.209542036,-24.308071149999996,1.747081399,0.7941840735,3.8519467709999997,-4.614820823,-2.3747342825,-1.0060887630000002
340,2.833219999999528,-5.309504509,-5.2069137095,-24.327453650000002,-1.0503528865,-0.2163203655,2.3426465395,-3.992241651,0.42726498849999994,-2.608143866
341,2.841552999999294,-5.2979216575,-5.217298031,-24.336074850000003,1.7516514140000001,-0.413915649,4.832882404499999,-0.4679399875,-1.222650692,-1.4945265054999999
342,2.849885999999969,-5.248306274000001,-5.1682517525,-24.36359025000001,-2.267632723,0.6359200105,5.1382415295,3.915059209,6.0629410745,-3.0745024085
343,2.8582189999997354,-5.200410843,-5.1626360415,-24.369098650000005,2.122993052,-0.40609778500000004,4.299103021500001,3.9358574155,0.6456773280000001,-0.9700877965000001
344,2.8665519999995013,-5.131031752,-5.1158671375,-24.383457200000002,-1.0729326455000001,-0.3204553925,6.960176706,6.407171011000001,5.6634612085,-1.5474328995
345,2.874884999999267,-5.0159461495,-5.091707945,-24.391887649999994,0.8339869750000001,0.20563894549999998,9.3814654345,11.989551545000001,2.8748012785,-1.1049916595
346,2.8832179999999425,-4.8966095445,-5.0203728675,-24.392944349999993,-0.022155046499999997,-0.11842036249999999,8.318759919,12.548045876,8.452404499,0.28129562999999996
347,2.8915509999997084,-4.791617155,-4.99216032,-24.404907199999997,0.577033758,0.36869847799999994,3.2147572785,10.702077387,3.4203075170000004,-1.477659751
348,2.8998839999994743,-4.671225786,-4.8946847915,-24.408229799999994,-0.6107084455,-0.5960459415,3.3118568365,12.69010353,11.574448585,0.21917462349999983
349,2.9082170000001497,-4.549343705,-4.8585116865,-24.418746949999992,2.00588429,-0.731634587,4.569310188,12.746843815,4.358883738499999,-1.2766519785
350,2.916549999999916,-4.41048491,-4.775408745,-24.423641200000006,-1.4828270435000002,-1.208847582,8.681066036,14.867199897999999,9.890837671,-0.136414945
351,2.924882999999681,-4.2306007144999995,-4.7270816565,-24.429851549999995,1.1645599005,0.397878289,11.919651985,19.78108597,5.744250059500001,-0.65527001
352,2.933215999999448,-4.068318009,-4.6302371025,-24.4201775,0.22151672849999993,-0.3526649695,6.528530775,17.812480929,11.4193549175,1.6661682725
353,2.9415490000001228,-3.9669146535,-4.554576754499999,-24.436740850000007,0.33102738850000013,-0.3677454589999999,-0.7672817705,10.2344775205,9.126110556,-1.685026288
354,2.9498819999998886,-3.8387027975,-4.458001256,-24.422912599999997,-0.184841633,-2.0438970925,7.6666305085,13.805923702500001,11.324273585,2.097838938
355,2.9582149999996545,-3.6743825675000004,-4.4006005525,-24.42866135,1.4748292045,-0.8136429860000001,10.269142389,17.876960755,6.856983185000001,-0.5172863004999999
356,2.9665479999994204,-3.5388976335,-4.275615692,-24.41527940000001,-0.7957870665,0.015307277500000022,7.323827265,14.655375,14.7569232,2.1827046125
357,2.974881000000096,-3.4446759225,-4.242272019,-24.405445099999994,1.424306154,-0.863294646,3.9811903235,9.613023282,3.856645703,1.093286097
358,2.9832139999998617,-3.344896555,-4.1154574155,-24.38834,0.106488943,-1.812142789,5.6097096205,10.400816919,14.956783775,2.5950109219999997
359,2.991546999999628,-3.245218992,-4.090333938500001,-24.3788414,1.2388511300000002,-0.466565125,8.391527651,10.2597312935,2.880359292,0.792190641
360,2.999879999999393,-3.173021674,-3.9856672289999997,-24.37157825,-0.41879260549999997,-1.007442683,7.506213903499999,6.9870651945,12.3881349555,1.2514669745
361,3.008213000000069,-3.1061816215,-3.962519288,-24.369602200000003,1.2634855655,-0.20943975449999996,4.920669198000001,6.266509533000001,2.688700676,-0.04301267850000001
362,3.0165459999998347,-3.066697359,-3.9139766695000002,-24.36932375,1.308252722,-1.199957609,3.5483746529999998,3.018842757,5.7014346125,-0.013248681999999956
363,3.0248789999996006,-3.036024928,-3.8878308534999997,-24.36754225,-0.3395749925,-1.555511206,8.589981078,1.9174495935000002,3.0518206355,0.09467673300000001
364,3.0332119999993665,-2.9800659415,-3.886353493,-24.374019600000004,1.0199857655,0.1037458779999999,11.8944230075,4.9477870465,0.100977715,-1.1411077975000001
365,3.041545000000042,-2.930211425,-3.8893089295000003,-24.368087800000005,0.32160818599999996,-0.9195646645000001,6.56344807,4.236460805,-0.44720554349999997,0.15593326100000016
366,3.049877999999808,-2.9327168465,-3.8738503455,-24.382797200000006,1.4904174135000001,0.5688263475,2.2521208975,-2.14099741,1.8250909745,-1.9309869999999998
367,3.0582109999995737,-2.9578893185,-3.914718747,-24.373180400000003,0.2506075499999999,-1.7705206274999998,-0.16654396049999987,-4.804270238,-4.952806711,-0.748556614
368,3.06654399999934,-2.932479262,-3.9215356114999995,-24.395778649999997,-0.8551883400000001,-1.2572873235,10.086622714,1.1532108785,-0.7983890770000002,-3.170306027
369,3.074877000000015,-2.8954333070000002,-3.9923602340000004,-24.385524749999995,2.4709844590000003,-0.8725842535000001,14.32766199,2.757321179,-8.6245441435,0.49068564149999994
370,3.083209999999781,-2.871523142,-4.0065268275,-24.40493010000001,-1.041453525,0.789989281,8.979516745,0.9486169814999998,-1.6674802155000001,-2.916897893
371,3.0915429999995467,-2.881288886,-4.080507278500001,-24.39397815000001,1.0357057525,-0.4410872105,2.401121378,-2.8163428304999996,-9.032040596,0.5327569544999999
372,3.0998759999993126,-2.9003977775000003,-4.101687789,-24.3952637,0.70616737,-1.0751209855,-0.16494524500000002,-4.088083148,-2.5948503615,-0.7851851285000001
373,3.108208999999988,-2.9374574420000004,-4.1516813035,-24.395084400000002,0.20475834599999998,-1.1657932105,3.5531719925,-6.181927205499999,-6.091898918,-0.69796896
374,3.116541999999754,-2.9483742714999996,-4.198705196500001,-24.4009056,0.26155626749999983,-1.510551527,11.2771809105,-3.117047131,-5.686559439,-1.3369671104999998
375,3.12487499999952,-2.9260535240000003,-4.261106491,-24.402854899999994,-0.2609799505,0.285170972,10.210494042,0.92163223,-7.561386347,-1.016520216
376,3.1332079999992857,-2.9199517965000004,-4.3036994935,-24.409835799999996,1.0068623424999998,-0.19017219549999997,11.510609864500001,-1.0734478234999998,-5.158771038,-1.3121916055
377,3.141540999999961,-2.9301764965,-4.3705656525,-24.40069960000001,0.23098631199999997,-0.07591134300000002,4.9485612365,-2.9124724865000005,-8.1465462445,0.36484295150000007
378,3.149873999999727,-2.9567612409999997,-4.4150859115,-24.404830949999997,0.7574766575,0.600924909,-2.262042165,-4.962489188,-5.4187045095,-1.055095285
379,3.158206999999493,-3.00259912,-4.445026875,-24.3883286,-0.074697532,-2.0591835979999997,1.8204731345,-7.1168136595,-3.7611051795,1.4502973705
380,3.166540000000168,-2.9995249509999997,-4.5260255335,-24.388595549999998,-0.0473207645,0.5175036789999999,8.483834982,-1.3687024115000002,-9.8030815135,-1.0150984825
381,3.174872999999934,-2.9588944914999997,-4.5657051805,-24.374366800000004,0.19905775799999997,-0.6297498645,8.6705825315,3.2701312455,-4.941139698,1.164167136
382,3.1832059999997,-2.924676061,-4.5994417665,-24.380371049999994,0.3490865824999999,-0.612606384,8.324027538,2.2738143429999997,-4.0787215235000005,-1.285175264
383,3.191538999999466,-2.8981636765000003,-4.6555383205,-24.377510049999998,-0.48773413850000014,0.4912667945,8.0983467095,1.4977092145,-6.8567516805,-0.3531757594999998
384,3.1998720000001413,-2.8890743255,-4.6703306435,-24.392032650000004,0.969282389,-0.0616256095,5.928261399,-0.8323409554999999,-1.754107818,-2.2915007175
385,3.208204999999907,-2.853732705,-4.704475641,-24.39892955,-1.098519504,-0.7668113115,4.579764247,2.436541319,-4.150787115,-1.4306895549999998
386,3.216537999999673,-2.7848228215,-4.711548328499999,-24.424419400000005,0.12245160350000006,-0.01641537200000001,10.0554990745,6.2925343515,-0.803659499,-3.0769358875
387,3.224870999999439,-2.721582055,-4.723433018,-24.433181750000003,0.29786565899999995,-0.30162238350000004,6.092791587000001,5.733100804,-1.453018889,-1.691481054
388,3.2332040000001143,-2.697505832,-4.6813110115,-24.4557152,-0.198378835,-0.07404088949999998,2.422965944,0.8985985814999999,5.0993841885,-2.860789597
389,3.24153699999988,-2.6480761765,-4.64190197,-24.47240825,-1.5584847925,-0.8311020885,6.875583647499999,4.026250838999999,4.7236242295,-2.1334098575000002
390,3.249869999999646,-2.55570817,-4.5977432725,-24.471416500000004,1.355468452,-0.681505233,12.53124094,9.349145412,5.1932610275,0.069485024
391,3.258202999999412,-2.445260942,-4.5080804825,-24.4850159,-1.2272232920000001,0.45229127999999996,10.825662373,11.356446029,10.74426508,-1.3727758525
392,3.266536000000088,-2.385051906,-4.4096068145,-24.484390250000004,-0.416546777,0.33127778750000003,3.7092689275,5.498269617,11.693784234999999,0.20593225950000016
393,3.2748689999998533,-2.320417106,-4.2905756235,-24.48466115,0.547145486,-1.160451025,3.9859900180000003,5.9492394945000004,14.22134733,-0.30138319699999994
394,3.283201999999619,-2.211781442,-4.176840663,-24.474964149999998,-0.570926033,-0.5391520000000001,11.366778848,11.395468237,13.480173109999999,1.4659610095
395,3.291534999999385,-2.1055744885000003,-3.9753547905,-24.48546600000001,-1.250296265,-0.5572664475,9.321808578999999,10.8971347815,24.12855911,-0.4232431054999999
396,3.2998680000000604,-2.0071665045,-3.862368345,-24.47649765,1.2317870815,-0.1474941335,9.493537666,10.149054052,13.40421438,1.2027231455
397,3.3082009999998263,-1.913905561,-3.634536743,-24.481445299999997,-1.2319238184999999,0.057706058000000005,7.7119977475,9.325919149,27.302848815,-0.848632276
398,3.316533999999592,-1.8045109510000001,-3.4967818260000003,-24.465663900000003,1.4145075825,-1.421088219,9.2158951745,11.525217534000001,16.34240055,2.0860943795
399,3.324866999999358,-1.6946241855,-3.2759487629999997,-24.459709200000006,-0.030080914499999944,0.9645085035000001,8.474390506999999,11.425929069999999,26.415660855,0.9086598155
400,3.333200000000033,-1.5881485345000002,-3.1385157105,-24.449962650000003,0.9032473565000001,-1.9807747005,9.3062787035,11.111754418,16.3426456455,1.4871312085000001
401,3.3415329999998,-1.430242151,-2.9548118115,-24.4427757,-0.711625576,1.2307293415,13.48926353,17.22636747,21.938699720000002,0.9899270754999999
402,3.349865999999565,-1.3030477765,-2.7728056905000003,-24.445121800000003,0.7334146795,0.1853499115,5.2164746525000005,13.525679584999999,21.723969455,-0.1726971865
403,3.358198999999331,-1.135678083,-2.675730467,-24.438262950000002,2.68275249,-1.7081104520000001,8.7921025775,18.333112715,11.571426395,0.7311781639999999
404,3.3665320000000065,-0.9761652944999999,-2.49915117,-24.439949050000003,-2.3905982375,-0.1074749975,9.775451898,17.413721085,21.07438183,-0.1736713645000001
405,3.3748649999997724,-0.8422774675,-2.4213284255,-24.436275450000004,4.052987814,-0.7846871314999999,9.5282640455,14.31022835,9.260969879,0.2638327480000001
406,3.3831979999995383,-0.7041795515,-2.331439197,-24.4347038,-1.8387388885,-2.176420689,8.616091249,14.835064410000001,10.683891294999999,0.016284227500000026
407,3.391530999999304,-0.5591273535,-2.24526453,-24.427684799999994,2.124906719,0.6495952585,12.759624955,15.686057564999999,10.24620867,0.592777565
408,3.39986399999998,-0.46581195300000006,-2.17320925,-24.433364849999997,-1.8109036685,-0.948787659,7.856896877,9.430419208,8.550840019999999,-0.8966966869999999
409,3.408196999999745,-0.3314045595,-2.1016150115,-24.426086399999996,3.2225813865,-2.7300185565,9.833173753,14.400941849999999,8.5047993645,0.5672850759999999
410,3.416529999999512,-0.2767083945,-2.122936189,-24.428245549999993,-0.816439569,0.09525135149999997,6.942316055499999,4.812088728,-2.655971944,-0.6078386305
411,3.424862999999277,-0.21790523850000001,-2.012405276,-24.412536600000003,1.0892215964999998,-1.760380693,10.470444681,5.357685566,13.178659435,1.578906536
412,3.4331959999999526,-0.1880711465,-2.007010877,-24.4142685,-0.6272187829999999,-0.9390928745,10.475235464499999,1.8255265354999999,0.5522747634999999,-0.5773576515000001
413,3.4415289999997185,-0.1651981325,-2.0235331655,-24.397613549999996,2.967357278,-0.40979349600000003,9.527680395,1.0643802285,-2.0764498115,1.6806268095
414,3.4498619999994844,-0.11124141500000001,-1.9799706935,-24.40865325,-2.7410610914999998,0.022679031000000016,10.3645007635,4.6781457665,5.1409049035,-1.6892331839999999
415,3.45819500000016,-0.12760077400000003,-2.0071105955,-24.3865738,2.348672092,-2.547883153,8.264719961,-3.6087703705000003,-3.3605878355,2.3016569615
416,3.4665279999999257,-0.12172836100000003,-1.998783469,-24.399360650000006,0.18806761500000002,-0.1465628295,11.476873637499999,-1.107789993,0.9161250000000001,-1.8509999515
417,3.474860999999692,-0.1848712565,-2.0508265495,-24.375682800000007,0.1781510114999999,-1.4490141275,9.78009963,-9.2146449085,-6.3511394249999995,2.440165818
418,3.483193999999457,-0.21786548149999999,-2.054803073,-24.379756899999997,0.547977939,-1.7084375024999998,8.6539926535,-5.73803699,-0.5563473704999997,-0.7929590639999999
419,3.491527000000133,-0.3057005555,-2.038592398,-24.367733,-0.009709030499999993,-0.36283862600000005,9.835645677,-12.226533889999999,1.8410422805,1.0509586185
420,3.4998599999998987,-0.425801046,-2.140567243,-24.3758049,1.2763248455,-1.637450993,8.5598104,-16.219822885,-12.306569575000001,-1.335814506
421,3.5081929999996646,-0.49517912,-2.101552248,-24.3577881,-1.2632918505000001,-0.2851059285,11.597972865,-9.9758753765,4.5606666205,1.824777961
422,3.5165259999994305,-0.631718859,-2.1377211215,-24.363887749999996,-0.2861783245,-0.6859790685,7.6371445655,-18.177109715,-4.4129624365,-1.1244588515
423,3.524859000000106,-0.7267283275,-2.14733994,-24.355205499999997,2.4095804095,-1.1698192955,11.96937561,-13.100761890000001,-1.264286518,0.704795152
424,3.533191999999872,-0.8290590495000001,-2.1909266709999997,-24.3524933,-2.286393404,0.838760249,7.3383688165,-14.028869155,-5.3169082395,-0.1489917335
425,3.5415249999996377,-0.917348787,-2.181024253,-24.349662799999997,2.0467338114999998,-1.9197894629999999,9.688349009500001,-12.316497805000001,1.083290115,0.023244917500000017
426,3.5498579999994035,-1.019140303,-2.163353324,-24.3438492,-1.7079433500000003,0.642668724,9.874426721,-13.960361005,2.03447485,0.385500669
427,3.558191000000079,-1.173579365,-2.2401772145,-24.35047914999999,2.2178431450000002,-1.2868779895,11.065951583999999,-20.297050475,-9.3016731765,-1.3463806215
428,3.566523999999845,-1.21495834,-2.190177858,-24.338413250000002,-2.128000073,-0.197637379,9.8622231505,-6.666348696,5.8803636445,1.2703765630000001
429,3.5748569999996107,-1.320984423,-2.199238122,-24.3529129,1.576297417,0.029150173,6.448317556,-14.525272845,-1.1458971499999997,-2.180181861
430,3.5831899999993766,-1.4360428155,-2.2767463325,-24.3496666,0.1770714415,-1.920277953,12.85741758,-15.55290508,-9.39321828,-0.12216061350000001
431,3.591523000000052,-1.5163606705,-2.240318179,-24.361347199999997,0.10762506699999999,0.751039818,9.95579338,-11.432441709499999,4.309282094499999,-1.6820230484999998
432,3.599855999999818,-1.5949541329999999,-2.282816708,-24.360923750000005,0.4260013105,-1.223052263,8.8470499505,-11.191193102,-5.182297945,-0.4237811564999999
433,3.608188999999584,-1.6664642095,-2.338315189,-24.3862915,2.1879702475,0.05989858500000003,8.5433202985,-10.453504559999999,-6.659587740499999,-3.5480076074999998
434,3.6165219999993496,-1.7592071295,-2.368475616,-24.389026649999998,-3.1251680255,-0.6299602985,12.0109648695,-12.8862414375,-3.7059831615,-0.784967478
435,3.624855000000025,-1.8049780725,-2.3998728995,-24.413353,2.8944340945,-0.492802605,8.392458916,-7.3671023825,-3.7611303329999997,-3.3675547835
436,3.633187999999791,-1.8520992395,-2.426119864,-24.416866299999995,-1.1443876325,0.1600756645,7.2376075995,-7.422409773,-3.2264010905,-0.8635263145
437,3.641520999999557,-1.9085466264999997,-2.5309992435,-24.435123449999992,0.8361810375000001,-0.449348643,12.101508145,-8.617385863500001,-12.595419648,-3.006894231
438,3.6498539999993223,-1.932207763,-2.432068944,-24.43516919999999,-2.1027020215,-1.2624179725,7.6646213535,-4.5894065500000005,11.770486832,0.082830146
439,3.658186999999998,-1.9837844370000002,-2.5304220915,-24.44871905,2.5020367500000003,0.017766267000000002,12.1741318705,-8.0259792805,-11.812828423000001,-2.4350690545
440,3.666519999999764,-2.0170713659999997,-2.4546923635,-24.448040000000006,-2.7875288725,-1.0221599675,8.662680745,-5.7316851615,8.9791678205,0.14183887850000004
441,3.67485299999953,-2.0618980525,-2.4351368545,-24.462120050000003,-0.05246014900000001,0.7272601125,11.149085043,-7.203888893499999,2.3218479135,-2.0419412255
442,3.683185999999296,-2.069584012,-2.333396971,-24.462894449999993,0.1760132905,-0.29676312200000005,6.8729929925,-2.664892435,12.1013073935,0.04387104499999994
443,3.691518999999971,-2.1279480455,-2.300089419,-24.476303099999996,0.44892755149999997,-2.4855523105,9.680984020499999,-8.8408956535,3.9851603520000003,-1.9121285675000002
444,3.699851999999737,-2.159431696,-2.161868751,-24.467269899999998,-0.556885913,0.06852223750000001,11.573103428,-5.4699853655,16.42640114,1.430152133
445,3.708184999999503,-2.2006890175000002,-2.051174462,-24.48788835,0.12696963549999996,-0.0057993974999999975,8.345484494499999,-6.81538558,13.2988252615,-2.3623116315000003
446,3.716517999999269,-2.2293927069999997,-1.947489262,-24.480728149999997,1.1104962045,-2.1499371529999998,9.164340048500002,-5.146573067,12.287683725499999,1.0882084965
447,3.724850999999944,-2.298993886,-1.8344037535000002,-24.491538999999996,-0.08962449449999998,-0.07023584800000005,12.99547243,-10.184549807,13.55499983,-1.1900501255
448,3.73318399999971,-2.319385469,-1.706166327,-24.476654050000008,0.32183163800000003,0.13680395449999994,9.9996781335,-4.117610097,15.189431666,2.0791723725000004
449,3.741516999999476,-2.3150159125,-1.564801902,-24.482578250000003,-0.4718325435,-0.666907961,10.18952751,-1.2714458705,16.911048415,-0.43090170650000004
450,3.7498500000001513,-2.3409471515,-1.441646993,-24.475421899999994,0.820810899,-1.437228918,8.0690550205,-4.8027598265,14.6088910095,1.20844841
451,3.758182999999917,-2.3957782389999998,-1.3184682725,-24.480888400000005,1.2139710785,-1.04815571,14.250603675,-8.389138462,14.741613864999998,-0.44969022300000017
452,3.766515999999683,-2.427955508,-1.203934267,-24.494155899999996,-2.1256828309999998,-0.37863939999999996,10.393410681,-5.605074286,13.676698205000001,-1.3450486659999998
453,3.774848999999449,-2.4050297735,-0.9929623755,-24.497142799999992,1.747657776,-0.7696548400000001,9.3386299625,0.9434694055000001,25.256957055,0.34075343599999997
454,3.783182000000125,-2.482200265,-0.9742415695,-24.5132866,-0.5307582765,-1.041111022,10.7873257385,-10.988258365,2.1942498985,-2.2066028115
455,3.7915149999998894,-2.53696686,-0.6872741579999999,-24.514827700000005,1.1259133815000002,0.005929172000000038,10.1396708485,-8.3938324445,34.373010635,0.963576555
456,3.799847999999656,-2.5949138405,-0.777388614,-24.536315950000002,1.5286093205000002,-1.4360461235,10.851667880499999,-8.696047306,-10.812948702,-3.383679803
457,3.808180999999422,-2.5994520185,-0.4555592835,-24.540431999999996,-1.77221778,0.300379269,8.2900576605,-2.338403344,38.54449272,0.8770141005
458,3.8165140000000974,-2.6715184450000002,-0.5023459044999999,-24.567462950000007,3.450109601,-1.8095590475,10.462905169499999,-10.402045964,-5.575639069,-3.772901118
459,3.8248469999998633,-2.7255645995,-0.29272770849999996,-24.57067870000001,-2.572774112,-0.9096259025,14.833179476000002,-8.251310825500001,25.070054055,0.39647692450000005
460,3.833179999999629,-2.749364495,-0.237957582,-24.6077309,1.7326266165,-0.17069131149999994,11.419661995,-4.6298366785,6.685200541,-4.4213242535
461,3.841512999999395,-2.7724055055,-0.034301311,-24.612285649999997,-2.0597736835,-0.548025161,14.431457995,-4.508991301,24.34603977,0.22661553299999998
462,3.8498460000000714,-2.822455168,0.0010187025000000238,-24.644111649999992,3.392769575,-0.147757083,10.587925195999999,-7.778806925,4.3382199985,-3.8766056300000002
463,3.858178999999837,-2.8825279475,0.1388856765,-24.647201499999994,-0.954558611,0.273639083,9.789366422,-8.947163582,16.44833374,0.038818240000000004
464,3.8665119999996014,-2.9153165815,0.2812878935,-24.682914750000002,2.31593433,-1.8818784955,7.488709854,-5.6873860955,17.201375487,-3.6799858810000003
465,3.874844999999368,-2.911328554,0.316675693,-24.67168424999999,-1.324526578,-1.42133379,20.687839985,-1.2659774424999999,4.0819311119999995,1.1047933995
466,3.883178000000044,-2.8676582575,0.49438816300000005,-24.717567449999997,0.7939635220000001,1.940779209,10.931349398999998,3.524673015,21.485110284999998,-4.7256684305
467,3.8915109999998094,-2.9019984005,0.397413343,-24.7082787,3.5686157940000003,-1.468943238,10.5210970645,-5.8762334585,-11.768764495,0.19824136049999996
468,3.8998439999995753,-2.907030463,0.6247920950000001,-24.7505722,-2.1875597239999998,-0.9433747530000001,9.5679897065,-2.3187812865,27.42530632,-4.0361654755
469,3.908176999999341,-2.8680876495,0.5557900595,-24.737628899999997,3.2883439064999997,-0.6012192670000001,12.975605486500001,2.90862447,-8.437943457500001,0.8183235825
470,3.9165100000000166,-2.8118443490000002,0.652353946,-24.750991799999994,-3.039086163,0.52055338,15.014611242,5.008147478,11.5709911585,-1.4495225550000002
471,3.9248429999997834,-2.810526371,0.690048105,-24.741306299999998,3.7945804594999997,-1.8589974640000002,6.907380862,-1.606493354,4.3675425035,1.1442136465
472,3.933175999999549,-2.784035206,0.633588817,-24.736026799999998,0.6568607685,0.11736768450000001,9.571251630999999,1.4244909585,-6.8884624265,-0.0777968205
473,3.941508999999314,-2.7340869899999998,0.766396154,-24.74155044999999,-0.368230343,-1.0664553345,10.8691797235,4.2595334645000005,15.855253695000002,-0.215358019
474,3.9498419999999896,-2.682933211,0.591003444,-24.744400049999996,3.1633260844999995,-2.4266302585,17.107695105,4.389423609,-21.090934755,-1.7129526139999998
475,3.958174999999756,-2.624863386,0.702029094,-24.756801600000003,-2.5537900925,0.440325491,11.6995511045,5.2437091765,13.28540325,-1.2556741535
476,3.9665079999995214,-2.6452050204999997,0.549062751,-24.76670075,3.8396203515,-1.3996474145000002,7.1231555945,-4.182472586499999,-18.3701396,-2.3151943685000003
477,3.9748409999992873,-2.6746132375,0.5944174975000001,-24.768745399999993,-3.0993066430000002,-0.938684195,12.792564868,-5.2723836895,5.3592916785,-0.3925189525
478,3.9831739999999622,-2.6867792605,0.4434475375,-24.776237500000008,6.5408961770000005,-0.545356631,5.297802508,-3.21399948,-18.13860321,-1.9894326329999998
479,3.991506999999729,-2.6755576135,0.3514467325,-24.787372599999998,-3.471651256,-0.7121471465,11.597013951,-0.3739038855,-11.0639826075,-2.2886063755
480,3.9998399999994954,-2.6932706834999998,0.2508150935,-24.7914047,4.0075935125,-2.060358107,7.388609767,-3.885322154,-12.122209190500001,-1.311448902
481,4.00817300000017,-2.7401145700000002,0.13330888749999997,-24.810539249999998,-2.450689733,0.05782768100000002,13.77487993,-7.3374814985,-14.0807886135,-3.3634311555
482,4.016505999999936,-2.7697892189999997,-0.050177335499999975,-24.809391050000002,4.7960101365,-0.744347021,10.534065725,-5.3495228295,-22.060168265,-1.2217155695000002
483,4.024838999999702,-2.783210397,-0.2056423425,-24.823913550000007,-2.825492382,-1.1351010795,10.054991247,-3.326906204,-18.66609955,-3.017991394
484,4.033171999999468,-2.854422092,-0.38457863049999996,-24.815010049999998,2.787979722,-1.5979443789999999,8.0160577295,-10.322004077999999,-21.559692384999998,-0.34638774400000005
485,4.041505000000143,-2.9342519045,-0.5853914745000001,-24.817382849999994,-0.10640394649999996,-0.8409936055,12.0548756145,-11.3010067925,-24.167621615,-1.7922103999999999
486,4.049837999999909,-3.0008237365,-0.7945300565,-24.816005749999995,-0.11613124600000002,0.2717624455,10.344139216999999,-9.758210656500001,-25.13607502,-1.5516673029999999
487,4.058170999999675,-3.0515682694999997,-0.9057984944999999,-24.827735899999993,-0.4571975469999999,-1.9951061009999997,5.2185760725,-7.822897671,-13.381484269,-2.3746403454999996
488,4.066503999999441,-3.1657673125,-1.1214176715,-24.83428955,2.190156788,-1.0283297745,14.443919183,-15.48613596,-25.860195159999996,-2.598976955
489,4.074837000000116,-3.277146101,-1.329275161,-24.859058399999995,-1.3487654629999999,-0.260594606,12.541796923,-15.15290642,-24.84432888,-4.6889842745
490,4.083169999999882,-3.316615939,-1.4042562245,-24.864978800000003,0.5388111435,-1.075335592,6.7912973165,-6.5242288115000004,-9.0089126225,-1.640457705
491,4.091502999999648,-3.4064307215,-1.6097411515000002,-24.89059065,-1.1768924145000002,-0.4100681965,11.493303658,-12.569213865,-24.554059025,-4.835030436499999
492,4.099835999999414,-3.5107547045,-1.6704334914999999,-24.89503095,1.9373441045,-0.049924790500000094,12.251317505,-14.3236603715,-7.2938814139999995,-1.357222915
493,4.108169000000089,-3.5909686085,-1.8751848940000002,-24.926029200000002,-2.556627512,0.14917004100000003,9.862298609,-11.466052529999999,-24.398561475,-5.563018441
494,4.116501999999855,-3.6075941325,-1.8402023915,-24.92824935,1.5812224745,-0.22965532500000002,4.597067475,-3.770761609,4.1322039365,-0.33719220750000006
495,4.124834999999621,-3.6583569049999998,-1.9917328355000001,-24.953155550000005,-0.7649735325,-1.231648989,12.624081137,-7.928160073500001,-18.05654335,-4.4411002395
496,4.133167999999387,-3.650604725,-1.9045788049999999,-24.951362650000007,-0.6433210745,0.241262104,19.22126198,-0.80697009,10.335499045999999,0.483494341
497,4.141501000000062,-3.5964387655,-2.0617753865,-24.970546700000007,1.508750051,1.8567075725,12.57899618,4.6551981565,-18.757404805,-3.7852478025000003
498,4.149833999999828,-3.5399683714999997,-1.96589005,-24.976188650000005,-0.8784269395,-1.467161924,6.3586313715,5.008006215,11.434438705,-0.340522125
499,4.158166999999594,-3.4723058940000002,-1.9656370875000002,-25.008216849999997,0.899218902,0.595166899,13.3104495995,6.238295555,0.17554080449999998,-4.1433330774999995
500,4.16649999999936,-3.372113585,-2.045713484,-24.989784199999995,0.8745747505000001,0.22346869099999997,16.4009928695,10.359269617999999,-9.8167995235,1.2594010235
501,4.174833000000035,-3.2371106144999997,-1.8998355865,-25.03146745,-1.2768000659999998,-1.247300297,8.1569185245,14.262557985,17.68490219,-4.259284139
502,4.183165999999801,-3.104002118,-1.980712414,-25.011280049999996,3.08659631,-1.0709432365,18.72781134,14.325958255,-9.923239948,1.3949968145
503,4.191498999999567,-2.973040342,-1.9432640675,-25.05339815,0.33408814649999996,0.7829435915,11.84819174,13.773135665,4.679203746,-5.0727722645
504,4.199831999999333,-2.7934352159999998,-1.9506599304999999,-25.05502705,0.22109559199999998,-1.838820219,14.4130039195,19.81622982,-0.9802627564999997,-0.6728798749999999
505,4.208165000000008,-2.6612244845,-1.9826579095,-25.088756599999996,1.7473834455,-1.7080143095,9.804255188499999,13.94405937,-3.704913498,-4.4915206435
506,4.216497999999774,-2.5371479985,-1.9031657575,-25.1099777,-1.2195211049999999,-0.350420557,17.30005121,13.098771095,9.520757197,-2.5306875705
507,4.22483099999954,-2.425284982,-2.001930952,-25.138958000000002,3.7612395285,-2.1545329095,11.3532114015,11.506685255,-11.736843348999999,-4.256369263
508,4.233163999999306,-2.2668667435,-1.9250900149999999,-25.131317149999994,-2.2039372325,-1.1591234205,16.499314785,17.335029605000003,9.053880304,0.8568918704999999
509,4.241496999999981,-2.188070774,-2.039123237,-25.14487835,3.85497725,-0.7988073069999999,9.8592485485,7.615459444,-13.671656132,-2.3782051259999997
510,4.249829999999747,-2.0831119415,-2.028636932,-25.12596895,-3.62533474,-0.8877238635,19.760046485,10.952404025,1.065699575,1.8607653379999998
511,4.258162999999513,-2.0142390135,-2.0982009175,-25.110069250000002,4.6356372834999995,-1.2750992774999999,10.881540298,6.560638429000001,-8.481739642,1.3693308380000002
512,4.266495999999279,-1.9185200335,-2.216167867,-25.11142735,-3.2346822025,-0.08516043400000001,20.522429465000002,9.761846544,-14.252551200500001,-1.1010981795
513,4.274828999999954,-1.874409497,-2.2006026505,-25.0932388,6.336473703,-4.65760684,14.747827055,3.5932674405,1.7324378505000002,1.9800382404999999
514,4.28316199999972,-1.873002827,-2.5053200125,-25.107990249999993,-1.1125698685,0.23712381749999994,21.790413855,-1.6227604805,-36.598728179999995,-3.3722837865
515,4.291494999999486,-1.844514072,-2.4362387655,-25.072917950000004,1.3060781655000002,-1.234079495,13.861633774999998,1.825981021,8.081497430999999,4.1656820775
516,4.299828000000161,-1.897720158,-2.749037981,-25.077411649999995,2.426282823,-2.761138618,11.461838485000001,-8.1360003945,-37.60516357,-2.1044297365
517,4.308160999999927,-1.9797133805,-2.8166285755000002,-25.034194949999993,-1.535430998,-1.6037285925,12.939446929999999,-11.344354153000001,-8.361358166,4.552059889
518,4.316493999999693,-2.0705847139999998,-2.9546569590000002,-25.040698999999996,-0.6551665065000001,0.49906194200000004,12.57723236,-12.6971859915,-16.610297680000002,-1.6805248855000001
519,4.324826999999459,-2.18983829,-3.0805152655,-24.9789429,2.9025882185,-4.960856676500001,17.229619030000002,-15.662013055,-15.45986271,6.451050520000001
520,4.333160000000135,-2.32160002,-3.2527378799999997,-24.995342250000007,-0.5881584135000001,-2.1416094305,21.083283424999998,-17.670785905000002,-20.658662794999998,-3.1449433565
521,4.3414929999999,-2.4565979245,-3.340994358,-24.949470549999994,0.9757767464999999,0.24022424250000007,20.33869171,-17.616214274999997,-10.90894556,4.695968151
522,4.349825999999666,-2.60009253,-3.4390492435,-24.9844017,-2.121125519,-0.4575259685,13.780914785,-19.23001957,-11.649647235,-5.0265467165
523,4.358158999999432,-2.740932941,-3.5319595335000002,-24.952396400000005,1.1410717410000002,-0.39220464250000003,9.226210594000001,-18.40025711,-11.415815355500001,2.9343234305
524,4.366492000000108,-2.9077749255,-3.6330771444999996,-24.9696808,-0.17103290550000005,-0.8897460104999999,10.7604155565,-21.92084026,-12.088746545,-3.0311133865
525,4.374824999999873,-3.02529645,-3.6909705400000004,-24.93987275,0.9758802655000001,-0.643887982,15.513685225,-15.61253309,-7.217221975499999,2.836085498
526,4.383157999999639,-3.0807070735,-3.735760689,-24.937007899999998,0.38578890099999996,-0.796702236,18.19014263,-8.3841552715,-5.4679870605000005,-0.300435774
527,4.391490999999405,-3.10343647,-3.7414370774999997,-24.925529500000003,-0.3028220534999999,-0.928576887,19.64807892,-4.3641149995,-0.8562838435,0.9799171979999999
528,4.399824000000081,-3.1338131430000002,-3.7491121290000002,-24.942489599999995,0.22698808450000002,1.77677989,17.881370545,-5.5402185919999996,-0.888884321,-2.4177407029999998
529,4.4081569999998464,-3.151163459,-3.7660319805,-24.943504349999998,1.0107267945,-1.1927741765,14.491745474999998,-3.8315254449999996,-2.1130594615,-0.592809424
530,4.416489999999612,-3.1454027890000003,-3.7632771729999996,-24.956516250000007,-0.3040940425,-0.16565813149999997,13.06489706,-1.1769546269999998,0.33889555949999994,-1.9744605425000001
531,4.424822999999378,-3.169147491,-3.7318958044999997,-24.960701,1.067549344,-0.510920137,13.769650460000001,-4.625034094,3.695596099,-0.6546806805
532,4.433156000000054,-3.191920638,-3.678483486,-24.970268250000004,-0.2180197015,-2.4414371255000002,15.99863577,-4.562829971,6.375101089499999,-1.1501943465000002
533,4.44148899999982,-3.210723996,-3.633152485,-24.972682950000006,0.416191235,-1.3767701685,14.735691070000001,-4.0181822775,5.35579586,-0.33515585950000004
534,4.449821999999585,-3.2419499160000003,-3.5963094235,-24.970821400000005,-0.21655917150000004,-1.6117548345000001,14.561718939999999,-5.491077602000001,4.3165621755,0.1271554825
535,4.458154999999351,-3.2928996085,-3.576817751,-24.968727100000002,0.818227999,-2.1635352375,16.5551095,-7.8410298815,2.228784323,0.03147348750000001
536,4.466488000000027,-3.318053484,-3.53887856,-24.965793599999998,1.02913706,-0.24932593099999995,19.20582962,-4.759919047,4.444914818,0.2535360155
537,4.4748209999997925,-3.3373599055,-3.485827565,-24.953052550000002,1.2339085565,-0.607327044,19.018908505,-3.973408103,6.180381775,1.5408883095
538,4.483153999999558,-3.3616172075,-3.3882676365,-24.93323515,-0.9251509904999999,-1.4759141205000001,17.904118065,-4.517692329,11.453841685,2.710511446
539,4.491486999999324,-3.3940404655,-3.2932446005,-24.935352300000005,-0.7101175185,1.414898783,12.41106272,-5.6626744884999995,11.317049025,0.06908799750000001
540,4.49982,-3.4476430415,-3.1978617910000002,-24.908870699999994,1.5149823424999997,-0.9374115165,9.8349604625,-8.0052561785,11.14380741,3.5356230735
541,4.508152999999766,-3.510051489,-3.1137951615,-24.919765450000007,0.700322822,-3.63163352,11.009746074999999,-9.303385257,10.055419923,-1.0526428075
542,4.516485999999532,-3.5692131519999997,-3.0514537095,-24.916423800000004,2.075945914,-0.7034015204999999,15.389808655,-8.829560757,7.352068186,0.4515406045
543,4.524818999999297,-3.5947499275,-2.9495139125,-24.938625300000005,0.10428792249999996,-1.1591044965,17.63879299,-4.9558369825,12.2911334,-2.2485587595
544,4.533151999999973,-3.5881456135,-2.8542143105,-24.947624200000007,-1.0750313400000002,-1.398848802,18.60872364,-0.9963618214999999,11.376487735000001,-0.707241088
545,4.541484999999739,-3.5918312075000003,-2.746394336,-24.982768999999998,-0.384096235,2.1380856035,19.48112154,-2.4177281855,13.103963375,-3.7557903525
546,4.5498179999995045,-3.6288868185000003,-2.642770171,-24.991260499999996,1.0273728665,-1.2183207870000001,16.54954672,-6.2370412495,12.374149325,-0.613787666
547,4.55815099999927,-3.665033698,-2.545399368,-25.008152000000003,1.574307736,-1.9815363135,12.723840235,-6.193440376,11.71553707,-1.637307018
548,4.566483999999946,-3.721406102,-2.4395973085000002,-25.019100149999993,0.8288681955,-0.6840186564999999,10.926977635,-8.5604195595,12.65112972,-0.8861694630000001
549,4.574816999999712,-3.7841113804999997,-2.345701575,-25.032497399999997,1.120141819,-1.9893872140000002,13.78273964,-9.3677670965,11.281022069999999,-1.206898034
550,4.583149999999478,-3.8091629745,-2.2355138065,-25.028316499999995,-0.44245311600000004,-1.614569485,15.671391965,-4.716260016,13.044692515000001,1.1305292245
551,4.591483000000153,-3.812376499,-2.1416310075,-25.04110335,0.7618113605,1.141961813,16.0919075,-2.214081854,11.271263125,-1.133859016
552,4.599815999999919,-3.8255363705,-2.061600089,-25.037601450000004,0.6859411599999999,-1.0391208900000002,15.432436465,-3.3107685145,9.4614253025,0.555464059
553,4.608148999999685,-3.819603443,-2.0006490945,-25.037063599999996,1.4738885160000001,-0.526005447,13.813316825000001,-1.058014989,7.224598408,0.20422881849999996
554,4.616481999999451,-3.791936636,-1.908839166,-25.043163300000003,-0.42265135049999997,1.519123107,11.543380735,1.5609635114999998,10.930990695,-0.31260263899999996
555,4.624815000000126,-3.7561703919999996,-1.7984215620000001,-25.040031399999997,0.8537944854999999,-2.133434296,11.79794359,2.532620668,13.12663221,0.9020630865000001
556,4.633147999999892,-3.709007978,-1.71254614,-25.040443400000008,1.5273817775,-0.992699318,12.710435865,3.9155842064999997,10.190290929,0.12492704399999999
557,4.641480999999658,-3.6640503405,-1.6591118275,-25.0350685,0.8058938085,-0.471510634,14.01359272,3.6511172055,6.2828137875,0.7136960475
558,4.649813999999424,-3.6080200675,-1.540014416,-25.035972599999994,-0.515424058,-1.8085634705,14.08780575,4.980509281,14.1551075,0.6626850965
559,4.658147000000099,-3.569953203,-1.442480773,-25.024059300000005,1.5529251695,-0.422612425,13.283567905,2.839831412,11.516078945,1.840222895
560,4.666479999999865,-3.5574764014999998,-1.397533089,-25.0174942,0.9422279444999999,-1.3590789585,11.84978199,-0.231418252,5.235101461499999,0.815736577
561,4.674812999999631,-3.529722929,-1.291885674,-25.0029259,-0.38001546249999996,-1.4445719719999999,11.979552745,1.620164752,12.460611345,2.1668367385
562,4.683145999999397,-3.5197550055,-1.1989971995,-24.992713900000005,1.062446445,-0.27880327,12.67712116,-0.5349789505,10.9667358375,1.4569122195
563,4.691479000000072,-3.532268405,-1.182618529,-24.97587200000001,1.533097565,-1.941255629,12.92794752,-3.2009344100000003,1.7444063425,1.7835704090000002
564,4.699811999999838,-3.5247045755,-1.076994881,-24.96887205,-1.413522363,-1.069789231,12.835790635,-0.8417094645000001,12.517870425,1.282338515
565,4.708144999999604,-3.549015045,-1.0197600869999999,-24.948833450000002,2.13703835,-1.1120137575,12.515542509,-4.615454674,6.6124813555,2.491317451
566,4.71647799999937,-3.589225292,-0.9997804765,-24.935733799999994,0.01575011000000004,-0.807854712,12.69097948,-6.564064264000001,2.2141010165,1.359302655
567,4.724811000000045,-3.612637639,-0.8775943369999999,-24.927776349999995,-0.9504439570000001,-1.3238781689999999,11.72882128,-4.5316586495,14.47745037,1.520743072
568,4.733143999999811,-3.6677806375,-0.862383969,-24.902446749999996,2.7761210204999998,-2.6551002265,11.197968485,-8.3397653105,1.546702802,2.8155937195
569,4.741476999999577,-3.7288724185,-0.7876189855,-24.890563999999998,-1.453924358,-0.11924607499999999,14.19809723,-9.0449004175,8.7650129775,1.6239681990000001
570,4.749809999999343,-3.7898424859999995,-0.691475412,-24.8716316,1.9202784895,-1.7343878744999999,11.394252775,-9.056721687500001,11.2856216425,2.6437610385
571,4.758143000000018,-3.8706843854999997,-0.7128912024999999,-24.859786999999997,0.6413765175,-1.1369209885,11.69409847,-11.422887325000001,-2.751404613,0.8782994985
572,4.766475999999784,-3.9298462865,-0.5718994065,-24.841003400000005,-0.11132356550000005,-0.565616876,11.2586236,-8.829972743999999,16.640561105,3.0241070985
573,4.77480899999955,-4.025251985,-0.5898820385,-24.835876500000005,2.2653362755,-0.8438096645000001,11.144727468,-13.190206055,-2.286064744,0.1566118005
574,4.783141999999316,-4.0980362894999995,-0.533316165,-24.818286899999997,-1.2117917535,-0.84071666,11.287190437,-10.471305846,6.5376763350000004,2.1795668005
575,4.791474999999991,-4.1701490880000005,-0.43022583400000003,-24.819210049999995,0.9327558945,-1.2102796439999999,9.6326203355,-10.405388355,12.2589762185,0.4786789605
576,4.799807999999757,-4.273276924999999,-0.44969901450000005,-24.805309300000005,0.674912408,-0.759748012,13.09060764,-14.111576555,-2.5456008615,1.1258611680000001
577,4.808140999999523,-4.3339860439999995,-0.2685447785,-24.817813849999993,-2.074859142,-0.991584033,11.754263642,-9.047554493,21.704578400000003,-0.1925102545
578,4.816473999999289,-4.424973607,-0.28236155249999995,-24.803874949999994,3.567746639,-1.4384804365,9.159957885999999,-12.661987785,-1.8755514285,1.216394484
579,4.824806999999964,-4.492879629,-0.153534591,-24.808891300000006,-2.512522936,0.39366927,12.904162885,-9.906245234,15.381648065,0.213373117
580,4.83313999999973,-4.5659874675,-0.08876588950000003,-24.8006744,3.57996738,-1.678402901,9.10203767,-10.5271973615,7.5752592065,1.297335833
581,4.841472999999496,-4.624797582499999,-0.069279641,-24.795578,-1.361095965,0.1315978505,13.903440955,-8.8055348395,2.2005639075,0.400248103
582,4.849806000000172,-4.667263269499999,0.10083308800000002,-24.796112100000002,0.3168702725,-0.808883518,9.986071588000001,-6.8492882255,20.258319855,1.2781381605
583,4.858138999999937,-4.7337126734999995,0.07800880100000002,-24.786491399999996,1.6358048915,-0.48655929800000003,12.305339335,-9.72413826,-2.910596848,0.5599656705
584,4.866471999999703,-4.762691021,0.285070747,-24.796566,-1.6470178665,-0.6739022434999999,10.8116590985,-5.2299683095,24.776714325,0.4848520905
585,4.874804999999469,-4.816749572999999,0.2675110695,-24.789855949999996,4.006717682,-1.8072549105,10.120531082,-8.24108696,-2.256134272,0.31274344750000005
586,4.8831380000001445,-4.8270151615,0.3598210365000001,-24.787700650000005,-1.8636792899999999,0.9676052035,12.690897464999999,-2.9875166415,10.9309673315,0.7881885765
587,4.89147099999991,-4.8524935245,0.396863371,-24.780128500000004,3.5348508355000003,-1.239524305,7.70689374,-4.815924406000001,4.262625636,0.9955357165000001
588,4.899803999999676,-4.863349676,0.401303783,-24.76667785,-1.55941616,-0.391364038,12.929652450999999,-3.072472811,0.31308293350000005,1.251185119
589,4.908136999999442,-4.856506348,0.5410111400000001,-24.76929475,1.212640107,-0.7591994405,8.470489502,-0.9269153255,16.640522005,0.8162874765000001
590,4.916470000000118,-4.8760678765000005,0.4776470515,-24.757610349999993,1.1477749645,-0.871018857,12.332541465,-4.116611241999999,-7.7809071549999995,0.375178099
591,4.924802999999884,-4.8454976080000005,0.6182374765,-24.7567825,-0.9580361249999999,-0.19937085000000002,10.015808581,1.925985873,16.70686197,1.202351642
592,4.933135999999649,-4.8317844865,0.525711171,-24.743190749999997,3.4839978215,-0.5647612955,10.1531126505,-0.13415457349999999,-11.286209110000001,0.3537774455
593,4.941468999999415,-4.7726473810000005,0.6401357425,-24.743236500000002,-2.317503333,-0.36287868,12.701738833,5.354977488499999,13.59414339,0.7603330555
594,4.949802000000091,-4.756211995999999,0.573869504,-24.739589700000003,4.510272384,-1.2256941795,9.8248627165,0.20004081699999998,-8.042601226,-0.5195783565000001
595,4.9581349999998565,-4.6948018075,0.589794852,-24.745861050000002,-2.5604457855,0.617301494,13.470786092,5.642784357,1.8723504545000003,-1.0047826094999999
596,4.966467999999622,-4.6309651135,0.5595474095,-24.741260549999993,3.8673684594999997,-1.3131032585,7.3221551179999995,5.8877332209999995,-3.744455576,-0.020901218
597,4.974800999999388,-4.5560144185,0.499881387,-24.739349349999998,-2.210666895,0.0604989855,13.483988762500001,7.2505722045,-7.241645693500001,-0.7576564405
598,4.983134000000064,-4.481316328,0.5525516865000001,-24.740627249999996,1.935665846,-1.546128452,9.051202298,7.205425739500001,6.226129846,0.064182883
599,4.99146699999983,-4.415196657,0.40839527550000004,-24.736576099999994,0.8910050389999999,-0.46066997600000004,12.872616295,6.186800003,-17.36950445,-1.2497572300000002
600,4.999799999999596,-4.3108344075,0.461183496,-24.7411461,0.0945359469999999,0.08965918449999999,9.1591844555,10.778933044999999,6.262655854,-0.37659969950000005
601,5.008132999999361,-4.2395240065,0.26330737800000004,-24.739162449999995,2.446912527,-1.535910785,10.374709368000001,6.806820154,-23.781523705,-1.8738871810000002
602,5.016466000000037,-4.1315182445000005,0.3140487225,-24.74206920000001,-2.2407603265000002,-0.29535985000000003,12.636463166,11.211134435,6.009433508,-0.2606057
603,5.024798999999803,-4.050200820000001,0.1631018225,-24.741603849999997,3.1494540570000003,-0.834744245,9.639932157,8.005629063,-18.156847955,-1.5311042069999998
604,5.0331319999995685,-3.932192564,0.1550278665,-24.742382049999996,-2.42927742,-0.5244405715,12.563125132500002,12.419049739999998,-1.053327918,-0.553696558
605,5.041464999999334,-3.8379751445,0.05280631800000002,-24.739051849999996,4.034887314000001,-1.1882232130000001,8.163966537,9.553125379,-12.352801085,-0.7132541985
606,5.04979800000001,-3.7133512495,-0.06413027649999997,-24.733428950000004,-1.455172509,0.10233543050000002,12.6846899975,13.20647907,-14.132346629499999,-0.6622113885
607,5.058130999999776,-3.6012569665000003,-0.08892983200000004,-24.735626249999996,1.7072489265000002,-1.547075808,8.545686243,11.69738817,-3.0379892584999997,-0.7351222040000001
608,5.066463999999542,-3.509427905,-0.26131597149999997,-24.731708499999996,-0.258212745,-0.6948029105,14.235704900000002,9.275898457,-20.765681265,-1.2111118435000001
609,5.0747969999993074,-3.3936402795,-0.2222572565,-24.741558050000002,-0.08965972050000004,-1.0094034075,9.177664757999999,12.14267349,4.6604468820000005,-1.2217992245
610,5.083129999999983,-3.305310965,-0.42854712899999997,-24.733631099999997,2.0357313755,-1.2428636549999998,10.148563622,8.852170467499999,-24.85177803,-0.8598576485
611,5.091462999999749,-3.192929506,-0.401975438,-24.734844200000005,-1.4451490555,-0.181718659,9.916122913,11.740414144999999,3.1017561555,-0.33002030849999997
612,5.099795999999515,-3.1252452135,-0.5998243725,-24.72763825,2.724267304,-1.4280914665,10.226027012,6.3703155515,-23.83545589,-0.7667753245
613,5.1081289999992805,-3.0343344209999996,-0.5822720079999999,-24.728111300000002,-2.2701536415000003,-1.4174460175,11.8523612025,9.1723103525,2.010781676,-0.31971696000000005
614,5.116461999999956,-2.978672981,-0.7227303775,-24.724029550000004,3.1349772215000002,-1.3181271854999999,8.0653398025,4.9215137955,-16.93592453,-0.7044235225000001
615,5.124794999999722,-2.9066619869999997,-0.7327855714999999,-24.720901500000004,-1.588418633,-0.46887795299999996,10.989123339999999,6.906430482999999,-1.3154901265,-0.07240501050000003
616,5.133127999999488,-2.8602912424999998,-0.8787406235,-24.711284650000003,2.68846333,-1.3096568585,9.203386783500001,3.8136405945,-17.625967505,-0.03198561099999997
617,5.141461000000163,-2.807335138,-0.900953628,-24.709697699999992,-1.791165054,-1.0124726595,11.1698815845,4.625200987,-2.769827336,-0.326254964
618,5.149793999999929,-2.788984895,-0.985258773,-24.708663950000002,1.298271507,-1.163748741,8.98411584,0.4364986715,-10.183183907,-0.6913475095
619,5.158126999999695,-2.7656879425,-1.0097375365,-24.704914100000003,-0.1217710675,-1.1359226105,9.7389087675,1.064361155,-3.0520771745,-0.052285015499999976
620,5.166459999999461,-2.7411233189999997,-1.1079597475,-24.698150599999998,0.32253476999999997,0.163722435,10.518014435000001,1.205521509,-11.891590595,-0.09658491599999999
621,5.174793000000136,-2.7336877585,-1.103252456,-24.696414949999998,0.445570402,-1.8570354585,8.707229612999999,-0.8335000275,0.45220653699999996,-0.116935432
622,5.183125999999902,-2.7099331615,-1.169644952,-24.6871758,1.042161286,-0.6050707399999999,8.1864433285,1.1050877275,-8.082482814999999,0.36678931099999995
623,5.191458999999668,-2.7063484195000003,-1.2543133495,-24.672298399999995,1.37766695,-0.9129244089999999,8.2029995905,-1.2780991495,-10.323088169,0.9730080959999999
624,5.199791999999434,-2.714282751,-1.2505599855,-24.663196550000002,-1.399112105,-1.1938093900000002,10.928557870999999,-2.685895681,0.31919813149999987,0.7562601864999999
625,5.208125000000109,-2.7261403800000004,-1.2961432935000001,-24.654434199999997,1.621209085,-0.6156949695,8.45428252,-3.147118568,-5.601038694,0.4479929615
626,5.216457999999875,-2.73596549,-1.3633485435000001,-24.636886599999997,0.780150734,-0.842190385,8.193212032,-2.889401436,-8.2396390435,1.4746629
627,5.224790999999641,-2.7466361525,-1.39387089,-24.62690349999999,-0.903209716,-0.854309887,10.556068899,-2.9874391555,-3.8111931085,0.649852395
628,5.233123999999407,-2.775143504,-1.4153354169999999,-24.6185074,1.758693695,-1.028610796,7.02939558,-5.152854919,-2.705049515,0.5888329145
629,5.241457000000082,-2.779120207,-1.4535351395,-24.61424255,-0.633381389,-0.3165941235,10.8949584975,-2.211853385,-4.6892243030000005,-0.0755043475
630,5.249789999999848,-2.7991394995,-1.491218537,-24.618415799999994,1.007874556,-0.7607401014999999,9.15951252,-4.1644392015000005,-4.5789673324999995,-1.06328541
631,5.258122999999614,-2.8093013764999997,-1.5049258175,-24.625583650000003,0.4632052705,-0.5100971240000001,8.309702398999999,-2.987221837,-1.6881189945000001,-1.294978827
632,5.26645599999938,-2.80644393,-1.571300119,-24.623569500000002,0.277521271,-0.3032923075,10.3786993015,-1.4054403305,-8.050234318000001,-0.530944705
633,5.274789000000055,-2.798529029,-1.5404079849999999,-24.637725849999995,0.33183785149999995,-0.9417727885,8.0228073595,-0.8483627585,3.701282382,-1.8589402435
634,5.283121999999821,-2.7937955855,-1.606649458,-24.638095849999992,0.6426142899999999,-0.2568598315,9.623424055000001,-1.18268615,-8.024338722500001,-0.8014182894999999
635,5.291454999999587,-2.7719954255,-1.6113444865000002,-24.64390565,0.7401835025,-0.6032091230000001,9.287778618499999,0.833167076,-0.604387045,-1.046162203
636,5.299787999999353,-2.7218601705000003,-1.6299177710000001,-24.641448950000004,-0.327724248,-0.262604289,10.753233434,4.2786656615,-2.332822576,-0.1313818095
637,5.308121000000028,-2.690387607,-1.6485249695,-24.649902350000005,1.0449769795,-0.922548927,7.3521569065,1.9895215629999998,-2.2595983444999996,-1.481770575
638,5.316453999999794,-2.661471486,-1.6398847995,-24.652793899999992,-1.4962463975000002,-0.312947765,12.54709673,1.7241901044999999,0.956576407,-0.7631378475000001
639,5.32478699999956,-2.6308038235,-1.6496198175,-24.658576950000004,2.5961173175,-1.1413001715,8.3503289205,1.9056798815,-1.216983646,-1.0439017415
640,5.333119999999326,-2.5643579365,-1.656404376,-24.66666035,-0.32526141399999997,-0.24248114950000002,8.4012329585,6.201584339,-0.8618294,-1.34449777
641,5.341453000000001,-2.530156791,-1.6869195399999999,-24.670066850000005,1.3077386615,-1.086106807,7.9771465045,2.333482504,-3.720672667,-0.819770813
642,5.349785999999767,-2.4891056415,-1.611669004,-24.67749785,-1.570183307,-1.1809204815,11.850153924,3.1582354305,8.9679028985,-0.845686093
643,5.358118999999533,-2.4470620155000002,-1.6611969764999999,-24.679264100000005,3.204470515,-0.304201266,9.4574363255,3.2732687589999996,-6.0008900165,-0.801194027
644,5.366451999999299,-2.3937850595,-1.639052212,-24.682266200000008,-0.833064236,-1.0902983295,9.1829547885,4.6330132485,2.5849502385,-0.6394722315
645,5.374784999999974,-2.362303555,-1.6558558045,-24.67691039999999,0.3521769495,-0.505524788,10.388323784499999,2.0389442145,-2.1209867595,0.24595429000000002
646,5.38311799999974,-2.337102294,-1.590968728,-24.67781064999999,-0.009951859499999993,-1.0117409524999998,10.3921730505,1.2843874095,7.6858329775000005,-0.08947682400000001
647,5.391450999999506,-2.285767853,-1.6328137815,-24.675250999999996,1.1186848580000002,-0.28915271150000005,9.3391771305,4.4089275595,-5.1050583125,-0.26428131749999995
648,5.399783999999272,-2.2472770215,-1.574724078,-24.672824849999998,-0.05826315300000001,-1.3206383585,7.2175176145,2.8830231425,6.860799074000001,0.236809969
649,5.408116999999947,-2.240390122,-1.5423202514999999,-24.6685181,0.020775288000000003,-1.029753178,11.7335119225,-0.9135701359999999,3.7847208974999997,0.305360116
650,5.416449999999713,-2.240531862,-1.5413130815,-24.667968750000007,2.413655758,-0.8599537165000001,8.604773523,-1.7646992799999999,0.029206752999999974,-0.311693162
651,5.424782999999479,-2.2058947085,-1.523829639,-24.667194350000003,-0.860931665,-0.806828454,9.7573814385,2.399669647,2.0198682550000004,-0.2611691055
652,5.433116000000155,-2.1992009285,-1.4697741865,-24.671081550000004,0.32968986100000003,-0.533338338,8.226050854,-0.954674691,6.405082703,-0.40221398299999994
653,5.4414489999999205,-2.2050300835,-1.4187456665,-24.67334365,1.1438481215,-1.4078868034999998,10.943050385500001,-2.4595685004999996,6.0468933585,-0.39303763199999997
654,5.449781999999686,-2.1968066100000003,-1.4916297795,-24.66854095,1.5773910880000002,-0.0902494415,9.796125172,-0.7546659115000001,-8.844506264,-0.1004398335
655,5.458114999999452,-2.1856355069999998,-1.4085282685,-24.669750199999996,-1.1913075295,-1.2009406390000001,7.3252588495,-0.4159687675,9.887339113,-0.08948333300000001
656,5.466448000000128,-2.1855425835,-1.3992073239999998,-24.6639519,1.4754860399999998,-0.5527678580000001,10.1197963975,-1.720546484,1.0029509589999999,0.4043271095
657,5.4747809999998935,-2.202766895,-1.4471699595,-24.659252150000007,1.221419692,-0.834259361,10.724460602,-3.805967927,-5.856400251,0.009919116499999998
658,5.483113999999659,-2.192957163,-1.3933965265,-24.660129549999994,-1.0999331175,-0.26446885600000003,9.3043617025,-0.570870981,6.3634991635,-0.24413576749999996
659,5.491446999999425,-2.197023392,-1.409625322,-24.663986199999997,2.5146738290000004,-1.751437545,6.8757519705000005,-2.249659717,-2.013291672,-0.9184368255
660,5.499780000000101,-2.215914249,-1.4791073200000002,-24.6563759,0.809091777,-0.4498946815,9.722423791,-3.9945143465,-8.452147484,0.2449617275
661,5.508112999999867,-2.2257624265000002,-1.460359782,-24.659507750000003,-1.2917537989999999,-0.528997794,10.5664979235,-2.9456753735000003,2.1812506314999998,-0.6594896615
662,5.5164459999996325,-2.2373735905,-1.465829998,-24.662941000000004,2.4316083785,-1.2238518295,6.1058788305,-3.160143733,-0.7216746810000001,-0.7342064975
663,5.524778999999398,-2.2535911205,-1.537768126,-24.658039099999996,0.14406493300000003,-0.7972748875,11.569529059,-3.6779226065,-8.7323930255,-0.20257657049999997
664,5.533112000000074,-2.2821989655,-1.54879573,-24.6598434,-0.3063550545,-0.5114836395,10.42901635,-5.1942722795,-1.3943365215,-0.612423524
665,5.54144499999984,-2.295296848,-1.5305263695,-24.658599900000006,0.994588174,-0.8017194569999999,6.5285151005,-3.3169282675,2.098971486,-0.10671527699999998
666,5.5497779999996055,-2.3025363085,-1.6071611045,-24.651432050000004,-0.054454028499999974,-0.1968205085,10.717738151999999,-2.5937616825,-9.3092250825,0.1378365865
667,5.558110999999371,-2.3415091635,-1.5764398575,-24.64936445,0.61524865,-1.40812619,8.2452862285,-6.412715911499999,3.5806652310000002,0.06235146549999998
668,5.566444000000047,-2.3495174645,-1.5973734855,-24.6402092,1.1440450845,-0.10333830150000001,7.845912695,-2.694246173,-2.6292628049999998,0.6418223160000001
669,5.574776999999813,-2.3546524045,-1.6584102809999999,-24.624595650000003,0.24988785399999996,-0.944169402,9.797626971500002,-2.304576814,-7.485786438,1.1950706245
670,5.583109999999579,-2.391988039,-1.5910839435,-24.61585615,0.12089268900000003,-0.9118989405,7.6671903135,-6.211081028,7.951491356,1.044317961
671,5.5914429999993445,-2.4126417635,-1.6743554475,-24.599330900000005,1.816888392,-0.9427345395,9.1573224065,-4.174198389,-10.1484122275,1.2130391
672,5.59977600000002,-2.421880007,-1.6750853355,-24.587928749999996,-1.5549022555,-0.263531521,8.388084411000001,-2.8156961794999997,-0.23356336949999998,1.0140034555000002
673,5.608108999999786,-2.465507388,-1.647377372,-24.57602690000001,1.8415988685000002,-1.5173276065,4.598147512000001,-6.9388260840000004,3.1696211695,1.2549504340000002
674,5.616441999999552,-2.511268377,-1.703864902,-24.564174650000005,0.18662250049999995,-1.067995936,12.4190287605,-7.2050220965000005,-6.9110737465,0.7184984685
675,5.6247749999993175,-2.5476962925,-1.6963407400000001,-24.554817200000002,0.4302906395,-0.16646495449999998,7.259768009,-6.0855450630000005,0.766108919,0.761588052
676,5.633107999999993,-2.5808021425,-1.71647954,-24.544342050000004,0.885320112,-0.5892939565,6.377610922000001,-5.691931486,-2.5497051475,0.805349946
677,5.641440999999759,-2.639209628,-1.711467683,-24.541935000000002,0.6734286250000001,-1.491391182,7.2217948430000005,-8.747965097,0.5005725195,-0.0141967385
678,5.649773999999525,-2.6874091625,-1.782629013,-24.529788949999997,-0.591090441,0.10580529300000002,11.7727761275,-7.4885015485,-8.682739735,0.7070170345
679,5.658106999999291,-2.714434862,-1.7214725615,-24.531021099999997,0.523608908,-0.6162525785,6.497024059499999,-4.991728305500001,7.246279955,-0.1390532255
680,5.666439999999966,-2.756782055,-1.7876578570000001,-24.52460095,1.6645187734999998,-0.8526123465,5.983335137499999,-6.81735754,-8.047762871,0.026837274500000008
681,5.674772999999732,-2.7840819359999998,-1.7481796145000001,-24.523376499999998,-1.8089953065,-0.3372177035,11.57862663,-5.007621288,4.6285050514999995,0.0069605709999999155
682,5.683105999999498,-2.8393273355,-1.7762889265,-24.518493649999996,3.2188810109999997,-0.9803998995,5.7942539455,-8.380856037000001,-3.4716379645,0.13526880750000003
683,5.691438999999264,-2.8698483704999997,-1.7453339099999998,-24.519683850000007,-2.154081702,-0.15775499450000002,10.318531275,-5.407850742000001,3.6249018015,-0.30720442550000004
684,5.699771999999939,-2.9050861594999997,-1.7567591669999998,-24.523345949999992,1.3445556760000001,-0.6126774775,8.5545492165,-5.9986617565,-1.4293126465000001,-0.843694508
685,5.708104999999705,-2.9345759155,-1.7220450045,-24.526245099999997,-0.4815451505,-0.3889289345,8.747227908500001,-5.2880589965,4.0853165385,-0.48960962900000005
686,5.716437999999471,-2.9561783075,-1.7028467059999999,-24.534934999999997,2.504374623,-1.3259146215,5.3269053695,-4.3814043995,2.2742622495,-1.25035882
687,5.724771000000146,-2.9960428475,-1.748846054,-24.537456500000005,-1.4524247945,-0.4088637235,10.2276592245,-6.5355114935,-5.5864392515,-0.9684743435000001
688,5.733103999999912,-3.028483629,-1.637318343,-24.551948550000006,1.5261364874999999,-0.6335836575,8.9236216545,-5.7057373525,13.375946045000001,-1.3037517965
689,5.741436999999678,-3.0356482270000003,-1.728458881,-24.55903244999999,0.632139295,0.22467613999999997,9.11292374,-2.640264273,-10.954631567,-1.7945204974999998
690,5.749769999999444,-2.9985094070000002,-1.6144409180000001,-24.562397000000004,-1.5745192765,-0.006592720999999996,8.488919735,2.695040524,13.597343445,-0.006871044499999979
691,5.758103000000119,-3.010201216,-1.636943877,-24.567977899999995,2.6292899849999998,-1.2058259845000001,8.565650104,-3.1639088395000003,-2.7562260625000006,-1.0918260425000001
692,5.766435999999885,-3.0115672350000002,-1.5958010255,-24.563636799999998,-1.6028053465,-0.6939445735,11.071135161,-1.9012423754999999,4.8258702735000005,0.300134804
693,5.774768999999651,-2.9894319775,-1.547395289,-24.57585905,2.1702598335,-0.35821013150000003,4.912647246,0.864499748,5.787672028,-1.429799557
694,5.783101999999417,-3.0093286035,-1.587323189,-24.564891799999998,0.5157157480000001,-1.347959936,10.3773846645,-4.1115717885,-4.9256243595,0.5831849275000001
695,5.791435000000092,-2.9946631195,-1.4314714670000002,-24.579410550000006,-1.598127872,-0.13835135850000002,9.073519468,-0.040265590000000004,18.686429025,-1.1103710530000002
696,5.799767999999858,-2.9961602685,-1.5717783275000001,-24.558513599999998,4.496554136,-1.128259748,6.578224064999999,-1.869109571,-17.029808995,1.322924316
697,5.808100999999624,-3.0085890295,-1.4358935955,-24.563079849999994,-4.4283435345,-0.174507678,9.7112258695,-3.2437621355,16.222499844999998,-0.11952263149999998
698,5.81643399999939,-2.997964382,-1.4127365355,-24.549186699999993,4.3654129505,-0.7878509760000001,8.2671339495,-0.4474743455,2.6133891345,1.4050177929999998
699,5.824767000000065,-2.991907239,-1.4959842265,-24.543243399999994,-0.9961290360000001,-0.45866170549999996,9.741317152499999,-1.000140086,-10.1010508555,-0.175886504
700,5.833099999999831,-2.976823449,-1.32373783,-24.5387039,0.29526621099999995,-0.8469395635,3.2166768315,0.07116281999999996,20.52584839,1.319710046
701,5.841432999999597,-3.0079331395,-1.4453973770000001,-24.530635850000003,1.711877592,-1.4986129405,11.6965289095,-5.4613399505,-14.70991182,-0.176616594
702,5.849765999999363,-3.010048628,-1.3229059575,-24.52638625,-1.6670529395,0.5263861345,7.649620294,-1.997020632,14.569314955,0.9425143005
703,5.858099000000038,-3.0262619255,-1.3992485104999999,-24.509784700000004,3.2669597565,-1.2456249000000001,6.772764683,-3.6531156300000003,-9.3399508,1.3015620710000002
704,5.866431999999804,-3.0419912335,-1.304102391,-24.50275419999999,-1.3762681485,-0.4961494355,4.4357423780000005,-3.611543417,11.2676396365,1.096007645
705,5.87476499999957,-3.0823457244999997,-1.3838145435000002,-24.485511799999998,2.288399637,-1.9679324029999998,8.971021652000001,-6.5375988485,-9.7516221985,1.1810597775
706,5.883097999999336,-3.0985673670000002,-1.333554655,-24.47768405,-0.22408023500000002,-0.3180004655,7.939640999,-3.689180255,5.9004187585,0.907467441
707,5.891431000000011,-3.1614950895,-1.4114930929999998,-24.472236649999992,0.8193974645000001,-0.3714341075,8.94330597,-9.2776947035,-9.462514877,-0.307287574
708,5.899763999999777,-3.2095001935000003,-1.3974218365,-24.468074799999997,0.3297236115,-0.7710169105,5.56878829,-7.496582269499999,1.5656636540000002,0.376625281
709,5.908096999999543,-3.2786610125,-1.4430488350000001,-24.475997950000007,1.0682877895,-0.816538528,5.0052483085,-10.0647692655,-5.5031552315,-1.609188914
710,5.916429999999309,-3.328328848,-1.479368836,-24.474941249999993,0.426529393,-0.9342406165,9.0190162655,-7.709039689000001,-4.4440956115,-0.4001455905
711,5.9247629999999845,-3.385234475,-1.4824842815,-24.4883156,0.15149930100000003,-1.1139982045,9.5492475055,-8.6287055015,-0.3601425290000001,-1.8856174945
712,5.93309599999975,-3.4523775580000002,-1.6023525895,-24.488868699999998,0.4112119675,0.5503564775,10.198276996,-9.793579578500001,-14.46312094,-1.0095533655
713,5.941428999999516,-3.5148078205,-1.528853834,-24.504859900000007,-0.721631169,-0.383925498,4.0834492445,-9.29503584,8.833582638500001,-1.6880679724999998
714,5.949761999999282,-3.563272715,-1.6113922594999999,-24.505523699999998,1.9158631565000002,-1.083140999,8.0201318265,-7.5718636515,-9.958739758,-1.1446620225
715,5.9580949999999575,-3.5938377379999995,-1.581874281,-24.518711100000004,-1.8780974745,0.32125607100000003,10.938409329999999,-5.4647972585,3.5576438900000005,-1.8163310885000001
716,5.966427999999723,-3.6379556655,-1.598183244,-24.527668000000006,2.1997858285,-0.8707868160000001,6.605606199,-7.0819773675,-1.9779251815000003,-1.3130369785
717,5.974760999999489,-3.6656051874999998,-1.5820809304999999,-24.537750249999995,-1.0818989275000002,-0.5025010405,9.4546585085,-5.098001956999999,1.918960929,-1.4640715119999999
718,5.983094000000165,-3.6836019755000002,-1.5756458045000001,-24.544601450000002,-0.542520538,0.30208671049999997,8.322688102499999,-3.927353859,0.7292052655,-1.041282773
719,5.991426999999931,-3.7007818219999997,-1.5269006790000001,-24.559433,2.162164748,-0.9329285795,7.879978895500001,-3.8647912145,5.8689126965,-1.7211869955
720,5.999759999999696,-3.7031481265,-1.549778372,-24.560054800000003,-0.046770006500000016,-0.18465344600000003,7.921623229,-2.0422227385,-2.8137426375,-0.5842606335
721,6.008092999999462,-3.6551929715,-1.435517669,-24.56682205,-0.6328839435,0.6819229870000001,8.5911960625,3.9825785160000002,13.652516845000001,-0.304284349
722,6.016426000000138,-3.6733384135,-1.534689516,-24.542056999999993,3.5224558115,-1.4040296075,7.5455845585,-3.8626787664999997,-12.140613078,1.825206637
723,6.024758999999904,-3.6251934765,-1.398790926,-24.546592700000005,-3.4313224555,0.8346133825000001,6.153737186,4.0182470084999995,16.223394395,0.10884119550000002
724,6.0330919999996695,-3.6017295120000004,-1.4546976985,-24.509372750000004,4.465229869,-2.1178042885,4.729813039,1.1724727155,-7.060231924,3.720186353
725,6.041424999999435,-3.5621237755,-1.4230951075,-24.480747199999996,-1.5241383315,-0.514325455,11.289444444499999,3.075411916,3.500589579,3.267787695
726,6.049758000000111,-3.5727205279999996,-1.4256201384999998,-24.4318581,2.09702152,-0.4925848545,4.104894161000001,-2.8692171575,-0.7644889355,5.54315114
727,6.058090999999877,-3.5762102605,-1.4784151614999999,-24.38822555000001,0.28072875750000015,-1.291686058,6.0170232055,-2.0480631715,-6.7192287445000005,4.4566081765
728,6.0664239999996425,-3.5810997485,-1.4786517025,-24.350547749999997,0.9212360980000001,-1.1689959765,4.7372839155,-2.201313138,-0.4178383349999999,4.208009422
729,6.074756999999408,-3.6340800525,-1.5484033825,-24.316333750000005,1.0915554165,-0.8178942505,5.286445141,-8.013413906,-8.6836237895,3.2532001729999998
730,6.083090000000084,-3.690008402,-1.6015301345,-24.301822700000002,-0.07440558050000001,-0.537874922,2.866213322,-8.398690226,-6.5730359555,0.9959263205
731,6.09142299999985,-3.7532413005,-1.6741375625000001,-24.28817745,1.2988872825,-1.752753973,4.8818745615,-9.287159443,-8.8962731365,0.9050022665
732,6.099755999999616,-3.82464087,-1.761500716,-24.2850113,0.071246207,-0.3553265335,10.2631988535,-10.2950415585,-10.579717161000001,-0.6713172345
733,6.1080889999993815,-3.8797063825,-1.846542239,-24.298408549999998,0.560108818,0.3472406865,6.315027237000001,-8.41585231,-10.1506524075,-2.6432996985
734,6.116422000000057,-3.9554032085,-1.9424676895,-24.30551530000001,0.001147717500000034,-0.28085750350000005,1.0969090165,-10.8349635585,-11.539701465,-1.9335096775000002
735,6.124754999999823,-4.055169343999999,-2.0204467175,-24.324718499999996,1.3098120094999999,-0.421545031,2.005632043,-13.845406055,-9.2062196755,-3.5074223355
736,6.133087999999589,-4.132843971,-2.1209422945,-24.344596850000002,-1.6091979745000002,-0.8391756115,6.4028244015,-11.113033297000001,-11.99599504,-3.3584818545
737,6.1414209999993545,-4.1887545584999994,-2.195135117,-24.350849150000002,2.557410598,-0.0892874375,6.2102136615,-8.5229456425,-8.8643195615,-1.992870927
738,6.14975400000003,-4.241026044,-2.2737457155,-24.373207100000002,-2.2547599675,0.155864656,6.7945044039999996,-8.114470007000001,-9.3022019845,-3.8116233345
739,6.158086999999796,-4.27003479,-2.3267197015,-24.380962350000004,1.254664391,-0.097427562,8.200195551,-5.2690660949999995,-6.354674816,-1.7141687275000002
740,6.166419999999562,-4.2889909745,-2.375827253,-24.39212415,-0.376134552,0.16023169450000002,6.046654462999999,-4.0821085275,-5.8586552140000006,-2.1659272315
741,6.174752999999328,-4.311774969,-2.3994392755,-24.405551900000006,0.901665449,0.806668535,2.018618375,-4.5724484924999995,-2.7709863185000003,-2.134190753
742,6.183086000000003,-4.3161025045,-2.399819195,-24.41928864999999,-1.8804644945,-0.87603125,4.098278599,-2.2973280765,-0.04243638350000001,-2.0290893910000003
743,6.191418999999769,-4.265102506,-2.4225482345,-24.41619875,2.6793954070000003,-0.3990426365,10.923684595000001,4.34161365,-2.7854266165000006,-0.2767174244999999
744,6.199751999999535,-4.1772516965,-2.409211576,-24.44097905000001,-3.159438953,1.3619250004999999,10.441688061499999,8.702424526,1.693991184,-3.1389161945
745,6.208084999999301,-4.0958681105,-2.370235443,-24.433467850000007,2.2245497404999997,0.22754782449999994,4.3289633985,8.0282827935,4.5398676395,0.8891535399999999
746,6.216417999999976,-4.0162358285,-2.3446773885,-24.47045515,-1.4452525975,0.33386904,1.8156279325,7.6337730885,3.276252985,-4.610985279
747,6.224750999999742,-3.9083758595,-2.267417848,-24.46788025,1.945946753,-0.6931225805,4.9773522615,11.19825053,9.135971545,0.9459466955
