time,Euler_X,Euler_Y,Euler_Z,Acc_X,Acc_Y,Acc_Z,Gyr_X,Gyr_Y,Gyr_Z
0,21.62068367,5.115718186,-62.96120263,-1.930392265,-0.194235882,11.21244526,-20.26157999,12.01020455,-9.24718237
0.008333,21.40090847,5.211843491,-62.9891777,-1.013776478,-1.774863809,9.95256138,-26.32118416,9.012179852,-7.808502316
0.016666,21.13373184,5.319165349,-63.02694893,-1.622517899,-2.04846856,11.05566382,-31.79920578,9.781589746,-9.153105617
0.024999,20.81286192,5.427336395,-63.05892563,-0.88883654,-1.38419433,9.35605693,-38.38115978,10.29498172,-8.586996674
0.033332,20.41121197,5.539076686,-63.10120203,-2.213734761,-2.181599945,11.98305953,-47.85084629,10.18965042,-9.723854305
0.041665,19.94178391,5.687785745,-63.1125641,-2.34042643,-2.134130933,9.931179643,-56.37258053,15.79006958,-7.88835442
0.049998,19.40168095,5.807764888,-63.1595783,-0.751270834,-1.264528535,9.663185357,-64.40231705,11.07417476,-10.41377377
0.058331,18.78874111,5.956417918,-63.18899538,-1.899187334,-3.110283792,10.62298274,-73.35963822,15.22952676,-9.579523326
0.066664,18.09883738,6.046234608,-63.2304535,-0.228988729,-0.787547149,10.56807673,-82.38078117,8.070842624,-8.374007703
0.074997,17.33540011,6.222661853,-63.27910993,-2.662443176,-1.764431626,10.31691408,-91.15515709,17.92531609,-12.37569332
0.08333,16.52829742,6.335975289,-63.32369805,-1.594579384,-2.676638901,9.950691938,-96.3545475,10.87191701,-9.318190576
0.091663,15.63171339,6.500034452,-63.39073948,-0.462017479,-1.854000628,11.01168537,-106.8753777,16.2274015,-13.54250241
0.099996,14.64770746,6.581715584,-63.45991325,-1.719408587,-1.331804004,11.22010457,-117.1926842,6.728397504,-10.7685163
0.108329,13.60517812,6.783713699,-63.52345085,-1.94517307,-2.389874071,10.89430213,-124.3813115,21.18209863,-13.6797781
0.116662,12.52289152,6.898796916,-63.580122,-1.4949722,-0.59162648,8.654708861,-129.129261,11.34419679,-9.952732562
0.124995,11.37799359,7.016793132,-63.66599465,-0.671537522,-0.670256995,11.96781325,-136.3077431,11.27451706,-13.29992556
0.133328,10.1888814,7.152680517,-63.71172905,-1.377828777,-1.755187411,9.431626556,-142.0704842,14.41883254,-8.663242817
0.141661,9.007609129,7.284743309,-63.79599763,-2.167044222,0.551212254,9.996295095,-140.6652336,13.48274755,-12.88459802
0.149994,7.797350764,7.396316409,-63.84751893,-0.392353162,0.824279875,11.67039418,-144.4661751,11.7771982,-8.307675839
0.158327,6.555678606,7.489189148,-63.9315281,-0.343368053,-2.0456931,9.836622475,-147.8995056,9.331178546,-11.70825219
0.16666,5.331769705,7.52533567,-64.00446128,-1.400879681,1.012896434,10.6264615,-145.7668152,2.846160263,-9.330315233
0.174993,4.091626227,7.607440829,-64.0907631,-1.414395843,1.011623844,12.47974157,-147.6446648,8.512975572,-11.39856863
0.183326,2.852466583,7.664706707,-64.15535735,-1.013821185,-1.171807885,8.755155027,-147.6937637,5.819539993,-8.532842516
0.191659,1.631589919,7.679743767,-64.26334,-0.382881671,0.916896075,9.852235914,-144.9956398,0.830826318,-13.26265097
0.199992,0.40073745,7.632224083,-64.349432,-0.522382051,0.564597364,11.97415125,-146.3370209,-6.445777774,-10.70271778
0.208325,-0.849579275,7.634641528,-64.45843695,-0.841894008,-0.144942634,10.5060178,-148.5329475,-0.120415419,-13.26758456
0.216658,-2.057023675,7.594895602,-64.5709343,-2.156483077,0.588159099,9.491924047,-143.15551,-4.983858347,-14.01187038
0.224991,-3.278674722,7.508582234,-64.6851349,1.089854181,0.744320244,12.28043389,-145.0121308,-10.1657896,-14.44789052
0.233324,-4.538793326,7.361989141,-64.79852293,-1.074692682,-1.337942675,10.36272192,-149.5425491,-17.17250395,-15.2569449
0.241657,-5.786076069,7.239610076,-64.90746308,-0.983852908,1.046220586,8.977867722,-148.2452393,-13.90879035,-14.5516944
0.24999,-7.015974522,7.063389659,-65.00774383,-1.822078601,0.751003474,12.97569776,-146.2043915,-20.22291517,-14.68278146
0.258323,-8.26005125,6.877769947,-65.08768463,0.2034609,0.659329128,10.67376745,-148.3757591,-21.25836516,-12.75784755
0.266656,-9.500493765,6.668274999,-65.1730957,-1.571888954,-0.023866087,8.333500028,-147.7988815,-23.80404473,-14.37469411
0.274989,-10.69417882,6.427060128,-65.21932983,-0.503481209,1.146459777,11.36652875,-142.8704415,-27.97734785,-10.80072642
0.283322,-11.87095666,6.194794774,-65.28785705,-2.87511307,1.788098991,13.92746401,-140.5072136,-26.28228951,-13.85747028
0.291655,-13.04980564,5.970808506,-65.31068038,0.070855964,1.167723064,9.137543202,-141.4232178,-26.08697939,-8.836807728
0.299988,-14.2159822,5.700857639,-65.34357833,-0.975079382,-0.51346615,8.187688173,-139.7927132,-31.11520148,-11.8109076
0.308321,-15.33939219,5.426542282,-65.36169435,-0.915981367,0.591075016,11.19383693,-134.8750153,-31.72079134,-10.80660701
0.316654,-16.44110417,5.113565624,-65.3660545,-1.878774017,1.666593522,12.65686011,-132.3992157,-36.5276699,-11.12366009
0.324987,-17.54473162,4.85406828,-65.38347625,-1.613545135,1.886244208,12.13890314,-132.5824184,-29.63575459,-11.39190602
0.33332,-18.63245392,4.55197388,-65.37893678,-0.791133322,1.000916265,9.120378375,-130.8588982,-35.23126221,-10.9301877
0.341653,-19.67024994,4.260255754,-65.36271288,-1.197031688,0.536227457,9.169545771,-125.0417461,-34.17036533,-9.960436581
0.349986,-20.65487957,3.951651156,-65.3406563,-1.166473716,1.28676033,10.38716757,-118.6324845,-36.2191,-10.65307403
0.358319,-21.59424973,3.642101467,-65.2889328,-0.732823037,2.107306704,11.67459893,-113.5046082,-37.34873009,-7.909236431
0.366652,-22.49331761,3.347203732,-65.26517488,-2.170364857,2.571078629,11.97297072,-108.3967609,-34.41629649,-11.01993441
0.374985,-23.33926439,3.041589737,-65.19062043,-0.863856897,1.843925238,11.11695003,-102.3944321,-37.733881,-6.337155342
0.383318,-24.12165499,2.774800062,-65.15814975,-2.682789713,2.375120014,10.37042975,-94.46365738,-31.42125321,-9.708253981
0.391651,-24.82233143,2.495195836,-65.08005143,-0.711844497,2.769964814,9.625457763,-84.91138649,-34.88981915,-5.687727332
0.399984,-25.45501137,2.237976492,-65.033535,-2.361166895,2.647892654,11.97891426,-76.57032967,-30.86128903,-8.459979533
0.408317,-26.00081921,1.984757915,-64.96045685,-1.416858057,1.668773949,10.80767107,-66.23814678,-31.63950062,-5.648444951
0.41665,-26.47903061,1.758136392,-64.90858463,-2.208984971,3.787775576,11.04923606,-58.03884125,-27.6931448,-6.84668535
0.424983,-26.86633682,1.52414757,-64.85580063,-1.304698229,2.213251501,10.6378243,-47.1053133,-28.41362953,-7.285220385
0.433316,-27.17743063,1.32132129,-64.79399108,-1.542689562,2.700726926,11.01229644,-37.99677086,-25.60007858,-4.859356165
0.441649,-27.40141917,1.106514593,-64.76739885,-1.676583231,1.985055924,10.07507443,-27.42267275,-24.86003494,-9.327947259
0.449982,-27.5682497,0.913618799,-64.68898393,-1.729775488,2.847227693,9.925591828,-20.65470481,-25.41983509,-2.740847394
0.458315,-27.65473509,0.73331631,-64.6906128,-1.720826835,0.894612357,10.58184505,-10.93608749,-19.59095025,-10.54051995
0.466648,-27.70332575,0.541346252,-64.59542468,-0.834785372,2.106518924,11.38221192,-6.472932816,-26.25665856,-0.999634504
0.474981,-27.69367933,0.373861849,-64.61594773,-2.862614274,1.394575656,11.17933535,0.608242338,-17.1569922,-11.86096406
0.483314,-27.64389563,0.219752312,-64.51789855,-0.702477187,1.655166909,11.09692884,5.396851241,-22.39511824,1.411988467
0.491647,-27.55871058,0.060258895,-64.5303116,-2.714094997,1.330581576,10.38934255,9.614172101,-16.76994157,-10.54642248
0.49998,-27.43768263,-0.053449601,-64.44844818,-1.039130122,0.818412323,11.90211821,14.01438689,-17.19771886,1.986868024
0.508313,-27.30946017,-0.176698893,-64.4521866,-2.387976892,-0.023808239,9.921373129,14.7279923,-13.44059468,-7.537625478
0.516646,-27.14880371,-0.251483262,-64.40178298,-1.947987542,0.533923224,10.10489941,18.77176476,-11.31175709,0.842846155
0.524979,-26.99906969,-0.313608259,-64.4131279,-1.976455637,0.549278014,12.1323936,17.28775072,-6.530831516,-4.95482266
0.533312,-26.85382509,-0.34608391,-64.39715578,-3.763863832,-0.488020696,10.87542653,16.88062382,-4.911594629,-0.483465522
0.541645,-26.71854115,-0.332919747,-64.40552903,-0.047103941,0.616224185,11.72491622,15.55673885,1.364857972,-0.585166752
0.549978,-26.62401486,-0.313678071,-64.4194069,-4.116150737,-0.162816385,10.93209434,10.71412122,2.230775804,-0.879564121
0.558311,-26.52281428,-0.233777985,-64.45002745,-0.530715898,-1.23074257,7.420696796,11.46328163,9.701041102,0.639962226
0.566644,-26.41620779,-0.165615201,-64.48315048,-2.88300842,-1.015638337,12.11593425,12.16466951,8.480547428,-0.276480004
0.574977,-26.35818339,-0.040320635,-64.5340843,-1.49312594,0.423957035,13.4598453,6.252500593,15.65771079,0.840688411
0.58331,-26.34558773,0.08509171,-64.58861923,-3.11799416,-0.703235492,10.70350111,0.890578672,15.80314779,0.386022553
0.591643,-26.33704948,0.272376105,-64.64501573,-0.071096688,-0.761986081,8.522213936,0.316620756,22.61126376,3.540567279
0.599976,-26.33687353,0.442961752,-64.72777943,-3.996719539,-1.344802134,10.74815393,-0.566324532,22.16175222,-0.243837982
0.608309,-26.39186526,0.632084519,-64.76467518,0.097480915,-0.632653162,13.74784756,-7.249741197,21.78250313,5.703421831
0.616642,-26.48593331,0.818877384,-64.8541527,-2.544743628,-0.967846573,10.48690474,-11.85512769,24.25658941,-0.072859925
0.624975,-26.5987587,1.045283377,-64.9227829,-0.658962332,-0.766355353,7.856004239,-14.11855316,27.46554089,4.359892249
0.633308,-26.73317623,1.212417041,-65.00164795,-2.340787739,-0.947200701,12.07610142,-16.62295198,21.54136849,0.183049022
0.641641,-26.89424419,1.427136429,-65.0617981,0.281969056,-0.527845204,11.76095677,-19.90209341,25.72654438,4.768196702
0.649974,-27.06443787,1.627739489,-65.17504883,-3.438985765,-0.410854468,8.334458292,-20.79486656,26.98411703,-1.54273735
0.658307,-27.23329735,1.828820631,-65.21137618,-0.116377458,-0.464405066,11.97020936,-20.83642483,22.93670416,6.718209923
0.66664,-27.42309666,2.031758055,-65.3143387,-2.084506825,0.272138836,12.75623465,-23.13491202,26.67033959,-0.168135852
0.674973,-27.61338234,2.242217392,-65.36904525,-0.79889486,-0.269115264,7.722791791,-23.32366037,24.90548849,5.428955317
0.683306,-27.78941059,2.401978523,-65.4431534,-1.289817974,-0.017923929,12.81747365,-21.51187563,20.46786308,0.675998562
0.691639,-27.98088455,2.606464237,-65.48757173,-0.2644803,-0.317583449,10.9923718,-23.52070618,23.65778113,6.339574456
0.699972,-28.14570665,2.745171517,-65.55635833,-1.3335578,0.205434867,8.437080622,-20.16454268,17.93034053,0.191835106
0.708305,-28.29473496,2.919979364,-65.57960513,-0.951353412,0.350991681,13.4413681,-18.51138139,19.28058458,7.029140294
0.716638,-28.44904375,3.051978499,-65.63134003,-1.205320903,-0.13807948,10.06334603,-18.9918704,16.24570298,1.711889953
0.724971,-28.55858279,3.189101607,-65.64862825,-0.775193267,1.1072727,9.565410613,-13.81587529,14.93057537,5.592146754
0.733304,-28.6872735,3.298204064,-65.68016053,-0.38475927,-0.819277354,11.19376719,-16.04134345,12.66584635,2.584233463
0.741637,-28.80523682,3.398732066,-65.6753769,-1.236853704,-0.984385811,10.92763996,-14.96348167,9.780996561,5.879493237
0.74997,-28.91234303,3.49147433,-65.6881218,-0.435918521,0.590569348,9.958080887,-13.59650671,9.848765256,3.660588622
0.758303,-29.0244236,3.575348139,-65.70298003,-1.61020571,-0.138606557,10.37588179,-14.13302946,9.1474607,2.893416971
0.766636,-29.09715844,3.638768315,-65.70170595,-0.370854334,-0.063478356,12.84388805,-9.566200017,5.943354786,3.459587038
0.774969,-29.16611719,3.72216636,-65.7252388,-2.253580123,0.858610846,10.33661175,-8.913992047,9.591366769,1.989166614
0.783302,-29.2004757,3.758168042,-65.70979308,0.321091525,-0.269360431,9.800019861,-5.087605536,2.232882857,3.352516234
0.791635,-29.23320818,3.83514607,-65.74618913,-2.62531364,-0.091822438,12.6161747,-4.484706998,9.672896624,0.266445756
0.799968,-29.27394009,3.848539054,-65.7083435,0.360787839,0.290465254,10.99067974,-6.026638985,-1.450879932,4.377165675
0.808301,-29.30549717,3.902821123,-65.73231125,-1.436928354,-1.380283922,11.22315407,-4.473942697,6.567631208,0.245506014
0.816634,-29.34347296,3.875439465,-65.68369675,-0.010040909,0.17636705,10.07775426,-5.79858321,-6.358491004,3.121331573
0.824967,-29.39847708,3.900746286,-65.70861435,-2.46623841,-0.89564459,12.14179802,-7.290657163,3.593098164,-1.550740335
0.8333,-29.43677139,3.880127549,-65.64266585,0.195658909,-0.87790221,10.88756466,-5.980620861,-6.67632252,5.320035994
0.841633,-29.5012002,3.895285189,-65.66230013,-2.585325658,0.32995921,10.83670962,-8.476996778,2.222729862,-1.585630358
0.849966,-29.55415821,3.85872817,-65.5973091,-0.651860153,-1.068850905,10.9203763,-7.745582581,-8.297153235,4.267873198
0.858299,-29.6166811,3.90914613,-65.61867523,-2.46361123,-0.292892046,10.84045112,-8.242222429,6.01412344,0.314062491
0.866632,-29.69874239,3.868220449,-65.56312563,-0.404827766,-0.470986344,9.747332573,-11.15419722,-8.208726705,3.019524895
0.874965,-29.76083851,3.916476011,-65.57545853,-1.896965321,-0.800497331,11.77180314,-8.278864026,5.251965694,1.141613558
0.883298,-29.83153295,3.898913145,-65.53652955,-1.028221631,0.333679287,10.08848608,-9.683908048,-4.796038807,2.672231034
0.891631,-29.91154432,3.945686996,-65.55525588,-1.188380472,-0.708289013,11.35583615,-10.37996841,5.460895181,0.428417265
0.899964,-29.9520812,3.920433462,-65.51607895,-2.025694184,-0.284906399,11.69987654,-6.063238263,-5.62249437,2.246304393
0.908297,-30.00517225,3.981006086,-65.5406227,-0.409731055,0.559573665,10.35946596,-7.108735814,7.250855863,0.646948341
0.91663,-30.04639006,3.946080506,-65.51689148,-2.298913091,-0.708776415,10.07799184,-6.05291605,-5.711536177,0.064259709
0.924963,-30.07356834,4.008851111,-65.5396881,-0.644302905,0.043805655,12.44062567,-4.005403817,7.369133001,0.979139418
0.933296,-30.10543823,3.981990159,-65.5180168,-1.341396354,-0.301133786,11.03407335,-4.930865526,-4.76487869,0.353854328
0.941629,-30.13586807,4.029397011,-65.5178604,-0.346860156,-0.624850765,9.868526696,-4.597387135,4.38535276,2.462210238
0.949962,-30.14511585,3.99647969,-65.50698853,-1.98804383,-0.135153353,10.97841167,-2.130114943,-4.749567509,-1.116604522
0.958295,-30.16651964,4.075854957,-65.5230255,-1.693630102,-0.373980481,11.82328582,-3.382596791,8.686604144,2.698296547
0.966628,-30.17817354,4.059466184,-65.52143098,-1.757878669,-0.459588208,9.42172706,-2.339870125,-2.484734655,-1.062116698
0.974961,-30.16652298,4.151119351,-65.54179,-1.509902194,0.571811659,11.17123628,0.62326159,10.22172928,2.991899669
0.983294,-30.13695526,4.178328991,-65.5408745,-1.734583855,-0.040794987,10.58044899,2.576215964,2.087909296,1.479532804
0.991627,-30.09640885,4.294062972,-65.54485323,-1.242245525,0.816127491,9.633966446,3.968346655,11.74657059,6.119564533
0.99996,-30.00160122,4.336558998,-65.5334625,-1.501415953,0.496092707,11.54717088,10.31870532,3.046909728,3.493855715
1.008293,-29.87311172,4.48176831,-65.52170945,-1.41801314,0.317057532,9.771343351,14.36695123,13.88677907,9.487097025
1.016626,-29.70415163,4.567867458,-65.525177,-1.81106861,1.443597078,9.480350255,19.32949209,8.491010427,4.537362039
1.024959,-29.45883942,4.716990948,-65.49679565,-1.089665718,0.870184638,12.65061379,28.24587631,13.40131832,11.31300092
1.033292,-29.17063427,4.862255275,-65.5011711,-2.272120029,1.493790716,10.14705229,33.62869263,14.77980662,7.848458649
1.041625,-28.79222918,5.017411828,-65.47891615,-1.265722416,1.974185586,10.0531528,44.25759888,14.50482273,10.8888669
1.049958,-28.3641305,5.200904846,-65.49585723,-2.060499817,1.081117332,10.78682685,50.54643345,19.63945961,8.516404748
1.058291,-27.85758162,5.385832429,-65.48257445,-1.891541705,1.180572353,11.86112118,59.72378349,18.32065916,11.42092788
1.066624,-27.27944136,5.58107245,-65.4933281,-1.087989375,2.092506707,10.18223476,68.48955917,20.7011404,9.471131564
1.074957,-26.62848425,5.776745796,-65.49448778,-1.695529476,0.939404748,9.321456075,77.1972332,20.50344086,10.0556097
1.08329,-25.88060713,5.984263063,-65.48952863,-1.432224929,2.742913544,12.24049926,88.70031548,21.41478157,11.31756163
1.091623,-25.08079624,6.198932886,-65.49814988,-2.465959519,0.870072864,9.334784508,95.14217378,23.22736072,9.653168677
1.099956,-24.17593718,6.446607709,-65.50334165,-1.036648214,2.000506759,9.748109698,107.6916733,26.726439,11.38036061
1.108289,-23.21709347,6.655373573,-65.51410293,-1.92626144,1.747623831,11.45670831,114.2846031,22.98985291,8.369205713
1.116622,-22.18695307,6.903003574,-65.50896455,-1.62370187,0.250287064,10.1946336,122.5518322,26.54953051,11.79311848
1.124955,-21.09691715,7.162428618,-65.53744508,-2.05611065,1.13219031,10.13140917,130.2769108,29.74030686,7.771322013
1.133288,-19.99257374,7.420145989,-65.52731708,-0.948088497,0.066103563,10.89663267,131.4328156,27.98414135,11.54665303
1.141621,-18.83751536,7.636452556,-65.53255083,-1.019017251,-0.522216004,12.36010528,137.7463303,24.25104809,7.4544729
1.149954,-17.65716267,7.881371975,-65.49924853,-1.062170521,0.749460697,9.754594924,140.1392861,26.0848217,12.66348982
1.158287,-16.4815588,8.068562865,-65.48895645,-0.846340258,-0.785869815,9.40665865,139.9729157,20.68083239,7.147087455
1.16662,-15.26768399,8.261744738,-65.43278505,-0.578615069,-1.450795233,12.03515959,143.7807274,19.90155792,12.41695714
1.174953,-14.07390118,8.400735855,-65.39097975,-0.059779279,0.320886016,10.28423798,141.6064758,14.44317556,8.398842693
1.183286,-12.87691593,8.501066566,-65.31691743,-0.439458769,-0.794630475,8.504485727,141.4085197,9.11619866,10.95304084
1.191619,-11.65375471,8.575190187,-65.2516365,-0.885308605,-1.152935818,12.45154118,144.712616,6.603230178,8.840295792
1.199952,-10.4565568,8.64327693,-65.15543745,-0.285008356,-0.165243935,12.30112267,141.0532417,5.326701403,12.1823957
1.208285,-9.293275118,8.64676261,-65.07195663,-0.164808192,-1.319394015,9.509568454,137.1836662,-1.724392984,9.178503274
1.216618,-8.110495806,8.634592891,-64.97431565,-1.316134538,-1.506992206,10.49775338,139.3058472,-3.698092938,10.63228059
1.224951,-6.926881552,8.574033618,-64.85891723,1.122495463,0.050360143,11.90301728,139.0727844,-9.452336909,12.03099108
1.233284,-5.767801881,8.473237157,-64.75082015,-1.270479081,-0.963592142,10.90106368,136.3149224,-13.93938184,10.76592469
1.241617,-4.616479278,8.372715235,-64.63206103,-0.667637007,-0.703841135,8.562949358,135.1859703,-13.759938,12.45388389
1.24995,-3.44667238,8.19806838,-64.5299549,0.119383171,-1.09335581,8.720092059,137.750164,-22.25783491,9.980399847
1.258283,-2.276188135,7.992300034,-64.40634918,-1.009750277,-0.431760006,13.14815271,137.5165291,-25.87292672,12.90694308
1.266616,-1.142484859,7.824384332,-64.30292508,-0.966046512,-0.800474629,12.05362749,133.478672,-21.00866866,11.04450059
1.274949,-0.03118616,7.591908097,-64.20133403,-0.657571729,-1.564912826,9.69002223,130.8648415,-28.49507523,11.28105474
1.283282,1.080716849,7.347230792,-64.10351373,-1.473815745,-1.133202284,9.402807116,131.0916329,-29.77226973,11.17553544
1.291615,2.205782146,7.086155415,-63.99698258,-0.11772237,-0.448349655,10.14934516,132.545826,-31.42834473,13.1004808
1.299948,3.315532386,6.827082754,-63.9293156,-2.493802905,-1.451316685,10.27746034,131.3703537,-31.18742132,8.82548821
1.308281,4.387422443,6.537673473,-63.8331871,0.696052503,-0.644253764,11.6503253,126.4504261,-34.36461496,13.2937088
1.316614,5.427203298,6.290231586,-63.79112815,-2.525597692,-1.450209912,11.74175906,123.3839874,-29.67819834,6.852988839
1.324947,6.451981783,6.006106615,-63.71594428,0.591604681,-1.679328412,8.700739982,121.193079,-33.47219658,11.98739886
1.33328,7.467112065,5.703297257,-63.7000618,-2.700352401,-0.784369864,9.615752458,120.7842713,-36.35429573,5.734416306
1.341613,8.456334829,5.458309055,-63.62424088,-0.209499181,-1.331658602,11.01449156,117.0399246,-28.35159683,12.62179434
1.349946,9.412970543,5.160130799,-63.63478853,-1.681946516,-1.609534293,11.13844395,114.0482502,-36.05215359,3.774730638
1.358279,10.34646726,4.891893268,-63.58299445,-1.153170109,-0.84351594,11.15506363,110.7307568,-31.15092612,11.18840909
1.366612,11.26155758,4.617771506,-63.59218788,-0.723295363,-0.17236062,10.52231431,109.0195313,-32.99533939,4.711936377
1.374945,12.15651441,4.358790398,-63.56310083,-2.12513718,-2.394995034,8.824951648,106.3899136,-30.23035908,9.273222417
1.383278,13.0333364,4.0752545,-63.57401085,-0.676431492,-0.349995971,10.53249037,104.4375382,-33.97099257,5.758767964
1.391611,13.86968064,3.863498449,-63.5510521,-2.520939544,-1.779914022,10.56843734,99.45282363,-24.58033324,8.14673561
1.399944,14.68700719,3.625873149,-63.55620575,0.050636001,-1.146746075,9.732107162,97.23650742,-28.26071739,6.059754848
1.408277,15.46895194,3.393137395,-63.55786895,-2.384001136,-2.215126798,10.09616828,93.14671898,-27.52576161,6.651564837
1.41661,16.20892453,3.169505149,-63.5501957,-0.522715673,-0.443406783,11.86620093,87.87941551,-26.04173279,7.845052957
1.424943,16.9085126,2.99740684,-63.55680468,-2.751636684,-3.277532101,9.379620671,83.30075264,-20.53497028,4.675002874
1.433276,17.5723815,2.74824962,-63.55599595,0.088268638,-0.717048943,9.763179182,78.81541634,-29.00818062,8.587225378
1.441609,18.18077231,2.591154635,-63.57017325,-2.343030408,-2.569115728,10.01623404,72.38630867,-18.96988726,3.733974725
1.449942,18.77183294,2.386189297,-63.5529461,-0.732572561,-1.338766426,9.986468316,70.02690315,-23.15419531,9.394476175
1.458275,19.30985069,2.191266276,-63.59267615,-0.650983244,-1.565738108,9.975533844,64.03443623,-24.16745758,2.701695502
1.466608,19.79835558,1.973887708,-63.58457563,-1.409772724,-1.698586576,11.11964822,57.81426144,-24.73927117,9.296733021
1.474941,20.26099396,1.799247109,-63.63358688,-0.460979598,-1.944263697,9.787178516,54.9759655,-22.20626974,1.214518622
1.483274,20.68632651,1.551552296,-63.64074708,-1.914749295,-1.085593298,9.4517622,50.31840802,-28.6338749,9.232704877
1.491607,21.06841278,1.36318627,-63.69633675,1.346990824,-1.402223297,9.609391927,45.27153302,-24.00386334,1.365706079
1.49994,21.43515444,1.12321505,-63.71193693,-4.48069714,-1.676229537,11.8099885,43.32567501,-28.00285912,8.342476964
1.508273,21.77140808,0.946181938,-63.75929643,2.170771182,-0.523537987,9.674415469,39.69918537,-22.33738804,2.114167743
1.516606,22.07337904,0.717069887,-63.7741547,-4.66534844,-1.747734621,11.98279572,35.56207562,-26.6576891,8.259218813
1.524939,22.35406113,0.495926488,-63.8277683,3.6483455,-1.617237955,11.04826951,32.9772234,-27.50972176,3.613934249
1.533272,22.59537029,0.307441013,-63.85542298,-6.476280063,-1.236986175,11.55352402,28.32710075,-22.65671206,5.234898746
1.541605,22.82803869,0.086813472,-63.90156938,3.413867295,-1.434825123,10.20382547,27.16458893,-27.06779957,4.662093938
1.549938,23.02424336,-0.098987155,-63.94278145,-5.569422066,-1.238800489,11.54321265,22.89715958,-22.94956208,3.774958313
1.558271,23.20452881,-0.303109482,-63.9893856,3.267130926,-0.618247501,8.97641492,20.83356715,-25.22162342,4.044910133
1.566604,23.35879088,-0.50193426,-64.04457475,-5.485504925,-2.272972286,10.7020601,17.82374168,-25.022398,2.98988086
1.574937,23.4752903,-0.698756464,-64.0829029,3.654192746,-0.787107452,10.87214518,13.15513015,-23.98962545,4.761090636
1.58327,23.57597733,-0.874296479,-64.14909553,-6.220865965,-1.864696041,10.30085218,11.33678389,-22.97236538,0.777248174
1.591603,23.6409688,-1.05428975,-64.1834049,2.829309285,-1.663964361,10.41152585,6.972601891,-21.93222475,4.469129264
1.599936,23.67948723,-1.171300721,-64.22630313,-6.376262904,-1.509830296,12.05685568,3.902454466,-15.41688895,0.575891197
1.608269,23.70791674,-1.344841168,-64.2514534,2.191200897,0.145951063,10.86063385,2.571545452,-20.76598454,5.215703577
1.616602,23.71142054,-1.400903844,-64.27407268,-5.344929278,-1.741371468,10.0840857,-0.255181223,-7.741266908,-0.138262741
1.624935,23.70708132,-1.53308443,-64.26632118,1.127455741,-0.343283668,11.35662508,-1.240090888,-14.63959896,6.8412081
1.633268,23.68035269,-1.584761269,-64.30359268,-3.471708343,-1.412441962,10.798213,-3.974983797,-7.967286646,-1.963888586
1.641601,23.6422739,-1.662503034,-64.2761898,-0.297670536,-0.15492611,10.03110826,-5.181231857,-7.715798736,6.365781367
1.649934,23.60359097,-1.671135783,-64.28954123,-2.785438888,-1.239856801,11.07581449,-5.338381291,-2.08786124,-1.403935477
1.658267,23.55457163,-1.744113535,-64.25581933,-0.408823304,-0.009747248,10.5125463,-6.478087157,-6.893562913,6.818897844
1.6666,23.50104523,-1.670601487,-64.23532485,-3.447605252,-1.342791378,9.947387934,-6.986024261,8.57542634,-1.62003658
1.674933,23.45196533,-1.724005401,-64.20038033,0.362407595,-0.063907877,12.33498812,-6.48160255,-4.713685662,5.978500843
1.683266,23.38461208,-1.616615705,-64.16089438,-2.886361987,-1.079845663,9.36572981,-8.575087845,13.21196503,-1.137688614
1.691599,23.32804442,-1.607671492,-64.1079159,-0.691745565,-0.269977303,10.19991732,-7.301649332,3.025755421,5.059000671
1.699932,23.26512623,-1.491443195,-64.06837845,-2.197772294,-1.217991621,12.52648187,-8.047677875,14.18497801,-1.520506173
1.708265,23.19908572,-1.432523511,-64.00007818,-0.431612998,0.630530171,9.369775175,-8.415759681,9.225387574,4.314670563
1.716598,23.14557409,-1.293066794,-63.96626665,-3.056432873,-1.260513492,8.557359696,-6.954442859,16.48402357,-3.207213849
1.724931,23.0775013,-1.224452535,-63.89865683,0.998160761,-0.634609587,13.10501063,-8.685285688,10.24694061,3.796833575
1.733264,23.00589466,-1.071040057,-63.87156675,-3.713555008,-0.254692029,10.95199776,-9.142226815,17.71534634,-4.559639752
1.741597,22.94118643,-1.000111055,-63.79972648,0.898895651,0.176811181,9.12331295,-8.311939477,10.69449294,4.190070212
1.74993,22.88841915,-0.814947844,-63.77748488,-3.891258985,-0.020763677,12.85378623,-6.887539685,21.0004642,-6.546696901
1.758263,22.85160351,-0.716565438,-63.69573975,0.232489903,1.002100967,11.79736566,-4.971150816,14.18744898,4.029667378
1.766596,22.83146763,-0.550469101,-63.68426133,-2.38877821,-1.220722884,9.991831423,-3.047689438,18.40498209,-6.82464701
1.774929,22.79925537,-0.392948121,-63.58509063,-1.442383617,-0.827634275,11.20942962,-4.38193506,21.52600384,3.216861457
1.783262,22.77202702,-0.252159536,-63.58704758,-1.23863601,-0.100020439,12.09799337,-3.958511561,14.9876647,-7.106661022
1.791595,22.7507515,-0.104586221,-63.50092508,-1.067563504,-0.63038902,10.06087077,-3.120019861,19.81732679,2.251953423
1.799928,22.75004912,0.045541436,-63.49440385,-0.495476663,0.597017408,11.27406394,-0.775151014,16.41220713,-6.588110566
1.808261,22.74771929,0.171633573,-63.44016263,-1.24760269,-0.082515083,15.06553292,-0.909235582,15.96383619,-0.286955953
1.816594,22.7523036,0.347213045,-63.39608955,-0.360039175,-0.225186549,8.980667651,-0.144647121,20.9803977,-3.624143899
1.824927,22.78618431,0.482327774,-63.363678,-2.321811512,0.796849445,8.771705626,3.426462136,15.94040203,-3.111611813
1.83326,22.82133722,0.67040927,-63.3155155,-0.893847719,-0.961270209,11.71560609,3.511043727,22.55035019,-3.774870962
1.841593,22.87601376,0.827051461,-63.28289795,-2.311890967,-1.095269226,9.748648763,5.882218182,18.32720137,-4.113170683
1.849926,22.92547274,1.009690017,-63.24354363,-1.719761832,0.124676302,10.26966929,5.225869537,21.52340746,-4.529328942
1.858259,22.93658352,1.236935333,-63.19359973,-1.683530346,-1.790631175,13.66900683,0.565409079,26.93904686,-5.542687416
1.866592,22.92722607,1.432574764,-63.15917395,-1.580762327,-0.56733837,11.26659846,-1.857519537,22.73304558,-5.691758037
1.874925,22.88366556,1.681148223,-63.09746363,-0.601300269,-0.849289026,9.1153754,-6.052937858,29.84033251,-5.230882526
1.883258,22.81677485,1.921919543,-63.0713501,-2.110150159,-1.882776558,11.4342587,-8.765989422,27.34594107,-8.678650499
1.891591,22.72128058,2.161781913,-63.01140213,-1.02659493,-1.052152537,11.85580993,-12.31825185,28.79258585,-4.976865888
1.899924,22.57581568,2.424037203,-62.97625925,-1.039662182,-1.979230672,9.5378263,-18.27368403,30.17024946,-8.573727727
1.908257,22.3859315,2.656197876,-62.92593955,-1.692627534,-2.121182203,11.31690407,-23.65761423,27.51857948,-5.550473154
1.91659,22.13323784,2.942126215,-62.88134003,-0.886835787,-0.990384914,11.63656688,-31.23666048,33.282691,-8.397568703
1.924923,21.81929589,3.163873076,-62.84734728,-1.711136431,-2.472628355,11.24935508,-38.4713316,25.67233467,-6.648567916
1.933256,21.44448423,3.445963442,-62.7895832,0.008611985,-2.274842292,10.09226882,-46.05157566,33.51869869,-6.395893007
1.941589,21.00213719,3.688071698,-62.7780285,-3.116723371,-2.098716989,10.55121636,-53.73955441,27.06100416,-9.686338305
1.949922,20.48825026,4.004671186,-62.71022415,0.134845898,-3.337541819,12.2840116,-62.89038849,37.90430641,-6.221108948
1.958255,19.91964197,4.26423347,-62.7124958,-3.564712785,-1.59652739,10.45794129,-68.77294731,28.63120508,-11.43214107
1.966588,19.28177881,4.608698368,-62.63545035,1.461046551,-1.101538066,11.94926715,-77.93927002,41.53060818,-5.552293212
1.974921,18.60169363,4.867416144,-62.65471458,-4.491436556,-2.87594825,10.07207501,-81.99020004,28.09390926,-12.71763802
1.983254,17.87075043,5.221908927,-62.55661965,1.743091345,-0.442706622,11.81032801,-89.38675308,43.57591057,-2.549401082
1.991587,17.07548428,5.479370654,-62.58465765,-4.375844792,-2.812010914,10.70200276,-95.7064743,27.9511013,-12.9009943
1.99992,16.24615431,5.815342188,-62.49933625,1.689320352,-0.655439526,9.733665705,-101.1465359,41.05534268,-2.169080436
2.008253,15.3453815,6.115380645,-62.54291725,-4.363851533,-2.26706326,9.965565442,-108.1660786,32.71324492,-15.25552011
2.016586,14.41310931,6.417129397,-62.49146078,1.179520369,-0.959087536,11.44346142,-113.1353703,36.094944,-3.715495698
2.024919,13.42925763,6.741670251,-62.53891565,-2.543677479,-1.683393926,8.654386043,-118.0762825,35.91807175,-15.32999039
2.033252,12.43028045,7.04428649,-62.53068543,-0.603142426,-1.026983172,10.27470839,-120.5586376,35.1436224,-7.495100139
2.041585,11.38798547,7.393446922,-62.56534003,-1.585790329,-1.872932345,11.1704843,-125.2457828,39.63314581,-13.13229704
2.049918,10.3332386,7.719371557,-62.57214358,-1.434757114,-0.912886791,10.68048715,-127.0004273,37.79474163,-8.475572705
2.058251,9.263655663,8.052577853,-62.59111405,-0.482859194,0.379238836,11.26622403,-128.7537174,38.51051617,-9.447654724
2.066584,8.174712658,8.407133341,-62.63131905,-2.558174461,-0.835988015,10.50582027,-130.4881554,40.83978844,-11.67722881
2.074917,7.109602213,8.741891265,-62.64201163,-0.853977085,0.716085851,10.54788506,-128.312809,39.15714836,-6.96228379
2.08325,6.019976497,9.05735886,-62.72615243,-0.355698466,0.17955081,10.42410255,-129.7443905,35.96690083,-14.7928102
2.091583,4.971600175,9.407171606,-62.75225065,-2.352624431,0.277283434,9.63963771,-125.9602241,41.00474835,-7.510024427
2.099916,3.923325241,9.665189624,-62.86918833,0.849574108,0.437716916,11.30361235,-124.0385876,29.30310392,-16.7240789
2.108249,2.888338089,9.980839253,-62.90920258,-1.271425813,0.961029031,10.35412776,-124.0434418,37.05355883,-7.364254713
2.116582,1.875360995,10.23636222,-63.04828833,-0.205135562,-1.006496191,8.32724285,-119.209158,29.46282911,-18.2332468
2.124915,0.892169021,10.46454811,-63.0983124,-1.429059511,0.852016583,11.11160898,-117.5378914,26.7637763,-6.97002995
2.133248,-0.101236355,10.70886326,-63.2598133,-0.115235587,-0.622815225,11.60217095,-116.2329884,28.69943858,-19.90718699
2.141581,-1.057239532,10.92033362,-63.32704543,-2.46965313,1.147068592,10.28392625,-113.8220234,24.99411821,-8.075969577
2.149914,-2.050677359,11.13692069,-63.52119448,0.430769891,-0.380756447,9.937382937,-115.3789978,26.11865425,-22.70923424
2.158247,-3.032942951,11.32804895,-63.61089325,-2.70170337,-1.264724106,9.836817861,-116.3724404,22.93036557,-9.890789629
2.16658,-4.066466511,11.45597625,-63.80997275,3.18857804,-1.160137445,8.468012751,-119.952137,16.29311395,-23.06201482
2.174913,-5.118312359,11.54949236,-63.94042205,-2.755040586,-1.243183851,10.61277449,-123.6849156,11.97004378,-14.78251481
2.183246,-6.196416855,11.61880207,-64.12581633,1.358814388,-0.684202999,11.63661027,-125.5712795,9.950413704,-21.4020741
2.191579,-7.265570998,11.67708063,-64.26590728,-3.185682774,0.862217181,11.14916349,-125.5064449,8.426004742,-15.83712435
2.199912,-8.354067803,11.67401719,-64.44676968,2.134509612,-0.665880364,9.305797399,-126.9062252,2.05689226,-21.687114
2.208245,-9.457730532,11.63025642,-64.58496475,-1.600646183,-1.752679244,9.872211696,-129.7071533,-3.122856735,-17.19045448
2.216578,-10.56981564,11.54622007,-64.74026868,0.663574875,0.745507032,12.4942019,-130.4008389,-7.234035477,-20.15534425
2.224911,-11.67326474,11.4775064,-64.87575913,-2.617676485,-0.00858774,9.644731163,-129.7953434,-5.476515771,-17.47323537
2.233244,-12.75476194,11.34170794,-65.00616455,1.543961734,0.041542259,9.264367102,-127.4037666,-13.16516661,-18.85849238
2.241577,-13.84542441,11.18133688,-65.12818528,-2.06306541,-0.883673996,10.13558078,-128.6411095,-15.8763535,-18.70933724
2.24991,-14.93911934,10.96078324,-65.20700073,1.451406226,0.880215302,11.02828217,-130.1547528,-23.83536911,-15.83096624
2.258243,-16.03272629,10.75021267,-65.3380165,-2.512325972,-0.985605682,10.94626629,-128.9080467,-20.67656827,-21.97901964
2.266576,-17.07905483,10.49880505,-65.39268493,-0.692289837,0.874964558,10.81988073,-125.0465336,-27.54530335,-15.1760366
2.274909,-18.13273287,10.28524804,-65.51542663,-1.476209201,0.404951746,10.3411386,-124.447134,-20.4981575,-21.93627644
2.283242,-19.15330553,9.969921827,-65.53974915,0.446513061,0.480847389,11.39686346,-122.6362419,-35.399786,-15.17423559
2.291575,-20.15586519,9.698857547,-65.61618425,-1.286059558,-0.003400996,11.03478491,-119.4255943,-28.04856968,-19.84833861
2.299908,-21.09037781,9.37744117,-65.6211853,-0.961277207,2.114708931,9.200245381,-112.7134438,-36.34809112,-14.48413968
2.308241,-21.97293043,9.080718399,-65.66987228,-1.710179344,0.898228035,11.48260915,-105.6683369,-31.47470617,-18.7958436
2.316574,-22.77761364,8.798931241,-65.65766523,-1.982737005,2.240618199,10.75961733,-97.45387268,-32.26886082,-11.89249992
2.324907,-23.51800489,8.51752925,-65.68832778,-1.615075283,2.319721766,10.29796481,-89.00536537,-30.08975124,-16.97824598
2.33324,-24.190413,8.247515798,-65.6679993,-1.494865447,1.298205987,9.369381309,-81.70313644,-31.06171084,-11.27067947
2.341573,-24.78462506,8.00821805,-65.68504333,-1.314081863,2.625766218,11.45153737,-71.73137665,-25.75278473,-14.11179614
2.349906,-25.30586434,7.712313295,-65.65255355,-1.845975626,1.812378586,10.45189941,-63.73229313,-34.26068306,-11.89307141
2.358239,-25.76117277,7.504860401,-65.65739443,-0.109335542,1.598038286,8.707252621,-55.28894806,-22.67056799,-11.64400148
2.366572,-26.14963055,7.220401168,-65.6325302,-2.388633061,1.8515459,11.2634201,-47.64136505,-32.44644785,-12.61812902
2.374905,-26.4677577,6.987746,-65.60343933,-0.311045438,1.525627196,9.598390102,-39.33112049,-27.01063395,-9.668260932
2.383238,-26.74686098,6.762723088,-65.61935043,-2.794320256,0.456178978,9.90429771,-33.94383526,-23.75382948,-14.15184355
2.391571,-26.96303845,6.523629189,-65.57440945,0.071846395,1.844155818,10.61986852,-27.24800682,-28.47227383,-8.537652732
2.399904,-27.15373326,6.283493877,-65.59347153,-2.204176035,0.423324281,12.13889575,-23.35460139,-25.14446974,-15.40267086
2.408237,-27.29295635,6.078168512,-65.56769563,-1.405224502,1.25905697,9.729722501,-17.72899676,-23.75573492,-8.925152301
2.41657,-27.39004135,5.831186772,-65.56266403,-1.149027743,1.235620275,11.26055777,-12.42862117,-27.11796809,-13.35064435
2.424903,-27.47240639,5.637500644,-65.53437423,-1.269357607,0.421008043,10.75757885,-10.92240262,-22.63041496,-8.090414166
2.433236,-27.50385284,5.392695666,-65.51426698,-1.844117031,0.521598623,11.1856122,-4.734090626,-27.67673969,-11.71346938
2.441569,-27.5419569,5.229967356,-65.4886055,-2.11597395,0.124003615,10.16406655,-5.545307845,-19.17114449,-6.705780626
2.449902,-27.55143309,5.004780471,-65.45326618,-0.861257767,0.151459444,11.78657055,-2.232669652,-26.37377739,-9.121827961
2.458235,-27.55314636,4.848312438,-65.42824175,-1.697472326,0.328136264,10.80935168,-1.160625875,-18.47384596,-6.430529475
2.466568,-27.54747677,4.658965886,-65.39515305,-1.938242004,-0.118064759,10.2994926,-0.388017364,-22.48380518,-7.278432965
2.474901,-27.53966904,4.537499308,-65.37108233,-1.593091801,-0.924671579,11.96639967,0.021378614,-14.70175743,-4.584279895
2.483234,-27.5562706,4.385043204,-65.3433075,-1.339832008,-0.005181432,10.73678017,-2.989146829,-18.26521826,-5.788450897
2.491567,-27.55362225,4.267294049,-65.32642363,-1.922475427,-0.84198989,11.16705131,-0.538667321,-13.90964365,-5.141300142
2.4999,-27.56526232,4.189609289,-65.31446838,-2.099782765,0.333323035,10.56333757,-2.238085628,-9.387653231,-3.406754464
2.508233,-27.581388,4.092018604,-65.30426408,-1.212678164,-1.198696032,10.79690087,-2.717244998,-11.39489436,-4.732598663
2.516566,-27.59642458,4.058077931,-65.29447175,-2.629017219,-0.0526721,11.66649437,-2.619174242,-4.61312744,-1.211191639
2.524899,-27.63407421,3.994491041,-65.3039131,-1.054531172,-0.446717319,9.227198839,-5.143732585,-6.684351921,-4.937986136
2.533232,-27.66340303,3.990116,-65.30106355,-1.933364898,-0.549871039,10.15623188,-4.281710982,-1.08539363,-0.3133774
2.541565,-27.70756245,3.94400382,-65.31112288,-0.54582654,-0.334734677,12.21480513,-5.913811743,-4.783666849,-4.041968048
2.549898,-27.77942753,3.961493254,-65.3053093,-2.412046947,-1.153135821,9.598244786,-9.414470674,1.025443588,1.31693986
2.558231,-27.84164238,3.936886311,-65.32020185,-0.198120728,-0.806080424,9.308443427,-8.059855342,-2.233077904,-3.341700554
2.566564,-27.93045187,3.986603737,-65.34420395,-3.438820921,0.226828132,12.05944061,-11.19136405,6.105829953,-0.019255392
2.574897,-28.02809334,3.981520832,-65.36007308,-0.354719682,-1.477981061,9.810156227,-12.30532694,-0.093431249,-2.362366006
2.58323,-28.12189198,4.066704571,-65.39114383,-2.214272008,0.100715108,11.3930726,-11.73338795,10.25842989,1.248271719
2.591563,-28.24110794,4.050826312,-65.40276335,0.11022684,-0.431304284,10.01592135,-14.94128203,-1.466761001,-2.530481935
2.599896,-28.3819356,4.136339367,-65.442482,-3.287569463,-1.84089908,11.95802188,-17.30036879,10.77255356,0.409808755
2.608229,-28.51707077,4.141243577,-65.440464,0.918678135,0.175511305,10.31293237,-16.96251035,-0.044267751,0.095156898
2.616562,-28.67991638,4.21438092,-65.48989108,-3.36961323,-0.829259277,10.5695678,-19.85021019,10.01668513,-1.244861893
2.624895,-28.82469272,4.215884745,-65.48833085,0.490536686,-0.928656567,10.38841832,-18.13190937,-0.386355281,-0.147698209
2.633228,-28.99183989,4.291657269,-65.54039,-3.276136339,0.029965051,10.35618222,-20.33322048,10.44645369,-1.301389337
2.641561,-29.17107487,4.27665335,-65.52960968,1.238470055,-0.512117877,10.25648701,-22.34509134,-2.65374139,-0.150266089
2.649894,-29.34105206,4.311653376,-65.5639763,-2.368354112,-1.156444281,11.29104209,-20.82002497,5.147420107,-1.773828328
2.658227,-29.51475906,4.31023407,-65.54392243,0.032633374,0.185023856,8.744342805,-21.78353143,-1.784412742,1.612432781
2.66656,-29.68036795,4.322725594,-65.5711975,-2.345071525,-0.341585529,10.97698605,-20.35959482,2.383523584,-2.328081876
2.674893,-29.83184815,4.348653257,-65.56226348,-0.607287221,-0.41438864,12.13968778,-19.02424622,1.711540729,2.081627682
2.683226,-29.9582181,4.342353523,-65.55817798,-2.699571699,0.595905898,10.45274687,-15.91660953,-1.43591851,-0.172979429
2.691559,-30.07193518,4.398702383,-65.57110213,-0.532186389,0.36342185,9.389372945,-14.3028481,6.172674596,1.646236822
2.699892,-30.17021513,4.377902568,-65.55830383,-1.801571214,-0.655287497,10.40091211,-12.64520907,-3.476224065,-0.141032003
2.708225,-30.25338173,4.468669653,-65.5911255,-1.633771047,1.141748138,13.16336274,-10.43559694,10.95382541,1.660273522
2.716558,-30.32373858,4.443967164,-65.57066723,-0.773230262,-0.790425055,8.751049518,-9.371477962,-4.354074568,0.416215353
2.724891,-30.36967802,4.560278356,-65.61540988,-2.146522392,-0.433861658,11.82071674,-5.861617327,14.27773952,2.075749159
2.733224,-30.42541886,4.521916151,-65.59506608,0.064907462,0.342977103,8.887518882,-7.628941597,-5.770660341,-0.429377899
2.741557,-30.46342945,4.630108714,-65.64910508,-3.281921655,-0.883478053,12.41600466,-4.805253625,14.01904798,0.626444258
2.74989,-30.49845982,4.628297329,-65.63825608,0.442332562,-0.647201717,9.779824376,-5.074948311,-1.427093923,0.816444159
2.758223,-30.51530171,4.692623794,-65.66568375,-2.835112989,0.431286812,10.68056333,-2.490488112,7.883124649,0.69525991
2.766556,-30.52400065,4.740826488,-65.68712615,-0.513153313,-0.46103124,11.16308296,-1.627695024,5.692316026,0.551227996
2.774889,-30.51042128,4.74114126,-65.66658785,-1.630536161,-0.23125625,10.7707535,0.698637942,-1.673701584,1.774717465
2.783222,-30.49733544,4.868596613,-65.72681805,-2.655751333,0.535504371,11.44585681,1.372125864,16.22706604,1.422547609
2.791555,-30.46916533,4.854397535,-65.70577238,0.738153279,-1.34984088,9.596208453,2.428655703,-3.221442043,0.939405277
2.799888,-30.43457222,4.933502257,-65.73935698,-3.653918386,-0.004533821,11.32440412,3.714035958,9.60612823,1.251559779
2.808221,-30.39523506,4.988297939,-65.756649,0.804723468,-0.633252099,8.977091193,4.157104313,6.284853877,1.097182743
2.816554,-30.36573315,4.984253168,-65.74420548,-1.739947677,-1.224103689,10.60213721,2.624373842,-1.785206556,0.932982609
2.824887,-30.33333826,5.073095798,-65.78639983,-2.010089025,-0.501688956,12.73064923,3.579990029,11.30344415,0.634154119
2.83322,-30.30608606,5.082090497,-65.7839737,-0.440872565,-0.15748075,11.95126843,2.458371103,0.174762964,0.657437328
2.841553,-30.27583313,5.12731874,-65.7914314,-3.072489649,-1.366991639,8.944039226,2.969576843,4.713785022,1.546244975
2.849886,-30.23436689,5.23747474,-65.84114455,-1.513218068,-0.203218498,10.84981084,4.712062657,13.79608273,1.402312368
2.858219,-30.21367788,5.257376075,-65.83365248,-0.508608222,-1.007670939,11.11025942,1.661528155,1.162508413,1.581995964
2.866552,-30.16250801,5.355296016,-65.85644148,-3.228662968,0.736648366,13.09046459,5.58982426,10.92138386,3.428693175
2.874885,-30.08960295,5.474889636,-65.89052963,-1.320661098,0.305270982,10.08478701,8.38526702,14.04041743,3.217632115
2.883218,-29.94814253,5.556582451,-65.88282013,-1.103240729,1.861932516,10.14556539,16.09120441,7.415531755,5.576672197
2.891551,-29.73787785,5.71916604,-65.92022705,-2.964058995,1.309557274,11.14717734,24.92401362,18.7244041,5.398899556
2.899884,-29.43674374,5.851042748,-65.92113493,0.094882198,2.388425022,10.56947422,35.3437953,13.19958007,7.593590498
2.908217,-29.05130577,5.992928743,-65.92678835,-2.766846776,1.715495065,10.4924072,45.57324219,14.76025152,7.299211502
2.91655,-28.56413842,6.190933466,-65.93946455,-1.195737809,2.461880505,11.72248816,57.80669308,20.94041562,9.996267557
2.924883,-27.98531008,6.305546403,-65.92311475,-0.113938272,1.533310883,10.08241749,68.50974083,10.78179979,7.755918384
2.933216,-27.32262373,6.487380505,-65.9337387,-2.292666659,1.543322742,10.38305891,78.84501267,19.31572294,8.888025403
2.941549,-26.565063,6.616980911,-65.92856978,-0.191824839,2.369506032,10.98474574,90.09051132,13.16227913,7.137932778
2.949882,-25.728508,6.743249059,-65.90517808,-1.77135244,0.821016155,11.39935756,99.26298332,11.78708291,9.045849323
2.958215,-24.80001402,6.888336301,-65.8907776,-1.221212283,1.496840641,11.00446105,110.4610996,14.60460353,8.495279074
2.966548,-23.78836966,7.002952457,-65.84301378,-0.851358496,1.975890994,9.949630499,119.9209976,9.73347938,10.461591
2.974881,-22.71582699,7.130886555,-65.81622313,-2.158480049,0.660842508,10.27796459,127.5597344,12.44568693,8.474997758
2.983214,-21.55645371,7.279645443,-65.77372743,-1.067468271,1.368273139,13.20763826,137.7215157,14.16425788,11.02947211
2.991547,-20.34370184,7.362869978,-65.70472718,-0.930137258,1.219487787,9.732889415,143.7468567,6.006989479,10.65656948
2.99988,-19.05296326,7.516344428,-65.65201185,-1.489474699,1.184729852,11.7357297,153.2803459,14.76508725,11.73558188
3.008213,-17.7108326,7.547742367,-65.56934355,-0.12257801,0.504355259,9.797230483,159.0249672,0.087363437,9.921576262
3.016546,-16.30674267,7.659864545,-65.4912834,-1.941494517,1.385994554,10.62405276,166.4877091,9.685025931,12.42988968
3.024879,-14.8385365,7.642517924,-65.3847809,1.538257554,0.925982386,10.72196865,173.7541046,-5.803983188,11.05242252
3.033212,-13.30610419,7.638808012,-65.2681236,-1.845989764,0.979847863,9.833670377,181.2524872,-4.27689296,13.00829387
3.041545,-11.71998859,7.591310859,-65.15050125,0.401881397,0.625369795,10.93818593,187.72892,-8.99716127,11.81310463
3.049878,-10.11533904,7.526020884,-65.0125885,-1.24231197,-0.086842977,13.44544459,189.6400452,-11.24797296,14.14269758
3.058211,-8.466986179,7.3926332,-64.87092588,0.433505461,0.127315536,10.57572973,194.8568382,-18.93416333,13.46435642
3.066544,-6.80383575,7.257182717,-64.71889498,-1.680188865,-0.020823926,10.18665528,196.5401535,-18.93650103,15.06770873
3.074877,-5.149613619,7.111744642,-64.58090593,-1.267667607,-1.552536905,13.07212448,195.6936684,-19.49511576,13.92792225
3.08321,-3.494583488,6.955199123,-64.4371128,-0.814865421,-1.240090415,11.63636875,195.8019447,-20.46568585,14.90441251
3.091543,-1.875091851,6.752783775,-64.30204198,-0.211521166,-0.99799718,9.359845163,191.6698799,-25.45718146,14.32204604
3.099876,-0.264504502,6.533143282,-64.18040658,-0.98648452,-1.426040404,10.28178549,190.8880196,-27.07993078,13.16732168
3.108209,1.332878679,6.320818424,-64.0704212,-1.282108933,-1.390436858,12.96028828,189.4813538,-25.81169462,12.7762127
3.116542,2.860772133,6.100320459,-63.9683647,-1.706422359,-2.058388889,11.10008979,181.3493729,-26.48737431,12.27278495
3.124875,4.357099056,5.827596426,-63.89230728,0.518947169,-1.95826003,9.918422459,177.8491822,-32.54544115,10.58193064
3.133208,5.83660543,5.609186113,-63.8261509,-2.919803619,-2.028293908,14.34757209,176.0406952,-25.88807726,9.619362592
3.141541,7.233847499,5.33812356,-63.76288223,1.03851676,-2.039332778,11.34446478,166.2098542,-31.92498064,10.72517109
3.149874,8.576203108,5.043307066,-63.72440718,-2.203050047,-2.245445579,9.088417053,159.9440995,-34.90084648,8.8372612
3.158207,9.889752867,4.785706878,-63.68026925,-0.277103022,-2.950953901,11.06614506,156.4582138,-30.14733744,9.666190862
3.16654,11.13501739,4.42595613,-63.6863041,-0.162335046,-2.221553415,10.23618865,148.7265244,-43.03508854,6.779506922
3.174873,12.30212736,4.14627409,-63.68379975,-1.561018907,-2.489222855,14.27332568,139.3273697,-33.29023552,6.604046226
3.183206,13.37839556,3.803239197,-63.7052555,0.072745944,-3.08723265,11.87820053,128.5803967,-41.16556549,6.267487645
3.191539,14.38494325,3.454362631,-63.74181555,-0.627784163,-2.875546337,9.906256081,120.3492089,-42.17621899,5.328849077
3.199872,15.3351171,3.095448613,-63.79031753,-2.168926537,-2.374148637,9.490018488,113.6206208,-43.58100701,5.057724833
3.208205,16.22088456,2.768595368,-63.84145355,0.046143815,-2.630329132,12.55564666,105.8769684,-39.90355683,4.258369804
3.216538,17.02855873,2.363614261,-63.9275608,-1.953385927,-3.097359717,10.81463456,96.65889359,-49.98369694,3.647255361
3.224871,17.77681446,2.08170215,-63.97131348,-0.722753055,-1.623070449,12.58856058,89.27215958,-34.33970165,4.624373496
3.233204,18.44711685,1.688356161,-64.07658578,-1.03667441,-3.634452939,9.662101984,80.1145134,-49.25040054,2.29772991
3.241537,19.03138399,1.365760073,-64.14170455,-0.963239506,-2.238306433,11.88762415,69.59288025,-39.66937876,4.544080674
3.24987,19.57317019,1.062133655,-64.23172375,-3.717332482,-2.792170823,10.38381446,64.53790569,-38.42052078,1.478982754
3.258203,20.03284073,0.746347085,-64.2875061,2.241576545,-2.322297692,9.845834493,54.51448727,-38.43145275,6.011607528
3.266536,20.43761539,0.470145531,-64.39193725,-5.876570344,-2.945370019,10.5758971,48.00461578,-35.89524365,-0.64727696
3.274869,20.77951622,0.233209998,-64.42395023,1.647967907,-1.209300608,12.88210297,40.32188225,-28.47760487,5.888911247
3.283202,21.05684185,0.014158137,-64.50488663,-4.821932733,-3.892588854,8.800405263,32.58292007,-28.48317623,-0.049422711
3.291535,21.28313017,-0.205185063,-64.52703668,1.355421692,-0.989443518,10.02887571,26.41012669,-26.00947523,6.540250659
3.299868,21.47526074,-0.331856653,-64.5764427,-5.479442179,-1.587514296,10.42889392,22.33229923,-16.77946806,-0.33982731
3.308201,21.64180994,-0.471287936,-64.55205153,1.781637855,-1.983911097,9.189769626,19.26975584,-14.97656298,8.416766644
3.316534,21.75889731,-0.599693492,-64.5918732,-4.28084898,-1.887010783,11.10930205,13.287395,-16.54765415,0.891020444
3.324867,21.82048225,-0.693959862,-64.5561142,1.608820308,-1.419092238,9.890465617,6.731351316,-9.393599153,7.768093705
3.3332,21.88936472,-0.750971638,-64.56056978,-5.864947975,-1.815761596,11.00283265,7.574168086,-7.015124739,1.691327274
3.341533,21.9202404,-0.842784166,-64.51869775,3.775999792,0.120119907,11.98209465,3.036257513,-8.861483096,8.26577282
3.349866,21.92470551,-0.873150066,-64.52936553,-5.92271924,-2.750364632,8.183924914,-0.176260978,-4.324717178,-0.192077875
3.358199,21.93191386,-0.954315268,-64.47815323,3.159861833,-0.16116851,10.15288174,0.239291481,-7.25047934,8.85596311
3.366532,21.92161035,-0.977210738,-64.48799703,-5.762668967,-0.896042302,11.53258026,-1.961595446,-3.460019216,-0.428340435
3.374865,21.90088177,-0.986480445,-64.41576005,2.504893929,-1.098984393,9.617263914,-3.026680947,1.694791496,7.97068286
3.383198,21.90460301,-1.010250744,-64.42322923,-5.397597551,-0.45796042,11.94612599,-0.286440825,-3.448521376,-0.127056152
3.391531,21.87517834,-1.060767788,-64.35467148,4.245652914,0.032213055,10.32944608,-4.086428538,-3.062028523,9.412336229
3.399864,21.83751536,-1.058920534,-64.36857608,-5.306263804,-2.489999115,11.04158282,-5.256265402,-0.884782911,-1.993162036
3.408197,21.7965827,-1.141677609,-64.31088068,3.398586571,-0.306079602,10.0539906,-5.454193533,-7.148373931,9.655620454
3.41653,21.72997523,-1.150025943,-64.33467863,-4.629639328,-0.922927799,11.62386179,-8.770000698,-2.460116774,-2.641311288
3.424863,21.66323614,-1.18777976,-64.2688141,1.176899143,-1.266126083,9.049901843,-8.489948392,-1.774756342,8.594349211
3.433196,21.61456537,-1.212924608,-64.28864483,-3.991887212,0.153294444,10.81193006,-6.638717532,-4.15046066,-1.45747906
3.441529,21.54032564,-1.219430142,-64.21499443,0.148409814,-0.401154839,10.57589793,-9.346098662,2.030219987,8.061746252
3.449862,21.49396849,-1.20370228,-64.20749093,-3.079179026,-0.315096393,8.736120225,-6.307067155,1.616539993,-0.207519411
3.458195,21.452353,-1.208098153,-64.14763453,-1.36602588,-0.493282273,12.06920385,-5.461803973,1.651016936,6.453244686
3.466528,21.40540552,-1.144507349,-64.09518435,-0.909018427,0.395751998,9.709645153,-6.276391432,8.932735205,2.703976705
3.474861,21.38849354,-1.076271819,-64.04942133,-3.258554548,-0.408941783,11.2176981,-2.543913186,9.143235444,1.724747718
3.483194,21.38460541,-0.97799816,-63.97327613,0.096884668,0.707501222,11.71637606,-1.060028792,13.8426981,3.836344102
3.491527,21.39067555,-0.840924956,-63.92448235,-2.92375356,-0.994912833,8.838938892,0.197264612,16.96106577,-0.961100653
3.49986,21.42147207,-0.671457127,-63.8321991,-1.165706948,0.24372679,10.36142301,3.121169388,22.50473022,2.52708881
3.508193,21.47816229,-0.519806996,-63.80125045,-1.704619627,-0.618174816,10.11606884,6.174902678,17.79260707,-3.649523706
3.516526,21.54628468,-0.304054529,-63.69065095,-1.624775827,0.036079203,10.98565459,7.587300778,28.47719097,2.493643612
3.524859,21.62568617,-0.123219408,-63.65877723,-0.88623187,0.023606971,12.05719602,8.811634182,21.09017038,-4.872630179
3.533192,21.70478726,0.136447061,-63.52900313,-1.910441507,0.100474036,11.43087578,8.835517763,34.23443985,2.597126484
3.541525,21.7889514,0.366053072,-63.46228218,-0.521457397,-0.689304583,9.924864769,9.37622714,28.05597353,-3.215626419
3.549858,21.87389135,0.61301703,-63.34183313,-1.188925145,-0.60444741,9.850803971,9.393613101,32.4124856,2.030096501
3.558191,21.98298025,0.859135002,-63.28101158,-1.644965381,-1.316782255,9.677947877,12.32330656,29.61835098,-4.699876785
3.566524,22.11314011,1.086079717,-63.16448978,-0.529100051,0.571155749,12.07961607,14.70987988,30.01105261,2.364670307
3.574857,22.23375988,1.344098419,-63.10593605,-0.997606039,-0.18597867,12.72754502,13.63702631,30.82792091,-5.621414304
3.58319,22.33583307,1.567304731,-62.99101638,-0.579526685,-0.739110194,10.25054347,11.24620855,29.53795957,2.234299734
3.591523,22.45141363,1.82017111,-62.94064713,-1.972881585,-0.247981906,9.771650075,13.00594067,29.85724735,-6.410710752
3.599856,22.59430647,2.000668954,-62.8505516,-0.184676573,-0.965293557,10.35468888,16.14197517,23.67012167,1.315596223
3.608189,22.73744679,2.2234561,-62.79593468,-0.568510212,-0.122369368,13.11352348,16.22320509,26.68664169,-4.721491814
3.616522,22.85904837,2.361355651,-62.7348862,0.463911712,0.257262171,9.574476124,13.68236852,17.6115942,-0.024682671
3.624855,22.96023226,2.553637751,-62.68395995,-2.075995654,-1.759522259,10.12001354,11.1869719,23.13786411,-3.790867448
3.633188,23.06834698,2.644778118,-62.63878633,0.567734668,-2.021026105,10.87048876,12.07888651,11.70804918,0.340708107
3.641521,23.15066719,2.800471604,-62.60032463,-1.771544103,-0.013476898,12.26548362,8.972496868,18.49372864,-3.526188165
3.649854,23.17456627,2.88966544,-62.56320763,0.697702036,-1.537762255,9.230295422,2.01030755,11.1169318,-0.491354648
3.658187,23.17429829,2.980278343,-62.54096413,-1.481015239,-1.698214591,9.840856909,-0.871514887,10.54515779,-2.262598157
3.66652,23.17544413,3.030363903,-62.5210743,-0.002001904,-0.945990413,11.1514895,-0.605856713,5.989232956,-0.544305563
3.674853,23.14725685,3.096587002,-62.50200653,-1.180561177,-0.604883628,11.79016852,-4.201983273,7.752463043,-1.344590485
3.683186,23.08494234,3.144175828,-62.50964358,0.26513163,-1.826266438,9.446650505,-8.063689262,4.419779151,-3.452818751
3.691519,23.00379801,3.163576394,-62.50382805,-2.514742881,-0.147214982,11.20279729,-10.44551873,1.908325195,-0.711912513
3.699852,22.91087294,3.234208375,-62.51696968,0.106686018,-1.758657962,11.95901144,-11.70428062,6.718203337,-5.132639766
3.708185,22.77004767,3.202819437,-62.54248048,-0.903536439,-1.120912999,11.14673269,-17.40572977,-5.130498738,-1.71922803
3.716518,22.5850277,3.307557732,-62.55024525,-1.641997606,-1.204776075,11.49112821,-22.76789284,10.76691929,-6.067183375
3.724851,22.38635063,3.262464583,-62.5800915,-0.273209189,-1.885406733,8.088922858,-24.33153248,-6.870564744,-1.677970208
3.733184,22.16264296,3.393395573,-62.5899086,-3.42226118,-1.045875952,14.0803709,-27.39492607,13.62144804,-7.404540777
3.741517,21.84365034,3.361471862,-62.61540605,1.376526952,-2.513373494,10.01068509,-38.76802636,-5.206871598,-1.882177905
3.74985,21.47035265,3.458982826,-62.64476968,-3.042348922,-2.812245071,8.449837832,-45.23959541,9.104311287,-7.92584753
3.758183,21.0280962,3.46170342,-62.6700535,0.196343955,-2.263683617,10.34013259,-53.53741932,-1.293176414,-3.412369371
3.766516,20.51082611,3.54914093,-62.6979084,-2.84580189,-2.133795291,13.46160376,-62.53652287,8.152472735,-7.164449334
3.774849,19.92657184,3.649765998,-62.70365143,-0.637187149,-1.980526701,11.64816129,-70.68742752,10.58393705,-5.344902039
3.783182,19.24453116,3.6662983,-62.75180625,-1.327824235,-2.628548771,8.950310825,-82.14247132,-0.537031292,-6.420886874
3.791515,18.51352787,3.841074914,-62.75310898,-1.642156117,-2.925382316,11.72385597,-88.34995079,19.2896812,-7.424864888
3.799848,17.72608519,3.833984018,-62.8049278,-0.636883438,-1.133110955,9.048357622,-94.74092293,-3.211260259,-5.967747807
3.808181,16.8748765,4.082892895,-62.7827854,-3.285890702,-1.610560594,13.4032259,-102.9479885,28.79628182,-6.864127279
3.816514,15.9401629,4.069206655,-62.84485818,2.519890197,-2.944908381,9.271727682,-112.3213749,-4.149057955,-7.046062231
3.824847,14.95775032,4.255288243,-62.84965898,-4.831398189,-0.645545557,9.683509694,-118.4507351,20.88322985,-6.906053066
3.83318,13.94505096,4.344825327,-62.88428498,2.118022501,-1.592850596,9.052229641,-121.9007378,8.89062355,-7.095090509
3.841513,12.89539528,4.48247242,-62.90670395,-3.977048695,-1.260152727,12.68444908,-126.3771801,14.95243317,-6.872091651
3.849846,11.79664874,4.615926266,-62.91560745,1.598208472,-0.23181203,10.50614268,-132.4105682,14.94642985,-4.881954968
3.858179,10.66376972,4.70252645,-62.97502135,-3.294230372,-1.637596458,10.11845977,-136.0247612,8.32397926,-9.361397267
3.866512,9.552329541,4.898689032,-62.98316958,-0.905634374,-0.316454604,11.4129231,-133.9013061,22.49317169,-5.722319841
3.874845,8.413286567,5.041926205,-63.03448105,-1.282149985,0.526457351,8.646632433,-136.8141823,15.53715992,-9.161715269
3.883178,7.269399643,5.18923825,-63.06251335,-0.407171246,-0.188466512,10.26231468,-137.5806275,16.55573559,-6.335787535
3.891511,6.132072091,5.339812517,-63.12621118,-1.114572488,-0.847726718,9.383067846,-136.4336357,16.57721519,-10.11927795
3.899844,5.032978296,5.517377794,-63.16029933,-2.609122574,1.5006085,10.64799667,-132.1238976,20.31872129,-6.712815404
3.908177,3.925844431,5.740384996,-63.24142268,-0.449970849,0.388432246,10.93127441,-132.5568771,25.44468594,-12.20956993
3.91651,2.860279143,5.892614722,-63.27859118,-1.261289574,-0.220618322,10.15769339,-128.0284539,17.49378467,-6.096582532
3.924843,1.801277727,6.072241068,-63.36014558,0.657707214,1.213236243,9.717789172,-126.7333222,20.66475129,-11.08005524
3.933176,0.747035869,6.220142603,-63.4184532,-2.059613407,-0.169584779,9.808117747,-126.3374157,17.10983395,-8.232085824
3.941509,-0.260513459,6.374734402,-63.50216485,0.026874229,0.328204431,11.52069211,-120.4666996,18.03871989,-10.51858616
3.949842,-1.271731064,6.528506518,-63.55381775,-1.321865946,1.000883089,8.766868115,-121.2144813,18.0785749,-6.779101967
3.958175,-2.276410043,6.568040013,-63.64272115,2.463501513,-0.589322917,8.076237559,-120.0418835,4.5967139,-10.93575466
3.966508,-3.281899691,6.654805422,-63.71441843,-2.344950676,-0.970581571,11.12660265,-120.2260056,10.37900138,-8.872577667
3.974841,-4.299660742,6.659405828,-63.79047585,0.614294522,0.347764807,10.58141422,-121.7477779,0.68965061,-9.514501213
3.983174,-5.323885322,6.712423801,-63.86572645,-0.854200229,-0.319070455,11.18413818,-122.4504833,6.658265828,-9.103113174
3.991507,-6.365214586,6.599713564,-63.93356895,1.796564892,-0.660432253,8.709734798,-124.6969013,-13.08935475,-9.939262865
3.99984,-7.421306014,6.582205415,-64.02881433,-3.592927158,-0.268384174,12.14951789,-126.0180416,-1.148205696,-12.145329
4.008173,-8.465376139,6.498466849,-64.092659,1.67607291,0.105647687,9.483032167,-125.0992947,-9.355946967,-9.41420269
4.016506,-9.507274866,6.398190141,-64.1771431,-2.263689667,-0.045712497,9.197681665,-124.5108433,-10.75546884,-12.25557137
4.024839,-10.54837203,6.272225142,-64.2376957,1.465315908,0.792318538,11.04050088,-124.8192425,-14.08606523,-10.18899369
4.033172,-11.59163523,6.134449959,-64.32746698,-3.55374673,-0.649122864,10.1370424,-124.6949501,-14.66775928,-13.81263948
4.041505,-12.60548783,6.02712059,-64.38138198,1.251406387,0.727569901,10.57314694,-121.6684857,-11.70931681,-9.397418499
4.049838,-13.63167095,5.837096334,-64.45095823,-2.445860759,0.203867577,11.60453558,-122.9587135,-20.83877838,-13.36306787
4.058171,-14.64099741,5.69502151,-64.48609545,1.410381768,-0.427426502,9.89687924,-121.3870831,-15.96089041,-8.67747581
4.066504,-15.6493721,5.462301493,-64.53511428,-2.209985003,0.030907045,9.711564266,-121.1007786,-25.89287424,-13.26904035
4.074837,-16.6450491,5.329434097,-64.575264,0.104985684,0.754571565,15.00296903,-119.7215061,-14.44429707,-9.434735297
4.08317,-17.60485268,5.075900376,-64.59056858,-2.33302325,0.633571381,8.561770082,-115.6678295,-29.00119496,-11.03750014
4.091503,-18.54498244,4.935761035,-64.61279295,0.325678975,1.129986182,9.811920403,-113.2776261,-15.62542558,-8.122297406
4.099836,-19.4566412,4.658654749,-64.61976243,-0.893868149,-0.363802191,8.861046671,-110.0016728,-31.63753176,-11.95770955
4.108169,-20.33972359,4.491292954,-64.62368395,-0.82253059,0.749860516,11.66371655,-106.6202069,-19.1823783,-7.654266
4.116502,-21.18659926,4.237173736,-64.62589265,-1.422865316,1.06579043,11.84793901,-102.2696419,-28.88526345,-11.39390922
4.124835,-21.99049378,4.067965329,-64.6175766,-1.187702507,0.580321369,10.70626306,-97.24117087,-19.71424246,-6.905529738
4.133168,-22.73494625,3.876114846,-64.61834718,-2.294632733,2.125561625,9.499685764,-90.01351166,-21.72267866,-9.195408105
4.141501,-23.44105196,3.709855497,-64.6015854,-0.634250082,1.788795442,12.06968307,-85.54847527,-19.60543346,-6.334519505
4.149834,-24.07440948,3.572728157,-64.5953331,-2.562742651,1.44644925,10.72429895,-76.74853325,-15.82927346,-6.30084157
4.158167,-24.63981104,3.414834142,-64.57307053,-0.609779909,2.050356239,8.871860864,-68.68268585,-18.82294702,-5.746565819
4.1665,-25.14819527,3.348056793,-64.58151628,-2.7524499,1.321565241,10.9342916,-61.67190457,-7.310759365,-4.664294422
4.174833,-25.58608914,3.206110686,-64.55377578,0.160825622,1.722139686,11.74041939,-53.38471603,-17.27929402,-4.636205137
4.183166,-25.96664763,3.17100063,-64.55878068,-2.631858319,1.740779638,10.2209481,-46.37546635,-4.001440488,-2.748573303
4.191499,-26.27136326,3.070114076,-64.5510559,-0.588066071,1.251656875,9.575849174,-37.27070141,-11.7437619,-4.845070064
4.199832,-26.53337956,3.056402833,-64.55093003,-2.335359767,1.039144218,11.4692347,-32.17795229,-1.946209575,-1.097776055
4.208165,-26.73727608,2.995308042,-64.55221938,-0.50820148,0.972754717,11.25332809,-25.1159091,-6.948477314,-3.771682441
4.216498,-26.90941095,2.981741101,-64.54860305,-1.38322521,0.823044745,10.06036186,-21.41513968,-2.114375478,-0.729442775
4.224831,-27.03287602,2.941574395,-64.56464768,-1.691602267,0.24882371,10.69568729,-15.39024806,-3.883663326,-4.261930883
4.233164,-27.14089775,2.947809697,-64.56700133,-1.117437929,0.701515667,11.82096076,-13.66892076,0.329674449,-0.29528416
4.241497,-27.21795797,2.916671604,-64.57528685,-1.5660218,-0.031135387,10.0721457,-9.877884986,-3.34033984,-2.927179218
4.24983,-27.28110123,2.951429665,-64.59140775,-0.842749905,0.359922219,10.5819577,-8.197372556,4.128618419,-0.195516672
4.258163,-27.33517313,2.902167946,-64.59317398,-0.954885163,0.105526282,10.67741513,-7.179020763,-5.631264418,-3.236285389
4.266496,-27.37151575,2.974771112,-64.62241745,-2.781211078,0.009307116,11.59040356,-4.896244765,8.823560834,0.630427226
4.274829,-27.40801239,2.933545709,-64.62295913,0.54830279,-0.522117876,9.316347717,-5.079159469,-4.822626233,-2.713530719
4.283162,-27.42669868,2.997243941,-64.64502335,-2.353658527,0.366653919,10.7032516,-2.811825246,7.478726209,0.929201245
4.291495,-27.45748997,2.988868714,-64.66140748,0.471398573,-0.815209091,10.66612208,-4.320542276,-0.452702523,-2.589195848
4.299828,-27.48187017,2.999200642,-64.657444,-2.860980004,-0.149609059,11.98103726,-3.642174959,0.416279078,0.640874743
4.308161,-27.51674271,3.066331357,-64.70646288,-0.925232018,-0.49942847,11.23663545,-4.615791261,9.39636886,-1.871126637
4.316494,-27.54966879,3.051850915,-64.6857567,-0.423983738,-0.986281462,9.839301825,-4.781053931,-3.213187412,1.136811048
4.324827,-27.58949328,3.116736382,-64.72660445,-2.615163118,0.22440226,11.40210819,-5.247425437,8.719135104,-1.115832865
4.33316,-27.63720608,3.138390482,-64.73467638,0.507264648,-0.5985329,10.33874852,-6.379107893,2.221808791,0.070176557
4.341493,-27.71395207,3.133623719,-64.72822193,-1.741125616,-1.542758659,11.20621282,-9.992269279,-1.322822213,0.062566012
4.349826,-27.79608965,3.228760451,-64.77553558,-1.28783606,-0.700220939,12.2457999,-10.25856423,12.27858102,-0.089710565
4.358159,-27.90965414,3.198790044,-64.75001528,0.178007335,-0.538055074,10.44782829,-14.53036594,-5.074587792,0.654049969
4.366492,-28.01397038,3.260700405,-64.7843399,-3.101235747,-1.331536755,11.29774666,-13.00234795,7.959052384,-0.37839919
4.374825,-28.12750149,3.31229201,-64.79725265,0.187593728,-0.290878412,9.413762927,-14.2682817,5.728948057,1.165844856
4.383158,-28.2505827,3.309502065,-64.8040924,-1.131567434,-0.774425387,10.53640699,-15.45000768,-0.448780691,-1.111923814
4.391491,-28.38150406,3.374227643,-64.82039645,-1.901999221,-0.562224303,12.8506422,-16.32741166,7.300011157,1.612669558
4.399824,-28.51419211,3.413206756,-64.85050965,-0.537916415,-0.188839108,10.83020568,-16.44880271,5.292651533,-1.20787482
4.408157,-28.65480614,3.415589809,-64.82828523,-0.816842318,-0.736612955,8.94226408,-17.74545503,-1.475563228,2.102983818
4.41649,-28.78285885,3.498328746,-64.88062668,-2.07271497,-0.673925892,10.65253258,-15.73617649,11.1762271,-0.960889504
4.424823,-28.92665291,3.496760726,-64.8539505,1.178262294,-0.532258354,10.37347197,-18.16868472,-2.177556545,2.346177995
4.433156,-29.06243468,3.522819459,-64.8794632,-3.116735608,0.101848861,12.1650883,-16.85854697,3.671785593,-1.371604212
4.441489,-29.17460918,3.598255515,-64.89500428,-0.948861211,-0.209410215,11.62410212,-14.07054663,8.34562242,2.416399531
4.449822,-29.27757597,3.611518979,-64.90833665,-1.051522672,0.42442075,10.01960385,-13.01470661,1.610168785,-0.833660305
4.458155,-29.36222648,3.66494292,-64.9040489,-1.39534092,-0.182380731,10.55714965,-10.9041512,4.871491537,3.241594062
4.466488,-29.43248606,3.740452588,-64.9501114,-1.090409264,0.126801919,11.1762439,-8.846757889,10.03661037,-0.571024835
4.474821,-29.49799395,3.732981324,-64.9184532,0.078135248,-0.421301775,10.52190936,-8.817717073,-3.08990635,2.457743846
4.483154,-29.56220722,3.808411301,-64.96026995,-2.520789087,-0.906295538,11.64930558,-8.162306547,9.772398412,-0.070349411
4.491487,-29.60898018,3.855050981,-64.97655105,-0.020056472,-0.008207025,11.85860038,-6.203457952,5.349274307,0.711160183
4.49982,-29.65774965,3.853520513,-64.9740639,-1.336029962,-0.390091054,9.362085222,-6.639456749,-0.880339563,-0.007524312
4.508153,-29.67207289,3.928120315,-65.01113128,-2.238289893,-0.752835482,10.84871912,-2.140901989,9.507195234,0.2190274
4.516486,-29.69296932,3.968503654,-65.02560425,-0.026994593,0.627024107,10.20911646,-3.157623947,4.475034595,0.738823369
4.524819,-29.70519829,3.99072659,-65.04214478,-0.864947871,-1.209635154,11.50695157,-2.060658753,2.856029078,-0.809294602
4.533152,-29.71942711,4.017301262,-65.05065538,-0.976507254,-0.400946171,11.22608292,-2.402189448,2.679034557,0.558441609
4.541485,-29.73161554,4.064406216,-65.09276583,-1.707760737,-0.42570857,11.04689288,-1.852648869,6.950387538,-1.965069652
4.549818,-29.75458479,4.056199193,-65.0760689,0.583276778,-1.720682502,9.354555845,-3.656678643,-2.461511821,1.134188727
4.558151,-29.76307965,4.071474969,-65.09407043,-2.055623502,-0.221189996,10.32301927,-1.620583792,2.183783057,-1.299394101
4.566484,-29.78185272,4.096967161,-65.09771348,-0.64507787,-0.086384344,11.16919446,-2.977939934,2.244187981,1.054169893
4.574817,-29.79541779,4.102228284,-65.11207198,-0.90130271,-1.406884194,11.72142458,-2.258400582,0.922346167,-1.525106751
4.58315,-29.81205893,4.090802491,-65.09534835,-1.035558436,-0.382200936,10.31368637,-2.90729557,-2.81655094,0.978659064
4.591483,-29.83584213,4.12988925,-65.11737445,-2.134946436,-0.151268164,12.1177671,-3.4282251,4.922438026,-0.332408696
4.599816,-29.86558247,4.143946707,-65.11372758,-0.07919761,-1.822912246,10.42302465,-4.366922796,0.618631601,1.117904514
4.608149,-29.88354635,4.139822305,-65.10475923,-1.240067735,0.337002497,11.25807667,-2.988351882,-1.412218422,0.286376752
4.616482,-29.90012741,4.168051124,-65.10033798,-1.724356592,-0.412226466,9.958106636,-2.7922174,2.047307272,2.061891459
4.624815,-29.89228296,4.230947078,-65.12122343,-1.492711619,-0.598035589,10.81543302,0.359707087,7.306783795,1.256637529
4.633148,-29.8678875,4.238677442,-65.10144803,0.017387852,0.277946772,10.98415303,1.989553675,-1.002358772,2.41849941
4.641481,-29.81680823,4.297572613,-65.10403445,-3.126998365,0.97822515,11.44123769,5.391134143,5.82380061,2.884966731
4.649814,-29.72411537,4.380240083,-65.1247482,-0.520906432,-0.160303014,11.0861392,10.54379058,9.208129584,2.68299225
4.658147,-29.5942502,4.415733695,-65.10965348,-1.111090988,1.328116417,9.165430308,14.68528056,2.361680746,3.275289595
4.66648,-29.40458727,4.500668347,-65.12854388,-1.2849942,0.553747565,10.11834073,22.17051888,9.361274481,2.959627032
4.674813,-29.16989994,4.573538244,-65.12529753,-0.636811074,0.365960706,10.18543184,27.37135601,6.954810619,4.275054157
4.683146,-28.87957001,4.62683636,-65.12258148,-1.038835433,1.633049458,11.22240973,34.03416205,4.802152276,3.314219832
4.691479,-28.52773857,4.730956793,-65.12208178,-1.914353669,0.516428508,11.23899984,41.45373917,10.44927764,5.722200871
4.699812,-28.11333943,4.823357999,-65.12707518,-0.48969768,0.51150376,10.23986209,48.99740791,9.418211224,4.651014209
4.708145,-27.63633633,4.898252606,-65.1027565,-1.279737979,1.570093692,10.60770297,56.24767781,6.139997125,6.371120691
4.716478,-27.11006213,5.00266248,-65.1154823,-1.316303749,0.16045826,10.66461265,62.49958229,11.20761609,4.329874516
4.724811,-26.52188206,5.063637138,-65.08208468,-0.138598105,0.808701784,10.00917649,69.48027992,4.287542537,6.445994258
4.733144,-25.8880291,5.141524732,-65.0812416,-2.240513444,1.341632873,12.02001238,75.26826096,7.730175318,4.147173703
4.741477,-25.19766283,5.243908227,-65.06899645,-0.580373228,0.556907661,10.97793448,81.94964409,10.0171684,6.189380765
4.74981,-24.44040537,5.270041824,-65.0358887,-0.961699694,0.597181924,9.305956959,89.72961235,0.585815601,4.823249459
4.758143,-23.64465475,5.377177537,-65.02905653,-1.362045381,1.239822865,10.9097606,94.6655159,10.99064111,5.515087247
4.766476,-22.79668856,5.393738449,-64.98573305,0.079249282,0.396846304,11.11980987,100.5113373,-0.676204384,5.157747626
4.774809,-21.91816759,5.455960989,-64.9553795,-2.145044655,0.070343759,10.98989439,104.3403282,5.125707567,5.675330043
4.783142,-20.98774386,5.515268207,-64.9186058,-0.416448586,0.789779983,11.46727657,110.4628449,4.55558046,6.309693813
4.791475,-20.02987862,5.533950567,-64.86566163,-1.093832787,-0.215699248,8.795472025,113.6086998,-0.520341456,6.179607272
4.799808,-19.03426218,5.620762229,-64.8358498,-1.348359939,0.212722362,10.00178564,118.3545208,8.168589415,6.459043622
4.808141,-18.03967762,5.609129667,-64.77223205,-0.131670356,-0.889471844,10.66481996,117.8780937,-4.160346687,6.257743359
4.816474,-17.02723885,5.673648596,-64.73062133,-1.575981394,-0.510824673,10.99165607,120.2413902,5.423486412,6.694206119
4.824807,-16.01138783,5.630648255,-64.6643219,1.142604753,-0.671610758,9.966959358,120.3903084,-7.617009283,5.606515527
4.83314,-14.97638393,5.628358483,-64.60884858,-2.116518751,-0.124947191,11.01327085,122.7945175,-2.498476781,5.938495994
4.841473,-13.93649292,5.579965711,-64.54568863,0.956291273,-1.004136384,8.666768194,123.3121891,-7.922515005,5.315806985
4.849806,-12.89580822,5.483094156,-64.47304725,-0.102238078,-0.543707457,11.64179373,123.2840347,-13.78166962,5.364058733
4.858139,-11.85893583,5.370116115,-64.4125004,-0.11685089,-0.376697615,12.66932988,123.0020809,-15.2123394,3.617444634
4.866472,-10.78373146,5.202663362,-64.3387165,-0.409340963,-0.027591262,10.3391304,127.4518109,-21.91397381,4.41644597
4.874805,-9.69287181,5.026410997,-64.2596607,0.001741836,-0.469252858,7.84595275,129.3380985,-22.9208765,4.984119117
4.883138,-8.577792883,4.778385341,-64.17435835,1.007380374,-0.039433673,9.717291595,132.1718598,-31.47787905,5.054981709
4.891471,-7.46415472,4.498571038,-64.09522245,-1.184971802,-0.310003523,11.89823783,132.1396561,-34.99901819,4.113919139
4.899804,-6.32006383,4.236207425,-64.01810265,-0.714629847,-0.364855893,11.03816032,135.8458138,-32.83176518,5.058937252
4.908137,-5.191861987,3.887209177,-63.9384632,-0.288756661,-1.065410689,9.377571104,133.977356,-43.06313324,4.719908357
4.91647,-4.044547796,3.588041693,-63.87164118,-0.914773516,-0.7728085,12.39673972,136.438263,-36.86485004,4.399367273
4.924803,-2.897639215,3.219258666,-63.8133564,-0.211038109,-0.305021601,9.165199042,136.4804802,-45.03989315,3.732946277
4.933136,-1.764118135,2.856921435,-63.76603893,-1.450588942,-1.338107258,11.67996883,135.0017434,-44.12300301,3.172555417
4.941469,-0.62371286,2.487479687,-63.72264483,-0.437208453,-0.806934349,10.2570852,135.8864594,-44.88760758,3.731862545
4.949802,0.52224052,2.140432976,-63.6890869,-2.31637305,-0.140877161,9.252325655,136.6250877,-42.10795403,3.149339974
4.958135,1.673594683,1.746522949,-63.65870093,1.122486755,-1.128405392,9.544079423,137.3157616,-47.65329838,4.033254385
4.966468,2.809784472,1.349975906,-63.63756945,-1.699076414,-1.129970849,11.10129928,135.5396271,-47.92701435,3.560142755
4.974801,3.92546618,0.994117931,-63.62807655,-1.131161526,-0.994093255,12.01979125,133.1365509,-43.02749253,3.156138003
4.983134,5.039777279,0.586568302,-63.61836055,-1.037850112,-1.656813353,12.04443145,132.9729385,-49.16915607,4.084979177
4.991467,6.135552883,0.214528173,-63.6296749,-0.259582656,-0.800322883,10.64254427,130.7794724,-45.03802204,2.482009888
4.9998,7.21423161,-0.161827907,-63.65410233,-2.153912216,-1.087716714,8.138768196,128.7035122,-45.70300579,1.570018601
5.008133,8.284080505,-0.5200205,-63.68576053,-0.493861795,-1.897087425,11.35895467,127.646452,-43.58444214,1.521503702
5.016466,9.320990324,-0.917828314,-63.73066138,-0.25002224,-1.538423404,11.30252266,123.6193962,-48.5203991,1.228228107
5.024799,10.32277059,-1.234981598,-63.78827478,-2.107701272,-1.284938723,10.98089278,119.3579159,-39.15357495,-0.781036198
5.033132,11.27930093,-1.609003238,-63.85266685,-0.469890235,-2.864305556,8.916270018,113.8529186,-46.00097466,0.447774662
5.041465,12.19676209,-1.948452756,-63.94096755,-0.780765884,-2.506319285,11.32320595,109.0329151,-42.52730751,-2.631251365
5.049798,13.08002997,-2.306638539,-64.0231514,-1.949788124,-1.184322774,12.43442857,104.927782,-44.56721974,-0.582442358
5.058131,13.89299131,-2.586284429,-64.10079768,-0.422338724,-2.067694426,10.99936533,96.4151001,-35.30273056,-1.784624182
5.066464,14.64990282,-2.983263761,-64.224144,-0.308522656,-3.087624729,8.086587727,89.3834877,-50.27668,-2.95181793
5.074797,15.36300325,-3.210820079,-64.3065071,-3.76881218,-1.656061113,12.57456386,84.3281517,-29.43826151,-2.993147373
5.08313,16.03226161,-3.568117619,-64.42770198,1.705333829,-3.042714536,10.64849442,78.69347382,-45.66979122,-2.762336254
5.091463,16.6396637,-3.847950041,-64.52707673,-3.101185977,-2.452920496,11.52110577,71.41591644,-36.08295012,-2.500372708
5.099796,17.18373013,-4.129977107,-64.61692048,0.262083512,-0.90036881,10.67098725,63.80063152,-35.97061443,-0.821628012
5.108129,17.67159033,-4.384269238,-64.71445085,-2.603952229,-2.667438269,10.74812031,56.94948101,-33.12633324,-2.528314054
5.116462,18.11226988,-4.648992122,-64.79559708,-0.604528137,-2.839985341,9.093303563,51.41461849,-33.68115282,0.149462476
5.124795,18.51570416,-4.884135306,-64.89941408,-1.721789625,-1.607604385,10.72300852,46.63195801,-31.2011714,-3.425696865
5.133128,18.89290714,-5.107361556,-64.98776625,-1.697340235,-2.477264554,11.53598773,43.64350319,-29.23098707,-1.791361533
5.141461,19.20962382,-5.305847168,-65.07897568,-0.053436846,-1.594682083,11.41856933,36.24587727,-26.5775733,-3.03232795
5.149794,19.48875284,-5.520717025,-65.1780281,-2.59760882,-0.966808096,11.12118709,31.70299339,-28.71978235,-2.986714482
5.158127,19.71913767,-5.637522221,-65.22374343,-0.37877146,-1.927134939,10.1853081,26.36487627,-15.54156566,-0.930094689
5.16646,19.94522429,-5.801878095,-65.3113327,-2.724561751,-1.90372318,9.237992406,25.37956381,-22.57096195,-3.505491018
5.174793,20.13210011,-5.902314544,-65.32634733,-0.853426188,-0.666001827,9.741866469,21.52336359,-12.44739687,1.947860897
5.183126,20.3043952,-6.006223202,-65.38999558,-2.190368653,-2.488486827,9.988087176,19.15349126,-14.80018306,-3.161848784
5.191459,20.46124935,-6.058623076,-65.38814545,-2.127974272,-1.678145528,12.40537036,18.14391685,-6.316296697,1.928336375
5.199792,20.56493187,-6.047812939,-65.40076828,-1.541477256,0.134436153,11.7438426,11.55857515,0.215092242,-2.230145156
5.208125,20.64532328,-6.036760569,-65.39527513,-1.412616335,-2.205774307,10.42724109,9.022191763,0.969418764,-0.310979277
5.216458,20.69452763,-5.996589422,-65.38359833,-0.706539819,-1.851911322,7.7280702,5.33394447,4.53010206,-0.764664948
5.224791,20.71974898,-5.927200675,-65.37745288,-2.512156755,-1.083969772,9.653839708,2.399653733,7.519501268,-2.759774059
5.233124,20.76298237,-5.839355469,-65.33455275,-2.273563624,-1.791390658,11.22314525,5.011809826,11.19080329,0.695471376
5.241457,20.79397726,-5.685799241,-65.26893615,-1.505329907,0.462393142,10.51300132,3.80181995,19.54236079,0.42576637
5.24979,20.80246973,-5.529311896,-65.19664765,-2.022764042,-0.222222001,14.18061495,1.151116431,20.14331722,1.031248667
5.258123,20.77254009,-5.289018154,-65.0772667,-2.143528409,-1.905263975,8.051603734,-2.911474466,31.54545737,2.728962302
5.266456,20.74977112,-5.066563606,-64.97034073,-1.497191444,-0.253947288,8.276285887,-2.292806179,29.01410532,2.131278902
5.274789,20.73731423,-4.800596535,-64.8461685,-0.505970858,-2.351820708,13.11919332,-0.909091615,34.57883167,2.072161764
5.283122,20.72211409,-4.544152975,-64.71740725,-1.922603518,0.878811903,11.16304982,-1.260220826,33.74545336,3.158539534
5.291455,20.66387224,-4.202119649,-64.58440018,-1.228526518,-0.299042434,11.55744445,-6.45529291,43.49474812,-0.140014254
5.299788,20.64693165,-3.952749193,-64.45859718,-1.533739787,-1.969693393,8.672556281,-1.657963455,32.83468914,3.185203314
5.308121,20.64361668,-3.573534787,-64.31162453,-0.096835285,0.485170997,10.26265907,0.060300856,48.26232434,-0.091267326
5.316454,20.58758259,-3.3376396,-64.20529938,-0.685852379,-0.519395329,10.09193584,-6.66174239,30.49828863,1.600007415
5.324787,20.57494688,-2.948702514,-64.0577011,-1.034462422,-1.959026054,12.64807916,-1.210409552,49.38449764,-0.349711914
5.33312,20.55453157,-2.71426335,-63.9383812,-0.191622787,1.060893655,10.25028306,-2.410808152,30.87385034,3.143125475
5.341453,20.52358627,-2.364339769,-63.80719568,-1.329768829,-0.457244366,10.7257818,-3.715402544,44.32139015,-0.490221851
5.349786,20.5253129,-2.113329589,-63.69740485,1.218740726,-1.690656796,9.649775982,0.03655345,32.34438563,1.375709981
5.358119,20.4882288,-1.85103526,-63.60607338,-2.158208463,-0.238608655,11.07050827,-4.747577191,32.79576969,-1.218841911
5.366452,20.46101761,-1.54856582,-63.4947262,0.512241781,-0.951850727,12.35154062,-3.538476646,38.19456673,-0.578287117
5.374785,20.42298651,-1.359172108,-63.43432998,-0.901555747,-0.38790358,9.585721604,-5.070858746,23.30264163,-1.608094491
5.383118,20.39607143,-1.029223707,-63.31201363,-1.674588755,0.150052831,10.830428,-3.553500354,41.73749924,-0.42264808
5.391451,20.36581898,-0.858512104,-63.25992585,2.320281872,-0.950175255,7.651767017,-4.255112231,20.86852002,-1.772771463
5.399784,20.3287797,-0.635553628,-63.190588,-3.201508761,-0.660863947,12.12946259,-4.983797312,27.4985075,-1.834909231
5.408117,20.30840397,-0.38074559,-63.11497118,1.220637418,0.024997413,11.85597134,-3.048346639,31.30856276,-2.607288391
5.41645,20.27477884,-0.253589839,-63.07722283,-1.636352345,-0.844130777,8.782510042,-4.659140408,15.40101767,-1.390520372
5.424783,20.26617098,0.020382799,-62.98450088,-0.042965829,0.169212988,11.85004854,-1.685405389,34.18473673,-1.423960835
5.433116,20.22803116,0.101230603,-62.9756317,0.994120214,-0.864308998,9.145373224,-5.246216119,8.981649876,-2.726325453
5.441449,20.20954037,0.25560759,-62.9353447,-1.015242726,0.566644543,12.46830904,-2.909508824,18.54718018,-2.322200269
5.449782,20.19544125,0.421665058,-62.9069786,-1.168822378,-0.669390373,10.98880601,-2.359686613,19.39677262,-4.059640467
5.458115,20.19887448,0.493191983,-62.89133838,1.006134093,0.047063657,9.154309154,-0.2836583,8.191894174,-1.664195418
5.466448,20.20552445,0.640984446,-62.87176133,-2.775673449,-0.011998948,9.731342076,0.127994429,16.97615338,-4.269765795
5.474781,20.21513558,0.737982444,-62.8581047,2.292757362,-0.379541455,10.96644628,0.437772781,10.97617042,-2.975708842
5.483114,20.1948514,0.789470427,-62.8822403,-2.568928126,-1.258795291,10.56112826,-3.025220543,4.310918271,-5.187449932
5.491447,20.18683863,0.966272488,-62.8466072,-0.837393105,-0.330496609,10.80331421,-1.701359034,20.88644195,-3.78140235
5.49978,20.1354599,1.044945717,-62.8769169,-0.95885282,-1.387895823,10.18314361,-6.780274749,7.129249095,-7.029564858
5.508113,20.07745505,1.184401959,-62.85053825,-1.744339466,-1.449551821,10.89379191,-7.665964961,16.29139543,-3.239695966
5.516446,19.97465086,1.371145263,-62.84573938,-1.342078205,-1.835181087,8.502613425,-13.0187335,20.77283979,-7.50500381
5.524779,19.79951286,1.481326029,-62.84917643,-0.008115262,-2.28198874,11.79417837,-21.68471432,11.77499711,-5.354415059
5.533112,19.58507586,1.736653358,-62.833971,-3.577951968,-1.562366873,14.11839056,-26.40824985,28.97507429,-8.956099868
5.541445,19.29815626,1.970562551,-62.79987908,-0.715648536,-2.113775194,9.055433391,-35.2315073,27.31929541,-5.988202095
5.549778,18.95761061,2.172461244,-62.81049728,-0.235049084,-2.804737806,7.883982569,-41.50774765,21.99174738,-9.501286505
5.558111,18.54346371,2.47253035,-62.77387238,-3.012298703,-2.196685493,11.63463163,-50.49495507,34.9927249,-7.890012145
5.566444,18.04100228,2.777560339,-62.75463103,-1.020325236,-2.753782183,10.4889158,-61.08260346,34.99684715,-9.665068628
5.574777,17.47565985,3.054374739,-62.72784233,-0.040091488,-2.115719468,11.11798012,-68.65686608,32.1038413,-7.542028904
5.58311,16.83693314,3.419011832,-62.70557213,-2.704390228,-1.507397115,12.34890986,-77.45742607,42.11523628,-10.70471787
5.591443,16.12794018,3.764945746,-62.6653557,-0.709482269,-2.988156974,9.387812735,-86.02144623,40.67401504,-7.616127133
5.599776,15.37879562,4.105815649,-62.6490517,-0.866309867,-1.201922372,10.44374144,-90.69527817,39.41565514,-9.580793381
5.608109,14.56248617,4.53651923,-62.61444093,-2.698908747,-1.312886268,11.26411224,-98.8902626,50.50328064,-9.792340755
5.616442,13.67544055,4.924992979,-62.60056113,0.389737886,-2.988200188,9.288300514,-107.2630634,45.13272667,-10.13882828
5.624775,12.74571252,5.296132088,-62.59799578,-1.007159907,-1.213241011,11.16308629,-112.2280197,42.9249754,-10.34316754
5.633108,11.76577592,5.805627227,-62.58045578,-3.491939902,-0.545318686,11.8613646,-118.4484749,59.71106816,-11.27008104
5.641441,10.73958111,6.247739434,-62.5885601,1.010803405,-2.568494499,9.091792883,-123.6775303,51.35793591,-11.77732468
5.649774,9.69332552,6.629438997,-62.60544015,-0.772889242,-0.625310041,10.03821522,-125.9911137,44.23967838,-10.43387437
5.658107,8.624959469,7.181733847,-62.6162739,-3.211322069,0.15998371,11.46340621,-128.662653,64.73817825,-12.26945806
5.66644,7.551980138,7.584093571,-62.64266968,2.66927892,-1.317875922,10.12929647,-128.9939366,46.84593201,-10.55297327
5.674773,6.439794421,8.003681302,-62.69244575,-2.544919819,-0.524155244,10.5026978,-133.2678986,48.77065373,-12.44137955
5.683106,5.340981007,8.472077251,-62.72941398,1.026309178,0.511927106,11.49163687,-131.8567925,54.95453072,-10.77495814
5.691439,4.255369485,8.798232674,-62.79270745,-0.895633489,-0.039158872,8.787113605,-129.7596741,37.89509774,-11.18168473
5.699772,3.20006901,9.274124265,-62.83930968,-1.630670544,1.392238438,9.973428369,-126.3602524,56.14102841,-9.841822147
5.708105,2.133357883,9.566993356,-62.93395805,2.951188803,-0.945901334,9.217186333,-126.8033028,34.10192633,-13.34213734
5.716438,1.089040116,9.903143405,-63.01517295,-2.849807918,0.768216688,12.86073255,-124.2656117,39.57498789,-11.31428885
5.724771,0.069051506,10.30712652,-63.13129235,-0.008267611,1.284080386,10.98147184,-120.6016312,47.86359501,-14.70159078
5.733104,-0.94459641,10.46973848,-63.22040175,1.161804419,-1.305092618,6.796575562,-120.2746429,19.129601,-11.13500667
5.741437,-1.947461337,10.85523605,-63.34885788,-2.15314262,0.64494732,11.22685746,-118.1398697,46.16263485,-14.43219566
5.74977,-2.962370455,10.97946954,-63.46374703,3.21319899,-0.18026869,9.410991401,-119.7662487,15.01788235,-13.64075041
5.758103,-3.971670151,11.23033833,-63.5979462,-3.795117319,-0.219781846,11.01516986,-118.6612911,30.54405594,-14.41686082
5.766436,-5.001009941,11.4024024,-63.72867775,2.732478574,-0.810736701,10.72715331,-121.0310497,21.34647718,-14.42370439
5.774769,-6.043826342,11.47004128,-63.85507013,-1.64301157,-0.004539266,10.43605649,-122.7767239,9.056675478,-14.52334213
5.783102,-7.059974551,11.69247055,-64.00268173,-0.989577621,0.101425197,9.851723552,-118.9798966,28.06306267,-14.79877639
5.791435,-8.091481328,11.68604016,-64.1215763,2.601046652,-0.480647951,8.579602956,-121.5621338,0.616231561,-14.40757656
5.799768,-9.131306887,11.74196792,-64.2537403,-3.101318632,-0.068621129,12.31306299,-122.1781025,8.524280608,-14.82409954
5.808101,-10.15532851,11.88288927,-64.388237,-0.314163268,0.404239548,10.29327744,-120.2590981,18.86005831,-13.15885973
5.816434,-11.1905973,11.82128811,-64.50965118,1.3792236,-0.526494868,9.605741619,-121.8664436,-5.055273727,-15.92380119
5.824767,-12.22104407,11.86648917,-64.63209533,-1.940102011,-0.059002325,11.06718791,-121.3176899,7.769909572,-13.3209045
5.8331,-13.23337269,11.86650896,-64.7655411,0.414926447,-0.084607307,9.50983876,-118.8519249,2.996576771,-15.69738436
5.841433,-14.24471474,11.80006743,-64.85130313,-0.313580379,0.482927282,10.18057257,-119.9340248,-5.82018219,-11.98920346
5.849766,-15.24907422,11.8154335,-64.99151993,-1.32259573,-0.180827506,12.06556773,-117.7902374,5.484505713,-15.71474743
5.858099,-16.23598886,11.7136085,-65.07318115,0.65717005,-0.16872789,9.610318184,-117.1009693,-9.61931312,-12.90490508
5.866432,-17.19548702,11.66390968,-65.19309615,-2.591587603,1.113194846,10.1139127,-112.9074955,-2.121213673,-15.52980757
5.874765,-18.13568688,11.65108991,-65.3102455,0.053364366,0.232676215,9.701018751,-110.6634483,2.258231566,-13.97484422
5.883098,-19.05789852,11.49128747,-65.39141845,0.793399979,0.216595453,11.2957859,-109.406313,-15.60007238,-15.51555729
5.891431,-19.96683693,11.44603324,-65.50074768,-2.525831312,0.530306548,11.79845631,-107.1569691,-1.295900703,-14.2182169
5.899764,-20.83393669,11.34225845,-65.59103775,0.581048384,0.795443155,10.51470822,-102.6150952,-8.432614505,-14.69808173
5.908097,-21.64780045,11.21484542,-65.63698195,-1.993249548,1.192610577,9.650907547,-97.25684928,-12.75650863,-10.86049104
5.91643,-22.41663504,11.20973992,-65.74687578,-0.925303519,1.873560518,11.42291391,-90.43930245,3.782403648,-12.51640606
5.924763,-23.12647629,11.01129246,-65.74956893,1.478452243,0.942746222,9.166742743,-85.78126145,-22.28400707,-9.883585452
5.933096,-23.78347874,10.96419477,-65.8216324,-3.159698218,1.949063361,11.09621763,-77.93690872,-2.315482973,-10.26205421
5.941429,-24.37123966,10.8304131,-65.83844758,1.423863173,1.441913247,10.16192305,-70.82091522,-14.29181862,-8.773224115
5.949762,-24.89596271,10.68044591,-65.84874343,-1.782576025,1.582718849,10.77925682,-63.46021366,-16.37018484,-8.801483154
5.958095,-25.3600812,10.60355496,-65.89439773,-0.481318392,0.89808796,10.32048476,-55.37543011,-6.516506386,-9.181397438
5.966428,-25.77087212,10.40539074,-65.86948013,-0.559822731,1.605831057,11.0148347,-50.56802559,-23.23208523,-7.847439289
5.974761,-26.137187,10.35898757,-65.93181993,-2.64504569,1.454014778,13.03269005,-43.30524731,-2.231951386,-9.428690194
5.983094,-26.43338013,10.16955233,-65.90545273,1.309255168,0.711233713,8.835428239,-36.83620453,-22.26537585,-7.5576756
5.991427,-26.68450499,10.07731867,-65.9357567,-3.654266477,1.433000714,11.01401067,-30.17647648,-8.744421362,-8.502381324
5.99976,-26.8949337,9.960609676,-65.93275833,1.821743518,0.744756564,10.37842582,-26.04675102,-13.15985501,-6.303704024
6.008093,-27.07383823,9.784944773,-65.91945648,-2.260288254,-0.091219304,11.19110262,-22.42979431,-19.93654847,-8.535013438
6.016426,-27.22006035,9.751542091,-65.95156098,-1.513540414,1.070901096,12.67576146,-17.63683176,-2.338269681,-5.484819531
6.024759,-27.32888746,9.584575653,-65.92543033,0.24984755,0.363492075,10.01560331,-14.27994108,-19.6610477,-6.839737892
6.033092,-27.40883112,9.51494813,-65.9278221,-2.373668611,0.148650296,10.26632691,-10.27329254,-7.799056918,-4.327247083
6.041425,-27.46644736,9.446634771,-65.94670103,-0.13742617,0.377692093,10.83070457,-7.255473256,-6.689447193,-6.159311771
6.049758,-27.5066185,9.312849641,-65.90658188,-0.880963188,0.371316608,11.5156796,-6.321047098,-16.94149256,-3.448390961
6.058091,-27.53447008,9.296353457,-65.93814853,-2.860866636,-0.088475756,11.75283241,-3.453071237,-0.474004291,-4.599122644
6.066424,-27.54679918,9.228420498,-65.93406295,0.113045871,0.133715536,10.15779495,-2.289496362,-7.960607022,-3.614549875
6.074757,-27.54421568,9.160952805,-65.9256897,-1.326896377,-0.271622621,10.11274588,-0.557064742,-8.06301856,-3.26953882
6.08309,-27.53359938,9.154528737,-65.94595338,-1.628931239,-0.142140176,9.75860858,0.933280237,-0.083953847,-2.739106178
6.091423,-27.52638531,9.095311643,-65.9387436,0.492303221,-0.62791092,11.0737164,0.016389906,-7.132818282,-2.927114785
6.099756,-27.5221057,9.057519674,-65.93514253,-2.293289572,-0.484021291,12.44675302,-0.28959778,-4.731253371,-1.956604183
6.108089,-27.51777649,9.08413899,-65.9670334,-1.496220518,-0.283524256,10.72073579,0.398522281,4.150918186,-2.284664988
6.116422,-27.50697136,9.048641443,-65.96380995,-0.355520282,-0.613001727,10.28148174,0.49859722,-4.463482518,-1.894733131
6.124755,-27.51175976,9.042755247,-65.97634508,-1.464807779,-0.596248854,11.13645077,-1.048845305,-0.355195642,-2.065439105
6.133088,-27.51803017,9.074121358,-66.00503923,-1.487314949,-0.805962497,10.31155038,-0.953176048,4.401120901,-1.54391411
6.141421,-27.55034399,9.038659692,-65.99489593,0.611114362,-1.555700928,10.32483101,-4.783698499,-4.763456762,-1.294290528
6.149754,-27.60052061,9.053402662,-66.0163574,-2.25457564,-0.924922809,13.06564832,-6.379587293,2.233519692,-1.683389992
6.158087,-27.65432978,9.060885548,-66.0279274,-0.158127427,-0.283410207,11.1175499,-6.960089326,0.997981904,-1.195643753
6.16642,-27.71526384,9.076372743,-66.05418778,-2.148370952,-0.628270254,9.846925736,-7.572839498,2.574451834,-2.13619867
6.174753,-27.77038622,9.067371369,-66.04686735,0.519380137,-0.754710411,10.62488508,-7.469273925,-1.78864494,-0.145062989
6.183086,-27.84093475,9.068516613,-66.06119538,-2.158946216,-0.804512158,9.5393219,-8.949514746,0.391267002,-1.658902824
6.191419,-27.91311455,9.1004169,-66.07227325,0.272114329,-0.558161706,9.93290937,-9.170309545,3.578481805,0.201097365
6.199752,-28.00633335,9.043749095,-66.05318073,-0.358675894,-1.362275287,12.19010746,-12.30717158,-7.589521408,-1.424472012
6.208085,-28.10221529,9.080542922,-66.0664024,-2.5337874,-0.230538119,11.65699387,-11.97498703,4.22249779,0.276685
6.216418,-28.1865921,9.096560241,-66.08273695,-0.697033487,-0.241655596,9.681602837,-10.58668137,2.081256717,-1.041151583
6.224751,-28.28386879,9.093206406,-66.07316973,-0.606110286,-0.732867763,10.57792497,-12.58207655,-1.320094017,0.410051964
6.233084,-28.37512446,9.098626613,-66.0749588,-0.838700556,-0.666344061,11.46617031,-11.69058442,0.144755639,-0.105425013
6.241417,-28.46924686,9.102784514,-66.07263185,-1.087329455,-0.62650755,9.708276034,-12.06674957,-0.140458942,0.125163978
6.24975,-28.56496191,9.112168789,-66.08598328,-0.361466088,-0.68116816,11.00971127,-12.00964188,1.213093668,-1.080146037
6.258083,-28.66395092,9.084598065,-66.06354143,-1.400402043,-0.548757672,10.95264983,-13.02434444,-4.6000579,0.347028211
6.266416,-28.76585007,9.147257806,-66.0972519,-2.141368538,-0.103000124,11.61389232,-12.38218236,7.972293974,-0.088535618
6.274749,-28.86181784,9.144560218,-66.09877775,0.260375161,-0.798780873,10.70125538,-12.21241808,-0.624574781,-0.73185964
6.283082,-28.95390844,9.137051464,-66.0915947,-0.889904574,-0.436134683,9.316941022,-11.96788406,-1.750633911,0.132944294
6.291415,-29.02534342,9.158041478,-66.10073093,-1.40082179,-0.421353705,9.968221664,-9.125241161,2.307115764,-0.14030838
6.299748,-29.101017,9.166510103,-66.0978317,-0.716398206,-0.808584839,10.08985281,-9.909971236,0.162157357,0.630119797
6.308081,-29.17444992,9.177206397,-66.10508728,-0.753052011,-0.647133101,11.92182994,-9.407792806,1.133443117,-0.569324493
6.316414,-29.24495554,9.167426349,-66.0919609,-1.07349056,-0.127251126,11.93701029,-9.504140495,-2.351623803,0.634454996
6.324747,-29.31275797,9.228174806,-66.12599183,-2.437242627,-0.499267847,11.49582815,-8.218901396,7.917844178,-0.373257055
6.33308,-29.3641243,9.227502107,-66.12054063,0.528852247,-0.794991687,9.299454511,-7.066004515,-0.963386178,0.367458647
6.341413,-29.42823982,9.218852641,-66.1215477,-1.414183091,-0.797499329,11.25152027,-8.410489321,-1.252539396,-1.043412
6.349746,-29.48506737,9.240200281,-66.1276932,-0.443518229,-0.602235295,12.29185033,-7.510392785,2.00049758,0.501517229
6.358079,-29.54565859,9.225903512,-66.12948228,-1.163198434,-0.746986501,9.813734532,-7.975700259,-1.82170406,-1.413268775
6.366412,-29.59825945,9.2508322,-66.13894653,-0.964076445,-0.499694835,11.05068874,-6.942287803,2.553118527,0.39887451
6.374745,-29.64777422,9.215313316,-66.12215805,-0.844837174,-0.746437907,10.57993913,-7.010786414,-5.125226021,-0.757976472
6.383078,-29.69430542,9.272718071,-66.13357925,-2.794522166,-0.050283723,10.90344691,-6.177395344,6.038713426,2.171226189
6.391411,-29.73628902,9.295763611,-66.14234543,0.415499293,-0.947051884,10.55062533,-5.62339139,2.48671031,0.057971403
6.399744,-29.77908087,9.309251785,-66.1294136,-1.750857547,-0.494015342,11.3976512,-6.182466924,0.035402,2.056282185
6.408077,-29.79868984,9.353677272,-66.140007,-0.888436828,-0.255805991,9.465178489,-2.915809549,4.820973814,1.160052762
6.41641,-29.81877804,9.403841974,-66.14141085,-2.205526173,-1.082743034,9.624808073,-3.165513016,4.69944042,2.769200072
6.424743,-29.83876467,9.485133649,-66.1683388,-0.246934474,-0.672170405,11.66201758,-2.640622959,9.626769067,1.669945959
6.433076,-29.85951805,9.516833067,-66.1637268,-1.40618293,-0.80543451,11.16459596,-3.373910394,2.422844194,2.278972059
6.441409,-29.86735773,9.652640105,-66.20242693,-2.826904804,-0.031755407,11.46799994,-0.950729996,15.97534323,3.769727946
6.449742,-29.83511973,9.765366793,-66.2259941,-0.84529655,-0.098286458,9.743005455,3.541447342,12.52111661,4.197229505
6.458075,-29.77405214,9.877515554,-66.2223587,-0.902933492,1.19154118,10.81217992,6.483671903,11.03710866,6.666307449
6.466408,-29.65362215,10.03986621,-66.24878313,-1.386282221,0.590041049,11.67246556,14.18815732,17.88366651,6.814193368
6.474741,-29.4681263,10.18219614,-66.23334885,-0.165126935,1.062926933,9.044742943,21.17115021,13.5366168,9.597708703
6.483074,-29.22234249,10.32718039,-66.24108503,-1.677104473,1.446197182,10.65060234,28.8494854,15.03975439,7.58740139
6.491407,-28.89891863,10.50526857,-66.22995758,-0.909446568,1.125719987,11.32689595,37.80575848,17.63167429,11.09840631
6.49974,-28.50654125,10.66186261,-66.2360115,-1.241550639,0.880047779,10.36852431,46.39520836,16.24741101,8.265722036
6.508073,-28.02722836,10.84795642,-66.20914843,-1.265247524,2.182418913,10.44609404,56.16985321,17.76867366,12.91543913
6.516406,-27.46246958,11.03843594,-66.22044375,-0.897620715,1.22285685,11.06957138,67.20690155,20.30540562,9.275183201
6.524739,-26.80208254,11.18242145,-66.16051863,-0.014599953,1.993139446,9.072564601,77.12643051,11.77164745,13.67607689
6.533072,-26.06261397,11.3744123,-66.15459825,-2.630035401,1.93689397,11.12267935,87.78025246,19.81875277,10.62590289
6.541405,-25.23044539,11.56037975,-66.1081047,0.004224153,1.260287181,11.89843929,98.01407432,17.35006094,14.1246512
6.549738,-24.31116867,11.69349241,-66.0506439,-1.380205354,1.205917776,10.21091008,108.1230717,11.19867921,12.52207089
6.558071,-23.32375383,11.89937782,-66.00694655,-1.430557765,1.302820087,10.14974034,116.6802215,20.13254547,14.19370031
6.566404,-22.27700615,12.04847622,-65.9495125,-0.446088303,0.460752469,10.66832519,123.3813362,13.44228411,12.76943708
6.574737,-21.17253399,12.19719768,-65.87890243,-0.976754681,0.314336874,11.96970368,130.0352211,13.12942958,13.775635
6.58307,-20.02821255,12.34226155,-65.8086357,-0.793363415,0.699381802,11.15327311,134.7390671,12.96534872,13.43724895
6.591403,-18.8252182,12.46577787,-65.7205696,-0.511163421,0.064744625,10.34106612,141.3654213,10.14918101,14.15444827
6.599736,-17.58089638,12.5532527,-65.60630415,-0.234933533,0.055574223,10.06135988,145.57938,5.372936249,15.54847408
6.608069,-16.32445312,12.65091515,-65.50297545,-1.716849342,-0.338108406,10.71632182,147.3374901,7.289006233,14.46000838
6.616402,-15.03922439,12.74281502,-65.37127305,0.054415453,-0.283090094,12.18859863,150.0072823,6.064620293,17.2600522
6.624735,-13.73969197,12.76361895,-65.24341583,-0.62412028,-0.314879945,10.86153388,151.8146477,-1.707847625,14.62150669
6.633068,-12.39673734,12.82122517,-65.08623885,-0.808862874,-0.213124063,10.52010178,156.2190514,2.147334807,19.04579782
6.641401,-11.03549099,12.77739,-64.93013383,0.735999603,-0.341930259,10.56362295,158.4582672,-9.262656094,16.29038596
6.649734,-9.653485297,12.78264117,-64.75302125,-2.151613489,0.559627352,11.84292758,160.4016342,-3.51735687,19.98200274
6.658067,-8.242180467,12.73314405,-64.59134483,0.916639082,-0.178960219,11.74801791,164.2987213,-9.224922747,17.31940246
6.6664,-6.824026108,12.63715887,-64.4074707,-1.364310332,-0.692670874,11.79571748,164.6137085,-14.66797877,19.30914116
6.674733,-5.360382915,12.55804014,-64.24340058,-0.356232133,0.348503761,10.72689951,170.5895996,-11.89641798,17.62315798
6.683066,-3.883190453,12.40168071,-64.05952455,-1.097772405,-0.81011527,7.841932416,171.7831879,-20.87409687,19.43765688
6.691399,-2.398773402,12.29726839,-63.89102555,-0.346762727,-0.594075322,12.92474199,173.0497627,-14.01306748,18.54083776
6.699732,-0.957939506,12.10198426,-63.73578263,-0.598355297,-1.94893831,11.40917873,168.2341919,-24.39038753,16.96706891
6.708065,0.50054268,11.9446218,-63.58270263,-1.718096584,-1.000981882,11.73113823,170.465107,-19.38887644,17.38022041
6.716398,1.925504655,11.78109837,-63.43893243,-0.878106043,-1.541995496,10.56634807,166.7271042,-19.70435047,16.78758145
6.724731,3.3219015,11.53260303,-63.3061695,0.795051888,-1.97358203,10.62361431,163.5878906,-29.50551272,16.48584843
6.733064,4.705612302,11.31771731,-63.18104938,-1.79038398,-0.673696369,10.67301261,162.3637962,-25.14616728,15.93076539
6.741397,6.040530563,11.10646725,-63.06513785,-1.075230014,-2.259154856,12.65531421,156.7387505,-24.39525557,15.5358429
6.74973,7.353580117,10.80499387,-62.95786665,0.499565572,-2.547255606,10.6982801,154.4019241,-34.9161191,16.2282927
6.758063,8.625619888,10.56505942,-62.86349868,-2.184172332,-1.090416253,11.66540027,149.8093872,-27.40740967,14.56147313
6.766396,9.843070029,10.26495409,-62.7845745,0.525079891,-2.869559765,10.31405962,143.6460038,-34.49289417,14.59329653
6.774729,11.01910997,9.919561387,-62.72455218,-0.27854228,-1.39828597,11.40446365,139.1074562,-39.91907215,14.0207367
6.783062,12.15056372,9.630100609,-62.67212105,-1.596323043,-2.007127523,13.23490692,133.9834213,-33.22247171,12.67125011
6.791395,13.23246193,9.254232169,-62.62931253,-0.510652128,-2.158625752,8.837816476,128.25383,-43.33751107,14.41921163
6.799728,14.26759768,8.912581562,-62.61967468,-0.041572522,-2.49323526,9.845767976,123.2878323,-39.98911667,10.46183539
6.808061,15.26029086,8.544083476,-62.60720063,-1.341724091,-1.957373828,12.75620985,118.1661568,-42.82123852,12.30304289
6.816394,16.15561485,8.168058992,-62.62994958,-0.092381083,-3.11241746,10.92297649,107.1024017,-44.60916328,9.228246452
6.824727,16.99724055,7.777896166,-62.66604425,-1.099929169,-2.433759153,11.0677979,100.8632374,-46.53559971,8.849686862
6.83306,17.80899144,7.377943516,-62.7144184,-1.119089984,-2.109444261,11.40932059,97.46176911,-47.9603157,8.482422829
6.841393,18.55281496,7.004916787,-62.76407815,-0.060343258,-2.533295274,11.13681447,89.26276207,-44.82893562,7.892282844
6.849726,19.22060061,6.547173858,-62.8711834,-1.080024556,-2.369325906,10.21010949,80.93052483,-56.54158497,5.32915175
6.858059,19.82455873,6.257655621,-62.908741,-2.380309478,-2.332193255,12.62547386,72.2767601,-34.69239283,6.968289971
6.866392,20.35649729,5.76431948,-63.04640008,1.37288959,-3.498806894,9.205142617,64.80139923,-61.67964268,4.520675301
6.874725,20.86365461,5.460452736,-63.09809493,-4.641334355,-1.960873396,11.82337415,60.80992699,-36.77834893,6.59369272
6.883058,21.31476164,5.040044546,-63.22363278,2.406104654,-2.144724131,9.08838761,54.72159005,-52.90441704,3.759338886
6.891391,21.68506002,4.674905181,-63.32214168,-4.133249343,-3.51842314,12.30836332,44.77291489,-45.54857349,4.676831603
6.899724,21.99629641,4.329854786,-63.41136743,0.851621687,-0.99609609,12.88550687,37.43695164,-42.84288692,5.110430002
6.908057,22.24935007,4.008794129,-63.50503923,-3.566716552,-2.690576196,11.59523153,30.50414276,-40.38675213,3.671844244
6.91639,22.47087669,3.678426832,-63.57514383,0.955128424,-1.563023657,8.436814846,26.40299749,-40.29600906,6.93535614
6.924723,22.65507364,3.387002409,-63.67385485,-3.442480445,-1.81171295,9.065413118,22.13932943,-37.29589176,2.070529908
6.933056,22.83095122,3.110858381,-63.71104815,-1.390813112,-1.471010626,11.94204831,20.65198946,-32.72530317,8.327951909
6.941389,22.97592879,2.881789699,-63.7737179,-1.624236718,-0.812415198,10.76451254,17.06012511,-28.70653105,3.346589565
6.949722,23.08842707,2.650783077,-63.8083477,-1.94509086,-1.845518068,9.647946478,13.00574779,-27.57787752,6.654936076
6.958055,23.17601776,2.446987704,-63.85263443,-0.667324714,-1.470070079,12.40852749,10.00905645,-25.04091263,4.292589784
6.966388,23.22161627,2.297596108,-63.86664773,-3.409982801,-1.281177134,11.21813321,4.88648355,-17.5842638,5.149317205
6.974721,23.28023291,2.182709481,-63.86536595,-0.751987249,-0.749720246,10.13555956,6.275059581,-13.05950963,5.186101973
6.983054,23.31617928,2.08588478,-63.8721123,-3.049873948,-0.76487454,10.82483995,3.689830679,-11.43830729,3.475003395
6.991387,23.32100344,2.034825508,-63.81915285,0.737916231,-1.714730814,9.474020243,-0.385679886,-3.57531178,7.83218658
6.99972,23.34230232,1.957597528,-63.83827973,-3.281728089,-0.691842243,9.013674261,1.945394829,-9.866168857,1.198637456
7.008053,23.33000517,1.94570249,-63.75860978,-0.156583473,-1.183938857,10.92200375,-2.482483804,1.979881287,8.845979332
7.016386,23.3219862,1.945767321,-63.74707413,-3.245455805,-1.350909799,11.26671815,-1.7186898,0.104438961,0.905568905
7.024719,23.33713484,1.964768436,-63.6589222,-1.662085496,0.074826043,10.28486651,0.785566304,5.776429773,8.298081458
7.033052,23.3275857,2.046921775,-63.61761665,-1.778686134,-0.106495313,12.00865364,-2.040830657,10.56146133,0.266820341
7.041385,23.32937765,2.148444159,-63.50933645,-1.721867561,-1.008357838,12.02270746,-0.906667284,15.83383346,6.619181305
7.049718,23.33276701,2.248751732,-63.45596315,-1.172845543,0.647033252,8.927116632,-0.569247515,13.13451314,0.732007012
7.058051,23.33102608,2.429211315,-63.34448243,-2.312168807,-1.462809108,9.039603709,-1.390379804,24.67742062,3.212186947
7.066384,23.36516953,2.561570965,-63.2654152,-1.184945215,-1.185545981,11.4821068,2.97266984,17.88551092,2.038515955
7.074717,23.40235567,2.735466525,-63.1706047,-0.339094769,0.14786486,10.63660598,3.250927806,23.17029572,1.675139666
7.08305,23.44707584,2.924866811,-63.09127235,-2.684960159,-0.07462091,13.14883542,4.220427692,24.17978621,-0.676917285
7.091383,23.49308205,3.134883658,-62.98249438,-0.118305858,-0.537151285,10.70479214,4.162469746,27.81752873,1.450884104
7.099716,23.53046227,3.373381913,-62.88598633,-2.686797083,0.302030731,9.81910354,3.153511733,30.40250826,-1.181223899
7.108049,23.60295868,3.603304237,-62.77425003,-0.946856283,-1.720101267,8.647518875,7.22340572,30.14415693,0.770364672
7.116382,23.69977713,3.843647927,-62.67243385,-0.974059761,0.072621616,12.07364774,10.12032175,30.85311222,-0.779362142
7.124715,23.79866696,4.091042727,-62.56871605,-1.279361293,0.781793297,12.4315834,10.34929538,31.69103956,-1.0269369
7.133048,23.8750329,4.36368835,-62.4361305,-0.688447282,-0.588247023,9.083710669,7.309003412,35.88408614,0.914617833
7.141381,23.96099329,4.616274178,-62.33909035,-0.85713676,-1.237251788,8.331974088,8.741276265,31.9230566,-2.123127729
7.149714,24.07974816,4.856591344,-62.2101841,-1.549654312,-0.816075653,12.81369972,12.31204605,32.15791845,1.968282998
7.158047,24.19188261,5.105609536,-62.10072903,0.345776096,-0.409032112,11.1851061,11.64881015,32.13809586,-0.709867433
7.16638,24.26351548,5.344494224,-61.98570253,-1.417803526,-0.650851898,10.8550446,6.677706271,31.32639933,0.399982363
7.174713,24.32455254,5.578765452,-61.88943863,-1.255480901,-1.484109566,9.637857319,5.579066336,29.86997175,-1.515647002
7.183046,24.39176035,5.802525938,-61.78601645,-0.212120995,-1.224435702,11.11836719,6.154836774,29.09719515,-0.204520479
7.191379,24.41648626,5.985909581,-61.7176075,-0.784189582,-1.269635379,11.6670512,1.478570119,22.92041731,-2.101982117
7.199712,24.39885998,6.231132627,-61.59840583,-0.490032807,-1.893642634,10.62762356,-4.280185819,32.21829224,0.420982895
7.208045,24.36314011,6.367572903,-61.55069353,-1.104803771,-1.026279069,8.520077645,-5.590058982,16.7759738,-2.005377263
7.216378,24.30350256,6.629680157,-61.43931008,-1.758392543,-1.856758952,14.27358485,-9.297246336,33.67537546,-1.234101564
7.224711,24.16190243,6.707629204,-61.41654015,2.017566979,-2.535279155,9.826491056,-17.97752404,9.154435277,-1.812982589
7.233044,23.98620653,6.937216759,-61.33717538,-3.493678421,-1.030839115,8.92874995,-22.83711052,28.55788708,-2.953952611
7.241377,23.76303196,7.023723364,-61.32190895,2.356232882,-2.866125882,9.61124861,-27.67810583,9.747955339,-2.982908249
7.24971,23.51313925,7.173596382,-61.2780819,-3.779003799,-1.012999468,14.07266927,-31.27752304,18.1134659,-2.773692072
7.258043,23.21764088,7.339831233,-61.24303433,1.494023681,-0.577676442,10.84233829,-36.63306236,19.48501739,-4.54210347
7.266376,22.86405897,7.357409596,-61.25995445,-1.556974396,-2.269244641,8.614407956,-42.80680466,0.699653149,-3.017893463
7.274709,22.50632286,7.572328449,-61.22078895,-1.480602065,-1.337944537,13.68405437,-44.17658138,25.10881424,-6.089644671
7.283042,22.09008646,7.594424009,-61.2557831,0.65341392,-1.566350795,8.906708,-50.0585928,0.41889906,-5.235465765
7.291375,21.61600018,7.758812547,-61.24625205,-3.54787016,-1.693268225,10.67388868,-57.65146542,18.256953,-6.690636873
7.299708,21.0952735,7.884490967,-61.25407218,1.243703775,-2.959188104,9.910654425,-63.03329658,13.25217354,-6.749280572
7.308041,20.51876831,7.907887101,-61.31607058,-1.437492848,-1.799198717,11.58092338,-68.81170845,-0.418853043,-8.150357008
7.316374,19.91001463,8.138439775,-61.28641703,-2.326617371,-0.565848321,10.58290106,-74.15868759,26.73082495,-6.620323301
7.324707,19.21036816,8.158128262,-61.36251833,2.192396179,-3.254673451,9.176286459,-83.34931183,-1.276857287,-9.737497687
7.33304,18.47333622,8.279189706,-61.377882,-3.974435031,-1.609354034,12.59859568,-88.77257347,12.71323323,-6.748554588
7.341373,17.67977095,8.399665952,-61.42830658,1.74455604,-1.645773888,10.99954051,-95.02935982,11.42753106,-10.58769274
7.349706,16.82689095,8.406189919,-61.48987388,-2.300228864,-2.367841482,10.46795738,-101.8795338,-1.867939114,-7.542469025
7.358039,15.95991516,8.618721247,-61.5092602,-2.34035212,-0.473090675,10.76761693,-104.3209114,23.35619974,-9.814949989
7.366372,15.02257943,8.604679823,-61.59965325,2.711901845,-2.158039778,7.727715447,-111.5250702,-4.94222501,-10.26797104
7.374705,14.05256081,8.69534564,-61.6767502,-3.785863996,-1.770961896,13.03812995,-115.6468296,7.788232686,-11.8931849
7.383038,13.04745436,8.856682181,-61.73002623,-0.641751111,-0.704495594,10.90307182,-120.2581558,16.89366102,-11.07723975
7.391371,12.00221968,8.847183229,-61.8303871,-0.594006688,-0.632714033,9.275553829,-124.2559185,-4.149023057,-11.69473696
7.399704,10.97405529,9.064453006,-61.87598993,-2.81695044,-1.73085852,12.13033926,-123.1405888,24.02714777,-10.86024189
7.408037,9.899533509,9.016982913,-61.96619415,2.329663992,0.208928079,7.817274911,-127.9478226,-7.96612215,-9.702724218
7.41637,8.826094389,9.229153156,-62.0294342,-5.737962842,0.18677853,13.17737672,-128.2251339,23.45280171,-11.86234951
7.424703,7.781546116,9.26039052,-62.09733393,2.397187412,-0.56659545,10.44243848,-124.6990433,2.10763967,-8.84701097
7.433036,6.734975696,9.415540697,-62.16347315,-3.360672236,0.702480629,8.890010893,-124.914011,17.01290548,-10.57547998
7.441369,5.681956411,9.459115146,-62.23980903,1.909482315,-0.248568848,7.953896196,-125.544426,3.780740379,-9.835120917
7.449702,4.655774951,9.554857969,-62.32969283,-2.895413891,-0.167632341,11.13943207,-121.9597263,10.02379915,-12.09264159
7.458035,3.658716858,9.660977483,-62.40291975,-0.562122285,1.022768393,11.54341769,-118.8569622,11.63405667,-9.827806949
7.466368,2.669112921,9.746306419,-62.4946556,-1.019534096,0.200631967,9.311562301,-117.512228,9.165400565,-11.89320159
7.474701,1.700748146,9.792190791,-62.5906563,0.075349994,-0.300592132,9.526912689,-114.9259396,4.623423636,-11.85507464
7.483034,0.716613263,9.899322987,-62.6923809,-1.754342094,-0.830763918,10.11133516,-116.6172238,12.14661097,-12.80523181
7.491367,-0.259503691,9.939804791,-62.79463768,-0.54353074,-0.038298732,11.3487184,-115.6928101,4.36070925,-12.40411735
7.4997,-1.219666586,10.04547286,-62.89595223,-1.291720718,-0.056252834,9.456336022,-113.6866341,12.39139628,-12.48713684
7.508033,-2.207438588,10.03052425,-62.99976348,1.292849079,-0.974282488,8.138314963,-117.0375195,-1.876939536,-12.63215995
7.516366,-3.215626121,10.06142545,-63.12612343,-2.269743681,-1.156326097,10.77262312,-118.9188023,3.978397487,-15.42717052
7.524699,-4.221830964,10.0956707,-63.24258425,-0.530024648,-0.411519229,11.75617707,-118.9503441,4.549926759,-13.88863731
7.533032,-5.273832441,10.06454754,-63.3624897,-1.002570495,-1.326191023,8.524954081,-124.3258438,-2.976166368,-14.99286079
7.541365,-6.345962525,10.07265425,-63.4863453,0.763040781,-1.16127646,10.12558436,-126.7403583,1.995340772,-14.83324456
7.549698,-7.41512084,9.978016137,-63.59168243,-2.291630983,0.57204254,11.63867473,-126.6911774,-10.19646859,-14.3049891
7.558031,-8.49469924,10.0750339,-63.7167511,-1.114851654,0.105989201,10.83663577,-127.6083889,13.12890542,-13.41137576
7.566364,-9.577737332,9.866440058,-63.80661393,1.503879331,-0.830985084,6.799766391,-128.700861,-23.46072769,-15.02614212
7.574697,-10.65826654,9.935044052,-63.93786243,-3.798472405,-0.116631672,12.3484855,-127.6424218,10.37122047,-14.05900049
7.58303,-11.74393177,9.798324108,-64.02316283,1.311018279,-0.478549874,8.907217979,-129.1662788,-14.55212486,-13.65416241
7.591363,-12.81661105,9.793562413,-64.130146,-3.159198344,0.761876017,11.98392487,-127.2115498,1.675485611,-12.73398066
7.599696,-13.88112426,9.690831663,-64.2158947,1.811971664,-0.065426074,10.55374718,-126.6728821,-10.10607302,-13.12719202
7.608029,-14.94400239,9.591178656,-64.30111695,-3.361341044,-0.258306287,9.667315079,-126.4941006,-9.525151969,-12.97229314
7.616362,-15.97915554,9.585813284,-64.41794015,0.1528548,0.403783651,11.26282746,-122.5875034,2.603504481,-13.8906672
7.624695,-17.01176644,9.427676322,-64.49005315,-1.519244179,-0.00675134,9.096948505,-123.1460858,-16.23893195,-13.79626823
7.633028,-18.02292061,9.45095527,-64.60206795,-1.27278775,0.17504789,11.50877994,-119.8223477,6.211081626,-12.21771217
7.641361,-19.01650238,9.254797697,-64.65335083,0.855028175,0.027906153,9.038430571,-118.8915272,-20.85662246,-13.49407387
7.649694,-19.9689312,9.253381253,-64.75963213,-2.613610685,0.903417647,11.93496567,-112.9360199,3.593250603,-12.28492475
7.658027,-20.87769318,9.084923745,-64.80555343,0.098843157,1.058672905,8.948204576,-108.8536053,-17.5184896,-12.44340968
7.66636,-21.75016451,9.09438026,-64.90508653,-3.849484347,1.447171241,13.38263619,-103.4999123,4.900151394,-10.92690706
7.674693,-22.5466981,8.965541244,-64.94219588,1.75065434,1.054418251,8.04279573,-95.57708931,-13.13295257,-10.2236259
7.683026,-23.28391886,8.938052296,-65.0072899,-3.290543199,1.807182402,10.53487122,-87.93679428,-0.48021543,-8.724028826
7.691359,-23.95849371,8.830089211,-65.0417862,1.485372752,1.817687541,10.86573565,-80.99816704,-10.68829635,-9.295400858
7.699692,-24.56768275,8.784840584,-65.0916252,-3.345115185,1.016780734,12.10109067,-72.88445282,-2.969956637,-7.961003304
7.708025,-25.09475422,8.705094695,-65.11355973,0.519339979,2.253155142,9.277135134,-63.52240944,-8.031271696,-6.759649635
7.716358,-25.5572486,8.657919407,-65.16067888,-2.187832967,1.791537166,10.32379019,-55.36090088,-3.222738236,-7.719630122
7.724691,-25.94375324,8.584998131,-65.1764221,-0.391727018,0.779879101,10.61220407,-46.79548645,-7.513530673,-5.858227372
7.733024,-26.27369213,8.558279038,-65.22655103,-2.691002369,2.018679202,11.04974961,-39.40065575,-0.7572577,-7.000556111
7.741357,-26.54081201,8.50271523,-65.2479744,-0.162570553,0.945005044,11.15426135,-32.37469817,-5.283254139,-5.625022292
7.74969,-26.75519896,8.484106183,-65.27536773,-2.665090322,0.882055357,9.77302432,-25.92983532,-1.030906797,-4.148384929
7.758023,-26.92412853,8.464306235,-65.31977843,0.74338688,1.265315354,10.8954401,-20.20671725,-0.18774891,-6.160382986
7.766356,-27.05790949,8.406768084,-65.321064,-2.595306292,0.383103035,10.42431015,-16.72774482,-6.577834756,-3.517741859
7.774689,-27.14664459,8.45524919,-65.38446045,-0.848798499,0.977203974,11.19375789,-10.25657272,8.161857366,-4.428321243
7.783022,-27.21307612,8.355010986,-65.3641243,-0.285715431,-0.306988222,9.062427283,-9.015826107,-12.29704285,-3.608896017
7.791355,-27.24952268,8.439051986,-65.43088533,-2.5487305,0.150445931,10.89175981,-3.922926486,12.16648531,-2.821514189
7.799688,-27.27538443,8.35195601,-65.41503525,1.361616865,-0.013744496,10.08853698,-4.090177476,-10.64721011,-3.408791006
7.808021,-27.30107927,8.383620977,-65.45565413,-3.548333764,-0.453983836,12.6268425,-3.083394155,5.154049277,-2.899176478
7.816354,-27.2957511,8.399901509,-65.4892044,0.047104776,-0.056541831,10.92084885,0.493570417,3.07232243,-2.950840354
7.824687,-27.29960728,8.354589343,-65.48011018,-1.616415553,-0.415986367,9.76358901,-1.304824568,-5.749513201,-1.915685743
7.83302,-27.28626824,8.444387078,-65.54804993,-2.02650369,-0.580379792,11.42732787,2.048053473,12.78460133,-2.520898938
7.841353,-27.27800179,8.39107275,-65.54119873,0.649115943,-0.281080146,9.864190697,0.169518173,-6.493141593,-2.59760052
7.849686,-27.26966858,8.417918682,-65.57510375,-2.765236676,-0.390895462,13.10623741,0.854388571,4.214765593,-2.369031847
7.858019,-27.26857424,8.454268336,-65.60600665,-0.693276786,-1.256475181,10.30832851,-0.041274175,5.128123805,-1.658781082
7.866352,-27.27264452,8.441437841,-65.61704255,-0.562071606,-0.304047786,10.88249326,-1.025638819,-1.261107162,-2.154051453
7.874685,-27.29239846,8.470065236,-65.64488603,-2.187454462,-1.236889556,9.976815225,-2.597638935,4.137771786,-1.737916261
7.883018,-27.31170368,8.525344968,-65.69441603,-0.85641982,-1.452032097,11.23191834,-2.175945431,8.096350224,-2.466955245
7.891351,-27.35800886,8.518782378,-65.69424435,-0.759246405,-0.586585198,10.05775166,-6.27245605,-1.122819297,-0.760803692
7.899684,-27.4107337,8.577977657,-65.733963,-1.86266242,-1.072884299,11.53804731,-6.369168759,7.982077957,-1.195054725
7.908017,-27.48606062,8.61308527,-65.75476073,-0.377897799,-1.084794387,10.65865767,-9.382350801,4.450003013,-0.651674218
7.91635,-27.56048202,8.605000019,-65.75881195,-0.602441426,-0.509358175,10.18838537,-9.599060057,-1.131774649,-1.157107159
7.924683,-27.64524031,8.639868617,-65.77576828,-2.240606606,-1.146812529,9.130520819,-10.58095122,4.212303921,-0.219107461
7.933016,-27.73684883,8.695055008,-65.8135109,-0.310740561,-1.415463433,10.2440691,-11.05827236,7.448278905,-1.171624079
7.941349,-27.86111689,8.677219033,-65.8124199,-1.034277321,-0.803716183,11.65918291,-15.65887833,-2.38155444,-1.272454595
7.949682,-27.98824978,8.730124712,-65.84296803,-1.949120283,-0.601340831,13.16513181,-15.46467161,6.808486344,-0.497060344
7.958015,-28.12502194,8.765169979,-65.8650856,-0.720217955,-0.938541852,8.739991427,-16.73998022,4.512755722,-0.729189418
7.966348,-28.26003647,8.756108524,-65.85920333,-0.038998284,-0.432586173,10.42575145,-17.06826329,-1.787512109,-0.174394542
7.974681,-28.40083122,8.786840678,-65.88147355,-2.501923531,-0.796764776,10.91018057,-17.21999121,4.067051873,-0.940884799
7.983014,-28.5330267,8.830913782,-65.90595245,-0.433065512,-0.615511224,11.02071333,-16.17231679,5.528789998,-0.304482896
7.991347,-28.67660809,8.805646778,-65.89782335,-0.942486767,-0.643499065,9.676003577,-18.11262751,-3.549682498,-0.996896655
7.99968,-28.80771828,8.849048137,-65.91289138,-1.752856091,-0.110010639,11.18706536,-16.22311497,4.922631026,0.67709643
8.008013,-28.94578171,8.851182343,-65.9263115,-0.235567924,-0.709771153,10.64636278,-17.05557203,0.56291455,-1.666344091
8.016346,-29.0690713,8.834019066,-65.909935,-1.007934174,-0.317625977,10.55866134,-15.85494232,-3.251993358,0.446353749
8.024679,-29.18373633,8.833969595,-65.92279053,-1.751327112,-0.39316377,9.553094744,-14.26624537,0.300195426,-1.699828208
8.033012,-29.29076338,8.867125631,-65.94018173,-1.135044098,-0.616553724,10.53510106,-13.28362561,3.963512659,-0.10057427
8.041345,-29.39895725,8.816881777,-65.93286133,-0.108471474,-0.97393797,11.46037746,-13.87141371,-6.11185509,-2.589785438
8.049678,-29.50638437,8.841241836,-65.94327545,-3.060870051,0.083650149,12.44021118,-13.46634459,2.629541993,0.145213522
8.058011,-29.59936094,8.867914796,-65.97106553,-0.427305486,-0.510283575,10.21891391,-11.40884733,3.977596676,-1.684741229
8.066344,-29.68240309,8.846661568,-65.95521163,-1.085315019,-0.647408631,9.70420122,-11.02648353,-3.670068681,0.140910305
8.074677,-29.754076,8.865149259,-65.96929548,-0.869033992,-0.117861986,11.37499023,-9.102329372,2.338474155,-0.757124804
8.08301,-29.81689549,8.878671287,-65.97599033,-1.645134002,-0.734117083,9.66121459,-8.183995008,1.265737131,-0.091503655
8.091343,-29.86546993,8.875675321,-65.97641375,-0.183143493,-0.417084791,11.80782318,-6.594855547,-0.738333523,-0.576416388
8.099676,-29.91837931,8.867996813,-65.96662905,-2.216543839,-0.567468796,10.4348712,-7.3071301,-1.922076643,0.362396643
8.108009,-29.95663261,8.935199736,-66.00028608,-1.701248411,-0.053461662,11.38318157,-4.739642322,8.545168162,0.188709673
8.116342,-29.98525381,8.917219996,-65.99517438,-0.382360132,-0.717579998,10.21609533,-4.310149074,-2.724464551,-0.744711466
8.124675,-29.99941301,8.946694135,-65.99826813,-1.569294185,-0.258663312,9.94498992,-2.394998111,2.845956065,1.021473259
8.133008,-30.00407076,8.975759029,-66.0117073,-1.191861496,-0.713671245,9.900688765,-1.093356356,3.251992882,0.198830512
8.141341,-30.01464796,9.014641523,-66.02236558,-0.95085451,-0.762609951,10.58447862,-1.832909822,4.24344933,0.852726728
8.149674,-30.02282524,9.026193619,-66.01966478,-1.186801158,-0.71908804,11.57909012,-1.833197832,0.475649905,0.806153571
8.158007,-30.02399731,9.109928251,-66.04866413,-2.84434706,-0.506779306,11.42654824,-0.356860587,9.981858252,1.692374259
8.16634,-29.99194717,9.193900347,-66.07263565,-1.347748071,0.035366045,10.91369975,3.487080902,9.558724912,2.441680521
8.174673,-29.92498207,9.273074389,-66.06017303,-1.177169181,0.653362118,9.438852548,7.032136441,7.06505704,5.645483851
8.183006,-29.79612112,9.444443227,-66.09015273,-3.065411002,1.892115623,11.56085491,15.21768451,18.99848175,7.060679555
8.191339,-29.59337807,9.550292732,-66.06016158,0.807595156,1.261711329,9.759229065,22.96141195,8.846409084,8.981576204
8.199672,-29.30961084,9.709905624,-66.0533867,-3.388344407,2.168233037,11.90276182,33.0975213,15.68311715,10.02761817
8.208005,-28.92753983,9.909115793,-66.0481148,-0.213844255,2.514592856,10.70490599,44.94933891,20.13493753,11.81007504
8.216338,-28.44424248,10.02326846,-65.98976898,-1.784636121,1.084764548,9.160093187,55.97608089,8.130595445,12.49278116
8.224671,-27.86973715,10.27248096,-65.98920058,-1.531235606,2.396231353,11.6360656,68.13612938,25.90196371,13.78856397
8.233004,-27.18667793,10.40623164,-65.9319954,-0.345884769,2.35321939,9.94758892,79.9346695,10.58395612,13.18399167
8.241337,-26.40419484,10.61366129,-65.89546583,-2.112996787,1.387804389,10.64013433,92.32293511,19.8694911,14.63514018
8.24967,-25.52820253,10.79561567,-65.85284043,-1.007569626,2.154540837,11.58785176,103.3897305,16.93769169,13.7947681
8.258003,-24.56446457,10.98714828,-65.80173875,-1.075758472,1.54925406,9.351083636,113.7115288,17.86277676,14.75586128
8.266336,-23.52197075,11.15740872,-65.75450518,-1.157366187,0.588697493,10.14681911,123.2378331,15.94589544,13.02806258
8.274669,-22.42559576,11.35603356,-65.70536045,-2.152668178,0.719329246,11.77160728,129.6442719,19.28614569,14.1698029
8.283002,-21.26594258,11.55718374,-65.65579988,-0.771817476,1.114306301,11.93057823,137.2090416,19.79427719,14.00439453
