,time,Euler_X,Euler_Y,Euler_Z,Acc_X,Acc_Y,Acc_Z,Gyr_X,Gyr_Y,Gyr_Z
0,0.0,-0.2403356183333333,-1.6287662186666667,-33.85187273333333,-0.5488229196666666,-0.7768146793333334,13.968384424333331,4.875731229666666,49.39130910666666,0.9255728920000003
1,0.0027776666665886,-0.19739305966666665,-1.2285704613333335,-33.833597833333336,-1.8957203626666665,-0.3430528143333333,14.138023376666666,4.51739494,47.58057657999999,1.969674646666667
2,0.005555333333328833,-0.16101795166666666,-0.791381871,-33.8230769,-0.18977097666666667,-0.6951547463333334,15.076647123333332,3.6744218666666666,52.01078542333334,0.974781692
3,0.008332999999917467,-0.16326293,-0.3685995039999999,-33.812494900000004,-2.0760685999999997,-0.6382346946666667,15.159531593333332,-0.9462347553333333,50.29923757,1.0062874156666666
4,0.011110666666657667,-0.17866164166666665,0.06916143499999998,-33.813026433333334,-0.226630906,-1.643399835,15.381617230000002,-2.5559866826666666,52.08126958333333,-0.3675825893333333
5,0.0138883333332463,-0.23049707233333336,0.4574522476666667,-33.80880736666667,-0.7879487426666666,-1.2605024276666665,14.179148036666668,-6.920301516999999,46.16451517666667,0.27842696499999997
6,0.0166659999999865,-0.33245488399999995,0.848168711,-33.82068126666667,0.420205315,-1.8254860243333333,13.267219543333333,-12.920562744666668,46.441371913333334,-1.6717637776666667
7,0.019443666666575134,-0.45752247199999996,1.206915756,-33.822095233333336,-1.5111709436666665,-2.4455145196666668,16.22928206,-15.711087229999999,42.623343150000004,-0.282465577
8,0.022221333333315368,-0.5987163583333334,1.5275201796666666,-33.83459980000001,0.15636099366666667,-0.9315291843333333,15.283930779999999,-17.59623018666667,38.0340538,-1.6301782529999997
9,0.024999000000055564,-0.7787226339999999,1.8206652399999996,-33.84148406666667,-0.826173961,-0.8640395006666667,16.035883266666666,-22.28766696,34.75562222666667,-0.8061234953333333
10,0.0277766666666442,-0.9796165423333334,2.0994089446666666,-33.8565318,-0.6677362123333334,-1.3852667413333333,16.669821103333334,-24.727263769999997,33.02703348666666,-1.7809773583333335
11,0.030554333333384403,-1.1923000813333333,2.3462088503333334,-33.86512246666667,-1.0905148733333334,-0.9476875266666668,16.067432723333333,-26.203722,29.198223746666667,-0.8655490473333333
12,0.03333199999997303,-1.4091616869999999,2.590956290333333,-33.87056476666667,-0.2598911226666667,-0.08858498166666667,14.645492236666668,-26.67054939333333,28.930249533333335,-0.49327939766666673
13,0.03610966666671323,-1.619384368333333,2.807986179666667,-33.865130099999995,-0.6210223563333334,-1.1651446723333334,14.098403933333335,-25.976703643333334,25.58393033333333,0.9459050496666667
14,0.03888733333330187,-1.8236158686666668,2.9891390799999997,-33.8549983,-0.33867906033333334,-0.48360707866666663,15.870769183333332,-25.239517210000002,21.251442593333334,1.339852035
15,0.0416650000000421,-2.0292884113333334,3.1621622243333327,-33.84162650000001,-0.42444352300000004,-1.120363255,15.558509829999998,-25.490732193333333,20.261832556666665,1.90085117
16,0.044442666666630735,-2.2386991976666666,3.3112235863333335,-33.8250351,-0.12518661733333333,0.14016003166666666,16.654981926666668,-25.90955861666667,17.36463102,2.111660967
17,0.04722033333337094,-2.4426414966666665,3.427160422,-33.81349943333333,-0.17357242233333336,-0.3016068586666667,16.463700929999998,-25.271845496666668,13.410963375666666,1.5552206436666667
18,0.04999799999995957,-2.6498083273333335,3.522657871,-33.80398303333333,-0.4203595123333334,-0.12493778266666666,14.898739813333334,-25.60351753333333,10.966027896333335,1.0996541183333335
19,0.05277566666669977,-2.852253039666667,3.601999362333333,-33.796396900000005,-0.25614184133333334,-1.5379137196666666,14.777516043333335,-25.063863119999997,9.027536867666667,0.96662203
20,0.0555533333332884,-3.030198892,3.6481088796666667,-33.7742335,-1.0392441353333333,-0.18482851966666666,15.93405342,-22.19174194333333,4.959208568,2.370389327333333
21,0.0583310000000286,-3.18748792,3.670187632333333,-33.75283556666667,0.18037734666666663,-0.14706701533333333,16.33514849333333,-19.747734706666666,2.0698320073333334,2.303121785333333
22,0.06110866666661723,-3.335198641,3.6642198559999994,-33.728007000000005,-0.8798380793333332,-0.16633146099999999,15.959310213333334,-18.59077072,-1.3098179896666666,2.3634990056666667
23,0.06388633333335747,-3.4755563733333332,3.626813809,-33.70920053333334,-0.49787087466666663,-0.004976843666666657,16.413599013333336,-17.69298299,-5.052456021333334,1.57884039
24,0.0666639999999461,-3.614992300666666,3.567327578666667,-33.68464406666667,-1.395621101,-0.272436321,16.19297568,-17.59332212,-7.7309080759999995,1.9243044853333335
25,0.0694416666666863,-3.734217008,3.4682777723333333,-33.667032866666666,0.16024468833333333,-0.11510347066666664,16.17795817,-15.13838100333333,-12.435036340000002,0.9542544186666667
26,0.07221933333327493,-3.824676752,3.3722455503333335,-33.6468353,-2.2003557480000002,0.5713450113333334,15.001456893333334,-11.686006544666666,-12.078596116666667,1.0912733873333333
27,0.07499700000001513,-3.8982060749999996,3.248937209333333,-33.64573669999999,-0.33168369533333336,-0.26490302899999996,14.353854176666665,-9.524668694666667,-15.21225071,-1.251255671
28,0.07777466666660376,-3.9472641943333335,3.1276042463333336,-33.63461556666667,-2.198043227,-0.596289697,14.490550040000002,-6.656680107333333,-15.037779173333334,-0.22133677200000004
29,0.08055233333334397,-3.970310608666667,3.0137765406666666,-33.63663736666666,-0.6026940146666667,0.05932919666666662,16.325546263333333,-3.436193545666667,-14.050244333333334,-1.5641167363333333
30,0.0833299999999326,-3.9796685376666665,2.885658423,-33.630277,-2.0168763596666666,-0.23506381633333331,16.1595068,-1.868960062666667,-15.81249237,-0.8599211376666668
31,0.08610766666667284,-3.984348535666667,2.7708774406666663,-33.63386533333333,-0.4909707853333333,-0.1425544819999999,16.673238753333333,-1.2185971736666668,-14.150342626666665,-1.7759463386666667
32,0.08888533333326147,-3.990181922666667,2.631479621,-33.62896983333333,-1.5526535209999999,-0.4395745793333334,15.604295096666668,-1.435490454,-17.152178446666667,-1.1142451366666668
33,0.09166300000000166,-3.983052333333333,2.497950394666667,-33.63604230000001,-0.9644941890000002,-0.625383208,15.718398089999999,0.21693547566666674,-16.36506621,-2.3423241973333337
34,0.0944406666665903,-3.9583961963333336,2.3606849116666666,-33.64043426666666,-1.1763887803333333,-0.8032843273333334,15.172967593333334,2.2679190533333333,-16.81914202333333,-2.206632548
35,0.0972183333333305,-3.9201424916666667,2.239990393,-33.65625253333334,-1.3439084886666668,0.7451728979999999,14.4814256,3.9925511676666665,-14.75935618,-3.272962083333333
36,0.09999599999991914,-3.8583820659999994,2.128646929666667,-33.670290599999994,-2.156493743,-0.3120954036666667,15.621994336666667,6.760690292333334,-13.642199516666665,-3.106362661
37,0.10277366666665937,-3.769487698666667,2.0622649193333333,-33.6914215,-2.1306302546666664,-0.4081937873333333,16.889493940000005,10.083779653,-8.218153794333334,-3.43567655
38,0.105551333333248,-3.6613349916666666,2.02799956,-33.714706433333326,-2.280478676,-0.15945057066666662,16.101110456666664,12.363498053999999,-4.351478854666667,-3.5545523960000005
39,0.1083289999999882,-3.5446905293333333,2.0288936693333333,-33.738375366666666,-2.3700729209999998,-0.2060247696666666,14.160116193333332,13.417541186666668,-0.151102702,-3.21141543
40,0.11110666666657683,-3.422963460333333,2.044406732,-33.75244396666667,-1.8149079876666667,-1.287939196,14.610408783333334,13.956571896666667,1.5300454209999999,-2.0906895396666667
41,0.11388433333331703,-3.2887131373333336,2.092308124,-33.76856993333334,-2.191922783666667,-0.08324095633333334,15.290224076666666,15.500291189999999,5.414316813,-1.9754172563333334
42,0.11666199999990567,-3.147407055,2.158995509,-33.789342233333336,-0.8570328153333334,-0.895409748,15.372440653333333,16.33840624666667,7.699661890666667,-2.575746536333334
43,0.11943966666664586,-3.0061788556666666,2.2307042679999998,-33.80548096666666,-1.7688548963333333,-1.1360351836666667,14.13282935,16.337237673333334,8.260632197333335,-1.8663947183333336
44,0.1222173333333861,-2.870872735666667,2.298714637666667,-33.830045033333334,0.013717418,-0.12551944266666668,14.19510905,15.648112616666666,7.870338757666667,-3.0748833119999994
45,0.12499499999997472,-2.743769725,2.3631849286666666,-33.85121666666666,-1.4651145540000001,-1.2578109503333332,12.820369086666666,14.665851593333334,7.416988055,-2.551729242
46,0.12777266666671494,-2.6236839296666665,2.410248398666667,-33.876831033333325,-0.539138655,-2.4789810976666664,12.225399016666666,13.842636743333331,5.351378520333334,-3.3624711233333335
47,0.13055033333330357,-2.5172105633333337,2.4543878236666665,-33.899637866666666,-1.432299753,-0.742089381,11.552354813333332,12.199096359999999,4.980885108,-2.8750060796666665
48,0.13332800000004377,-2.4256081579999997,2.4573729833333333,-33.92314150000001,0.1244211366666667,-1.5628667476666667,10.872528393000001,10.422339121666667,0.044794996333333316,-3.377539992333333
49,0.1361056666666324,-2.342396339,2.459269444,-33.93795776666667,-1.3954846263333334,-1.6333964863333332,11.367740946666666,9.360065461,-0.13273716966666668,-2.128811926
50,0.1388833333333726,-2.297537883,2.4781617723333333,-33.958195999999994,-0.838420426,-1.388337453,10.61874771,4.801619053,1.9285642703333334,-2.904103676666667
51,0.14166099999996123,-2.2853197256666666,2.488875587666667,-33.98028566666667,-1.8022605973333334,-2.6261292296666667,8.037863890333334,0.8758233786666666,0.9577462673333335,-2.977129817333333
52,0.14443866666670147,-2.318253755666667,2.5437998769999997,-34.008654299999996,-0.7476995189999999,-2.3323728243333335,7.559689442,-4.482060233666666,6.2866732276666655,-3.6796259086666665
53,0.1472163333332901,-2.4185851413333332,2.5223776896666665,-34.032869966666674,-1.7594394483333333,-2.116000831,6.284024079999999,-12.628626506666668,-2.8814485073333334,-3.3643151523333334
54,0.1499940000000303,-2.5688052973333333,2.6983909606666665,-34.0685298,-2.3434599639999996,-3.2247083186666665,6.957728226666667,-18.506311733333334,20.849182126666665,-3.875440597666666
55,0.15277166666661893,-2.7548408510000004,2.6600985126666665,-34.0785497,0.39540535200000004,-2.2364132006666666,4.7912480036666665,-22.98937289,-4.973505815,-1.7607104776666667
56,0.15554933333335913,-3.0291016896666663,2.835341533,-34.0834605,-2.191529711,-1.9546886283333331,7.81211845,-33.56036249666667,20.59611320333333,-0.05580051733333332
57,0.15832699999994776,-3.336182197,2.9172654946666667,-34.0710424,-0.1424953836666667,-2.179670771,4.180935224,-37.633241016666666,9.289033411666667,1.6966426573333333
58,0.16110466666668796,-3.6476543743333334,3.0235141119999995,-34.04737343333333,-0.9457293450000002,-0.7789372503333333,4.831015825000001,-38.21612040333334,12.128690083,3.1023750703333337
59,0.1638823333332766,-4.020642996,3.118715604,-34.037572233333336,-0.0781138736666666,-1.2637000479999998,6.060505508333335,-45.51375961333334,10.879317283666666,1.5711246826666667
60,0.16666000000001682,-4.408571799333333,3.2244412896666668,-34.03102366666668,-0.2923839586666667,-1.2293726109999998,3.1673841476666666,-47.29560724666667,12.175005277000002,1.2047380743333334
61,0.16943766666660545,-4.810848395,3.313498258333333,-34.037045799999994,-0.05637631799999998,-0.4413305223333333,4.292571385666666,-48.92690277333333,10.26735274,-0.20291195299999998
62,0.17221533333334568,-5.207819143666668,3.383647124,-34.040804566666665,-0.39156878733333333,-1.0868131793333333,3.3606437046666664,-48.31096013333333,8.012721855,-0.24149123833333327
63,0.1749929999999343,-5.592723687666666,3.4447623889999996,-34.046137466666664,0.4704238126666666,-0.4428848126666667,4.093083937666667,-46.84301758,6.909129142666667,-0.31073188766666676
64,0.17777066666667451,-5.980475584666666,3.494434039,-34.03886413333334,-0.569843163,0.027899965666666676,4.639608144666666,-47.28499094666666,5.430918157,0.9591283996666666
65,0.18054833333326314,-6.3613322576666675,3.510350863333333,-34.03183236666666,0.7530733346666668,0.18511125933333336,6.293706178666667,-46.439545949999996,1.3568858506666668,0.6801908020000001
66,0.18332600000000335,-6.734578927,3.5253010593333336,-34.018219,-1.2697498003333332,-0.05514523400000001,3.453964034666667,-45.59756088333333,1.1896352766666667,1.314935103
67,0.18610366666659198,-7.079485257666666,3.486678600333333,-34.00985463333334,1.2362023196666667,0.171978901,3.2000076773333332,-42.12696075666667,-5.177205859,0.07239977499999976
68,0.1888813333333322,-7.379580497666666,3.448947111666667,-33.993721,-1.408933759,-0.06788797666666667,2.648006601666667,-36.84863027,-5.1299398940000005,0.8092062870000002
69,0.19165899999992084,-7.635607083666667,3.377667188666667,-33.99318183333333,1.5141453743333333,1.0319053726666667,5.977923075333333,-31.384880703333327,-8.947411696333333,-1.422890345333333
70,0.19443666666666104,-7.847998618999999,3.301797072,-33.974029533333336,-2.143383662,0.6257318856666667,5.034122705666667,-26.36343383666667,-9.729667821333333,0.5313308240000002
71,0.19721433333324967,-8.021123091333335,3.189546903,-33.97320046666667,1.1382339396666665,1.6012504696666667,5.390590429,-21.4095157,-13.808417003333332,-2.1311151196666667
72,0.19999199999998987,-8.150881926333334,3.0661744273333333,-33.94529213333333,-1.1608321670000004,0.10229455166666664,5.513210455666666,-16.535260836666666,-15.552971205333334,0.8618601176666667
73,0.2027696666665785,-8.222660382666666,2.9463746549999996,-33.935773233333336,-0.05228388300000001,1.2936320703333333,4.285259147333334,-9.275990010666666,-14.843877476666668,-1.288113913
74,0.20554733333331873,-8.218030929666668,2.763404568,-33.89660646666667,0.11338869733333312,0.01724225266666668,3.8313439886666667,-0.4629214406666667,-22.807200113333334,0.9920886349999997
75,0.20832499999990736,-8.189550081666665,2.590949575,-33.868632,-0.6794622739999999,2.111983339,7.593148231333334,2.6565105133333335,-21.406091053333338,-0.02025937800000044
76,0.21110266666664756,-8.124510447,2.402895331333333,-33.83833313333334,0.4957003989999999,-0.224152237,5.969666560333334,6.8771541130000005,-23.265983583333334,-0.09851439899999963
77,0.21388033333338777,-8.018043359,2.1661860943333333,-33.796887700000006,-1.677101617,1.056052824,5.26330328,11.942745209333333,-29.264043806666667,0.5447053896666668
78,0.2166579999999764,-7.863751411666667,1.984760165,-33.781422899999995,1.0464343976666666,-0.17314590033333332,5.843122005333334,17.710895856666667,-22.255824410000002,-1.513908386333334
79,0.21943566666671663,-7.661036014666666,1.713188946,-33.733866400000004,-2.2212348779999997,1.050156961,4.603499095,23.473587033333335,-33.50069745333334,0.8722972073333336
80,0.22221333333330526,-7.433390935333333,1.5006692209999999,-33.71649933333334,1.2466407119999998,0.1906109646666667,7.371172827333332,26.54661878,-25.99191220333333,-1.6359473866666665
81,0.22499100000004546,-7.194014708333334,1.2535470526666668,-33.67725626666667,-3.179549138,1.0716867643333334,6.174710273666666,27.9270401,-30.456692376666666,0.5252321560000001
82,0.2277686666666341,-6.91781648,1.0181889633333332,-33.65562693333333,1.8842976096666668,-0.7220253746666666,6.855370362666666,32.390867869999994,-28.783735273333335,-1.2375448546666667
83,0.2305463333333743,-6.618126551333333,0.8267547416666666,-33.62815346666667,-4.004333337333334,0.2262434166666667,3.801931937333334,35.21846262666667,-23.643460593333334,0.18897755933333352
84,0.23332399999996292,-6.314785321666666,0.5870700329999999,-33.63566333333334,1.2631823223333332,-0.6982353626666667,3.956287126,35.71428426,-28.917984009999998,-4.475104491000001
85,0.23610166666670315,-5.9967978796666666,0.4450688063333333,-33.65284729999999,-3.5558885733333336,-0.09923907133333336,7.683580557666667,37.480477650000005,-17.162656146666667,-4.254220723666667
86,0.23887933333329178,-5.691095988000001,0.2847625516666667,-33.69943236666667,-0.20200599733333333,-0.5886811616666666,4.567351182333334,36.02267710333333,-19.00768312,-7.855423926333333
87,0.24165700000003199,-5.397394815999999,0.17300914700000003,-33.74406433333334,-3.1483792066666667,-0.9987960060000001,3.8854656220000003,34.55819956333333,-13.267708776666666,-7.009135486000001
88,0.24443466666662061,-5.124362945333334,0.11074507233333336,-33.809425366666666,0.19198125599999996,-0.7224991419999999,4.948518594333334,32.10798009,-7.155358154999999,-8.940749328666667
89,0.24721233333336082,-4.858024120666666,0.06423067033333334,-33.847312933333335,-3.5732403596666664,-1.703234275,3.180973450333333,31.23513158333333,-5.596032182333334,-5.383092285
90,0.24998999999994945,-4.603276411333333,0.057318747000000024,-33.88809203333334,0.6865393693333335,-0.580275834,3.1770402593333333,29.922912596666666,-0.866876205,-5.368471224666667
91,0.25276766666668965,-4.3876430189999995,0.07562839999999998,-33.900316866666664,-3.18598636,-1.5958526533333333,5.010293881,25.12767156,1.876525561,-1.6686070363333334
92,0.2555453333332783,-4.208854834333333,0.12457385666666666,-33.91587066666667,-0.05450890500000009,-0.5288025736666666,4.675152381333333,20.818041483333335,5.552361488333332,-1.8397049903333336
93,0.2583230000000185,-4.056045293666666,0.1864631973333333,-33.91555783333333,-1.6039326636666666,-1.9287919599999999,2.507344087,17.577953973333333,6.976133187666666,0.20266445466666708
94,0.26110066666660714,-3.933501958666666,0.27667117133333335,-33.92087809999999,-0.7358966866666669,-1.0534748186666667,2.8908449410000006,14.073798179999999,10.396163621666668,-0.29499133399999994
95,0.26387833333334737,-3.843702634,0.3680794136666667,-33.91716256666667,-0.4534494476666666,-1.6211047370000002,3.3143365379999996,10.009891510666666,10.484557787333333,0.818097273333333
96,0.266655999999936,-3.7928806143333333,0.4840169943333333,-33.9143448,-1.9533781609999998,-0.8653269213333333,2.8064253729999997,5.460004647666666,13.417692180000001,0.8285742303333331
97,0.2694336666666762,-3.7666020393333333,0.5948859999999999,-33.91326903333333,0.888040384,-2.2262039776666667,3.007422447333333,2.4019752343333334,12.830513953333332,0.6314936479999999
98,0.2722113333332648,-3.768469333666667,0.7286766193333335,-33.902132666666674,-2.1613037336666667,-0.031121181999999987,3.702009439333333,-0.8983682096666668,15.498048783333331,1.963088194666667
99,0.27498900000000503,-3.8171374796666666,0.8584314796666668,-33.90067546666666,1.1888521663333333,-1.916566491,3.2015086213333337,-6.576879342333334,15.082433063333333,0.8284760313333335
100,0.27776666666659366,-3.8921458720000004,1.0032425523333333,-33.883756,-2.3179018499999997,-1.0260252553333333,2.648155967333333,-9.710731349666666,16.772002853333333,2.7820698420000003
101,0.2805443333333339,-3.995580832,1.1477232576666667,-33.881426499999996,0.8491242476666668,-0.5185917400000001,2.1242205696666665,-13.143451214333334,16.829362866666667,1.0917827290000002
102,0.2833219999999225,-4.109051307333334,1.3063625693333334,-33.8579025,-2.410727828666667,-1.2063534856666667,1.1353607776666668,-14.355755486666666,18.365944863333336,3.737285216666667
103,0.2860996666666627,-4.226821025,1.472768624333333,-33.85826366666667,0.5620421963333332,-0.9295260283333334,3.3989830016666667,-14.836597126666666,19.468595506666663,1.0322759746666668
104,0.28887733333325133,-4.365734100333333,1.6430353326666667,-33.838363666666666,-1.437447379,-0.09805158766666666,2.9661221503333333,-17.435830433333333,19.772307076666667,3.489297628333333
105,0.29165499999999156,-4.518515745666667,1.8040496506666666,-33.84221903333333,1.0917442203333334,-0.277780215,3.358363628333333,-19.00930532,18.853677113333333,0.6588540873333333
106,0.2944326666665802,-4.683745225333333,1.968244632,-33.8336131,-1.6596698376666668,-1.0061208406666666,2.0015571436666666,-20.58605257666667,19.12798245666667,2.2233128946666665
107,0.2972103333333204,-4.849037965333333,2.1266965466666665,-33.842310600000005,0.8334095083333333,0.2512016046666667,1.245936553,-20.46121534,18.5907472,0.16187365866666678
108,0.29998799999990905,-5.000118573333332,2.2709902526666665,-33.83812713333334,-0.24207377433333335,-0.035698751666666695,2.6137830416666668,-18.89322789666667,16.778006873333336,1.5857652030000002
109,0.3027656666666492,-5.143609047,2.4000343086666667,-33.838635733333334,-0.046636105000000073,-0.2996018133333333,3.064968427,-17.8708601,14.987596513333335,0.9292678833333331
110,0.30554333333338946,-5.279224872666666,2.512507637666667,-33.83811443333334,0.26988707999999995,-0.3699689703333333,1.7424426873333336,-17.013875643333332,13.000449816,0.9080034893333333
111,0.30832099999997814,-5.411820888666667,2.601251364,-33.83180236666666,0.5424784026666667,1.263584299,1.8956763546666668,-16.609671273333333,10.091337523333333,1.3657343386666663
112,0.31109866666671826,-5.533205509000001,2.668797373666667,-33.81439973333333,0.2488971846666667,-0.8653181613333333,2.366619408,-15.402731576666667,7.432292938333333,2.465532621
113,0.31387633333330694,-5.620642662333334,2.710152785,-33.8004659,0.0044661366666666575,0.650317629,2.7805089953333333,-11.221108119666667,4.33895874,1.7711778980000001
114,0.3166540000000471,-5.687429745999999,2.7209936383333333,-33.78484853333333,1.4682259956666668,0.9009884893333333,2.965922236666666,-8.846590519333333,0.6710799536666668,1.6170907816666666
115,0.31943166666663575,-5.750330289333333,2.699323693666667,-33.760630299999995,-0.533071851,-0.35083822400000003,2.322957039,-8.345874867000001,-3.309398015333333,2.2211428483333333
116,0.32220933333337604,-5.785207271666667,2.644809603666667,-33.74780526666666,1.5211218889999998,0.008675356999999847,2.5721697013333333,-4.980308197666667,-7.0996859080000005,0.4621577883333334
117,0.3249869999999646,-5.7966631253333345,2.553354144,-33.729316733333334,-0.46131385866666674,2.350841323666667,4.1869103910000005,-2.147271394666667,-11.573293051,0.6922374566666664
118,0.3277646666667048,-5.782464981333334,2.433886647,-33.71570333333333,1.3691148360000003,-1.2815302886666666,4.070498625333333,0.9140788713333334,-14.86691157,-0.2236462433333335
119,0.33054233333329347,-5.729732513333334,2.2771253186666667,-33.6871109,-0.4652736336666667,1.2918480239999999,4.812250137333334,5.505696773333334,-19.492010116666666,1.122574011666667
120,0.33332000000003364,-5.670957088333334,2.086900790666667,-33.66799926666666,1.2907567023333333,1.0093954006666666,4.338304440000001,6.262402891000001,-23.38391177,-0.3593586290000001
121,0.3360976666666223,-5.579103311,1.8551584483333334,-33.633249933333325,-0.370583276,-0.9647990463333332,5.821301460333333,10.187132201333334,-28.514427819999998,1.0027424493333332
122,0.3388753333333625,-5.460408846333333,1.5846169393333334,-33.60473886666666,1.6639610530000002,1.3901614646666667,6.465604941333333,13.45759042,-33.08467928333334,-0.11515661066666653
123,0.34165299999995113,-5.326308091666667,1.274883588,-33.5616633,-0.688950525,0.1051195660000001,7.715295632666667,15.248649596666667,-37.91560236666666,1.2142228183333335
124,0.34443066666669137,-5.157931804666666,0.9383385876666667,-33.53260803333333,1.3560288623333332,-0.3865094386666666,7.728237945333333,19.476251286666667,-40.98221842333333,-0.5771190723333334
125,0.34720833333328,-4.943341573,0.5220525613333333,-33.486785899999994,-0.08802660299999994,1.7122307419999998,8.441006184333334,24.949767429999998,-50.66769790666667,0.6300089360000001
126,0.34998600000002017,-4.733869393666667,0.128603781,-33.4522985,0.23902902999999998,0.4709243143333333,11.659503619,24.45033709333333,-47.831882476666664,-0.31096927333333335
127,0.3527636666666088,-4.484269619,-0.34999474899999994,-33.41165159999999,-0.7947679659999999,-0.340658307,8.912458737666666,29.248566946666667,-58.06544494666667,-0.21104480833333336
128,0.35554133333334903,-4.184540748666667,-0.767485443,-33.38044736666667,-0.8574430940000001,1.746408562,10.931750616,35.32950210333333,-50.6816864,-0.430389325
129,0.35831899999993766,-3.8778304256666662,-1.2461082139999997,-33.341089866666664,-0.324420353,-0.9218754370000001,12.360001879999999,36.16848882,-58.05027643666667,0.21928832933333334
130,0.3610966666666779,-3.5443834463333332,-1.7085798976666666,-33.2973048,-1.9313648243333335,0.3081608316666667,10.469550134,39.476476033333334,-56.16794332,1.2654457293333332
131,0.3638743333332665,-3.2118612133333335,-2.1037325856666667,-33.2667211,-2.034539242333333,-0.09733869633333336,11.591751100000002,39.32056808666667,-47.98051071333333,0.4935710033333333
132,0.36665200000000664,-2.8543221156666667,-2.5343573493333333,-33.222702033333334,-0.9970561066666667,-0.2908827563333333,13.547046026666665,42.43813196666667,-52.32903671333333,2.1909184059999998
133,0.3694296666665953,-2.484234094666667,-2.8668378986666667,-33.188873300000004,-3.4654577576666665,-1.0816640406666667,12.088397659333333,43.88790258,-40.475260416666664,1.8274071613333334
134,0.3722073333333356,-2.148816585666667,-3.166061163,-33.1573766,-1.9873847166666667,-0.9503981496666666,12.139359792,39.771680196666665,-36.47790400333333,1.96368742
135,0.3749849999999242,-1.8249409200000002,-3.4737876256666667,-33.13064323333333,-2.4956412513333333,-1.3312259116666667,13.722223600333331,38.350222269999996,-37.451284406666666,1.5581266283333333
136,0.3777626666666644,-1.512700954666667,-3.6093921659999997,-33.111208600000005,-3.1929165573333336,-1.1308037836666667,11.782779534666666,36.92610550333333,-16.78602759,1.4849494693333334
137,0.38054033333325304,-1.2379139663333334,-3.825588306,-33.093821199999994,-1.1557474063333333,-1.463640014,14.358121235333334,32.402936933333336,-26.415143970000003,1.08363724
138,0.38331799999999316,-0.9740540583333334,-3.907142877666667,-33.07162983333333,-3.0290054479999995,-1.1661715406666666,12.622547466666665,31.158457439999996,-10.278502624,2.1701040266666665
139,0.38609566666658185,-0.7580297586666666,-3.9802342256666665,-33.061665866666665,-1.6586123306666665,-2.082286278666667,12.97227605,25.300647736666665,-9.230116526333335,0.6453511316666667
140,0.3888733333333221,-0.5860029656666667,-4.007532278666667,-33.049934400000005,-2.3944129943333334,-1.5264077983333333,14.551781653333334,20.051478066666668,-3.7389965056666665,1.0002235173333334
141,0.39165099999991065,-0.45697016533333334,-4.035875161333334,-33.041864999999994,-1.5055295226666667,-2.3224454323333332,15.569206873333334,14.838886576666667,-3.8480789016666663,0.569028755
142,0.39442866666665094,-0.369453137,-3.928720633333333,-33.033226,-3.512054682,-1.161376059,10.830161573333333,9.887480736,12.396147727333334,0.7118154366666666
143,0.3972063333332396,-0.32218287366666665,-3.8701380096666664,-33.037803633333326,-0.8735773459999999,-2.2215344906666665,12.386746725666669,4.927324931,6.600395838333334,-0.876126488
144,0.39998399999997974,-0.290000404,-3.6949230036666667,-33.03586326666667,-3.8187562623333338,-1.539063692,14.484666506666665,3.185045719333333,20.578707376666667,-0.06708836566666661
145,0.40276166666672,-0.2935495776666667,-3.5566012066666666,-33.040054299999994,-1.3527009719999998,-1.6620764136666668,13.907277741666666,-1.1728289276666666,16.16103998666667,-0.7834115823333333
146,0.4055393333333086,-0.32203572966666666,-3.255263567,-33.04029336666666,-4.308002154333333,-0.6137163093333333,12.561791736666668,-4.114850282666667,35.713245390000004,-0.285500944
147,0.40831700000004884,-0.35620049633333334,-2.971304337,-33.04476926666666,-1.0482108593333332,-1.3616154593333334,16.002883909999998,-4.845828850999999,33.63352203,-0.7546042603333332
148,0.41109466666663746,-0.4234099986666666,-2.5996338526666665,-33.035436,-3.955022732333333,-0.9876202646666666,14.305094876333333,-8.704326629333332,44.13228353,0.9708024859999999
149,0.41387233333337764,-0.524801314,-2.214501341,-33.03358206666666,-0.3097272663333333,-1.6188977956666666,13.453481673333334,-12.873211383666666,45.781155903333335,0.2363223506666666
150,0.41664999999996627,-0.6476036406666666,-1.8294893503333334,-33.0288798,-2.9712250233333335,-1.7805589439999998,14.216571806,-15.409834226666668,45.744806923333336,0.5747291243333333
151,0.4194276666667065,-0.7675943576666667,-1.3326873976666667,-33.02859243333334,-2.1423858006666667,-0.835032791,14.66620795,-15.109361333333334,59.16636022,0.3882191183333333
152,0.42220533333329513,-0.9026663500000001,-0.943132619,-33.023615533333334,-0.11539162233333333,-0.5959966343333334,13.766957284999998,-16.892875353333334,46.283893586666665,0.782674432
153,0.42498300000003536,-1.0545176663333333,-0.47487251199999997,-33.03020476666668,-1.6187929113333333,-1.0236336886666668,15.051326433333335,-18.93498516,55.75044250333334,-0.21528055266666665
154,0.427760666666624,-1.2299326853333332,-0.007791762666666702,-33.04012553333333,-1.3239710930000002,-1.0756078066666666,14.840549783333335,-21.75067011666667,55.61795552666666,-0.5559715233333334
155,0.43053833333336416,-1.4062915643333334,0.41103174300000006,-33.0658137,0.6652033093333333,-1.2322982770000002,14.252333003333334,-21.854313533333336,49.87437438999999,-2.3393925033333334
156,0.4333159999999528,-1.6018013956666668,0.8354477856666667,-33.10037486666666,-1.258265813,-1.3345500626666666,14.181932446666666,-24.116896946666667,50.57750575,-3.299178103666667
157,0.436093666666693,-1.7945852279999999,1.2843233843333335,-33.1437912,-1.49441429,-1.159211824,15.125309623333331,-23.735771816666666,53.55103429333334,-4.0624175073333335
158,0.43887133333328165,-1.9756604433333333,1.6843536496666667,-33.18394216666666,-0.8958918053333335,-0.5497452916666666,14.922450383333333,-22.30286089666667,47.694281260000004,-3.7455399833333334
159,0.4416490000000219,-2.173578938,2.0982338193333336,-33.237253833333334,-0.11024729433333331,-1.1737432083333335,13.84054502,-24.237707776666667,49.42239634333333,-5.049919923
160,0.44442666666661057,-2.3807837166666665,2.457819541,-33.28496043333334,-0.6190016666666666,-0.6527589460000001,15.177945773333335,-25.336703619999998,42.894859313333335,-4.5062492690000004
161,0.44720433333335063,-2.5710774263333334,2.8334546886666665,-33.338984133333334,-1.2476978946666666,0.61003836,16.485572180000002,-23.22915395,44.87472152666667,-4.97602431
162,0.4499819999999393,-2.7689248719999995,3.1563418706666666,-33.38776143333334,0.16475095366666667,-1.0692017576666666,14.632915816666666,-24.13912518666667,38.527739206666666,-4.572461128333333
163,0.45275966666667955,-2.974827448333333,3.4619263009999997,-33.4294052,-0.24068289499999995,-1.8620669146666666,13.339409196666665,-25.111303966666668,36.43372853666667,-3.5823236306666666
164,0.4555373333332681,-3.1673469546666664,3.7081693806666665,-33.46146393333334,-0.12011689966666667,-0.15059421466666667,14.175630570000001,-23.557201386666666,29.262376149999998,-2.7330083846666664
165,0.4583150000000084,-3.3592360016666665,3.9206713040000003,-33.494232166666656,-0.1629049876666667,-0.627279669,15.09303379,-23.456774393333333,25.245780946666667,-2.8687543473333332
166,0.46109266666659704,-3.541079680333333,4.1030173303333335,-33.527595500000004,-0.13231663899999999,-1.09059149,15.662457783333332,-22.239847183333335,21.631981533333335,-3.1610428096666663
167,0.4638703333333372,-3.7155717216666666,4.267543951666666,-33.554293333333334,-0.8273705046666667,0.5987536756666666,16.263236683333332,-21.394729613333336,19.468361536666666,-2.3484214543333333
168,0.46664799999992584,-3.8886777556666665,4.396029392666667,-33.581377666666675,-0.01499180033333336,0.36982437966666665,14.7282753,-21.222601570000002,15.156145096666664,-2.761506895333333
169,0.4694256666666661,-4.046476205,4.503119309666666,-33.604553233333334,-0.8233327566666667,-0.791722556,14.128926593333333,-19.408639273333335,12.575455663333335,-2.303224523666667
170,0.47220333333325465,-4.180936892666666,4.584596792666667,-33.624125166666666,-0.276396796,-0.8145844936666666,14.015314739999999,-16.641442296666668,9.472489515666666,-2.134106348
171,0.47498099999999494,-4.296248197333333,4.635050217,-33.63600413333333,-0.799647997,-0.7490575613333332,14.508930526666665,-14.41864872,5.706891457333334,-1.368184649
172,0.47775866666658356,-4.399110158333333,4.6748566626666666,-33.648112000000005,-0.41464794666666666,-0.559595344,15.628026323333332,-12.910396893333335,4.425094922666667,-1.5934320983333332
173,0.48053633333332374,-4.482866605,4.703880707333333,-33.65513103333334,-1.6075512963333332,0.7160001693333333,17.14807383,-10.681645870333332,3.101926923,-0.9568453033333334
174,0.48331399999991237,-4.550101598333334,4.723422765666666,-33.66467790000001,-0.727093751,-0.23274753,15.743565243333334,-8.660830655333333,1.9830927053333334,-1.4666924776666665
175,0.4860916666666526,-4.5977420806666665,4.737677494666666,-33.667004899999995,-1.511521836,-0.33285904933333327,14.778970083333334,-6.390628258333333,1.2908379836666666,-0.5397430856666666
176,0.48886933333324123,-4.627785523666667,4.731746355666666,-33.66620636666667,-0.6319793063333333,-0.46613902333333335,14.486024536666667,-4.297099749333333,-1.1598465843333334,-0.48603865000000007
177,0.49164699999998146,-4.632577736999999,4.710882505,-33.65983836666667,-1.3313817976666666,-0.2614586376666667,15.469962116666666,-1.3360383113333334,-2.992984811666666,0.15900873633333337
178,0.49442466666672163,-4.6197279296666665,4.690386772,-33.660598766666666,-0.644737025,-0.31885297599999995,15.566222506666668,0.8679767750000001,-2.885908951333333,-0.8272800146666667
179,0.49720233333331026,-4.610730965999999,4.652223825666667,-33.654472366666674,-1.5561561586666668,-0.3734232933333333,15.635466256666668,0.3206390540000001,-5.059610207666666,-0.03689300533333332
180,0.49998000000005055,-4.600282827666667,4.610977331666667,-33.65247346666666,-0.4623428073333334,-0.458260536,15.194314319999998,0.5543775756666666,-5.393781820666667,-0.6874689906666666
181,0.5027576666666391,-4.581515471,4.564074357333333,-33.64835870000001,-1.7044260499999997,-0.10417120633333339,14.524477643333332,1.5078376133333335,-6.086894512333333,-0.3409938416666667
182,0.5055353333333793,-4.558668931333333,4.500117301666667,-33.64392853333334,-0.56589364,-1.0137755573333334,14.74733893,2.021338756,-8.133390108666667,-0.629632006
183,0.5083129999999679,-4.512739340333334,4.425367673,-33.6304525,-1.3809917770000002,-0.5596111416666667,14.987322169999999,4.680737416,-9.50725746,0.5045279166666666
184,0.5110906666667081,-4.450728416333333,4.3406417369999994,-33.61399076666667,-0.604374081,0.05052382266666666,15.189212483333334,6.616192421666667,-10.728162130666668,0.5960050623333334
185,0.5138683333332968,-4.387816588,4.237568060666667,-33.593337999999996,-1.3156550723333333,-0.055874882999999986,15.564741770000003,6.6611021453333334,-12.959852536666666,1.1087208636666668
186,0.516646000000037,-4.32062308,4.126530170333333,-33.57625326666666,-1.0935738286666667,-0.10137122866666665,15.714108466666667,7.234964213333334,-13.882589023333333,0.499229948
187,0.5194236666666256,-4.24325943,4.016608238333333,-33.55954743333333,-1.2346729636666665,-0.12949569,15.741106030000003,8.437236308333333,-13.741437590000002,0.6302596826666668
188,0.5222013333333658,-4.145115534333333,3.9044058323333335,-33.54244993333334,-1.3324287633333334,-0.292771826,14.708817483333334,10.953127861333334,-14.01726119,0.5158067000000001
189,0.5249789999999546,-4.022101481666667,3.7836151920000005,-33.527971900000004,-1.4275904893333333,0.06433097533333336,13.991898853333334,13.941713016666666,-15.020427703333333,0.3119943313333333
190,0.5277566666666947,-3.8881082533333333,3.671805779,-33.51082613333334,-1.541123629,0.06029878066666668,13.819175403333332,15.26057752,-13.965022406666668,0.5681495616666666
191,0.5305343333332834,-3.7467006843333333,3.562068701,-33.489585866666665,-1.4112186433333331,-0.9928756556666668,15.15543111,16.108338673333336,-13.748424846666666,1.2783899706666666
192,0.5333120000000235,-3.6004866760000005,3.4762218,-33.46275583333333,-1.6833159130000002,-0.6798011363333334,15.834206263333334,16.65996329,-10.927304586,2.0106752313333334
193,0.5360896666666121,-3.4637827873333333,3.388230800666667,-33.4383494,-1.326788227,-0.773343841,14.884279886666668,15.52702904,-11.158916472666666,1.8881709970000002
194,0.5388673333333523,-3.3415080706666664,3.314360857,-33.4132309,-1.154115081,-0.9073601366666667,14.946212446666669,13.812560716666667,-9.468517304666667,1.9216784636666666
195,0.541644999999941,-3.2352552413333338,3.226410468333333,-33.38872273333334,-1.3242825266666667,-1.729823867333333,14.876759209999998,11.879965783333333,-11.144730883333333,1.9366116126666668
196,0.5444226666666813,-3.1517968973333335,3.152486245,-33.363510166666664,-1.3683590493333335,-1.099336962,13.86801243,9.161760806666665,-9.468205135666667,1.9808686973333334
197,0.5472003333332699,-3.075945774333333,3.0728837650000003,-33.33920796666666,-0.9978046413333334,-1.3740671076666668,13.580772716666667,8.238939604666667,-10.136882145666666,2.018760681333333
198,0.5499780000000101,-2.9978822073333333,3.010750214333333,-33.31452939999999,-1.7680060463333334,0.07800069466666666,15.392236393333333,8.525485833,-8.046170552666666,2.032165368333333
199,0.5527556666665987,-2.921095291666667,2.9535555043333335,-33.295763666666666,-1.7390763360000001,-0.019648551999999986,15.334077836666667,8.389790218,-7.409272988666667,1.5036754556666665
200,0.5555333333333389,-2.8539017836666667,2.9149972596666665,-33.279485066666666,-1.590077003,-0.49908066799999995,12.644906996666668,7.2778716086666675,-5.164333979333333,1.1869722803333331
201,0.5583109999999275,-2.787885348333333,2.89977781,-33.27049509999999,-1.416034182,-1.4200572173333332,10.845919929333334,7.159084638,-2.317546225666667,0.6283299126666667
202,0.5610886666666678,-2.712011337333333,2.8815368016666665,-33.2678477,-2.1733049153333335,-0.2720490496666667,9.906182926333335,8.405165513333333,-2.6474147633333334,-0.2904184159999999
203,0.5638663333332564,-2.652486403666667,2.916074911666667,-33.28505196666667,-1.719988505,-1.1521130206666665,8.848494530333333,6.5453333853333335,3.7942368986666666,-2.2181032893333334
204,0.5666439999999966,-2.6108828383333336,2.9471737543333334,-33.30612436666666,-0.9027481869999999,-1.2294707893333332,9.005446594,4.432368596333333,3.3992056053333335,-2.87261947
205,0.5694216666665852,-2.581976811,2.9966379009999997,-33.335647566666665,-2.1233268776666665,-1.0389207999999999,8.825197221333333,2.9373552403333334,5.647964399666667,-3.6073937813333337
206,0.5721993333333254,-2.5921753246666666,3.1328059036666667,-33.365158099999995,-2.206263582,-1.4574834306666666,7.354135116000001,-1.7205683786666668,16.036008516666666,-3.306162357333333
207,0.574976999999914,-2.604775906,3.2086782453333336,-33.3783951,0.15511573366666664,-1.6204266150000002,6.047043244,-2.129973337,8.721465109666667,-1.5362095833333331
208,0.5777546666666543,-2.665692409,3.3490636350000003,-33.377858499999995,-3.048291405,-0.9764847360000001,5.687788883666666,-8.008613268333333,16.38037713466667,0.30698670466666667
209,0.580532333333243,-2.7330828510000003,3.525030215333333,-33.368899033333335,0.9508527216666667,-1.4625105859999998,6.997897148,-8.850729306,20.595285416666666,1.6917016706666665
210,0.5833099999999831,-2.827973445333333,3.6365901629999997,-33.337249766666666,-3.038116216666667,-0.8822918533333333,3.415632327666667,-12.324442546666667,12.746946810999999,3.91216588
211,0.5860876666667233,-2.946386655,3.8580767313333335,-33.32689919999999,1.07902086,-0.3532128433333333,6.166423003666666,-14.97384993,26.033792496666663,2.189519206666666
212,0.588865333333312,-3.088893969666667,3.9650410016666666,-33.29164123333333,-1.3752083583333334,-1.4958149593333332,4.533963561333334,-18.115757626666667,12.156795184333333,4.380338976333333
213,0.5916430000000521,-3.192837715,4.202654838666667,-33.27352903333333,-0.2758216860000002,0.24513464666666665,5.258010626,-13.288304646666667,27.900234856666668,3.358323023
214,0.5944206666666408,-3.312140782666667,4.311516921,-33.23517356666667,-0.6504069766666668,-0.9226279829999999,3.6868059436666663,-15.393149376666665,12.343205133333333,4.805825749666667
215,0.597198333333381,-3.4281844296666666,4.473985274666667,-33.211527499999995,-0.054552793666666544,0.5115579303333333,4.939172466666666,-14.793741225333333,18.851408643333333,3.5924591216666664
216,0.5999759999999696,-3.549532175,4.60370334,-33.18694813333333,0.4488146703333334,-0.19732693833333328,6.464649121,-15.53939533,14.916511533333333,3.3748214243333337
217,0.6027536666667098,-3.6618072986666665,4.740728537333333,-33.16786446666667,-1.3701874493333335,-0.12341596700000002,4.349051555,-14.311042786666667,15.82370726,2.9601670893333334
218,0.6055313333332986,-3.7348686856666666,4.8378728230000005,-33.15381876666667,0.9644818703333332,-1.032509635,2.481951023,-9.643023491333333,11.076810359666666,1.914289235
219,0.6083090000000387,-3.785202344,4.918765386,-33.1368637,-1.3602200743333335,0.7111985686666666,3.434903572,-6.875071664666667,9.117269754333334,2.292180379
220,0.6110866666666274,-3.8449748356666666,4.985777378000001,-33.13827766666667,1.4019475780000004,0.09892328599999993,6.345703706666666,-7.872725447666666,7.581530015000001,-0.13099606833333333
221,0.6138643333333674,-3.903599024,5.0406707126666666,-33.128471366666666,-1.864229202,0.5669503140000001,5.203069130666667,-7.825375715333333,6.059283295,1.2515335083333332
222,0.6166419999999562,-3.948859214666667,5.081580321333333,-33.14431509999999,1.4886884690000002,-0.5693058173333334,3.4964443643333336,-5.9588746226666665,4.571561013666667,-2.048515558333333
223,0.6194196666666962,-3.9578274886666662,5.100327968666666,-33.14154306666667,-1.7343561653333335,-0.16641309833333331,1.1012866893333333,-1.813756769,1.7966463563333335,0.11449554533333324
224,0.622197333333285,-3.9391972223333336,5.095224221333333,-33.16204833333333,1.6021667323333333,-0.02926757933333333,3.549297531333334,1.7809619903333334,-0.9047078490000002,-2.986569085666666
225,0.6249750000000253,-3.9059093793333335,5.074167728333333,-33.159487399999996,-1.6378697553333332,0.3123838106666667,3.9266204036666665,3.2451665413333335,-2.9709403116666664,-0.23741881066666645
226,0.6277526666666139,-3.866158803333333,5.043025970333333,-33.17752076666667,1.0986963113333335,0.40198025099999996,5.510663628333333,4.298239946333333,-4.042430639333333,-2.849131305
227,0.6305303333333542,-3.8177365460000003,4.997062524333334,-33.17348736666666,-1.144334634,-0.04287739599999999,3.4890110493333335,5.033279021666666,-5.969765763000001,-0.24466331799999988
228,0.6333079999999427,-3.7508822283333334,4.942608992333334,-33.1848399,0.526136716,0.09533205600000001,2.9411726000000002,7.486786365666667,-6.887647629333332,-2.2535409530000003
229,0.6360856666666829,-3.6630206106666665,4.8626594543333335,-33.177063,-0.34965618466666665,-0.28819568933333334,1.6850475969999998,9.723941961666668,-10.066938559999999,-0.04601554099999994
230,0.6388633333332715,-3.5583488940000003,4.773889223666667,-33.18046826666667,-0.16746695833333325,0.3248483736666667,2.9726026853333334,11.945834002,-11.065237999333334,-1.50934426
231,0.6416410000000118,-3.4415802163333336,4.6623803776666675,-33.17631529999999,0.4564492703333336,-0.18297863,3.0033171973333332,13.231397626666668,-13.821271896666667,-0.6766295036666664
232,0.6444186666666002,-3.3211075463333337,4.543078025333333,-33.18003336666666,-0.708218177,0.3928651013333333,3.663392385,13.841117539999999,-14.723599753333332,-1.7129352093333334
233,0.6471963333333405,-3.1919570763333334,4.410286029,-33.183148700000004,0.7233342773333332,-0.3361280759999999,2.460025668,14.784602800000002,-16.32218837666667,-1.6338725686666662
234,0.6499739999999293,-3.057176351666667,4.271589358333333,-33.183232600000004,-1.2259067893333333,0.296054522,2.5656211376666667,15.520197229999999,-17.077547073333335,-1.330527544
235,0.6527516666666694,-2.901570399666666,4.123699744666666,-33.18785606666666,0.5707541503333334,-0.5626141226666667,1.4781056643333332,17.977694510000003,-18.130163826666667,-1.816834926666667
236,0.6555293333332581,-2.733316898,3.967108805666667,-33.1786982,-1.1543440223333334,1.1505147216666665,3.023647387666667,19.452174503333335,-19.28126208,-0.2403985259999999
237,0.6583069999999983,-2.5541821319999998,3.813833475333334,-33.17466226666667,0.1457927423333333,-0.9423215563333333,2.6438260873333337,20.73654937666667,-18.832108183333336,-0.7002669573333332
238,0.6610846666665869,-2.3617568016666666,3.66946284,-33.16093193333333,-1.655450066,0.7364418506666667,3.2117533286666666,22.312161766666666,-17.83699004,0.4935700793333333
239,0.663862333333327,-2.1755953626666664,3.5263002713333336,-33.154724099999996,0.6995205283333333,-0.2462517619999999,2.5493675870000003,21.575195946666668,-17.63554922666667,-0.26254995666666653
240,0.6666399999999157,-1.9703900813333333,3.3866825103333333,-33.142206833333326,-1.8997543306666669,-0.628246506,3.1494995753333335,23.8552049,-17.25399653,0.48754568933333314
241,0.6694176666666559,-1.7640870013333334,3.2546875476666663,-33.1388931,0.32843438799999997,0.4454545776666667,2.7240383623333333,24.025290173333335,-16.28521347,-0.4483688673333332
242,0.6721953333332445,-1.5680420796666665,3.124247153666667,-33.1313858,-0.9101179936666667,-0.6972060999999999,2.092997829,22.78908666,-16.12907791,0.05176198500000003
243,0.6749729999999848,-1.3615361056666668,2.998469591333333,-33.13243613333333,0.11888268700000004,-0.6499782996666666,2.714641809333333,24.078577043333336,-15.525895756666666,-0.8272291820000001
244,0.6777506666665735,-1.1627739273333333,2.867554028666667,-33.12723796666667,-1.2824910506666667,0.5005120433333333,2.878011862333333,23.123764673333337,-16.17408561666667,-0.10691392433333331
245,0.6805283333333136,-0.964282612,2.747984091333333,-33.131454466666675,0.42567982266666665,-0.912537021,2.639985959,23.155545553333337,-14.78135427,-1.1031202823333333
246,0.6833060000000538,-0.7653296986666667,2.6285488606666667,-33.12950386666667,-1.5072618323333333,-0.3630781273333333,3.6482004323333332,23.157041550000002,-14.786171593333336,-0.36404673266666676
247,0.6860836666666424,-0.5839796163333334,2.5148089326666665,-33.13677979999999,0.3979574443333333,-0.08562349300000001,3.077678442,21.11303965,-14.0830094,-1.3500073403333335
248,0.6888613333333827,-0.4086592793333333,2.3981868029999998,-33.13796993333333,-0.9221753873333333,-0.9290391803333332,4.456105232333333,20.33887545,-14.445406916666665,-0.6296664476666667
249,0.6916389999999714,-0.24708801033333336,2.2810400326666667,-33.1380361,0.13317743933333337,-0.5624371069999999,4.761036873,18.702807743333334,-14.502776146666667,-0.44327596799999996
250,0.6944166666667115,-0.09998143300000001,2.1709285179999998,-33.13145446666667,-1.3551451563333332,-0.510006006,4.799037138666667,16.91773033,-13.667056401666665,0.35637105500000005
251,0.6971943333333002,0.04293862733333333,2.0515583356666665,-33.131548566666666,0.873577396,-0.368491391,5.197062810333333,16.466211956666665,-14.770519256666667,-0.4152794680000001
252,0.6999720000000403,0.19713397466666668,1.9250773190000003,-33.125648500000004,-1.4581786793333336,-0.511290312,6.2022089959999995,17.76808357333333,-15.626360893333334,0.31151191399999995
253,0.702749666666629,0.34131102766666666,1.7844863336666668,-33.13265736666667,1.0754038493333333,0.493676327,7.542689958333334,16.662531533333333,-17.32303397,-1.1745331686666667
254,0.7055273333333694,0.4729448556666666,1.6260959903333336,-33.12621306666667,-0.5975500543333333,-1.0756644806666666,9.234090488333335,15.03731378,-19.447895683333332,0.4637754760000001
255,0.7083049999999577,0.6222182813333333,1.500568846666667,-33.134340900000005,-0.8001822333333334,-0.12584687266666664,6.046831925666666,17.292929333333333,-15.526944316666667,-1.2437949179999999
256,0.7110826666666981,0.793774863,1.2563556826666666,-33.1302363,0.7491561619999999,-0.5855834683333333,9.392300527666666,19.828635533333337,-29.741464616666665,0.3594130673333333
257,0.7138603333332867,0.9600086409999999,1.1290452083333333,-33.136919666666664,-2.2682539619999997,0.6286199293333333,11.910783129,19.31653436,-15.741498787666666,-0.9592204886666668
258,0.7166380000000269,1.1424861353333335,0.905512919,-33.1492462,1.0979348023333335,-0.7250111800000001,11.515570956666666,21.200167976666666,-27.29635175,-1.4380493163333334
259,0.7194156666666155,1.329581062,0.7267341836666666,-33.15596010000001,-1.6392940580000002,0.4416980993333333,10.867349783666667,21.79507827666667,-21.918082556666665,-0.7431691983333332
260,0.7221933333333558,1.5505563019999997,0.5326755843333334,-33.163111366666676,-0.8244394063333332,0.136671101,10.541604041666666,25.806650796666663,-23.74911244666667,-0.7098217803333334
261,0.7249709999999444,1.8008425633333334,0.4044622283333334,-33.1615804,-2.6395344733333332,0.4474050046666666,12.613222123333335,29.357288996666668,-15.826525369999999,0.21909999866666663
262,0.7277486666666846,2.0837936006666666,0.2109790446666667,-33.16835276666667,0.05834449333333325,-0.054128448333333336,13.748565993333331,33.25808525,-23.683975853333333,-0.4624566236666669
263,0.7305263333332733,2.374058167333333,0.1632629833333333,-33.1536255,-4.1074761550000005,-0.37461096033333324,9.905179501333334,34.14343897333333,-6.106978416666666,1.5949225426666667
264,0.7333040000000134,2.666923205,0.06754205633333334,-33.15457406666666,0.4273509579999999,-0.8197545606666665,14.155109723333334,34.43927319666667,-11.932541927333334,-0.06034219266666666
265,0.736081666666602,2.9807807603333334,0.06094187500000001,-33.1232249,-4.663603147,-0.2479381363333332,13.452984173333334,36.96750895333333,-1.0564351083333334,3.4190051156666663
266,0.7388593333333423,3.286721388666667,0.10539347933333333,-33.1032944,-0.7895550876666668,-1.220363047,11.92810027,36.01344172333333,4.999188183666667,1.658848404666667
267,0.7416369999999309,3.5726270676666663,0.16171746466666667,-33.064989733333334,-3.474030852333333,-0.8704583843333333,12.582600909999998,33.601548513333334,6.573661027666667,3.8134596246666668
268,0.7444146666666711,3.8598960239999998,0.315629224,-33.030560799999996,-0.6007804573333334,-1.08592692,14.202503203333334,33.771465299999996,18.22079531333333,2.4861423966666667
269,0.7471923333332597,4.133755286333333,0.4205706816666666,-32.9843343,-2.1812134186666667,-1.4387360513333334,13.97905413,32.114557266666665,12.518360137333334,4.283741355
270,0.7499699999999999,4.389694372666667,0.651929797,-32.938115466666666,-2.471042364666667,-0.972378274,15.308537163333336,29.98807589333333,27.622676213333335,2.9440791606666665
271,0.7527476666665885,4.608569621666667,0.8754727143333333,-32.884262066666665,-1.5584915083333335,-2.1110293866666665,13.281809487333334,25.462873459999997,26.803686780000003,3.9302576856666662
272,0.7555253333333288,4.806681474333334,1.095778217,-32.844426466666654,-1.1031000616666666,-0.8056847253333334,14.689028103333333,23.022741316666668,26.25827598666667,2.069722573
273,0.7583029999999175,4.973564307,1.380318741,-32.786636333333334,-1.5563352903333332,-1.6926376223333335,13.529169716666667,19.164442063333336,34.166490556666666,3.5979637306666667
274,0.7610806666666576,5.101880709333334,1.6556022963333337,-32.73364003333332,-0.6573628386666668,-2.173920432666667,12.082731883333333,14.5594546,32.98108864,2.922582884666667
275,0.7638583333332463,5.207345803666667,1.9171711206666666,-32.673436466666665,-1.188145528,-1.9410378933333334,14.483908653333335,11.712965326666668,31.467732746666666,3.9806050109999997
276,0.7666359999999864,5.282450357999999,2.211254954333333,-32.6108195,-1.8795422513333333,-1.3970630166666667,14.79922644,8.079012393666666,35.35041936333334,3.800286571333333
277,0.7694136666665751,5.306311766,2.5185879866666667,-32.55395506666667,-0.666454216,-2.3054966533333334,12.681531588666667,1.8711133993333335,36.91162363666666,3.033391128
278,0.7721913333333154,5.293156941666666,2.808211406333333,-32.511372866666655,-0.40791255733333326,-1.0777120393333333,13.95104917,-2.4817528726666667,34.600454326666664,1.418547682
279,0.7749690000000555,5.250539302666667,3.0872809090000004,-32.476608266666666,-1.825104348,-1.938322862,14.058035533333333,-6.034801324333333,33.290011086666674,0.7491610846666665
280,0.7777466666666442,5.170401573333334,3.400538126666667,-32.443405166666665,-1.0397471733333334,-1.2423203986666667,12.044436454,-10.494946479666666,37.3107694,-0.002322276333333484
281,0.7805243333333843,5.064509709666667,3.6469785373333337,-32.429262800000004,0.3326225876666667,-1.2347749670000001,12.096050898666666,-13.524686811333334,29.16954739666667,-1.2714663849999999
282,0.783301999999973,4.9500392280000005,3.9097025396666667,-32.4200719,-1.8189992310000003,-1.0970702616666665,13.648031237333333,-14.465385119999999,31.026366549999995,-2.1054062046666666
283,0.7860796666667134,4.8299239473333335,4.189873775,-32.40851846666666,-0.27234284599999997,-1.411231796,12.047403337666665,-15.224944113333335,33.17440923,-1.8470959066666668
284,0.7888573333333017,4.696907679,4.402857065333333,-32.4042282,-0.2225390473333332,0.458557814,12.267287253333334,-16.650740303333333,25.03624598,-2.064133366
285,0.791635000000042,4.562584241333334,4.6213035583333335,-32.4029668,-0.8702715436666666,-1.1326083736666666,12.89518261,-16.83824729666667,25.69650777,-2.3197476663333334
286,0.7944126666666307,4.424732208333333,4.842593352000001,-32.39682006666666,-0.8533913470000001,-0.6521454353333334,11.250345388999998,-17.254501343333335,26.058706283333333,-1.7896426516666668
287,0.7971903333333709,4.285123825,4.999182224666666,-32.399027499999995,0.4073039293333333,-0.5714701316666666,12.208582562333333,-17.442274413333333,18.27282969,-2.0237905583333338
288,0.7999679999999595,4.154320717,5.203524589666666,-32.38602699999999,-2.510105252,-0.48294656,12.062302271,-16.484476726666667,24.098558426666667,-0.6896804369999999
289,0.8027456666666998,4.040048519666667,5.3498406413333335,-32.38347626666666,1.0024940473333332,-0.43613115933333346,11.452840486333335,-14.442973453333336,17.08793068,-1.2884481749999999
290,0.8055233333332884,3.930348078333333,5.506038029666667,-32.37632753333334,-2.4000176786666665,0.2763789096666666,10.929302214333333,-13.885746953333333,18.2822841,-0.9748945236666667
291,0.8083010000000286,3.8256400426666666,5.695143064,-32.376976,0.7026255826666667,-1.1049906016666668,9.826188722,-13.256398836666667,22.186813356666665,-1.9736674230000002
292,0.8110786666666173,3.7313876946666666,5.786759853333334,-32.378646866666664,-1.015776191,-0.47739571833333333,11.773845674666667,-11.954630533,10.495383263333332,-1.3293019136666666
293,0.8138563333333574,3.6562676429999996,5.978556951000001,-32.381958,-1.3711283206666665,0.13683515766666665,12.405392328666666,-9.659128505666667,22.491674423333336,-2.246869128333333
294,0.816633999999946,3.5893199443333335,6.112394491666667,-32.3867976,-0.8570545466666667,-0.7036322356666668,10.404825528666665,-8.641268254666667,15.52988243,-1.9886513599999998
295,0.8194116666666863,3.516912619333333,6.285480658333333,-32.397715266666665,-0.974861125,-0.42066881066666656,10.386987367333333,-9.224125704333334,20.19943745666667,-2.934282621
296,0.8221893333332749,3.4652903876666663,6.421490987333333,-32.40644073333334,-0.4534041086666667,-0.3169317343333333,12.338147796333333,-6.754338502666666,15.76712354,-2.438655039
297,0.8249670000000151,3.409953197,6.568449815,-32.41439816666666,-1.39060838,-0.3655599006666666,10.681668599666665,-7.207340081999999,17.096201581333336,-2.3271009326666667
298,0.8277446666666037,3.3686532176666666,6.756936709333334,-32.419726033333326,-0.7915346423333333,-0.208409076,10.576107341666667,-5.5567072233333334,22.080813090000003,-2.382282771333333
299,0.8305223333333439,3.329158385666666,6.859062353666666,-32.43571473333333,0.27614142999999997,-0.6132321656666666,11.080046017999999,-5.181944132,11.672365825666667,-2.9560238919999997
300,0.8332999999999325,3.3099497953333334,7.020626703666667,-32.436462399999996,-1.2179508209999999,-0.20463766400000002,9.991656621666667,-2.9698902766666664,18.89092318333333,-1.6177273989999998
301,0.8360776666666728,3.2835332553333334,7.145679315,-32.44556933333333,-0.32372511433333334,-0.36886456600000006,9.602014543000001,-3.7107139030000003,14.469552673333334,-2.320543607
302,0.8388553333332615,3.2614089646666664,7.287177721666667,-32.4469223,-1.1782433263333332,-0.612343413,9.841692131666667,-3.305735349666667,16.481969833333334,-1.5447563429999998
303,0.8416330000000016,3.2617420356666664,7.3606142996666675,-32.458190933333334,0.38973179966666666,0.13923262066666667,12.242870648333332,-0.45520770566666674,8.273014386666667,-2.192920486
304,0.8444106666665903,3.2704337436666666,7.475409667,-32.46189879999999,-1.2580217123333333,-0.15667394800000004,9.687948068666667,0.43568543600000004,13.265221597333332,-1.6401096183333335
305,0.8471883333333304,3.2840050853333334,7.581287702,-32.468132,-0.3627896706666666,-0.41658272833333326,9.775581678333333,1.0512681006666666,12.194977124333334,-1.8349868853333333
306,0.8499659999999191,3.311592897,7.639863809,-32.46769713333333,-0.6739712456666668,-0.07203073800000001,10.975654918333333,2.6371645926666667,6.559267679666667,-0.7599487206666667
307,0.8527436666666594,3.3722891806666673,7.742369810666666,-32.46325176666667,-0.6092435176666666,0.05832797300000001,10.78658231,6.539152781000001,11.865104674000001,-0.5443025826666666
308,0.855521333333248,3.433502753666667,7.795077324,-32.465014133333334,-0.176660369,-0.771777985,10.341300010333333,6.714413802666667,5.838219006666667,-1.004265991
309,0.8582989999999882,3.4938983123333336,7.8742138546666665,-32.4650294,-0.6348850726666667,-0.6050221966666666,11.179365155666666,6.575106461666667,9.034227053333334,-0.9475005613333334
310,0.8610766666665768,3.558023294,7.895200252666666,-32.468256600000004,0.26838745433333333,-0.6958886496666667,12.136974656666666,7.086596965666668,2.0284853380000003,-0.9596202573333333
311,0.863854333333317,3.6101380983333335,7.9419714610000005,-32.4642792,-1.7546019750000001,-1.171937247,12.62904167,5.517230192666666,5.1863924673333335,-0.2457258803333333
312,0.8666319999999056,3.6588099003333334,7.983694553333334,-32.46000163333334,0.3116261363333333,-0.847729504,12.943669953333334,5.113002777,4.566907525333334,-0.23985171300000005
313,0.8694096666666457,3.697970231333333,7.976905822666667,-32.45620983333333,-0.7686015963333332,-0.996300218,12.705192883333334,3.970146894333334,-1.2302943766666665,0.09571610766666665
314,0.872187333333386,3.714144389,7.987937927,-32.45430753333333,-0.49836426999999994,-1.4572307666666664,13.123888016666667,1.256100764,0.875618264,-0.27458452699999997
315,0.8749649999999747,3.713886340333333,7.960623423333334,-32.45095316666667,-0.30889487266666665,-0.7425475616666667,12.35889085,-0.7575025403333334,-3.688052942,0.22315548866666665
316,0.8777426666667149,3.708972692333333,7.950327555333334,-32.4473877,-0.562689255,-0.52597933,14.122136750000001,-1.3003749746666666,-1.6644897463333335,0.09143425533333334
317,0.8805203333333035,3.700663487,7.913634618,-32.4428991,-0.3767028303333333,-1.7041737636666665,14.506922723333332,-1.7421053749999997,-4.802186647999999,0.4348529033333333
318,0.8832980000000438,3.6794451076666665,7.890674749666666,-32.43932086666666,-1.0916430156666668,-0.5807301153333334,14.649669966666666,-3.2494516373333333,-3.179191828,0.18141281099999998
319,0.8860756666666324,3.642917474333333,7.860797086999999,-32.43598176666667,-0.9821306466666667,-0.614125416,14.308291753333334,-5.111469984,-3.993152459333333,0.22776606166666666
320,0.8888533333333726,3.5984429519999996,7.823859214666666,-32.433041900000006,-0.942185417,-1.1212080420000001,14.410922366666668,-6.027196566666667,-4.858367522666667,0.21055761233333334
321,0.8916309999999613,3.5444310506666667,7.778401374666667,-32.43176526666667,-0.36476374433333336,-0.8244015673333335,14.045402843333333,-7.177377700666667,-5.873613357333333,0.11210924900000001
322,0.8944086666667013,3.482590834333333,7.721408526,-32.43135579999999,-0.6788001156666666,-0.6255800326666666,14.655947366666666,-8.071298440333335,-7.276496887,0.08725921300000002
323,0.89718633333329,3.413341045333333,7.652077833666667,-32.4342804,-1.0461953876666668,-1.1681397956666666,14.891176543333335,-8.935735543666667,-8.762771129333332,-0.22187906766666665
324,0.8999640000000303,3.3308731716666666,7.567211469,-32.44191483333334,-1.2733695903333333,-0.6257160306666667,13.45007038,-10.416957218999999,-10.668515203333333,-0.664894417
325,0.9027416666666189,3.2526748973333333,7.480896314,-32.45451103333334,-0.6899023999999999,-0.8549037376666666,14.55082035,-9.8588988,-10.86346372,-1.2660904530000001
326,0.9055193333333591,3.177559773,7.391299883666666,-32.4663518,-0.8031383356666666,-1.1749921243333332,14.698294003333332,-9.473199686666666,-11.26442941,-1.187155982
327,0.9082969999999477,3.098223845333333,7.301753044000001,-32.47988636666666,-0.9022850393333334,-0.476745715,14.743957836666667,-9.981344222,-11.254396759,-1.3890217940000003
328,0.9110746666666879,3.0126202106666664,7.203930537333334,-32.49283596666666,-1.134235819,-0.5434204586666667,14.784224193333335,-10.718607265666668,-12.253139493333334,-1.3033677736666667
329,0.9138523333332765,2.9310131866666667,7.105780919333334,-32.506947833333335,-0.947138985,-0.5097096463333334,13.95476913,-10.249922754,-12.284564340000001,-1.4276523193333333
330,0.9166300000000168,2.851770639333333,7.020717780000001,-32.521479266666674,-0.9496160546666665,-0.555936982,13.830992379999998,-9.931634903666668,-10.730756441000002,-1.6074002583333333
331,0.9194076666666052,2.778304179333333,6.945799032666667,-32.5362905,-1.0121995213333335,-0.9430261253333333,14.042437873333334,-9.268115838000002,-9.501854260666667,-1.6798460083333333
332,0.9221853333333456,2.718919595333333,6.865195751333334,-32.55222320000001,-1.1133568883333333,-0.7308504483333333,14.595344546666666,-7.532775560666667,-10.199824330333334,-1.8159769376666668
333,0.9249629999999343,2.6638258296666666,6.804126421666667,-32.572090133333326,-0.8469283483333333,-0.6936306803333333,14.488880793333331,-6.994091352000001,-7.864625613,-2.375579675
334,0.9277406666666744,2.613438924,6.745709260333334,-32.59462993333333,-1.013782104,-0.8227464956666667,15.084765753333334,-6.366773208000001,-7.571803092666666,-2.735297600333334
335,0.9305183333332631,2.560304721,6.689425627333333,-32.6173884,-0.9749994076666667,-0.5254299936666667,15.578196846666666,-6.718720595000001,-7.30466334,-2.772975842333333
336,0.9332960000000033,2.4979634286666665,6.624432564,-32.639574700000004,-0.4171229003333334,-0.9788916309999999,14.547508236666667,-7.809366703000001,-8.353669484333333,-2.6882356803333334
337,0.936073666666592,2.4261139233333333,6.553228060666666,-32.65907286666667,-1.1842676003333332,-1.2880813279999999,14.10151323,-9.014602978,-9.070398648666666,-2.3187332946666666
338,0.9388513333333321,2.341939846666667,6.470017751333334,-32.67718253333333,-1.2431723673333333,-1.2100801073333332,14.440934816666667,-10.487186751333335,-10.510342278666668,-2.139318267333333
339,0.9416289999999208,2.2542121413333334,6.378293673333334,-32.691591900000006,-0.590736496,-1.1509899893333333,14.560558316666667,-10.99355062,-11.50253105,-1.6649128199999998
340,0.944406666666661,2.1574630336666667,6.289176464333333,-32.70576226666667,-1.1869844893333334,-1.2102311453333334,14.434810636666668,-12.049625396666665,-11.195424717666667,-1.7085252206666668
341,0.9471843333332496,2.0359924236666664,6.195613702,-32.71913910000001,-1.1213171880000001,-1.0815308293333332,15.0382185,-15.063663163333333,-11.713098209999998,-1.554951032
342,0.9499619999999896,1.89626654,6.112725258,-32.7245356,-0.8932107093333332,-1.1410070853333334,15.078499473333332,-17.311382296666668,-10.412681264,-0.8857106716666667
343,0.9527396666665785,1.7329092823333336,6.028184413999999,-32.72841390000001,-0.5842173846666666,-0.9125679729999999,14.236440976666666,-20.209542593333335,-10.589966773333334,-0.5046859186666667
344,0.9555173333333187,1.5500762863333335,5.941097895333333,-32.72538253333333,-0.855770866,-0.8942269683333333,13.563052493333336,-22.596280416666662,-10.880732854666666,0.11222885066666666
345,0.9582949999999073,1.3745139043333332,5.847818056666667,-32.72496540000001,-0.9619649103333333,-0.81491669,12.943906150000002,-21.725795746666666,-11.619609196666666,-0.01968457266666664
346,0.9610726666666475,1.2014199893333333,5.754722277333333,-32.73174286666667,-0.39588935433333333,-0.6978052853333333,13.521825153333333,-21.308523176666665,-11.629145623333335,-1.0602718393333335
347,0.9638503333333878,1.023873965,5.6739075979999996,-32.7441737,-1.2001772523333334,-0.617740209,13.674221676666667,-21.819309873333335,-10.152719497666666,-1.638458093
348,0.9666279999999764,0.8392088809999999,5.589969158,-32.76538596666666,-0.7141019106666667,-0.6362733253333334,12.889930406666666,-22.522574743333333,-10.553079603333334,-2.8651243846666667
349,0.9694056666667166,0.668575585,5.507140477666667,-32.79892986666666,-1.0256696146666666,0.13292265933333333,12.275001206666666,-20.752130509999997,-10.417413394333334,-4.197206258666667
350,0.9721833333333053,0.5085015893333333,5.4205231666666664,-32.84008790000001,-0.7547479866666666,-0.16841619066666666,11.371531483333333,-19.35907237,-10.883011179999999,-5.224567731333334
351,0.9749610000000453,0.3592882303333333,5.361950715333333,-32.88386533333334,-1.5128431720000002,-0.4485177596666667,7.926988442666666,-18.079655966666667,-7.497301896333333,-5.514845053333333
352,0.977738666666634,0.21012188933333334,5.300982157333333,-32.92935943333334,-0.836929284,-0.48011312866666667,7.880285581,-18.008888246666668,-7.783827463666666,-5.831816991
353,0.9805163333333743,0.07302875566666667,5.2094724973333335,-32.96579743333333,-0.11718397333333334,-0.276692261,7.810901800666666,-16.70875295,-11.425045651666666,-4.650983413
354,0.9832939999999629,-0.07311687900000001,5.165140946666667,-32.9953079,-0.7149480383333332,-1.0630030633333334,6.925210953000001,-17.841562903333333,-5.7598110836666665,-3.9448541003333326
355,0.9860716666667031,-0.21710444733333334,5.10659345,-33.0097987,-1.372140169,-0.303988396,4.940739114666666,-17.790923116666665,-7.453040123333333,-2.0894007683333333
356,0.9888493333332917,-0.38617233933333334,5.046657880000001,-33.02095033333333,0.42015574400000005,-0.8168925046666667,7.589275519333334,-20.7812322,-7.625617663,-1.7935350736666666
357,0.9916270000000319,-0.5469635923333334,5.027105331666666,-33.02558896666667,-1.7403235833333335,-0.7165168426666666,4.762376427333333,-19.910903296666664,-2.7753372590000005,-0.8977792856666668
358,0.9944046666666205,-0.6962798439999999,4.966880162333333,-33.02423606666666,0.440585941,-0.37235205866666665,4.093642314666667,-18.552087783333334,-7.663457155333333,-0.3513633806666667
359,0.9971823333333608,-0.8573840856666667,4.934765020666667,-33.02917226666667,-1.422697822,-0.05104922966666666,6.016761064333333,-19.93343544,-4.280272802,-0.9707713323333333
360,0.9999599999999492,-1.0162385703333332,4.920904318333334,-33.027717599999995,-0.2702253856666666,-0.24733374,4.713328679333333,-19.707909266666665,-2.1004869740000003,-0.307887405
361,1.0027376666666896,-1.1761171023333334,4.879183292666666,-33.0312729,-0.9171650806666666,0.35559634433333326,4.375456651,-19.795361836666668,-5.430407921333334,-0.8513021073333333
362,1.0055153333332782,-1.3228166103333334,4.878985087,-33.03144326666666,-0.6723504066666667,-0.159373405,5.117665767666667,-18.234018959999997,-0.459148089,-0.5379460653333333
363,1.0082930000000185,-1.4543103773333332,4.866063436,-33.03416953333333,-0.534661452,0.07671399900000003,3.529106696333333,-16.389215466666666,-1.9756049016666666,-0.6979197460000001
364,1.0110706666666072,-1.5684387686666668,4.8842272756666665,-33.03097536666667,-0.7337414423333334,-0.234238058,3.3648369710000003,-14.369967780000001,1.7328800856666666,-0.07481080300000009
365,1.0138483333333472,-1.6678789853333333,4.883767922666666,-33.02690380000001,-1.3097640773333334,0.8053498863333334,4.066445271,-12.602304142333333,-0.4999432960000001,0.1455447276666666
366,1.0166259999999359,-1.7507306733333332,4.904754479666667,-33.02210743333334,0.08214795599999987,0.06683847300000001,5.701830148666667,-10.639099757,2.0598290363333334,0.1465475559999998
367,1.0194036666666761,-1.8286300503333333,4.928998947,-33.0131963,-1.5970526263333333,0.40751905233333335,4.2190205653333335,-10.068013352666666,2.4461983046666664,0.8088935216666663
368,1.0221813333332648,-1.905666709,4.968288898666667,-33.01305136666666,0.5378634933333334,-0.188739866,3.8939019836666664,-9.889925957333332,4.269158959333333,-0.3266067503333338
369,1.024959000000005,-1.9676743743333331,5.007000764333333,-33.00299833333333,-2.0465484459999996,0.2513367196666667,2.7653887273333333,-8.178272406333333,4.178531964666667,1.0240527789999998
370,1.0277366666665937,-2.0118842916666666,5.05442063,-33.0122935,0.7375309470000001,-0.6183102406666666,3.0545146466666666,-5.853857040666667,5.275303761333333,-1.364795367
371,1.0305143333333338,-2.0474961596666668,5.102337678666667,-33.00638583333333,-1.7715627550000004,0.329885443,2.93915685,-4.971924026666667,5.3006408013333335,0.5799357113333338
372,1.0332919999999226,-2.0789498490000002,5.154942830333334,-33.026385,0.8461323579999999,-0.4727513043333334,4.109985431333333,-4.195321997333333,5.945543329666666,-2.665132204666667
373,1.0360696666666627,-2.1127408346666665,5.2066742580000005,-33.02500406666667,-1.5095399616666667,0.16246247266666666,4.068099012,-4.709583531000001,5.774376114333333,0.031825462666666006
374,1.0388473333332513,-2.152564724,5.270880222333333,-33.049397766666665,0.6394061696666666,-0.34166755033333335,3.6896135013333335,-5.1425836086666665,7.360918264333333,-3.1191320420000004
375,1.0416249999999916,-2.186375141333333,5.329102198,-33.05143736666667,-1.7094645499999999,-0.03766929133333332,2.898227691666667,-4.684190909333334,6.567499738333333,-0.3425091506666667
376,1.0444026666665802,-2.216468771,5.398740927333333,-33.078928600000005,0.793441852,-0.32264637566666665,2.1742878356666666,-3.9264537493333336,8.025837835666666,-3.4250253839999996
377,1.0471803333333203,-2.246468425,5.453842481333333,-33.084602366666665,-1.6946578023333334,-0.16326111066666668,2.868495782,-4.194232781666666,6.210752566333333,-0.7759747903333335
378,1.049957999999909,-2.275587717666667,5.515950361666667,-33.10629529999999,1.1306126116666666,-0.013285120333333289,3.0788794356666664,-3.8598735333333334,7.098444142666666,-2.7491079966666674
379,1.0527356666666494,-2.3091890813333333,5.577133655333334,-33.11150106666667,-2.1192374233333333,-0.1052536466666667,3.501285672,-4.639152368,6.938563744,-0.6992600759999998
380,1.0555133333333895,-2.346718391,5.641159375666668,-33.128840133333334,1.1944290796666666,-0.33041102666666666,2.5675158896666663,-4.904776255333333,7.309949049333333,-2.2063423843333334
381,1.058290999999978,-2.3819794653333335,5.6865240733333335,-33.12946066666667,-1.1576476096666666,0.12248432666666663,2.6653957366666665,-4.898069222666667,5.018605510333333,-0.2076971533333333
382,1.0610686666667182,-2.4332197506666664,5.745257536666667,-33.1372986,0.3440962633333333,-0.601892948,1.9776015279999999,-6.6617813109999995,6.632039325333334,-1.0861333806666664
383,1.0638463333333068,-2.4761854806666665,5.783152580333333,-33.13235983333333,-1.0126148463333333,-0.1559972563333334,2.295534015,-5.883696873666666,4.09280475,0.4331369596666666
384,1.066624000000047,-2.521106084,5.843872547,-33.1408361,0.1940482739999999,0.7973662616666667,2.611239115,-5.897085030666667,6.877013524333333,-1.1272871690000001
385,1.0694016666666357,-2.564261198,5.880979061333332,-33.135363266666666,-0.5315577883333333,-1.2520033916666666,3.354729255,-5.919590631999999,3.990420252,0.503793458
386,1.072179333333376,-2.609004418,5.924901803333333,-33.1406021,0.048184488000000025,0.25138042366666663,2.0590306523333335,-5.9155950546666665,4.8501116433333324,-0.79098467
387,1.0749569999999646,-2.6684341430000003,5.945423921,-33.13982903333333,0.003438830333333337,0.05171954633333339,2.213697791,-7.807244618666668,2.0227391123333334,-0.16701761900000012
388,1.0777346666667047,-2.7286666233333334,5.973363558333332,-33.13064323333334,-0.2376539356666667,-1.2554719049999998,1.327422182,-7.9586292903333336,2.8551123539999996,0.8586021266666665
389,1.0805123333332933,-2.782966375333334,5.988526344,-33.125864666666665,-0.12471356000000006,0.7224479120000001,2.68872722,-7.239689191333333,1.3597787620000001,0.25986924266666667
390,1.0832900000000336,-2.83588926,5.995239893666667,-33.120831833333334,-0.15036803466666662,0.19059530900000002,3.297336816666667,-7.028908888666667,0.3317255973333335,0.2639163336666666
391,1.0860676666666222,-2.8905188243333337,6.003143946333334,-33.1206614,-0.16852677833333332,-1.5947554906666668,3.271656989666667,-7.219726642,0.514602661,-0.3000195423333333
392,1.0888453333333625,-2.947692235,5.995411713666667,-33.12219236666667,-0.10766820100000009,0.9933689436666667,2.6318322419999998,-7.455549081333333,-1.3541735909999997,-0.6790547073333334
393,1.0916229999999512,-3.0120514233333338,5.9783217109999995,-33.135955833333334,0.36734020700000003,-0.20641170433333325,4.115027427666667,-8.202272574333334,-2.394722104,-2.1547934613333335
394,1.0944006666666912,-3.0698075296666665,5.946605841,-33.14819843333333,-0.3090624413333333,-1.2510476113333335,3.852897644,-7.403534730666667,-4.158398787333334,-2.1027109823333334
395,1.0971783333332799,-3.131777763666667,5.894150257,-33.16484833333333,0.5214614866666668,1.2318919496666665,5.3608258566666676,-7.870064735333334,-6.611346721333334,-2.748667756666667
396,1.0999560000000201,-3.2016554676666664,5.813513279000001,-33.1762034,0.02518415466666646,-1.0678911606666668,5.147212187333333,-8.883428412999999,-10.018618265333332,-2.357526174666667
397,1.1027336666666088,-3.261861880666667,5.714390595666667,-33.181757600000005,0.7027308146666668,-0.4129480523333333,7.386337439333334,-7.7879932720000005,-12.277632394333333,-1.7374605336666666
398,1.105511333333349,-3.3373742899999996,5.578837712666666,-33.17410023333334,0.06808328633333345,0.2746282416666667,6.862480004666668,-9.808224040666667,-16.724379220333333,-0.3672440649999999
399,1.1082889999999377,-3.4010398389999996,5.377995332333334,-33.1633326,0.8961963650000001,-0.83118623,7.9685549736666665,-8.370690266,-24.575307846666664,-0.6048157983333334
400,1.1110666666666777,-3.468971649666667,5.193157990666666,-33.13636523333333,-0.012639125333333556,0.19195044066666664,9.378171921666667,-9.113169511,-22.752280553333332,1.3916860023333333
401,1.1138443333332666,-3.5512106420000005,4.938439846333334,-33.12076823333334,-0.30276874700000017,0.9794853526666666,10.557994841000001,-10.632979074333333,-31.061914443333336,-0.4626360733333333
402,1.1166220000000067,-3.5813364186666665,4.701983849,-33.0961075,-0.35164181433333336,-0.6902479926666666,10.826979637333332,-4.525359313,-28.925305686666665,0.715897481
403,1.1193996666665953,-3.608846267,4.445435047,-33.08374023333334,-0.6590474050000003,0.792945225,10.569205758666667,-4.020068685,-31.25408999,-0.899570783
404,1.1221773333333356,-3.602918784,4.1668167910000005,-33.06413523333333,-0.2932508790000001,0.7688231666666666,11.414456050666667,-0.14002756266666663,-33.9373881,-0.2224075000000001
405,1.1249549999999242,-3.562365134666667,3.953525622666666,-33.054746,-2.923015872666667,0.263674577,11.673930165666667,4.181462685333334,-26.04891205,-0.9465320906666669
406,1.1277326666666643,-3.5024076303333334,3.695081949,-33.04687500000001,0.2550418970000002,0.5586030683333334,13.175519306333333,6.470596630333333,-31.4388237,-1.4086519873333334
407,1.130510333333253,-3.407614628333333,3.482570648333333,-33.047177633333334,-3.5999674003333335,0.8604039746666667,12.456656140333335,10.753802458000001,-25.887099583333335,-1.9964866636666667
408,1.1332879999999934,-3.2977914016666667,3.3540051776666666,-33.05809529999999,-0.9836447636666668,-0.880427261,12.363277116666666,12.604077656666666,-15.757742246666666,-2.629242738
409,1.1360656666665816,-3.1618185046666665,3.165248076333333,-33.05958303333333,-2.460845391,0.41199950366666666,14.15631517,15.696307183333332,-23.03442987,-1.9040222963333333
410,1.138843333333322,-3.019114017333333,3.084642331,-33.06956736666666,-2.060844024,-0.7580813266666667,12.571419079999998,16.53836091333333,-10.030282376333334,-2.1078426043333334
411,1.1416209999999107,-2.8948501743333335,3.052342017666667,-33.07150526666667,-2.766690532666667,-0.709487577,12.070871988,14.282952626666665,-4.291776736666667,-0.8437332513333332
412,1.1443986666666508,-2.7718815803333334,2.9961791833333336,-33.07362366666667,-0.8892807363333333,-0.477925594,14.116956076666668,14.12087854,-7.156328479333332,-1.0044922033333334
413,1.1471763333332394,-2.635092337666667,3.026045719666667,-33.063199399999995,-4.049786885666666,-0.374851684,16.22007529,15.701076506666666,3.0900679429999998,0.971210917
414,1.1499539999999797,-2.517974853666667,3.1157325903333333,-33.06080116666667,-1.4329068463333332,-0.9199550856666666,12.255768779,13.399457930000002,10.294388771666666,0.35515011366666666
415,1.15273166666672,-2.421010415,3.2113392353333334,-33.05054726666667,-2.3159983159999995,-0.7357944249999999,12.762542086666665,10.915128707666668,10.981025377333333,1.256771047666667
416,1.1555093333333086,-2.3379336993333335,3.363827149,-33.0463867,-1.8581736486666667,-1.719377339,13.927379610000001,9.304565748666667,17.81663227,0.7835399706666667
417,1.1582870000000487,-2.2729045549999998,3.544751644,-33.032328299999996,-2.5777461926666665,-0.5160748759999999,12.481365522666666,7.043012301,21.197615303333333,2.1010765856666667
418,1.1610646666666373,-2.231611808,3.7307173409999996,-33.02718096666667,-0.6044058006666667,-0.6241770186666666,14.158068973333334,4.285203536333333,21.827000936666668,1.0135259426666667
419,1.1638423333333776,-2.2023692130000003,3.949727376,-33.019452433333335,-2.1144305946666666,-1.4660456776666664,15.57808876,2.778855800666667,25.79566764666667,1.5232880313333332
420,1.1666199999999662,-2.2069159743333335,4.211147944333333,-33.020866399999996,-2.1728439529999997,-0.9528422253333333,14.620242433333333,-1.1577132143333333,30.90703137666667,0.5474406953333334
421,1.1693976666667065,-2.2548387843333333,4.482066552,-33.0224406,-1.6199240683333331,-1.452349305,14.084056536666665,-6.408436298333332,32.064639406666664,0.6388922729999998
422,1.172175333333295,-2.3314073086666665,4.749500751333333,-33.029660533333335,-0.4936578866666666,-1.384053141,14.219388006666668,-9.741145451333333,31.653395336666666,-0.07073377566666667
423,1.1749530000000352,-2.446878036,5.021184762333333,-33.04324596666667,-1.3800975483333333,-1.4256099063333334,13.891661643333334,-14.386446316666666,32.21209144333333,-0.7137798493333333
424,1.177730666666624,-2.599817594333333,5.305505593666666,-33.06197866666666,-1.5679080683333335,-1.795943578,13.886143683333332,-18.77133433,33.738002779999995,-1.2379843990000001
425,1.1805083333333641,-2.7675383886666665,5.562894344666667,-33.08355203333333,-0.747920096,-1.4047490509999998,14.78640111,-20.551840463333335,30.546623230000005,-1.5820436676666667
426,1.1832859999999528,-2.964775562333333,5.824957211666667,-33.1131083,-0.4754362903333333,-0.9412487400000001,15.162096660000001,-23.931987126666666,31.141110103333336,-2.45348386
427,1.186063666666693,-3.194971561333333,6.077530383999999,-33.143458066666675,-0.9684486486666667,-1.623743574,14.644217493333334,-27.926042560000003,30.03256543666667,-2.430431743333333
428,1.1888413333332817,-3.435844659666667,6.330831368666666,-33.1695582,-1.408082962,-0.12538433066666657,16.711199760000003,-29.182521183333336,30.08096377,-1.8367910633333333
429,1.1916190000000217,-3.682878971333334,6.580650647333333,-33.19745126666667,-1.2326617436666667,-0.12124730899999998,15.404494286666667,-29.94906234666667,29.701093673333332,-1.8808732033333333
430,1.1943966666666106,-3.9490083056666663,6.828423977,-33.22318523333334,-0.770571679,-1.2446263033333336,14.13624096,-32.19087918333333,29.42671076666667,-1.5850924006666667
431,1.1971743333333507,-4.219036102333334,7.0619529089999995,-33.236282333333335,-1.4800475833333335,-1.2227345903333335,14.553367613333334,-32.900059383333335,27.637995403333335,0.006847560333333262
432,1.1999519999999393,-4.480737368,7.280920664666667,-33.247263600000004,-1.1833199063333335,0.29174512133333336,15.589318593333331,-31.846836093333337,25.86144193,0.19257698466666673
433,1.2027296666666798,-4.732685248,7.507481098333333,-33.26505026666667,-0.7509738703333334,-0.4382857793333333,15.302272160000001,-30.64662615333333,26.844481786666666,-0.3484950363333333
434,1.2055073333332682,-4.982389608999999,7.720455170000001,-33.28324126666667,-1.5442630646666666,0.15785454699999998,14.865668933333332,-30.290893553333333,25.21201579,-0.4610652526666667
435,1.2082850000000083,-5.216575622666666,7.920420487666667,-33.30925750000001,-0.607199073,0.44146468266666666,15.323659896666667,-28.363340376666667,23.751153310000003,-1.3577996056666668
436,1.211062666666597,-5.428854306333334,8.120256582666668,-33.3390808,-0.9372450920000001,0.3664405446666667,14.8271691,-25.59492238333333,23.77206993333333,-1.766577052
437,1.2138403333333374,-5.620133082,8.291147550333333,-33.37340546666667,-0.5776789373333333,-0.450434347,14.614473023333332,-23.05268987,20.37851842,-2.4751012723333337
438,1.2166179999999258,-5.786054929,8.450883229666665,-33.40473936666666,-1.1283643643333332,0.16314762966666668,14.854393960000001,-19.999022803333332,19.00665474,-2.2287088236666666
439,1.219395666666666,-5.926490942666667,8.583659967000001,-33.43611906666667,-0.8762574893333333,0.7418772480000001,15.323086103333333,-16.97753747333333,15.806245169999999,-2.486669461
440,1.2221733333332547,-6.040254911000001,8.700792948333335,-33.4675878,-0.9585209093333334,0.2216582943333333,15.57675298,-13.717867214333332,13.935847916666667,-2.696535508
441,1.2249509999999948,-6.137025674333334,8.805314223,-33.50171916666667,-0.9849927626666667,-0.471544405,15.362438836666668,-11.674599329333333,12.476081849000002,-3.088031530666667
442,1.2277286666665839,-6.226018587666666,8.904595057000002,-33.53825633333334,-1.3316761256666667,0.371645108,15.767258643333333,-10.646392504666666,11.879859289999999,-3.452940384666667
443,1.2305063333333237,-6.294984976666666,8.988905270666667,-33.579327899999996,-0.7003751596666666,-0.08064650966666666,14.622504553333334,-8.192437173333333,10.162919364333332,-4.127670844333333
444,1.2332839999999123,-6.355290889666667,9.065489769000001,-33.62777966666667,-1.0311659176666668,-0.359096855,12.802998543333333,-6.972550233333333,9.338430722666667,-5.105699221
445,1.2360616666666526,-6.4044636090000004,9.116609891333335,-33.68743896666667,-0.2727509736666666,-0.20074289566666667,13.536983490000003,-5.454538822333333,6.455692609333333,-6.729658285666667
446,1.2388393333332413,-6.432759603,9.156047185,-33.74784596666667,-0.978897182,-0.25135049966666667,14.323717756666667,-2.8939138850000004,5.078133662333333,-7.013532479666668
447,1.2416169999999813,-6.442913691333334,9.167733510333333,-33.80939229999999,-0.295956234,-0.34959560633333336,14.295075096666666,-0.7253443003333332,1.785496235,-7.477688471666667
448,1.2443946666667216,-6.43894879,9.163999239333334,-33.86314136666666,-0.7709953586666667,-0.11976782833333333,14.26481851,0.8450009026666668,-0.1580868563333334,-6.783174832666667
449,1.24717233333331,-6.432444255,9.150773048666666,-33.91857399999999,-0.3498342383333333,-0.8606594603333333,13.092369083333333,1.1532726660000001,-1.2662953933333334,-7.085025469333334
450,1.2499500000000505,-6.4119566279999995,9.115516980333334,-33.96495566666666,-1.0330396693333335,-0.16089149833333333,12.90209643,2.674625854,-4.020380576333333,-6.2839706736666665
451,1.252727666666639,-6.382454871999999,9.068094253333333,-34.00944516666667,-0.655349553,-0.07047771600000001,12.014819145333334,3.697773615333334,-5.4951030413333335,-6.236071586666667
452,1.2555053333333792,-6.3448781966666665,9.013687133666666,-34.0416438,-1.1464555163333332,-0.29478905699999997,11.483413059999998,4.442302465333333,-6.4985235533333325,-4.836859544
453,1.258282999999968,-6.289238135000001,8.969196955333333,-34.06421406666667,-0.9206202626666666,-0.5554713853333334,8.947199979666665,6.411669731,-5.441235859999999,-3.5898137489999997
454,1.2610606666667084,-6.237977186666666,8.942824681666666,-34.0773061,-1.231433044,-0.6406206289999999,8.707022666666667,5.720102786666666,-3.408256213,-2.2021028203333333
455,1.2638383333332965,-6.187249819333334,8.882321039666667,-34.07108053333334,-1.1390799656666666,-0.708384976,8.721965154000001,5.278197606333333,-7.7251723619999995,-0.40594295666666663
456,1.266616000000037,-6.146746476666666,8.964341163333332,-34.07067873333334,-2.150243838666667,-1.3338128326666665,8.197818439,4.172315915666666,9.348492781666666,0.7971107960000001
457,1.2693936666666257,-6.127048174333335,8.905602773,-34.05109913333334,-0.11072938166666664,-0.7687587536666666,5.984682202333333,1.3182667293333334,-7.685326099333333,1.20142292
458,1.2721713333333657,-6.131248792,9.016640027333334,-34.040768933333325,-1.4417535363333334,-1.2045778036666668,6.361273368333333,-1.3850469786666666,12.686834653333333,2.328103661666667
459,1.2749489999999544,-6.144264539000001,9.029516855666666,-34.01538086666667,-0.18387409066666668,-1.0427689153333335,4.754787842333333,-2.732701858,0.7901779213333332,2.8106075130000003
460,1.2777266666666947,-6.160562674,9.092723528333332,-34.00886023333333,-0.6262500983333333,-0.12272898366666668,6.252700011000001,-2.7520235379999995,7.023304303333334,1.2781077126666667
461,1.2805043333332833,-6.196306864666667,9.123158772666667,-33.99489339999999,0.625020335,-1.3607715566666665,6.2692097030000005,-5.257604043,3.0283243256666665,1.6773055069999998
462,1.2832820000000238,-6.231102307666667,9.180284817999999,-33.9918747,-1.0112974643333332,-0.2857544023333333,5.520280838000001,-4.908187230666666,6.346473296,0.7949763536666667
463,1.2860596666666122,-6.260201136333333,9.158784230666667,-33.98434193333333,1.2337547836666667,-0.5612446166666666,5.659132321666667,-4.325514197666666,-3.0897216996666663,0.23245346566666666
464,1.2888373333333523,-6.295226574,9.188109715666666,-33.974233,-0.8302737969999999,-0.3678915596666667,6.755452196999999,-5.086743990666666,2.945249031,1.2311526236666668
465,1.291614999999941,-6.346182505333334,9.122955004,-33.95747123333334,0.9860666793333334,-0.4645472056666667,5.604637464,-7.106358210333334,-8.420923074,0.7471117770000001
466,1.2943926666666814,-6.372334003333333,9.112774531,-33.9392039,-1.0270557466666668,-0.20590204,6.214579105333333,-4.177728812000001,-1.8762470086666667,1.6617022553333332
467,1.2971703333332698,-6.3965026536666665,9.026052157333334,-33.900199900000004,-0.017087504333333392,-0.4807862813333333,5.8409423826666655,-4.324054638666667,-11.282563845,3.068312486
468,1.29994800000001,-6.439213911666666,9.020312627333333,-33.876569100000005,-1.3741120623333334,-0.26695973666666667,6.2311975556666654,-6.247124354,-1.4262138606666666,2.386883775333333
469,1.3027256666665987,-6.489706675000001,8.947833061333334,-33.8306605,0.20167819266666667,-1.153824687,3.9366632996666664,-7.617252031,-9.679300945,4.066465457333334
470,1.3055033333333388,-6.530174891333334,8.928568522,-33.796040866666665,-1.9811945756666667,-0.3407216616666667,4.717274189,-6.179507414666666,-3.1852929,3.4758347270000005
471,1.3082809999999279,-6.584196885666667,8.885904312333333,-33.764434800000004,0.2006097436666666,-0.5065835913333333,6.417500337,-7.748396555333334,-5.945581754,2.7724596563333335
472,1.3110586666666677,-6.646792093666666,8.865518252000001,-33.7264506,-1.1905190426666665,-1.1005927523333334,4.503116051666667,-8.920832158333333,-3.365386406666667,3.855356693333333
473,1.3138363333332563,-6.732515176333333,8.844238599,-33.703183499999994,-0.05869276333333342,-0.5547860043333334,3.8633284569999997,-11.376371704333332,-3.293927033333334,2.101981669666667
474,1.3166139999999966,-6.8187014260000005,8.818689028333333,-33.67265066666666,-0.7283513570000001,-0.6606410443333334,4.886819044666667,-11.62808418,-3.8886303106666666,2.904855569
475,1.3193916666665852,-6.91013511,8.793796062333334,-33.6548182,-0.5015498203333334,-0.2609710393333334,4.181380033666667,-11.946796736666668,-3.6544772786666666,1.4013724723333336
476,1.3221693333333253,-7.002587159333333,8.761878172333333,-33.63282266666666,0.2156910373333333,-0.8759791006666666,3.663467089333334,-12.226768813333335,-4.5369649333333335,1.7728293339999996
477,1.324946999999914,-7.100998719666666,8.733086903999999,-33.61178590000001,-1.3693489633333336,0.42361871433333337,3.6023145516666664,-12.837963423333335,-4.166049182666667,1.7106173833333334
478,1.327724666666654,-7.197539806666666,8.692260901333333,-33.59377033333333,1.39732712,-0.6906906959999999,4.633768161333333,-12.646207170000002,-5.555741707666667,1.1774272123333336
479,1.330502333333243,-7.296960671666667,8.650591532333333,-33.566645333333334,-2.067511817,0.33699359500000003,3.1264347236666663,-13.072257676666666,-5.790188471333333,2.2320882483333335
480,1.3332799999999831,-7.395516077666667,8.594570636666667,-33.551223766666666,2.0357372713333333,-0.9560270519999999,3.0951371193333332,-12.83095487,-7.3396884600000005,0.6229904493333335
481,1.3360576666667232,-7.4811843236666675,8.538697242666666,-33.51607006666667,-2.6848961213333333,0.3193078043333333,2.589211782,-11.568881351666667,-7.605163097666666,2.950569469
482,1.3388353333333118,-7.565440019,8.473559379666666,-33.5065638,2.228023966,-0.3715914093333333,3.108588457333333,-10.989657720333334,-8.342383224333334,-0.23828871933333318
483,1.3416130000000521,-7.641907215,8.410781860333332,-33.466738400000004,-2.7573252123333334,0.5732620956666667,3.438609719333334,-10.549162226333333,-8.502873737666667,3.342842101999999
484,1.3443906666666408,-7.716688156,8.350590705999998,-33.46213023333334,2.045562744333333,-0.4224262239999999,3.463790098666667,-9.751422880666667,-7.676779905666667,-0.7584545593333333
485,1.347168333333381,-7.774922053333333,8.293573379666666,-33.41851043333333,-3.1036802926666667,0.2634073293333333,2.6324930986666666,-8.442048549999999,-7.8878512396666665,3.869540373333333
486,1.3499459999999697,-7.8306980133333335,8.242245038333333,-33.41839086666666,1.9731251796666662,-0.163581734,2.008110026666667,-7.367906252333333,-6.551333109000001,-1.1572083350000006
487,1.3527236666667097,-7.8660856883333325,8.187438964666667,-33.39501443333333,-3.2295832633333332,0.16419493633333337,2.853431304333333,-5.361243168333334,-7.302504538666667,1.5112280699999998
488,1.3555013333332984,-7.900299390333333,8.147754828333333,-33.408114100000006,2.5831914743333333,0.13739699600000002,2.869776646,-4.541365956333333,-4.952696403,-2.520573657
489,1.3582790000000386,-7.9230842589999995,8.097213745,-33.3930257,-2.9052704573333337,-0.31375811499999995,2.5732473133333333,-3.726363818,-6.661243359333334,0.593456904666667
490,1.3610566666666273,-7.944629669333334,8.057925701333334,-33.413340266666665,1.3717376190000001,0.18295373533333334,1.7141758206666668,-2.890003760666666,-4.786758661333333,-3.355299374
491,1.3638343333333678,-7.9466207823333335,8.007914225333334,-33.40695446666667,-1.3317525783333333,-0.08783902233333335,2.1766093173333334,-1.0852154493333332,-6.463466564666668,-0.4022458393333334
492,1.3666119999999562,-7.945626418,7.965721289666667,-33.424578366666665,0.7189597336666665,0.3756798953333333,1.9631788333333333,-0.24231060366666668,-5.172782659666667,-3.0665622949999993
493,1.3693896666666963,-7.922363758333334,7.911391894,-33.418230666666666,-1.5270326336666666,-0.273231983,2.407127261333333,1.9496447743333334,-6.9821419716666675,-0.47992145033333317
494,1.3721673333332849,-7.8915869396666665,7.873488902999999,-33.426663733333335,0.8176088533333333,0.7056928573333333,2.5826922260000003,3.1830685633333338,-4.814520676666667,-1.8962351483333333
495,1.3749450000000254,-7.848032315666667,7.816385110333333,-33.41409303333333,-0.7289259933333333,-0.3933474323333333,2.4399721623333335,4.277637163666667,-7.4131484033333335,0.20540459933333347
496,1.3777226666666138,-7.795265515666666,7.773569266,-33.409128833333334,-0.5770660886666666,0.30325794600000006,2.6309394833333335,5.597693125333333,-5.6160411833333335,-0.3766743339999999
497,1.380500333333354,-7.728878657,7.718187491333334,-33.391952499999995,0.8454265893333334,-0.28227025766666664,2.8870548406666665,6.9509366346666654,-7.28856198,0.800607393
498,1.3832779999999427,-7.665246645666667,7.672778129666667,-33.3717677,-1.2282405596666668,0.6148278913333334,1.7850517833333335,6.642011006666666,-6.161765456333334,1.4012827076666667
499,1.3860556666666828,-7.593676885,7.622401714333333,-33.35650123333333,0.4338592936666667,-0.8001552023333334,1.6688824889999998,7.620159308333334,-6.663787205999999,0.6738512513333331
500,1.3888333333332719,-7.510274569,7.591947873333333,-33.3293406,-1.5574139903333333,0.5342725016666666,2.043920974,8.899257818,-4.481599728333333,2.4554106396666673
501,1.3916110000000117,-7.425731340666666,7.554915269333333,-33.31685383333334,0.8648752866666668,0.25964747866666665,2.7873852256666667,9.235205968666667,-5.032254696,0.5582029816666667
502,1.3943886666666003,-7.328440348333333,7.5447770756666666,-33.29536183333334,-2.381946563666667,-0.4525582543333333,2.979163010666667,10.661234854999998,-1.9601167836666669,2.0515341756666667
503,1.3971663333333406,-7.236935933666667,7.527639389,-33.29353076666666,1.240245869,-0.564084828,2.7284614243333336,10.244466145999999,-2.5012857516666664,-0.3776386579999998
504,1.3999439999999295,-7.1454494796666665,7.52723519,-33.28337353333334,-1.8227131863333332,0.2830360853333333,2.660531401666667,10.133522193,-0.6227035026666666,0.8683270216666665
505,1.4027216666666693,-7.067419369666666,7.532869497999999,-33.3000285,0.4811657470000001,-0.5143667063333334,2.9345010916666667,8.934882004666667,0.48245263099999997,-2.236451785
506,1.405499333333258,-6.994658470333334,7.554540634000001,-33.30516816666667,-1.4821620186666669,-1.117563933,2.5799006623333334,8.103409768,2.236425996,-0.6215168633333333
507,1.4082769999999982,-6.926354090333334,7.580650488666666,-33.327003466666675,0.27159068999999997,0.550983896,3.302865108,7.867839813333333,2.9888058506666666,-2.571080446333333
508,1.4110546666665869,-6.869070212333334,7.616133849,-33.338343300000005,-1.3974471486666669,-0.6078942056666667,3.2454538346666664,6.3356723786666675,3.9716238183333332,-1.1609313586666665
509,1.4138323333333271,-6.814077695333334,7.662051836666667,-33.35423023333334,0.38404230266666667,-0.9309256079999999,4.6190576556666665,6.194781700666667,5.2580006919999995,-1.6014149983333332
510,1.4166099999999158,-6.763419628333334,7.7026259103333325,-33.35829163333334,-0.9606445633333333,0.24330541499999994,4.691240549,5.4097015063333345,4.481876532,-0.26979891466666645
511,1.4193876666666558,-6.7342222529999995,7.746517499666666,-33.367558800000005,0.14575612533333335,-0.48292279266666666,4.453957001666667,3.0091562866666663,4.916012764,-0.8305240473333332
512,1.4221653333332445,-6.701151053,7.752179622666667,-33.35850273333333,0.21792354166666664,-1.8284327979999997,4.991088231333333,3.078433990666666,0.1462826726666666,0.726198037333333
513,1.4249429999999847,-6.678026358333334,7.770830313666667,-33.3542023,-0.009042699999999885,1.323623577666667,7.667200088333334,2.084640205,1.720935146333333,0.3769350863333332
514,1.4277206666665734,-6.658990224333333,7.732342243333334,-33.33372753333333,1.2447595593333336,-2.2427725393333335,6.789196332333333,1.1928510666666667,-5.268789687666667,1.4384575676666664
515,1.4304983333333137,-6.623065471666667,7.663012981333334,-33.30612690000001,-0.6351085303333334,0.7252358893333334,7.564132053333334,3.261102438,-9.076175053666667,1.8382069159999999
516,1.4332760000000537,-6.632339954333333,7.551403999333334,-33.27678426666666,2.3862923879999998,-0.2552817366666667,11.105881053333333,-2.322144389,-14.102443059,1.4380525763333338
517,1.4360536666666424,-6.625610192333333,7.449655214666667,-33.244005833333325,-2.4633386136666666,-0.6042669216666667,8.294016123333334,-0.34179595100000015,-13.00710376,2.032194933
518,1.4388313333333826,-6.5843863486666665,7.206299940666667,-33.209704099999996,4.1339233716666675,-0.5598723293333333,11.108839589333334,3.7104643186666664,-29.88113848333333,0.2053412596666663
519,1.4416089999999713,-6.554450512,7.056212902333333,-33.17610676666666,-4.714292844,1.0486536823333334,8.617770950666666,2.4289604823333333,-18.77332624,1.4885999363333333
520,1.4443866666667118,-6.508241017666666,6.821572780666667,-33.150835666666666,3.668327967333333,-0.462977449,12.603060247666667,4.483937342666667,-28.726412453333335,-0.6550931929999996
521,1.4471643333333002,-6.400184472,6.595331827666667,-33.107785533333335,-4.463445902,1.4572318986666668,11.606998443999998,11.671324730666669,-27.97696749333333,1.6590123176666671
522,1.4499420000000403,-6.283018430000001,6.419578870333335,-33.098821,1.724129801,-0.27186837066666664,12.965993245666667,13.257175130666667,-21.492719016666666,-1.6907111806666666
523,1.4527196666666289,-6.144329389,6.147378603666667,-33.053209966666664,-3.4814356566666667,0.33282539000000005,12.501543682666666,15.348605473333334,-33.48448499333333,1.4694430826666667
524,1.4554973333333694,-5.971152623333334,6.051043669666666,-33.05376436666666,-0.9022557736666666,-0.06892834099999996,13.272497495333333,20.106101353333333,-11.903868993000001,-1.685869773
525,1.4582749999999578,-5.797177315,5.837701320666667,-33.025510133333334,-2.0811637239999996,-1.2333380183333333,13.553237916333336,19.829851153333333,-26.235060376666667,0.3320767880000002
526,1.461052666666698,-5.6387446720000005,5.7437027296666665,-33.030990599999996,-2.0383220913333333,-0.8110415936666667,12.508912404666667,18.39336014,-11.574920654666665,-2.158436020333333
527,1.4638303333332867,-5.492194652666668,5.652357578,-33.0214793,-2.053259968666667,-0.9351636766666668,13.843574206666666,16.767878213333333,-11.438737233,-0.34876342599999993
528,1.4666080000000268,-5.368218421666666,5.587462584333333,-33.032457966666676,-1.462777356,-1.4190884830000001,14.19680659,14.315650943333333,-8.050206418666667,-2.399717132333333
529,1.4693856666666154,-5.264859835333334,5.627798080666667,-33.0384979,-3.0418234666666666,-1.2902451556666668,14.132628759,11.764500302666667,4.468890846333333,-0.6804593403333333
530,1.4721633333333557,-5.201157093333333,5.611810207333332,-33.052319833333335,-0.04390459300000001,-1.3651413220000002,14.021464029999999,7.126401742666666,-2.186166604333333,-2.1638908983333334
531,1.4749409999999443,-5.156350453666667,5.685072422,-33.05892943333333,-3.4321102300000006,-1.985042572,14.820179940000001,4.737396081333333,8.407293159666667,-0.3768111863333334
532,1.4777186666666846,-5.154806296,5.765818278,-33.073142999999995,-0.1743713256666667,-0.954807858,13.659440037333333,-0.3194351593333334,9.375877381,-1.1827202240000003
533,1.4804963333332735,-5.177273750666667,5.818292777,-33.08017473333334,-1.2047050593333335,-1.264572998,14.231779736666667,-3.3297097683333337,5.929959933,-0.677820752
534,1.4832740000000133,-5.218618711,5.893734773333333,-33.097732533333335,-0.5101164253333333,-0.7650354503333334,16.227024076666666,-5.416510899666666,8.788083236333334,-1.7082647086666667
535,1.486051666666602,-5.275979200999999,5.977888902,-33.1154963,-1.6374950010000002,-0.767922903,15.1188577,-7.380141417,9.833434103333333,-1.6119554193333334
536,1.4888293333333422,-5.3539368309999995,6.057794093999999,-33.14191946666667,-1.1008883416666666,-0.6236776013333334,14.409757613333333,-9.690135956333334,9.424545922333332,-2.6904941499999997
537,1.4916069999999308,-5.4397463796666665,6.123161316,-33.16998293333334,-1.2576566933333335,-0.8018468766666667,14.541869803333334,-10.658029876,7.7050447449999995,-3.0042815206666664
538,1.4943846666666711,-5.5361862183333335,6.218260447333333,-33.202763866666665,-1.8536756236666667,-0.47871155066666665,14.353399913333334,-11.830957412333333,11.317481676,-3.196063638
539,1.4971623333332598,-5.630397002,6.327603181000001,-33.239728299999996,-2.2210061153333336,-0.5237162013333334,14.611143429999998,-11.537572223333333,13.067190806666666,-3.5160118739999997
540,1.4999399999999998,-5.721604824333333,6.482306003666667,-33.2810033,-2.636282126,0.19319558133333328,14.64063104,-11.063999496666668,18.55163765,-3.5445715986666664
541,1.5027176666665885,-5.805331071333334,6.631956100666667,-33.322667433333336,-1.187254548,-0.4921983046666667,15.288847923333336,-10.193666298666669,17.943328223333335,-3.540571590333333
542,1.5054953333333287,-5.890236854666667,6.820885976333333,-33.363606766666656,-1.5891056059999997,-0.49386601666666663,14.62626171,-10.290289561333333,22.641946153333336,-3.0078685879999996
543,1.5082729999999174,-5.97735548,7.017975807333333,-33.40907539999999,-1.1635563073333335,-0.14864774533333333,16.245560010000002,-10.514192580333335,23.66349411,-3.35722967
544,1.5110506666666577,-6.046527544666667,7.224520842333334,-33.449269599999994,-1.5872574646666668,-0.60082753,16.66823228,-8.392445248333333,24.739541373333335,-2.6143825053333334
545,1.5138283333332463,-6.104872544666667,7.449530124333333,-33.49017336666666,-0.5444072883333334,-0.5633141796666666,15.542373976666665,-7.087886333666667,26.941848116666666,-2.400456826
546,1.5166059999999864,-6.162552197666667,7.6532208126666665,-33.522285466666666,-1.4549014766666666,0.6486709516666668,14.886422793333333,-7.107779820666667,24.301623663333334,-1.6123700933333331
547,1.519383666666575,-6.203764756666668,7.875373840333334,-33.55204006666667,-1.147701581,-0.8460140426666666,15.40533161,-5.1714704036666665,26.46425247333333,-1.0988598663333333
548,1.5221613333333153,-6.223819732666667,8.073475678666666,-33.56529743333333,-0.7765188713333333,-0.28466825700000004,14.828225453333332,-2.8847194513333334,23.394935603333334,0.5738829576666666
549,1.5249390000000556,-6.230315685,8.275810559333335,-33.57719676666667,-0.5917562643333333,-0.051161651666666697,14.554976779999999,-1.2784072559999997,23.86763763333333,0.8021228413333333
550,1.5277166666666442,-6.211872895666667,8.466079394,-33.5720469,-1.0243351063333332,-0.16974354266666666,16.67984835333333,1.4195195433333334,22.222855886666668,2.659778992333333
551,1.5304943333333842,-6.1816698709999995,8.634289900333334,-33.5581309,-0.2988167406666667,-0.19471362233333345,15.94250552,2.6740586856666666,19.465656283333335,3.4050889413333336
552,1.5332719999999729,-6.147942542666667,8.79105107,-33.5285492,-0.421417455,-0.12552276433333334,14.380015056666666,2.7953462403333336,17.918614066666667,5.1092557906666665
553,1.5360496666667134,-6.108080387,8.911386807666666,-33.488428766666665,-0.3883848736666667,-1.509964287,14.964690206666669,3.347200751333333,13.42433834,5.858156045
554,1.5388273333333018,-6.058567206,8.999532699666666,-33.43710836666667,-0.5539031423333334,-0.39725089900000005,15.126622836666668,4.267434358666667,9.469839413666667,6.764592170666667
555,1.541605000000042,-6.025495847000001,9.039132436000001,-33.3815028,0.444838216,-0.5545902126666667,14.764879543333334,2.2338430883333333,3.6054983936666662,6.645075639333332
556,1.5443826666666307,-6.0129477179999995,9.041519800666668,-33.3187256,-0.17801808333333335,-2.085841219,15.474927899999999,-0.3979042769999999,-0.8966606556666669,7.025041421333333
557,1.5471603333333708,-6.028831799999999,8.994182586666666,-33.2542165,-0.055579444,-1.2285501906666667,16.364463173333334,-3.808107137666667,-6.874780178666668,6.598696867666667
558,1.5499379999999594,-6.0762716926666664,8.915102323000001,-33.1901143,-0.12358844266666662,-1.235145688,15.31618309,-7.617653211,-10.636958122333333,6.176352818666667
559,1.5527156666666997,-6.133633613666667,8.817696730333333,-33.13170876666667,-0.7958060969999999,-0.9506815696666666,15.49533494,-8.64457623,-12.785050076666666,5.237613121666667
560,1.5554933333332883,-6.1848023733333335,8.693119208,-33.07743073333333,-0.9509809463333333,0.5591918889999999,16.37329801,-7.851806799666666,-15.947956723333334,4.387228091666667
561,1.5582710000000286,-6.25756677,8.556708176999999,-33.035062133333334,-1.8342228729999999,-0.5237550836666666,15.117778776666668,-10.186003525,-17.241106033333335,2.8390828569999997
562,1.5610486666666175,-6.343528588333332,8.425138950666666,-32.998369866666664,-1.235808946,-1.3893964786666666,16.19779237,-11.681269008333333,-16.567774456666665,2.178448836333333
563,1.5638263333333573,-6.436895688333333,8.286137104,-32.961263,-1.8111185033333335,0.444679777,16.652691206666663,-12.543035186666666,-17.490247093333334,2.1446421146666665
564,1.566603999999946,-6.538425604666667,8.151675383666666,-32.933957433333326,-1.036158919,0.40468124299999997,16.20692920666667,-13.375937143333333,-16.79438718,0.989828308
565,1.5693816666666862,-6.637121518333333,8.014822324,-32.90589143333333,-1.6982193390000002,-0.5312487136666667,15.226058960000001,-13.011015893333335,-17.12040329,1.059332609
566,1.5721593333332748,-6.714830875333334,7.866809527,-32.87823483333333,-1.1709375976666667,-0.4155211796666667,15.269075393333333,-10.507582029,-18.418499630000003,0.7912324616666666
567,1.5749370000000151,-6.771373271999999,7.724099159333332,-32.85080716666667,-1.807971994,0.5031623443333334,14.945922216666666,-7.926045895999999,-17.814005533333333,0.8630376656666666
568,1.5777146666666038,-6.820814609666667,7.566614469000001,-32.83019003333333,-1.0136307276666667,-0.06725416066666667,16.793501216666666,-6.98560651,-19.453648246666667,-0.19027978166666673
569,1.5804923333333438,-6.862817923333332,7.411308606666666,-32.8110555,-2.4329665103333333,0.398256401,17.212154706666666,-6.035915493333333,-19.19734192,-0.33743786800000003
570,1.5832699999999325,-6.904069423666666,7.268694559666666,-32.8040644,-0.5313813886666666,0.1309694743333333,16.515138626666666,-5.783418417333333,-17.48795827,-1.6185810566666667
571,1.5860476666666727,-6.943402608,7.121383508,-32.79542543333333,-2.0895221630000003,-0.07424716166666667,15.302243233333334,-5.551413377333333,-18.0925649,-1.4963755806666665
572,1.5888253333332614,-6.970205465666666,6.9930135406666665,-32.796491,-2.0565179983333333,0.17943582933333335,14.877046586666665,-3.926428079666666,-15.67142868,-2.4008100926666667
573,1.5916030000000017,-6.962353865333334,6.8797020909999995,-32.792302466666676,-1.8435884313333333,0.11124618366666668,14.947642643333333,0.17803605366666675,-13.977848056666666,-1.5330163639999999
574,1.5943806666665903,-6.935698509333334,6.767168363000001,-32.79667663333334,-1.5670668283333333,0.5357694329999999,15.67075157,2.5377176603333336,-13.735947606666665,-2.576702873
575,1.5971583333333303,-6.901195844333333,6.685397784,-32.80378216666667,-2.9690984089999994,0.5735319456666667,15.925949093333335,3.539131760666667,-10.062505722333334,-2.407793681
576,1.599935999999919,-6.847153186666667,6.611544609,-32.8161316,-1.0774131616666667,0.2884108523333333,16.09183661333333,5.924381175333333,-9.020284334666668,-2.9145503043333334
577,1.6027136666666593,-6.776512304666666,6.572474638666667,-32.83439636666666,-2.1752129,0.8623749816666667,14.668485003333332,8.022857189333335,-4.819596132,-3.1003942490000003
578,1.605491333333248,-6.686621348,6.556328932333334,-32.85597483333333,-2.1236513853333334,0.11968662366666671,13.282122293333336,10.354137105333335,-2.015259564,-3.226902882333334
579,1.6082689999999882,-6.5643787383333345,6.574572404,-32.87885539999999,-2.5722237426666665,-0.11174666366666668,14.358611743333334,14.276984846666666,2.064016859,-2.822292248666667
580,1.6110466666665768,-6.427707354,6.6109050116666666,-32.90873716666666,-1.784197291,1.090509474,13.694003106666665,16.087348940000002,4.343407392666667,-3.508711497
581,1.6138243333333169,-6.294158458999999,6.686342398333333,-32.944531766666664,-2.6759501300000004,0.18265528066666667,13.209124246666667,15.811869620000001,9.044424056666667,-3.60657533
582,1.6166019999999055,-6.136736710666667,6.793917814666667,-32.986447666666656,-1.8822952113333333,0.3497570056666666,13.109897609999999,18.74171257,12.970985096666666,-3.936606566
583,1.6193796666666458,-5.976182619666666,6.949554284333334,-33.030820199999994,-2.264679630666667,0.038089215666666676,10.123380026666666,19.190879820000003,18.705080666666667,-3.6566007933333338
584,1.622157333333386,-5.808106740666666,7.091849645000001,-33.07018276666667,-0.46665270900000005,-0.2889398633333333,9.381266115333334,20.013379413333336,17.062242186666666,-3.3007164003333336
585,1.6249349999999747,-5.616472721,7.250254631,-33.101893100000005,-2.065439422666667,0.06709543866666667,8.341940880333333,22.74910672333333,18.865243276666668,-2.2185017466666666
586,1.6277126666667148,-5.436019261666668,7.468680540333334,-33.132748933333325,-0.8534468906666666,-0.10091318666666667,8.454511802666667,21.39056905,26.03604889,-1.4968160790000002
587,1.6304903333333034,-5.242133140666667,7.616580009333333,-33.14497120000001,-0.8869319556666667,-0.2899887823333333,6.630325317333333,22.734015783333334,17.38099606666667,-0.14428506300000002
588,1.6332680000000437,-5.052645842333334,7.840282599000001,-33.160553,-0.826462984,-0.36351717533333333,8.715176741666665,22.25454457666667,26.492228826666665,0.21784480400000003
589,1.6360456666666323,-4.867544969,8.011950810666667,-33.16562146666667,-0.3075349963333333,-0.697871546,4.259337266,21.57508596,20.14894422,0.8278483946666667
590,1.6388233333333726,-4.700708548333333,8.21114556,-33.16844686666666,-0.342030719,-0.4141991636666667,5.253410975,19.322916030000002,23.44027137666667,1.3213198383333333
591,1.6416009999999615,-4.561857859333334,8.362611293666665,-33.16618093333333,0.02540165666666668,-1.0043775836666666,5.4611094793333335,15.90502103,17.66780154,1.381145646
592,1.6443786666667013,-4.421822706666666,8.537972609333332,-33.16476696666666,-0.1748086413333334,-0.7677988213333333,4.325954914333333,16.03981463,20.559670766666667,1.4656089643333334
593,1.64715633333329,-4.2949442866666665,8.658881823333333,-33.15594226666667,0.4724507233333333,-0.9519112306666666,4.823915719666666,14.3454024,13.96133359333333,1.7893086323333334
594,1.6499340000000302,-4.183238506333333,8.778399944,-33.1484426,-0.5516020456666666,-0.2767901076666666,4.306227922333334,12.535481453000001,13.831784248,1.6056585313333336
595,1.6527116666666188,-4.088000854,8.855569204,-33.14239246666667,1.5367403626666667,-0.34465215600000004,4.989284118,10.595505713,8.756719112,1.0275109613333333
596,1.6554893333333591,-4.0056224663333335,8.936224301666668,-33.13181813333333,-1.6443657280000001,-0.13582117866666668,5.332338969,8.947314263333332,9.166427452999999,1.5789384046666666
597,1.6582669999999478,-3.9313664436666667,8.986170768666666,-33.13183336666667,2.008993725,-0.21545736966666665,4.304815212666667,8.211302120666668,5.5456278323333335,0.06327970800000005
598,1.6610446666666878,-3.857237418333334,9.027318954666667,-33.11856843333333,-2.0669494073333334,-1.1010022956666667,2.662571589,7.872553507666667,4.4300078549999995,1.5625883139999999
599,1.6638223333332764,-3.789690733,9.054148356333334,-33.122604366666664,1.8132843076666667,0.22892118233333336,2.927926779,7.515318711666667,2.8002680143333336,-0.6089149863333332
600,1.6666000000000167,-3.721091111333333,9.065190633333335,-33.108042366666666,-1.799462378,-0.5674655636666667,4.631915808,7.151200772999999,0.8258883356666668,1.455733299333333
601,1.6693776666666054,-3.669561783666667,9.079377492333332,-33.1146393,1.2169224423333331,0.44603095433333334,5.023103873,5.675469875666667,1.3011136716666667,-1.008470694
602,1.6721553333333457,-3.6277803580000003,9.074004809,-33.1059799,-0.895737648,-1.260887633,3.5407135486666665,4.019420465,-1.0874223656666666,0.6191988003333329
603,1.6749329999999343,-3.5959281923333335,9.068728129333333,-33.11004383333333,0.3136787016666666,0.44136701533333333,2.987205266666667,3.285401682,-1.0550035136666667,-0.8393011106666665
604,1.6777106666666743,-3.563260953,9.043645540666667,-33.10355123333333,0.18969492099999993,-1.6037656466666668,2.3727931976666667,2.949325959,-3.431031863,0.23623601600000002
605,1.680488333333263,-3.533995787333333,9.01900514,-33.0962728,-0.6038295029999999,0.7689529563333334,3.5637354056666664,2.770461639,-3.4543232520000005,0.3507953496666669
606,1.6832660000000033,-3.5149505933333334,8.978060086333334,-33.09296926666668,1.096917212,-1.4892221890000001,3.744626283666667,1.37468636,-5.312661965666667,-0.24904275199999995
607,1.686043666666592,-3.5047860143333334,8.941709836333333,-33.07998909999999,-1.6548631266666665,0.5852117736666667,3.8402283589999997,0.36799983199999997,-4.894663214666667,0.9433337240000009
608,1.6888213333333322,-3.5086503026666667,8.890254338333333,-33.08197783333333,2.0578329163333335,-1.350329379,2.912659963,-1.2639559506666667,-6.540156521666667,-0.9426706623333333
609,1.6915989999999208,-3.5149580636666666,8.843087514333332,-33.06739043333334,-2.5051723323333337,0.23899381866666666,2.661593914,-1.6545434793333333,-6.194654305666667,1.0665303039999998
610,1.6943766666666609,-3.5210531553333335,8.777160008666666,-33.076075233333334,2.941378355,-0.9408028523333334,2.439307928,-1.384022653,-8.233056783,-1.8349227913333337
611,1.6971543333332495,-3.532569408333334,8.717043241,-33.061124166666666,-3.1305874190000007,0.20244108633333333,3.4750514033333335,-2.3071258866666664,-7.740029652333334,0.9940242753333332
612,1.6999319999999898,-3.546707550666666,8.650782744333332,-33.07424673333333,2.748562574333333,-0.900875171,2.9224886496666667,-2.2413355706666667,-8.246167024333333,-2.3839249609999995
613,1.7027096666665784,-3.5677347183333334,8.599593798333332,-33.061983733333335,-3.466468443666667,0.5908719699999999,2.678338965,-3.4219040076666665,-6.646070797999999,0.7305043540000001
614,1.7054873333333187,-3.598150015,8.548587481333334,-33.0791219,2.3966575066666667,-0.9789394936666665,1.483539621,-4.093834380333333,-6.394351482333334,-2.7496803599999993
615,1.7082649999999073,-3.611666361333333,8.499909559666667,-33.071146666666664,-2.5657397706666667,0.6620318740000001,2.631716569,-2.470548669333333,-6.308859030333334,0.25433667499999996
616,1.7110426666666474,-3.6306654613333333,8.454725106333333,-33.08759563333333,1.924084146666667,-0.3277777036666667,2.7706829706666665,-2.7189895610000003,-5.706257979,-2.6310516993333333
617,1.7138203333333877,-3.6346052486666665,8.412073135333335,-33.08075970000001,-2.4160924353333333,-0.544001897,2.4010486603333336,-1.3221342166666665,-5.5772777399999995,0.16616360366666663
618,1.7165979999999763,-3.646038135,8.367229302666667,-33.09385426666667,1.9997078776666666,1.0248405536666667,2.1671080293333334,-1.8496679863333334,-5.695073525000001,-2.196638802666667
619,1.7193756666667166,-3.6568133833333327,8.320549329,-33.08499150000001,-1.8377355733333332,-1.3508203426666665,1.8995653490000002,-2.197343190666666,-6.074795723,0.3892082769999999
620,1.7221533333333054,-3.664140701333334,8.278167724666666,-33.09138996666666,1.1652448273333333,0.27725999566666676,2.151595354,-1.4652750889999997,-5.450116078000001,-1.3778922956666666
621,1.7249310000000453,-3.6719097296666665,8.220237890666667,-33.077504466666674,-0.555528935,-0.11890741199999999,2.447869877,-1.924692114,-7.462097168333333,0.8920368353333332
622,1.727708666666634,-3.67031455,8.167784690666666,-33.074684166666664,0.3302798843333334,-0.7686212656666666,1.7888231673333335,-0.553831021,-6.724202473999999,-0.34946362166666667
623,1.7304863333333742,-3.666395187333334,8.094386895333335,-33.06413523333334,-0.10972197833333334,0.07813262666666669,2.1390105286666667,-0.4642325156666667,-9.291850250666668,0.37947916966666684
624,1.7332639999999628,-3.678748369333334,8.026669025666665,-33.05834453333333,0.44516932733333325,0.1520317196666666,1.9810738959999998,-2.2704034249999996,-8.576001166333333,-0.08731873833333352
625,1.7360416666667031,-3.6867249806666664,7.934535662333334,-33.05201976666667,0.186361015,-1.5057884853333334,2.9242575963333337,-1.819870194,-11.502402304333332,-0.288053791
626,1.7388193333332918,-3.695647637,7.849364439666666,-33.04348753333334,-0.4813594503333333,0.7737099923333334,2.775190115333333,-1.908337374666667,-10.683673857333332,0.09984811166666645
627,1.7415970000000318,-3.7050573030000002,7.744961738666667,-33.042073566666666,0.688492477,-0.980487585,2.8726394969999998,-1.8895707926666667,-12.938332556666666,-0.9903192519999999
628,1.7443746666666204,-3.7116212843333334,7.638247966999999,-33.033566799999996,-0.7962886889999999,-0.001401548333333354,3.452225605666667,-1.6294839383333333,-13.258091926666665,-0.12870758266666668
629,1.7471523333333607,-3.7172582149999998,7.520943800666667,-33.0327021,1.0763011326666667,0.14734971566666666,4.688364982666667,-1.4099870226666666,-14.482145946666668,-1.1564190386666668
630,1.7499299999999494,-3.715174516,7.394999981000001,-33.024759933333335,-1.0251695213333334,-0.08862638499999997,4.962517261666666,-0.5965211393333334,-15.550136566666666,-0.3607041439999999
631,1.7527076666666896,-3.703912735,7.260579745,-33.02489980000001,0.6697101596666667,-0.32744870566666656,5.650400717666666,0.6538163026666667,-16.528703056666668,-1.4010735156666667
632,1.7554853333332783,-3.692414602,7.113865534666666,-33.01563263333333,-0.39006483566666666,0.5747536026666666,5.255181392,0.5182917316666665,-18.039474486666666,-0.46214942099999995
633,1.7582630000000183,-3.6762154099999997,6.9556344349999994,-33.016721100000005,0.08679294599999994,-0.5750942726666667,7.569457689666667,1.2644981443333332,-19.374095916666665,-1.6977163256666667
634,1.761040666666607,-3.6438254513333335,6.8096969923333335,-33.012715633333336,-0.3219924566666666,-0.2961311936666667,7.313790798333334,3.1100986003333335,-17.91040516,-1.052677254
635,1.7638183333333473,-3.6085454623333333,6.602515220666667,-33.00452423333333,0.9845367770000001,0.630270054,7.131281852000001,3.425457835,-25.302157086666668,-1.0077712433333332
636,1.7665959999999359,-3.5710255306666667,6.428273201333333,-32.99437459999999,-0.495896876,-0.832117915,10.725431757333332,3.6369922560000005,-21.343339603333334,-0.5398119286666666
637,1.7693736666666762,-3.514580726666667,6.186723231999999,-32.988619500000006,-0.7151137393333333,0.864200823,8.829881668,6.022112131,-29.404363633333332,-1.513534069
638,1.7721513333332648,-3.4385406176666664,6.0338493983333334,-32.992894500000006,-0.4739569426666666,0.25946270900000007,11.463045756,8.455543675333333,-18.681472780000004,-2.055035193666667
639,1.7749290000000049,-3.3367125193333336,5.765052000666667,-32.9908676,0.092010615,-0.07567158333333335,11.809695563333335,11.511608442000002,-32.64327049333333,-2.079105531
640,1.7777066666665935,-3.209479173,5.640925884333334,-33.00278983333333,-2.4340408646666667,0.166198984,10.162424723666666,14.675011633333332,-15.190160433333332,-2.680957476
641,1.7804843333333338,-3.0776118436666664,5.458240667666666,-33.01632946666667,-0.8162859403333335,0.18201094366666667,12.035160703,15.29862404,-22.22974268666667,-3.2376200360000005
642,1.7832619999999224,-2.9010930856666666,5.367995103000001,-33.03590393333334,-3.1233239966666666,0.4902786266666666,13.575959843333331,20.676273663333333,-11.097974777,-3.2983337243333337
643,1.7860396666666627,-2.6838616529999997,5.325352032666667,-33.05910746666667,-1.1005963879999998,0.48247704166666666,13.667381603333334,25.649119693333333,-5.404145579666667,-3.4661333956666667
644,1.7888173333332513,-2.4483305613333335,5.290376186333334,-33.087422700000005,-1.6782090663333333,0.022740021333333343,12.385903043333334,27.847186406666665,-4.449874480333333,-3.9350622496666663
645,1.7915949999999914,-2.1980138620000003,5.329465548333332,-33.11719260000001,-1.9836721023333332,-0.5182134310000001,12.226375580000001,29.682104746666663,4.401169379666666,-3.7744782763333333
646,1.79437266666658,-1.938823262666667,5.385315418333334,-33.147768633333335,-0.818716228,-0.9010440506666667,12.796600343333333,30.719272613333334,6.418531576666667,-3.7794136206666664
647,1.7971503333333203,-1.670917908,5.449771722,-33.1741587,-0.6733983293333333,-0.6702457566666666,13.817145983333333,31.754055023333336,7.400957902333334,-3.3050204913333334
648,1.799927999999909,-1.4083877803333333,5.5222469966666665,-33.20330046666667,-0.19074438266666668,-1.3096745013333333,13.550553636666669,31.123698556666668,8.373582999,-3.6654048763333336
