,time,Euler_X,Euler_Y,Euler_Z,Acc_X,Acc_Y,Acc_Z,Gyr_X,Gyr_Y,Gyr_Z
0,0.0,-0.6484651166666666,-2.3278259036666666,-46.0650177,0.25454366199999995,-0.5269613093333333,15.285292623333333,5.185676177,47.80811437333333,1.136510908666667
1,0.008333,-0.5959905583333334,-1.9260143439999997,-46.050918566666674,-2.6364233096666667,-1.0978569086666667,14.830519360000002,5.941519419333333,47.579087576666666,1.8269049126666665
2,0.016666,-0.5512077263333334,-1.4932160129999998,-46.0362193,1.172156334,-0.40294553833333335,15.036327680000001,4.9602296353333335,51.301681519999995,1.922118008
3,0.024999,-0.55282858,-1.0678299963333333,-46.03782146666668,-2.692063768666667,-0.709551076,15.347587266666666,-0.6112723823333334,50.42880122,-0.08128245699999992
4,0.033332,-0.5751735766666667,-0.6274353266666667,-46.029917399999995,0.524112185,-1.77224954,14.215725583333333,-3.1294780573333334,52.21905263333334,1.1039078533333333
5,0.041665,-0.6398921710000001,-0.23530818033333337,-46.04260253333334,-0.8729687533333333,-0.9923795163333334,14.962306336666666,-8.201275825666665,46.45436350333333,-1.4054388903333332
6,0.049998,-0.7533064386666667,0.15268081433333336,-46.045781466666675,1.2045441073333334,-2.357765714333333,13.898877143333335,-14.064222973333335,45.94303003666666,-0.1919748683333334
7,0.058331,-0.8802805543333333,0.5054430563333333,-46.064504,-1.6626597246666666,-2.611772854666667,14.366989769999998,-15.665770213333332,41.74947865666667,-2.0254321496666665
8,0.066664,-1.0142951013333334,0.8178197343333334,-46.066675800000006,0.06465314800000001,-0.641852538,17.634414356666667,-16.512270606666664,36.864777883333325,-0.015769819666666685
9,0.074997,-1.1836351753333334,1.106419573,-46.089920033333335,-1.3269774913333334,-0.8107379676666667,17.876784323333332,-20.726597469999998,34.07113965333334,-2.4977157913333334
10,0.08333,-1.3815231319999999,1.3848480833333332,-46.09550986666667,-0.6202615499999999,-1.2568510573333331,16.56207561333333,-24.151783626666667,32.79742304333333,-0.3197086753333333
11,0.091663,-1.6012409526666664,1.635315726,-46.120463066666666,-1.5328841009999998,-0.5117607713333333,16.175228439999998,-26.761154176666665,29.520269393333336,-2.5852654373333332
12,0.099996,-1.8283826906666665,1.883283317,-46.11401873333333,0.43203088633333336,-0.23940792933333332,15.105186779999999,-27.698155086666663,29.09997558666667,1.2436754503333332
13,0.108329,-2.038932959333333,2.0930984813333335,-46.11992899999999,-0.47270904766666666,-1.6304298243333333,14.148456576666668,-25.714687346666665,24.584428786666667,-0.23183027933333333
14,0.116662,-2.234592437666667,2.2680749096666664,-46.100219733333326,0.09730902799999998,-0.5081620416666667,15.788362823333335,-23.970427193333336,20.273724240000004,2.71583728
15,0.124995,-2.437990745,2.4381585913333335,-46.09811910000001,-0.35352514700000004,-0.8793959813333333,16.08319092,-24.901239396666668,19.78117498,0.7167977886666664
16,0.133328,-2.6469900606666665,2.5813151596666666,-46.0731303,0.321622913,-0.05832571033333334,16.159667013333333,-25.60943095,16.410033546666668,3.3090634840000006
17,0.141661,-2.856566588333333,2.6875887313333333,-46.071416199999994,-0.167362048,0.19990924,15.7568992,-25.629508333333334,12.125967342333334,0.45718860633333325
18,0.149994,-3.072453339666667,2.7843294936666667,-46.05906676666667,-0.0064659983333333155,-0.6813085180000001,14.679362613333334,-26.37907219,10.900280953,1.6090406576666665
19,0.158327,-3.279859145333333,2.8629329203333334,-46.05514526666667,0.494277358,-1.5912392136666667,13.445477163333331,-25.38649686333333,8.791207472666668,0.617162506
20,0.16666,-3.454783996,2.905654708666667,-46.028279633333334,-1.1193895736666668,-0.5951583483333334,15.115384736666668,-21.553874333333336,4.314945936,3.0415893643333334
21,0.174993,-3.6032978693333333,2.9229325056666666,-46.008992500000005,0.33466456566666664,-0.2117213356666667,17.560061773333334,-18.404568353333335,1.325392008,2.066860159333333
22,0.183326,-3.7369308473333334,2.9108618496666665,-45.98391216666667,-1.3598942953333335,-0.4332766643333333,17.609050749999998,-16.589199699999998,-2.250859817,2.436349869
23,0.191659,-3.861814816666667,2.8649533193333334,-45.96568296666667,-0.06112767966666668,0.45458631233333335,16.51913388666667,-15.56375885,-6.242028236333333,1.4414029073333332
24,0.199992,-4.001578649,2.803918282,-45.942393,-1.3716528413333335,-0.14332181233333338,16.174597106666667,-17.308051430000003,-8.112017631666665,1.8133134843333334
25,0.208325,-4.132001241,2.704731226,-45.92064920000001,0.15883519766666668,0.628343083,15.900974273333333,-16.236981073333332,-12.658414206666668,1.3942815116666667
26,0.216658,-4.2400159833333335,2.606672088333333,-45.9100952,-3.071945110666667,-0.18020029866666668,13.738490736666668,-13.425346056666667,-12.440546990000001,-0.061123887666666654
27,0.224991,-4.320299307666667,2.478268861666667,-45.900644933333325,0.233604014,-1.0225896936666665,14.454337116666666,-10.13369465,-16.052659036666665,-0.39175713066666673
28,0.233324,-4.356530507333333,2.3572983743333333,-45.899998966666665,-2.3969502446666664,-0.8358716793333333,14.104211806666669,-4.773482640666667,-15.088123006666669,-1.4766395986666667
29,0.241657,-4.364883899666666,2.2452915509999998,-45.88963826666666,-0.09978337100000001,0.7371840076666665,16.755161920000003,-1.4857841333333333,-14.104055406666667,-0.14433196433333334
30,0.24999,-4.360876560333334,2.122312227666667,-45.898523966666666,-2.961986979,-0.7578641623333334,17.859968186666666,0.07777766399999993,-15.235886256666666,-2.6439102489999997
31,0.258323,-4.357816060333334,2.007719278,-45.88597106666666,0.43963367233333334,0.08867589633333339,16.613222123333333,-0.11167367300000001,-14.436133386666667,0.08521856866666659
32,0.266656,-4.370584805666667,1.8673541746666666,-45.89639283333333,-1.7368826466666665,0.17601207900000004,14.509188969999999,-1.9365690993333333,-17.301905950000002,-2.9744451443333335
33,0.274989,-4.376751582,1.7308065689999996,-45.88789876666667,-0.644440055,-1.2351973453333331,14.748267806666666,-1.187604189,-17.02952067,-0.594126612
34,0.283322,-4.359055678,1.5886844993333333,-45.90820313333333,-1.4971510966666666,-0.9351908366666667,15.783741316666669,1.735053092,-17.417375563333334,-4.177033861333333
35,0.291655,-4.319127798333333,1.465775271,-45.90927630000001,-0.5056141913333333,0.7561938963333333,14.302840549999999,4.389012575,-15.314881643333335,-1.6117205319999999
36,0.299988,-4.246001243666666,1.3602499263333334,-45.93836463333332,-1.7042036253333332,-0.6889390126666667,14.158191046666666,8.398007870333332,-12.963802336666665,-4.866193374000001
37,0.308321,-4.143590211666667,1.301244219,-45.94716896666666,-2.424210628,-0.4715171856666666,17.21996561666667,11.906484921333332,-7.601503689666667,-1.9348656486666667
38,0.316654,-4.027208408,1.2759993920000001,-45.981847133333325,-2.406340281,0.5186808506666667,16.989964166666667,13.5944376,-3.323592623,-4.8045059839999995
39,0.324987,-3.9099210896666663,1.282866463,-45.99487813333332,-2.2565187613333335,-0.7013754883333333,15.206470806666665,13.698473613333334,0.314918488,-1.8749625090000002
40,0.33332,-3.7857933046666665,1.2971043983333335,-46.01546733333333,-1.3461697893333333,-1.0000751863333333,14.129674593333334,14.477842966666666,1.272895556,-2.7763697703333334
41,0.341653,-3.650555451666667,1.3532764316666668,-46.02601623333334,-2.4540428320000003,-0.19418150200000003,14.837534269999999,15.861397106666667,6.186436812,-1.1868914366666667
42,0.349986,-3.5092244943333335,1.412472685,-46.05074563333333,-0.38507354233333335,-0.9401419363333333,15.304505346666666,16.552366573333334,6.677086353333333,-2.929005464
43,0.358319,-3.364198923,1.489157627,-46.064860033333325,-1.9847781260000001,-1.5602685013333335,14.91352781,17.043256439999997,8.667860667333334,-1.5147283173333335
44,0.366652,-3.2308123903333335,1.550999562,-46.091201766666664,0.5569384943333334,0.460781606,14.088409423333331,15.621151606666666,6.988538106333333,-3.1358235776666668
45,0.374985,-3.1110253333333335,1.6213036973333335,-46.11439516666666,-1.2583525580000001,-2.2434951463333337,12.215983073333334,14.040049236666666,7.961866855666667,-2.6881976523333333
46,0.383318,-2.9935198626666666,1.6609793106666668,-46.136444066666655,-0.474572142,-2.39507397,12.08210818,13.718556403333332,4.289945682,-2.802940706333333
47,0.391651,-2.8917240303333336,1.7028995156666669,-46.163894633333335,-1.888217171,-0.8360071083333334,11.60076205,11.896818476666667,4.578472693666666,-3.3873976866666666
48,0.399984,-2.7969481149999997,1.7040489513333335,-46.182429000000006,0.5607298216666666,-1.6651559870000001,11.293154716666665,10.987828891333335,-0.359705051,-2.6261508066666663
49,0.408317,-2.7113982043333333,1.7015809813333334,-46.20398966666667,-1.6503699423333333,-1.6378760533333334,11.045974730000003,9.913242976666668,-0.7827837963333333,-2.943186680666667
50,0.41665,-2.6657574176666667,1.7181552450000002,-46.219950366666666,-0.23635107266666666,-0.8010995040000001,11.410480816666668,5.093326886333333,1.465941151,-2.225347678
51,0.424983,-2.6594879626666663,1.7314650616666665,-46.24901836666667,-2.289076089666667,-3.2097657520000005,8.538239957333333,0.41626544800000004,1.1500449576666665,-3.7650621733333334
52,0.433316,-2.7030465603333336,1.79482311,-46.27123006666667,-0.20838651033333333,-2.4565187293333337,7.9294343786666674,-5.565794309,7.104044516666666,-2.731647173666667
53,0.441649,-2.8161593276666665,1.77767394,-46.30670166666667,-2.3095477223333334,-1.4978384376666665,7.775036016666667,-13.90242672,-2.454992791,-4.677296638666667
54,0.449982,-2.983064254,1.9643392366666668,-46.330764800000004,-1.146157749333333,-4.481644709999999,3.0503594876666664,-20.34934743333333,21.90051714333333,-2.1563618383333334
55,0.458315,-3.168634097,1.909783363,-46.349197366666665,-0.3056570736666667,-1.3651851016666667,8.305043061666668,-22.674313863333335,-7.021087487333333,-2.902213811666666
56,0.466648,-3.451824665,2.094175736,-46.3467153,-1.2551411786666666,-2.149293263666667,7.477191843333333,-34.41333516333333,21.458382286666666,1.1800539890000001
57,0.474981,-3.7673197586666665,2.1954709293333337,-46.33372500000001,0.4263234139999999,-2.237130364,3.993726412333333,-38.38058599,11.425814309333333,1.974540373
58,0.483314,-4.073622067666666,2.296967903666667,-46.318522133333325,-2.1791591146666667,-0.7091712056666667,6.346970080999999,-37.25623576,11.415583293,2.2413127026666664
59,0.491647,-4.447906971333334,2.389999032,-46.30082196666667,1.2805409033333335,-0.7505753536666667,7.015656271666668,-45.43625513666666,10.364978153666668,2.6072138943333334
60,0.49998,-4.855336348000001,2.48186628,-46.30704753333334,-1.3389476933333337,-1.421656162,2.009731859,-49.297898610000004,10.439715703666666,-0.2623244883333333
61,0.508313,-5.269993782,2.592790683,-46.307342533333326,1.7185375489999999,-0.5651684253333333,3.4766979216666667,-50.19581985666667,12.652261733333333,0.7943888506666666
62,0.516646,-5.6643139520000005,2.6557530959999998,-46.3260549,-2.124468691666667,-1.7824403446666668,2.9499564466666666,-47.6512146,7.128375212333334,-1.936064482
63,0.524979,-6.0375835103333335,2.7183009386666668,-46.31888833333333,2.5544445066666666,-0.031418472666666676,5.104157606666667,-45.281406403333335,6.769065221000001,1.2728631696666666
64,0.533312,-6.406092643666667,2.7689342500000005,-46.32893373333334,-2.6409499146666664,0.036199838000000005,5.657940546333333,-44.59898885333333,5.567990084333334,-0.96718657
65,0.541645,-6.780777295333333,2.784916321666667,-46.30404153333333,3.4812771876666666,0.8684755913333334,6.275142272333333,-45.550350189999996,0.9546390376666666,2.8273258213333334
66,0.549978,-7.167181173666666,2.8027045726666664,-46.31255086666667,-4.441677490666667,-0.0065213343333333324,3.6457185350000003,-46.75292841666666,1.6391194659999997,-1.1705041379999999
67,0.558311,-7.5305994353333325,2.752638578333334,-46.28092956666668,4.638758103333333,-0.022852629333333346,2.1454382339999998,-44.22906748666667,-7.052261489999999,2.631103118
68,0.566644,-7.823648770666668,2.7056594293333336,-46.2937215,-4.957851449666667,-0.800923561,2.483401063666667,-35.536795299999994,-5.980974038666667,-2.704191963
69,0.574977,-8.062406539666666,2.6327993073333333,-46.259038266666664,5.852931340666667,1.2301042476666666,4.648304104666667,-29.263294219999995,-9.844136079666667,2.5489090283333335
70,0.58331,-8.251519998000001,2.5546248356666665,-46.28253683333333,-6.133550882333334,0.7067195676666667,6.528918822666667,-23.038761140000002,-9.476790268,-4.557582775666666
71,0.591643,-8.412777265,2.4527347486666664,-46.23291523333333,4.831597446999999,1.8771068850000001,5.297303597,-19.985227906666665,-13.580862999999999,3.750951449
72,0.599976,-8.547780037,2.3067249056666665,-46.257726033333334,-4.579899549666667,0.7495089943333334,4.158140341666667,-16.61669445,-17.483940126666667,-5.820154984666666
73,0.608309,-8.627949078666665,2.207407514333333,-46.191757200000005,3.6965100366666666,-0.2691589496666667,2.8070183993333333,-10.249814510999999,-13.604451500000001,5.675273257000001
74,0.616642,-8.603133202,2.0095538696666666,-46.20385743333333,-3.30079031,0.8697105446666665,5.894192536666666,2.4626697103333335,-23.81115468333333,-5.442441305333335
75,0.624975,-8.545249303,1.8220171333333333,-46.1279653,2.6142055193333333,1.6704777876666668,6.466549555333334,6.346422276333333,-24.25931994,5.271167123333333
76,0.633308,-8.490624109666667,1.6461581983333335,-46.133422833333334,-1.9452685913333332,0.540258358,5.837007283999999,6.007520677,-21.315181733333333,-4.2617940899999995
77,0.641641,-8.392029762333333,1.399561435,-46.06489053333333,0.2443689056666667,0.3345107436666666,4.426378607666667,11.301113766,-31.129196166666663,3.410271325666667
78,0.649974,-8.236701329666666,1.214073022,-46.06114703333333,-0.10205185900000001,0.07510502133333337,4.6211648783333334,18.09144338,-22.66708437666667,-3.077108383333334
79,0.658307,-8.013013999,0.9559224246666668,-46.00731916666667,-1.5201743046666667,-0.055132855666666654,6.297947725,26.371108373333332,-32.22018369,1.647743860666667
80,0.66664,-7.772839228333333,0.7134749193333333,-45.98766073333334,1.123116682,1.4412587083333335,6.843157690666668,28.27809461,-29.726637519999997,-1.9776476226666666
81,0.674973,-7.533009688333333,0.489939203,-45.94967653333333,-3.141314586,0.5256561733333333,6.504018146333333,28.365634283333332,-27.83089701,0.5898949303333332
82,0.683306,-7.264323552333334,0.23296432666666667,-45.91877746666666,2.035837571,-0.05682671100000003,4.234937389666666,31.718637466666667,-31.64311536,-0.6121600470000003
83,0.691639,-6.971789678,0.05923282399999996,-45.90062966666667,-3.824354648666667,-1.19863983,5.090716759,34.73918406000001,-21.59653791,-0.7956147196666669
84,0.699972,-6.658471107333334,-0.18370198699999996,-45.89951066666668,0.7186485926666665,-0.14846322933333334,5.602890650666666,37.12437693333333,-29.56069565,-3.6395463943333333
85,0.708305,-6.325432936333333,-0.3366616070000001,-45.928578699999996,-2.893363952666667,-0.3242984216666667,5.038913647333334,39.57041804,-18.472373963333336,-5.9196527
86,0.716638,-6.0223178866666665,-0.46761098500000003,-45.96543883333334,-1.0126163339999998,-0.04488227766666667,6.458722829666666,35.87857055666666,-15.75204309,-6.3973428409999995
87,0.724971,-5.737819671333334,-0.604285866,-46.02667743333334,-2.6767366330000004,-1.3353604673333335,4.009464423,33.65717188666667,-16.175103503333332,-9.374404113666666
88,0.733304,-5.476328214,-0.6366137863333333,-46.06677246666667,0.41000580799999997,-0.45425613733333337,3.926706552666667,30.887732823333334,-3.9968998433333334,-5.581542969
89,0.741637,-5.212138494,-0.6878025633333333,-46.1334381,-3.7807286579999997,-2.3365292943333333,2.982053200333334,31.145514170000002,-5.964660366333334,-8.905911765333332
90,0.74997,-4.9590854643333335,-0.6781079373333333,-46.132720966666675,1.3423332373333334,-0.5714089873333333,5.055615266333333,29.96312586666667,0.5269449550000002,-0.20626314499999987
91,0.758303,-4.729296525,-0.6705771483333334,-46.18166606666666,-3.4545529683333336,-1.2350169023333333,5.148947795000001,27.003092449999997,0.8147722483333334,-6.152441302
92,0.766636,-4.561495463,-0.6145428516666668,-46.15656533333333,0.8775641319999999,-0.26652233799999997,4.265051603333334,19.80032348666667,5.823688984,3.1514277456666675
93,0.774969,-4.427422523333333,-0.555842896,-46.192220033333335,-2.175585707,-2.175391912333333,2.3899999063333333,15.51654879,6.780572414333332,-4.072839419
94,0.783302,-4.315562566,-0.453270435,-46.16073606666666,-0.07549955433333337,-1.722686728,3.630684216666667,13.113011676666666,11.342323618666668,4.321096579333335
95,0.791635,-4.2228023210000005,-0.36427248533333323,-46.189849833333334,-0.29162694999999994,-0.8112952906666666,3.534280379333333,10.561199504,10.335154215333334,-3.0536233586666675
96,0.799968,-4.181168079333333,-0.24777521699999994,-46.161010733333335,-2.1900180579999997,-1.910736123666667,3.840412935,4.682586352,13.047190663333334,4.0940268836666664
97,0.808301,-4.150542974333334,-0.1389749893333334,-46.176122033333336,1.4553481740000003,-1.655294716,2.9842604,3.128501931666667,12.571456273333332,-1.2192932766666669
98,0.816634,-4.1547747453333335,-0.00508798933333332,-46.15851846666667,-2.6787015346666667,0.1598668,4.712118784666667,-0.8571164506666666,15.237676303333332,2.8955704373333333
99,0.824967,-4.203868071,0.12961910299999999,-46.1584066,2.120144164,-2.013267994,3.721617241666667,-6.416375954666667,15.532497086666666,0.829607327666667
100,0.8333,-4.287514845333334,0.29042518133333334,-46.149983733333336,-3.5124233166666663,-1.0371989803333332,2.3297787903333336,-10.412634851666665,18.540543236666664,2.072551409333333
101,0.841633,-4.408153216,0.43644722300000005,-46.141418466666664,2.7484811296666667,-0.20252724333333338,1.882043878,-14.997499783333334,16.8017807,1.9833676020000004
102,0.849966,-4.525096098666666,0.595463723,-46.12804156666667,-4.057142734666667,-2.869964361333333,0.9224477016666667,-14.427967070000001,18.27500184666667,2.7282078266666665
103,0.858299,-4.641370455333333,0.754725734,-46.114451100000004,2.551526824333333,0.10455908633333329,3.3754763603333333,-14.448775293333332,18.31821251,2.782027781
104,0.866632,-4.770883401333333,0.9156608633333333,-46.11328126666667,-3.3131402333333333,-0.3967222173333333,4.347868919333333,-15.96272278,18.619155883333335,1.3730264503333336
105,0.874965,-4.920066992333333,1.094966229,-46.101221699999996,2.647433595,0.3629294236666667,3.7377425830000006,-18.365998586666667,20.70664215,2.9003741743333333
106,0.883298,-5.089849154333334,1.2523189086666668,-46.11843363333333,-2.9426452716666667,-1.347203493,2.047694556,-20.794427873333333,18.382465996666667,-0.7593645253333334
107,0.891631,-5.261416117666667,1.418287307,-46.10166933333334,2.612416069,0.28341398133333334,1.2158296506666666,-21.029525123333332,19.03515053,3.441394965
108,0.899964,-5.416580041,1.5554120740000001,-46.128509533333336,-1.546110034,0.2420929273333333,1.7144875823333334,-19.041778563333335,16.0835921,-2.0151034990000003
109,0.908297,-5.550318876666666,1.6857054233333333,-46.1025899,1.3569904959999999,-1.0651889443333333,2.5975693066666667,-16.511507353333332,14.644275666666667,4.232583602333333
110,0.91663,-5.680135568,1.7893206480000001,-46.1249644,-0.7796455916666666,0.254515807,2.88960282,-15.992100716666664,12.033311206,-1.783584276666667
111,0.924963,-5.807619253666666,1.875908792,-46.09883626666666,1.9315522116666666,1.3788903983333334,2.3344197473333335,-15.789242423333333,9.405153274333335,3.799130241
112,0.933296,-5.928727309,1.9402304293333332,-46.10413616666667,-1.1226519446666667,-1.369981249,1.4838108419999998,-15.022184053333334,7.143760363333333,-0.16085783633333328
113,0.941629,-6.017109394333333,1.9840155643333333,-46.06810506666667,1.4418312709999999,0.5436608990000001,1.7168610693333335,-11.110620179666666,4.148127873666668,4.493395169666667
114,0.949962,-6.082169374,1.984064142,-46.072123233333336,0.5966654616666667,1.9338703153333334,3.9023248356666667,-8.313134988,-0.5383859076666665,-0.7864381470000001
115,0.958295,-6.139454047,1.9608407416666669,-46.034067799999995,0.2771838356666667,-2.0770256123333333,3.0565148196666665,-7.397016604666668,-3.881018320666667,3.858947277
116,0.966628,-6.162751992666667,1.8976399896666667,-46.03208413333332,1.1307226316666668,1.1592250866666667,2.1159832476666667,-3.298327905666667,-8.167735418333335,-0.8678271773333334
117,0.974961,-6.180580298333333,1.8003281156666666,-46.00624593333333,0.013261851333333333,2.24633197,3.625830173666666,-2.619892557333333,-12.563168526666667,1.4434731799999998
118,0.983294,-6.163595835333333,1.6697121856666666,-45.9961497,1.219579776,-2.326055441666667,3.2411045233333335,1.5081627766666668,-16.29889710666667,-0.8847625256666669
119,0.991627,-6.105574607666667,1.5055786566666667,-45.96613566666667,-0.250289321,2.6291039389999997,4.971317927,6.470146179,-20.602640153333336,1.2153533300000003
120,0.99996,-6.055957953,1.3080405396666668,-45.944574966666664,1.2921874919999998,0.16834414,5.563548723666667,5.4137988476666665,-24.44989586,-0.21798952433333327
121,1.008293,-5.953153292333333,1.069113381,-45.911432899999994,-0.24824576066666668,-1.3677091596666668,5.008296489666667,11.845650993333335,-29.542947769999998,0.5595177013333331
122,1.016626,-5.835093021000001,0.7910663933333333,-45.86864216666666,1.8605787756666665,2.30670925,6.370406945666666,13.634291330000002,-34.31626129,1.2836379210000002
123,1.024959,-5.701319853666667,0.4739291766666667,-45.84025573333333,-0.787185361,-0.9045519033333332,7.815199057333333,15.576833723333332,-38.80536524666667,-0.8504750033333334
124,1.033292,-5.523838361,0.13293783866666664,-45.784835799999996,1.8007723093333332,-0.4960188073333332,7.711139836333333,20.850386939999996,-41.98707580666666,2.206905086666667
125,1.041625,-5.293427785333334,-0.285287107,-45.761601799999994,-0.5599099,2.7368649643333334,10.276356219666667,27.188515979999995,-50.812011719999994,-2.3735148906666668
126,1.049958,-5.081560929333333,-0.6997493853333333,-45.70459493333333,0.9954232973333333,-0.11587447766666666,9.855480192666667,25.073458353333336,-50.76587168333333,1.9016019503333332
127,1.058291,-4.842081864666667,-1.1780901056666666,-45.67200213333333,-1.0600731373333332,-0.2590762376666668,8.982073783999999,28.352053326666663,-58.11643218999999,-1.5114843450000002
128,1.066624,-4.551210403333333,-1.5967214306666666,-45.62623593333334,-1.037644386,1.7014692823333333,10.534189859333333,34.62795511666667,-51.14367675666667,1.0767825443333334
129,1.074957,-4.242708444333333,-2.077977856,-45.598734533333335,-0.3039096396666667,-1.0958867073333334,11.352166015666668,36.65698751,-58.414255776666664,-1.5950357119999998
130,1.08329,-3.8980560300000007,-2.537018100333333,-45.536305733333336,-1.6464762389999998,0.39781224733333337,13.261051815333333,41.25462468333333,-56.10385004666667,3.1512416206666667
131,1.091623,-3.5650912923333333,-2.929383913666667,-45.509485899999994,-1.3927416403333333,-0.16231315333333338,10.140103341,39.65302277,-47.78210830999999,-0.220108191
132,1.099956,-3.207482735333333,-3.3666135473333334,-45.45326743333333,-1.3958779376666668,-0.8418578206666667,13.757175763333331,42.87757364666667,-53.39731979333334,3.197344660666666
133,1.108289,-2.8448671500000002,-3.6757973829999995,-45.4287008,-3.2792437873333333,-0.4258191276666667,12.476396242666667,43.22542317666667,-37.79391352333334,0.6380236943333332
134,1.116622,-2.5102527936666665,-3.985449791,-45.38557939999999,-1.8627138533333334,-1.3223257463333333,13.191423416,40.099356336666666,-37.98620224333333,2.9720846416666666
135,1.124955,-2.193023046,-4.262274503666666,-45.35833233333333,-3.1266490816666668,-1.4708319106666667,13.768680573666666,37.84755325333333,-33.922933576666665,1.5601629863333333
136,1.133288,-1.8849880296666666,-4.404624700333334,-45.33447266666667,-1.914437627,-1.364563306,10.685491085999999,36.7810847,-17.808947563333334,1.9158628383333332
137,1.141621,-1.620557705666667,-4.620761871666667,-45.31964109999999,-2.013764977333333,-1.3671424783333332,15.436124166666666,31.40777142666667,-26.567277273333332,0.596808056
138,1.149954,-1.353804906,-4.690965175666667,-45.29566953333333,-2.358810345333333,-1.533049345,14.30684503,31.839801790000006,-9.118027211333333,2.3860195476666664
139,1.158287,-1.147016366,-4.764297644333333,-45.28335573333333,-1.621131658333333,-1.5062266193333336,12.668894450000002,24.47837321,-9.438048682,0.8803917566666667
140,1.16662,-0.9760003086666665,-4.780614852666667,-45.271143599999995,-1.9062563179999998,-1.6886884373333333,14.279319443333334,20.236237843333335,-2.6114449499999997,1.082201918
141,1.174953,-0.8641171953333333,-4.793953418333333,-45.26707966666666,-2.660060902,-1.9443790513333334,15.798332213333333,12.995191573333335,-2.207371011333333,0.11649791399999998
142,1.183286,-0.7877399223333333,-4.671332995,-45.256032299999994,-2.156642755,-1.65966024,12.61674452,8.872947692666665,14.05630525,1.2024007636666667
143,1.191619,-0.7532258926666667,-4.61719505,-45.2598419,-1.3342930473333332,-2.1904881793333333,10.382628759,3.6420240403333337,5.905511538,-0.7293696800000001
144,1.199952,-0.717408518,-4.432795683666666,-45.25964356666666,-2.854899923,-2.1371233463333335,14.099502563333333,3.898816585666667,21.497060140000002,0.02249749499999994
145,1.208285,-0.7298936746666667,-4.2952713173333334,-45.26893106666666,-2.643030842333333,-1.166715165,16.19145107,-2.0521742649999997,15.910570143333333,-1.2630764643333332
146,1.216618,-0.7471679346666668,-3.9706638653333335,-45.27290343333332,-3.2594532970000003,-0.6115884633333333,14.305710793333335,-2.5208025773333333,38.32841873,-0.2868370613333333
147,1.224951,-0.7808523376666666,-3.702116966,-45.27551776666667,-1.1176347733333334,-1.0110397143333334,12.970641929666668,-4.544173399666667,31.62264188,-0.29213428533333347
148,1.233284,-0.8498848083333334,-3.287655035666667,-45.26931763333334,-3.7793973286666667,-0.8652753336666666,16.535899639666667,-8.656973202666666,49.08202107666667,1.1325958769999998
149,1.241617,-0.9753379226666667,-2.9134713409999997,-45.2728831,-0.6083260573333333,-1.5779534579999999,13.878125189666667,-15.5453132,44.303793586666664,-0.07888265466666662
150,1.24995,-1.1055072146666667,-2.4976190726666667,-45.27365113333334,-3.1497836906666667,-2.259733399,14.138634999333334,-16.045136133333333,49.26736068333333,0.4948343433333333
151,1.258283,-1.2216689986666667,-2.0206098753333332,-45.275278733333344,-2.1899358429999998,-0.990751962,14.400330226666668,-14.412422183333334,56.6208814,0.6170020823333333
152,1.266616,-1.350323518,-1.6306192873333334,-45.275171900000004,0.6902832090000001,-1.055776497,14.951318743333333,-15.863542236666667,46.158426920000004,0.7320476770000001
153,1.274949,-1.4899735053333332,-1.162220123,-45.28060403333334,-1.0773077606666666,-0.74143218,15.449933686666668,-17.224633216666664,55.589832306666665,0.40681465466666666
154,1.283282,-1.6611047186666668,-0.6931642693333333,-45.30169166666666,-1.0180186433333334,-1.1202952566666666,13.68578402,-21.00340144,55.7069753,-1.3149236936666666
155,1.291615,-1.8441312313333336,-0.2716483273333333,-45.327824933333325,0.8742659293333332,-1.0634282653333333,13.176116623333334,-22.43222745333333,50.03754170666667,-1.9863377809999998
156,1.299948,-2.0515752633333335,0.1604550653333334,-45.3769989,-0.8571327873333333,-1.459693511,14.276025133333334,-25.34054184,51.39844385999999,-4.484544436
157,1.308281,-2.2411307096666664,0.601101905,-45.41556803333334,-1.5150597889999997,-1.4816797573333333,14.191949840000001,-23.158675513333332,52.39913050333333,-3.0602697533333334
158,1.316614,-2.412241935666667,1.0043396903333333,-45.47006736666666,-1.4502972363333333,-0.5128020346666667,16.837553026666665,-20.882492066666668,47.989344280000005,-4.917167981666666
159,1.324947,-2.5993731023333333,1.4124268493333334,-45.522176099999996,-0.16081500566666665,-1.236169716,16.05150572333333,-22.765635810000003,48.58212153333333,-4.534230391
160,1.33328,-2.791002432333334,1.768967966,-45.57618713333334,-0.023102342999999987,-0.7951773106666667,15.415932336666666,-23.265184403333336,42.41977309999999,-4.8336292903333336
161,1.341613,-2.976489226,2.1471070846666667,-45.6313527,-1.3227535336666667,1.1985908746666667,15.24232165,-22.464468003333337,45.03662872000001,-4.745123863333333
162,1.349946,-3.1840214726666667,2.4646700223333333,-45.68430073333334,0.7435143393333333,-1.5043956043333333,14.823451043333334,-25.109424590000003,37.77421442666667,-4.679413795666666
163,1.358279,-3.393958727333333,2.766371647333333,-45.7241516,-0.44974038499999996,-1.9076339503333333,13.526275636666668,-25.405060449999997,35.80273946333333,-3.0914982956666663
164,1.366612,-3.588562012,3.005575696333333,-45.758900966666666,0.07332144166666665,0.03154386566666667,13.822867713333332,-23.59250768,28.286498386666665,-2.801820675666667
165,1.374945,-3.774233659,3.215262969333333,-45.794072466666655,-0.599821488,-1.0933481453333334,15.421174366666667,-22.473154703333336,24.762971243333336,-2.957844972666667
166,1.383278,-3.9466981890000006,3.3868603706666662,-45.828221633333335,0.3276064693333333,-0.8243116733333333,15.636772793333336,-20.916710533333333,20.204107920000002,-3.096054673333333
167,1.391611,-4.117512226333333,3.552368164,-45.856145233333336,-0.7484270336666666,0.8362591266666666,16.567695303333334,-20.71641731,19.429569243333333,-2.318132599
168,1.399944,-4.296496867999999,3.6740301449999997,-45.8866272,0.29850008066666667,0.29735427100000006,14.775096573333334,-21.70559692333333,14.215039256666666,-2.9846198756666666
169,1.408277,-4.4639898936666675,3.7806986966666667,-45.9101766,-0.13577509933333332,-1.099214256,12.445370353333333,-20.334813436666668,12.362613993333333,-2.2351632513333333
170,1.41661,-4.602166016999999,3.8558381396666666,-45.92830913333333,-0.04461039333333333,-0.844707827,13.080506326666665,-16.887179693333334,8.549048264666666,-1.8804268339999999
171,1.424943,-4.705115318333333,3.904244263666667,-45.94478353333333,-0.7790252766666667,-1.28632768,15.218599956666665,-12.647684096666667,5.333892424999999,-1.863944014
172,1.433276,-4.788898786,3.9400372506666663,-45.95012413333333,-0.138654858,-0.4285682613333333,16.422740616666665,-10.454515773333334,3.7217917443333337,-0.7123662133333332
173,1.441609,-4.859180450333333,3.9697362579999997,-45.96450296666668,-2.060271422,1.0904113053333333,17.358593619999997,-8.742763043666667,3.080953161,-1.7832119466666667
174,1.449942,-4.926066399,3.990244388666666,-45.969360333333334,-0.37498743799999995,-0.180748408,15.810138066666667,-8.431724388666668,1.8910821276666665,-0.8114932280000001
175,1.458275,-4.976914088,4.002707401666666,-45.976969399999994,-1.488819817666667,-0.35898320899999997,14.614783286666665,-6.465989351333332,0.9547663133333334,-1.159266134
176,1.466608,-5.008360227,3.9934292633333333,-45.969390866666664,-0.5545741716666667,-0.37467945133333336,14.392718633333333,-4.279131253666666,-1.7949345113333333,0.3400247046666667
177,1.474941,-5.012982050333334,3.969033162,-45.969960533333335,-1.4831267196666669,-0.4149169103333333,15.576858836666666,-0.9751295249999999,-3.5262519520000004,-0.697146967
178,1.483274,-4.995417436,3.942889372333333,-45.96385703333333,-0.9234609603333334,-0.5822705823333333,15.740294773333332,1.617790828333333,-3.794262250333334,-0.03466028933333335
179,1.491607,-4.984198093333333,3.900621017,-45.963282266666674,-1.2140841486666665,-0.4688921023333333,16.22916444,0.9121144513333332,-5.671982447333334,-0.7534085863333333
180,1.49994,-4.9718491233333335,3.8593559266666664,-45.955429099999996,-0.21357375999999997,-0.21076047400000006,14.33986314,0.9843167909999999,-5.623281161,0.036444793
181,1.508273,-4.958921909333333,3.816004276333333,-45.95876570000001,-1.2082839606666667,-0.31728970000000006,13.885117533333334,1.1453918813333333,-5.762212753333334,-1.2115277846666668
182,1.516606,-4.941311200333334,3.753955681666666,-45.94677226666667,-0.6588346956666666,-1.3598012923333334,14.599973676666666,1.5833140363333333,-8.150633335,0.3202633586666667
183,1.524939,-4.8904741603333335,3.6787865956666668,-45.93929036666666,-1.3799440863333334,-0.7335556150000001,15.512558616666666,5.597569147666666,-9.673173584999999,-0.254669557
184,1.533272,-4.814511617,3.5878330070000004,-45.91318763333333,-0.7783462106666668,-0.052230859666666664,16.41184076,8.490399680000001,-11.751917203333333,1.7285898726666666
185,1.541605,-4.735713164,3.4772866566666667,-45.8980306,-0.7947279976666666,0.024959237666666672,16.04685910666667,8.901328245333334,-13.978313763333334,0.3162760783333334
186,1.549938,-4.663846969666667,3.3655747569999996,-45.87546286666666,-1.0982081693333334,0.6261535683333334,15.44594447,8.040792625666667,-14.196111996666668,1.1274362903333335
187,1.558271,-4.595451037,3.25732708,-45.862050399999994,-0.8003135523333332,-0.09929534766666664,14.587062516666668,7.665807882,-13.684091563333334,0.18962646533333335
188,1.566604,-4.512183666333333,3.145024697,-45.84106953333333,-1.854206403,-0.495484193,13.969452539999999,9.429221472,-14.247674306666667,0.9703954659999999
189,1.574937,-4.399390220666667,3.018147389333333,-45.82802833333334,-1.4678506056666667,-0.10943739866666664,14.13326359,13.003434183333333,-15.907991410000001,0.00436729166666668
190,1.58327,-4.260766426666667,2.9049866596666667,-45.80771383333334,-1.3595542513333332,-0.7941225566666666,13.985255876666665,16.07910315333333,-14.33780893,0.9490589896666668
191,1.591603,-4.106801827666667,2.7934916416666664,-45.7851003,-0.761807437,-0.980194052,14.361158369999998,17.895047506666668,-14.149856566666665,1.3602659106666666
192,1.599936,-3.9536008836666667,2.716598510666667,-45.75641883333333,-1.8647137086666667,-0.456053013,15.766190846666666,17.789692563333332,-10.061744371,2.3320956230000003
193,1.608269,-3.8191355863333336,2.6352761190000003,-45.734105400000004,-1.5050066313333332,-0.7780596813333333,16.48047479,15.5664018,-10.527529715999998,1.6441312233333332
194,1.616602,-3.700418552,2.565888484333333,-45.70603433333333,-1.0030177633333333,-1.0741068523333333,14.92345809666667,13.66803233,-9.145125071333334,2.3421319326666667
195,1.624935,-3.6021108626666667,2.4742010036666664,-45.68326823333334,-1.2001524763333333,-1.4992090859999998,14.79460557,11.230383873333333,-11.762592633333334,1.6457832056666666
196,1.633268,-3.5246854623333337,2.3990935086666667,-45.65480553333333,-1.0327957273333335,-1.224113842,14.061518036666667,8.721054872000002,-9.825570745,2.3893432219999995
197,1.641601,-3.4495255943333336,2.3170042036666665,-45.63268023333333,-0.6936224000000001,-1.142416219,14.097448666666665,8.459158422,-10.603117306666666,1.6957011623333333
198,1.649934,-3.3653591473333333,2.254630327333333,-45.60486856666666,-1.762786984,0.08620714166666665,15.237342516666667,9.544919490333333,-8.289672851666667,2.442928195
199,1.658267,-3.2926994959999996,2.1954663993333337,-45.590998333333324,-1.7298543053333333,0.437779943,14.738389336666666,8.199092548000001,-7.790882746333334,0.879161939
200,1.6666,-3.2391176223333336,2.1635675429999996,-45.57174683333333,-1.4877429803333333,-1.111204366,12.725586256666668,5.922566731666667,-4.576721668333334,1.6555634140000002
201,1.674933,-3.1822121146666666,2.150800586,-45.56765746666665,-1.4136373203333334,-1.5353512366666668,10.483506839333332,6.3561940193333335,-2.1658629743333333,0.05448557933333328
202,1.683266,-3.104796251,2.1352341173333333,-45.56319683333333,-2.172264536,-0.7345596553333333,9.726674081333334,8.856920083333334,-2.5202871160000004,0.017801960333333405
203,1.691599,-3.038640976,2.177249391666667,-45.581380200000005,-1.4505629143333334,-1.213723799,9.438412030333334,7.576532999666667,4.5377287866666665,-2.244234204
204,1.699932,-2.989548126666667,2.202358087,-45.60555523333333,-0.6803284583333333,-1.5000191330000001,9.391080857666667,5.585406303333333,2.5374829770000003,-3.1893266836666663
205,1.708265,-2.9557679493333335,2.2642421723333332,-45.64072163333333,-2.2940109769999997,-0.12127769,9.235479354666667,3.748741944666667,7.027696929,-4.147320787333332
206,1.716598,-2.9726200103333333,2.405971209,-45.667338066666666,-2.043393373666667,-2.141165415333333,6.426853259333334,-2.3181656796666665,16.528087616666667,-2.739349047333333
207,1.724931,-2.9975343550000004,2.4783516326666666,-45.67752076666667,0.7159370283333333,-1.5328349273333333,5.740163485333333,-3.397698641,8.127150375333335,-1.1304073333333333
208,1.733264,-3.0497935613333333,2.6313746373333333,-45.68013,-3.3806743226666662,-1.1688169836666666,7.964832227333333,-6.702376524333334,17.737116814666667,0.24747627966666666
209,1.741597,-3.128911257,2.7929438350000004,-45.66363526666667,2.1989131766666667,-1.1835140190000002,4.312801202,-10.038901328666666,18.64136664333333,2.6483424506666666
210,1.74993,-3.2151007653333328,2.936169147333333,-45.64348856666666,-4.1007554530000005,-1.1443681916666666,7.035404283333333,-10.905947366666666,16.410138447666665,2.930555582
211,1.758263,-3.3450419106666662,3.1288903553333327,-45.617594399999994,2.4012689116666666,0.05239430066666669,4.988714656333333,-16.178124426666667,22.289937973333334,4.0642348923333325
212,1.766596,-3.4914089043333334,3.252868573,-45.605280566666664,-2.249850829666667,-1.4381773869999999,4.120840907333333,-18.133350373333332,14.156922021666666,1.913294603
213,1.774929,-3.6045869986666665,3.494193713,-45.56270343333333,1.306908846,-0.5972240616666666,2.827768663666667,-14.263888360000001,27.958257039999996,6.5317424136666675
214,1.783262,-3.7046488923333336,3.6017765206666668,-45.550588000000005,-2.049861530333333,-0.49738975133333335,8.108288922666667,-12.604111036666666,12.191887853333332,1.8069438933333333
215,1.791595,-3.8081899483333337,3.759934346,-45.50472513333333,0.6623526016666668,0.505869736,4.035604516666667,-13.132447242,17.94265366,6.388241925333333
216,1.799928,-3.942841768333333,3.8690368336666663,-45.502797433333335,0.8844524823333334,0.623730421,5.4302573999999995,-16.70621236,12.454276720000001,0.6600271856666667
217,1.808261,-4.070108254666667,4.042882522,-45.470550533333345,-1.890548011,-1.1225652896666667,2.7873518466666667,-15.877762796666666,19.896782236666667,4.978012721
218,1.816594,-4.141551177,4.112989982,-45.467107133333336,1.7867006856666665,-1.0379826226666666,3.0498659260000003,-9.129222711666666,7.769529341999999,0.5430351906666662
219,1.824927,-4.167174974666667,4.205379565333334,-45.4485219,-3.03610452,-0.10776020066666665,5.733559688,-3.583457927,10.256006797666666,2.697427749666667
220,1.83326,-4.197794278333334,4.242176453333333,-45.444615666666664,3.8569327993333338,1.5193289916666668,5.9839241759999995,-4.221989909666667,3.7734810510000005,0.34103671733333335
221,1.841593,-4.273717403333333,4.317680438333333,-45.451039599999994,-4.342356681666666,0.3201805676666667,4.162175099333333,-9.427850245333333,8.457865276,-0.4185787043333334
222,1.849926,-4.337821960333333,4.349013885000001,-45.4496867,4.524293263666666,-0.15786673599999998,1.533658594,-8.186993280666666,3.135110333666667,-0.013759136000000005
223,1.858259,-4.361517747333334,4.379040718,-45.4743398,-5.033851544333333,-1.6600672699999999,1.707383614,-3.0226976523333335,3.1900653836666666,-2.9979842206666665
224,1.866592,-4.314166069,4.357291142,-45.4653422,5.040012916000001,0.38802087299999993,3.862441937,5.150847911666667,-3.294097821,0.4084401926666667
225,1.874925,-4.2596554756666665,4.336360534,-45.49350483333333,-4.982413371333333,-0.05090504899999996,5.511779864666667,6.361923616333333,-2.8696146606666666,-3.8742987316666664
226,1.883258,-4.201332728,4.291996002333334,-45.47786966666666,4.667402505999999,1.4396444259999999,4.808988372333333,6.430830160999999,-6.066139142,1.0233058926666667
227,1.891591,-4.166807254,4.253057321,-45.506301900000004,-4.324124336333333,-0.19552101700000002,3.4769912560000003,3.9347571133333332,-5.020924946333333,-4.052432934666666
228,1.899924,-4.105612913666667,4.191778024333334,-45.48417156666667,3.8024878500000003,0.02177584399999999,1.9232151706666667,6.744455655333333,-8.150938034,1.6611005863333332
229,1.908257,-4.024282932,4.116428136666666,-45.5060018,-3.299589475,-0.6814071933333333,2.3435357016666667,9.466847578333335,-9.435620308666666,-3.5663855476666666
230,1.91659,-3.9046947160000003,4.014915466333333,-45.478342700000006,2.5202110606666666,-0.13433451466666665,2.7472600936666662,13.735027633333333,-13.015870412666667,2.0277175903333338
231,1.924923,-3.7834166689999997,3.9053809643333337,-45.49892679999999,-1.7922753493333332,0.44289831333333324,3.6176996233333334,14.227607406666666,-13.544667559999999,-3.6626779236666667
232,1.933256,-3.660730997666666,3.7751717570000003,-45.47747293333333,1.5408640703333332,-0.14584692333333335,3.219535112333334,14.184378623333336,-16.40133762333333,1.1291697819999997
233,1.941589,-3.536560694333333,3.6449680326666667,-45.50307716666668,-0.8284427326666667,0.6514023940000001,2.426752925,14.585796993333332,-15.98858324666667,-4.368265629
234,1.949922,-3.410824776,3.4964832463333333,-45.48187763333333,0.323082705,-0.8176334103333334,2.1666314206666666,14.567010876666666,-18.582893373333334,1.039652824666667
235,1.958255,-3.2513984840000005,3.357524395,-45.50322979999999,-0.9838053586666667,-0.12806957933333338,1.5904741286666664,18.772064843333336,-17.08649063,-3.8357289629999998
236,1.966588,-3.0858478543333336,3.196466207333333,-45.4740753,0.2739752133333333,0.8053170043333333,3.0225583713333335,19.29293569,-20.13203621,2.0148512526666664
237,1.974921,-2.9031792480000003,3.049332619,-45.48171486666667,-0.5997262796666667,-1.193948187,2.4761039416666666,21.47541491,-18.17664464666667,-2.1482106843333333
238,1.983254,-2.704931974333333,2.887262980333333,-45.45544436666666,-0.47222809,1.5434099036666666,3.324144641666667,23.239376706666665,-20.2161328,1.787700573333333
239,1.991587,-2.526706139,2.754557450666667,-45.45557146666666,-0.2014303403333333,-0.79082644,2.861239274666667,20.90610822,-16.50631809,-1.0440065859999998
240,1.99992,-2.3143089613333334,2.61520044,-45.43643696666666,-1.4523876956666666,-0.7161821126666669,2.380555113333333,24.98433049666667,-17.43992742,1.1937264603333333
241,2.008253,-2.111026008666667,2.4844326973333333,-45.4351959,0.39973960333333336,1.3051556746666668,3.458586812,23.919318516666667,-16.28877767,-0.7676973343333332
242,2.016586,-1.9118278823333332,2.349466602,-45.42392983333334,-0.6075293716666667,-2.0228813093333335,2.6720451513333336,23.443767546666663,-16.86706384,0.39456184699999985
243,2.024919,-1.6997921866666665,2.2301514946666665,-45.425883,-0.21913786700000001,0.39125575399999996,2.086194078,24.98869006,-14.908367159999997,-0.975779136
244,2.033252,-1.5038495066666666,2.0878516433333334,-45.42478433333333,-0.46898255,0.07557440766666668,2.6335482596666666,23.086116793333332,-17.69758351666667,-0.7312271496666666
245,2.041585,-1.3077376086666668,1.973248621,-45.4164327,0.007905314333333338,-1.3989591796666667,2.3688631853333333,23.059403103333334,-14.38835939,0.358539805
246,2.049918,-1.1134283143333334,1.8425154686666667,-45.4246521,-0.9420519669999999,0.22958187766666663,3.2452687423333333,22.916289646666666,-16.283800440000004,-1.7017169793333335
247,2.058251,-0.937642872,1.7337742646666665,-45.4209951,-0.25110278533333336,-0.44350096600000005,4.065895795666666,20.643243153333334,-13.670580863333333,-0.08276386566666666
248,2.066584,-0.7642058036666667,1.6161261003333334,-45.430694566666666,-0.14168785000000006,-0.9387914536666667,4.148386558,20.407756166666665,-14.717596693333332,-1.743152062
249,2.074917,-0.6093719703333332,1.506373465,-45.41777546666666,-0.610440334,-0.41145924899999997,5.682720661,18.096726733333334,-13.801247913333333,1.067042649
250,2.08325,-0.46348850700000005,1.3880869550000001,-45.42209879999999,0.02308930966666667,-0.6309542013333334,5.3025786083333335,17.089300153333337,-14.810737291666667,-1.0159890156666667
251,2.091583,-0.32360491900000005,1.2702845536666667,-45.40820313333333,-0.5726242463333333,-0.40174971,5.995475928333334,16.310507456666667,-14.76224168,1.2105933029999998
252,2.099916,-0.16082522633333332,1.1383292003333334,-45.41985066666667,0.09428322299999999,-0.9415802160000002,5.999773343666667,19.121946336666667,-16.44648266,-1.833826541666667
253,2.108249,-0.022871503999999987,0.995998251,-45.402531933333336,-0.08954226966666672,1.1755998133333334,9.439548810333333,16.1057326,-17.70717462,1.6781937676666665
254,2.116582,0.10810496400000001,0.8258202373333333,-45.4243215,0.7783698439999999,-1.243575613,7.077483337333334,15.275984446666667,-21.02483494666667,-2.9754244486666663
255,2.124915,0.24299044433333336,0.7282333373333333,-45.39697263333334,-1.7216913900000002,-0.9499101339999999,5.777021566999999,15.774697940000001,-12.344171999333334,2.9355963070000004
256,2.133248,0.416778321,0.44126576166666664,-45.426645900000004,1.8433995246666666,-0.2088808516666667,10.629810334666667,20.374588646666666,-35.04179954666667,-3.721717675666666
257,2.141581,0.6057666143333333,0.32928586033333335,-45.40635173333334,-3.7972289719999996,0.19211034000000002,12.334205942333332,22.31263733,-14.065870760666668,2.2094922066666665
258,2.149914,0.7826461346666665,0.09821660333333333,-45.43029783333333,2.9777297773333333,0.27090675599999997,9.987824915666666,20.733660383333333,-28.35464477333333,-2.9825428326666668
259,2.158247,0.9629778366666667,-0.07686775699999997,-45.42540996666668,-2.810480257,-0.2017861353333333,13.049941063333334,21.27383232,-21.64497884333333,0.5330480733333335
260,2.16658,1.1873411336666668,-0.26849353299999995,-45.442616766666674,0.5305451153333334,0.8220740506666666,11.059772491666669,26.404843646666667,-23.612790423333333,-1.969535509666667
261,2.174913,1.4489499129999999,-0.3974983593333333,-45.435775766666666,-4.102426290666666,-0.527089969,10.749761741,31.026372910000003,-16.10356648666667,0.7761891683333332
262,2.183246,1.7343812386666668,-0.582562387,-45.43512473333334,1.1229097146666667,0.4074478046666667,14.337322553333331,33.76109504666666,-22.79124704666667,0.35470263166666643
263,2.191579,2.026990612666667,-0.61315308,-45.42253113333333,-4.8735435806666665,-1.383766194,11.604970454666665,34.75212351333333,-4.2642501196666664,1.2657494546666663
264,2.199912,2.317486882,-0.7287492853333334,-45.41500853333333,2.182313919,0.111618658,11.256874162666668,34.37912941,-14.425233920666669,1.0289850633333335
265,2.208245,2.6352683703333333,-0.7058830656666667,-45.39463296666667,-6.468254725333334,-0.8422694206666667,14.509791373333334,37.762056986666664,2.215446074666667,1.9688405593333334
266,2.216578,2.9348877273333334,-0.680428227,-45.358128900000004,1.07358025,-1.132193492,13.385711036666669,35.537550610000004,2.6515898696666667,3.8343189953333336
267,2.224911,3.222768306666666,-0.5919415750000001,-45.3334503,-5.203705628666667,-0.784813861,12.508294423333332,34.16010793333333,10.137574035,2.0437830983333334
268,2.233244,3.511298417666667,-0.442765176,-45.278625500000004,1.4583986899999999,-1.3595769903333332,13.265003836666667,34.236172993333334,17.620060603333332,5.133325735666666
269,2.241577,3.7841065723333336,-0.32635546733333326,-45.25645443333334,-4.059950192666666,-1.447311014,14.738818166666666,32.30698522,13.509243329999999,1.4026711186666667
270,2.24991,4.045234441666667,-0.09225620700000008,-45.183792133333334,-0.5151955783333334,-0.8237099623333334,15.184473670000003,30.948242190000002,27.985637666666666,6.411799748666667
271,2.258243,4.262094815333334,0.12679252033333333,-45.157124833333334,-2.6146576403333337,-2.034082651333333,13.894114493333333,25.56616084,25.833010993333335,0.88776075
272,2.266576,4.450282415,0.35544376566666663,-45.091364533333326,0.46814258400000003,-0.8173333006666667,14.574169476666668,22.13795216666667,27.316984813333335,5.395102342
273,2.274909,4.607249498333334,0.6522233486666668,-45.0553487,-2.8881781896666667,-1.7239060603333334,14.310876526666666,18.337933223333334,35.231442136666665,1.1323251426666667
274,2.283242,4.727077484333333,0.9233890276666666,-44.983362833333324,0.9123560386666667,-2.603023370333333,11.970127106666666,13.85410118,32.487180073333334,5.534981091666666
275,2.291575,4.825093587333333,1.1835634136666666,-44.9424184,-1.8162738083333334,-1.8939462503333335,13.107376733333334,11.194331803333332,30.912820813333337,1.9162324646666666
276,2.299908,4.8997186023333335,1.4793440303333334,-44.86686196666667,-1.1788522603333333,-1.6486493743333333,15.89866352,8.348982969666666,35.49680074333333,5.721335331666666
277,2.308241,4.925866444666667,1.779694736,-44.82851663333333,-1.347416719,-1.9739444656666667,14.937588693333334,2.549579481,35.69007238,1.1627851526666666
278,2.316574,4.91096131,2.0638094943333334,-44.77688089999999,0.6848860333333334,-1.1163940033333333,13.065742176666667,-2.3967262110000003,33.86166572333334,2.9222285373333334
279,2.324907,4.859969139,2.354965806,-44.755167633333336,-2.736056963333333,-2.0257696309999997,14.56519826,-6.6755212146666665,34.42298889,-0.6744114556666666
280,2.33324,4.769111633333334,2.6701861223333334,-44.713775633333334,-0.5153136003333333,-1.2034662366666666,13.005146344000002,-11.501625696666666,37.45784124,1.3384224573333332
281,2.341573,4.64791282,2.919704795,-44.71732583333334,-0.385873407,-0.882078012,11.402921358999999,-14.991013843333334,29.197164533333336,-3.189513217
282,2.349906,4.528719187,3.1846386196666665,-44.700088500000014,-1.268023193,-1.905655503,13.209656080666667,-14.801816303333334,31.215824126666664,-0.8063619533333334
283,2.358239,4.414510170333333,3.4588666759999995,-44.70447286666666,-0.6821187586666667,-1.0068277123333333,13.495407423333333,-14.147337593333333,32.15643183333333,-3.4170666733333337
284,2.366572,4.283496697666666,3.6584076883333334,-44.69066363333334,0.7359043086666667,-0.09782853766666667,12.687656083333332,-16.202586489999998,23.35824012666667,-0.5179287196666666
285,2.374905,4.155113299666667,3.8917164803333333,-44.7005666,-1.581391871,-0.7082923449999999,13.011095366666666,-15.793924966666667,27.224592843333337,-3.5511410830000005
286,2.383238,4.0192161403333335,4.101251443333333,-44.688273099999996,0.374500416,-0.681924075,11.116691749,-16.79192829333333,24.54310544333333,-0.6770702596666668
287,2.391571,3.875654538333334,4.259327412,-44.70128376666667,-0.28863792633333335,-0.25895441599999997,11.271641731666667,-17.592268306666668,18.211062113333334,-3.173550486666667
288,2.399904,3.7502969106666666,4.4725729623333335,-44.68433633333333,-2.3244680163333333,-1.1409605793333333,12.297133444333333,-15.57806937,25.027011236666667,-0.024418433333333194
289,2.408237,3.6356326736666666,4.604158243,-44.68467713333333,0.9884144763333333,-0.12028046466666671,11.416662851333333,-14.216392196666668,15.144220989999999,-1.3704260986666668
290,2.41657,3.5277438159999996,4.774980465333333,-44.67536926666668,-2.4364315866666666,0.07527532166666669,11.295495351,-13.407150266666667,19.8799874,-0.6182117859999998
291,2.424903,3.4268040660000003,4.953130325,-44.677241,1.8743015926666668,-1.437914927666667,8.337887921666667,-12.550413766666667,20.71205012,-1.8654684626666664
292,2.433236,3.3309233983333333,5.038945277333334,-44.687169399999995,-1.564790214,-0.18219185366666665,11.159592311333332,-11.800163269666667,9.574495474,-2.1654788256666664
293,2.441569,3.260958195,5.233270009666666,-44.686360666666666,-0.8639959096666666,0.24749229333333334,12.993825912,-8.840962410000001,22.668836593333335,-1.5859233946666667
294,2.449902,3.186757485,5.359579563,-44.699651100000004,-1.2594445153333333,-1.1920286813333334,10.629109065,-9.164639633333334,14.410884536666666,-2.8067660333333335
295,2.458235,3.1238676706666664,5.546872775,-44.7017619,-0.8084807196666667,0.046841174333333346,11.290129027333334,-7.942256450666666,21.807282763333333,-1.8190427226666668
296,2.466568,3.071276426666666,5.673971653,-44.724019366666674,-0.7839561303333333,-0.7341516513333334,11.83661397,-6.473644812666667,14.456575076666667,-3.857005119666667
297,2.474901,3.029122034666667,5.834764957333333,-44.719996099999996,-1.2622912623333333,0.08354422833333335,11.874647139666669,-5.525427977,18.674667994666667,-0.8375174206666666
298,2.483234,2.988377412,6.0066684089999995,-44.73819476666666,-0.169392427,-0.44692845166666667,8.454182465666667,-5.083974838333333,19.855604170000003,-3.6390328406666668
299,2.491567,2.9514668783333335,6.115996678666666,-44.74079896666666,0.07205230999999997,-0.684813102,11.677481333000001,-4.806093772333333,12.464464190000001,-1.3159486056666667
300,2.4999,2.9313739143333333,6.279503186333334,-44.75618996666666,-1.0008475783333333,-0.288061368,12.14851443,-2.6368242103333333,18.874125166666666,-3.206502199333333
301,2.508233,2.9057171343333335,6.398380279666667,-44.75827533333334,-0.08017611499999999,-0.315354243,8.902198155666667,-3.4692696333333335,13.61455313,-1.317280531
302,2.516566,2.8915437856666664,6.541360060333333,-44.769734699999994,-1.0227227283333333,-0.9691913923333333,8.612392903,-1.9702560506666666,16.440684636666667,-2.6163240670000003
303,2.524899,2.8902479013333333,6.6086990036666675,-44.77082826666666,0.19429002233333334,0.07306485866666668,11.063415366666666,-0.5421721936666666,7.440308094,-0.8707988249999999
304,2.533232,2.9054553506666667,6.733085791333333,-44.78102619999999,-0.8792680703333334,0.1328934433333333,11.209812322,1.5452345613333334,14.221662840666665,-2.3218200203333335
305,2.541565,2.9156715866666665,6.8188077609999995,-44.782506299999994,0.29625550900000003,-0.8311903973333333,9.053730965333333,0.8355791293333333,9.643034299666667,-1.0444503423333333
306,2.549898,2.946341912333333,6.884126027333333,-44.7881368,-1.3488634526666667,0.23602531366666668,11.058795928333334,3.3359337250000003,7.171247323,-1.4491211373333333
307,2.558231,3.008705457,6.979227860666666,-44.78127036666667,-0.617794281,-0.2220692733333333,11.311598776666665,6.979542414333333,10.817392664000002,-0.10455731533333339
308,2.566564,3.071554581333333,7.037720839333333,-44.78498333333334,0.202911069,-0.7682597613333333,10.506300925666666,7.177967549000001,6.361744403666667,-1.1815976773333332
309,2.574897,3.1390190920000003,7.119146029333334,-44.784077966666665,-0.669295311,-0.5091646063333334,11.760897635666666,7.674712339999999,9.142800966666666,-0.772252167
310,2.58323,3.1995065213333334,7.1368192036666676,-44.78948973333334,0.48984377100000004,-0.9153389136666666,12.56600094,6.918221791333333,1.459477862,-1.1435517670000002
311,2.591563,3.2565748693333334,7.190611998333334,-44.784072900000005,-1.9248578746666667,-1.3534636696666666,13.364719710000001,6.362939198666666,5.861493270666666,-0.052031010666666676
312,2.599896,3.3064634006666664,7.215230465,-44.78029376666667,0.9089675546666666,-0.6977089743333332,11.592979430999998,5.516602039333333,2.351203243,-0.11595137899999997
313,2.608229,3.3398142656666665,7.212303161666667,-44.775019333333326,-0.9591228366666668,-1.3167913356666665,12.95299212,3.5219189326666664,-0.9344627956666667,0.26187135766666664
314,2.616562,3.350592454333333,7.216390132666667,-44.77149453333333,0.24836013699999995,-1.6969821453333331,13.871813456666667,0.832360238,-0.10896295299999999,0.007671480333333351
315,2.624895,3.3522605099999994,7.192151387666667,-44.76960246666667,-0.9381877183333334,-0.46220017466666663,13.294729866666666,-0.2335975386666667,-3.507843901333333,0.038720173000000004
316,2.633228,3.3463933466666664,7.177704175333333,-44.76542156666667,-0.038706531333333315,-0.7888134219999999,12.91383012,-1.1714627243333333,-2.3242655200000004,0.213234226
317,2.641561,3.338486909666667,7.141146500666667,-44.76040653333333,-0.4192762623333333,-1.842471361333333,13.91906198,-1.4339788459999998,-4.959872087,0.49121702733333333
318,2.649894,3.312197526,7.116456349333333,-44.75591023333333,-0.395579199,-0.15877432133333333,14.988271079999999,-3.6132805346666665,-3.5511405469999997,0.3265217143333333
319,2.658227,3.2707740466666664,7.083928267,-44.75538130000001,-1.083740731,-0.777814448,14.825503033333334,-5.396168152666667,-4.504792690333333,-0.09095189966666672
320,2.66656,3.226051410333333,7.048781871666667,-44.7507833,-0.7061538449999999,-1.3538738986666665,14.959230103333333,-5.825104554666666,-4.802242676666666,0.41402856000000005
321,2.674893,3.1685143313333337,6.998134454,-44.752258333333344,-0.5120398503333333,-0.5582526623333334,14.642867723333332,-7.298631350333333,-6.688739458666666,-0.1876455943333333
322,2.683226,3.106873750666667,6.9402111369999995,-44.74947103333333,-0.42113542766666673,-0.7732765676666666,14.759993553333333,-7.824628989000001,-7.545296986666667,0.3315165836666667
323,2.691559,3.0366374653333335,6.869150161666666,-44.7547404,-1.2378561493333333,-1.3005177780000001,15.26255830333333,-8.764611721000001,-9.158233960333334,-0.5227609723333334
324,2.699892,2.9528520903333333,6.784407297666667,-44.76163733333334,-1.1844593483333334,-0.39230938733333326,14.080939610000001,-10.336336452333333,-10.819746016666668,-0.6582646023333333
325,2.708225,2.8736944993333338,6.69362545,-44.776484200000006,-0.9698281090000002,-0.9503081836666666,13.830598513333333,-9.705080668999999,-11.578267096666666,-1.553717077
326,2.716558,2.7999949456666666,6.602374077,-44.786982200000004,-0.538355112,-1.2124379873333333,14.752801576666664,-9.088674387666666,-11.617371876666667,-1.0835421283333333
327,2.724891,2.717565775,6.510204792,-44.80025733333333,-0.9210378326666667,-0.31710399699999997,15.19765409,-10.118930815333334,-11.73241393,-1.3911349376666668
328,2.733224,2.627920866,6.409945647333333,-44.8134867,-1.0133858123333335,-0.7160864669999999,14.936777433333333,-10.972593625666667,-12.70781326,-1.385405938
329,2.741557,2.541601339666667,6.313818455,-44.82830810000001,-0.9724416733333333,-0.5604298613333333,13.764834720000001,-10.567910830666666,-12.211867016666668,-1.5875747999999998
330,2.74989,2.457076112333333,6.232695897666666,-44.841552733333344,-0.22249338533333338,-0.6808155773333334,13.030419349999997,-10.357040405333334,-10.411624271,-1.5337721903333332
331,2.758223,2.382871588,6.160378456,-44.8564911,-0.9187566836666666,-1.1980168223333334,12.852214179999999,-9.119386195666667,-9.353278478,-1.7553010779999998
332,2.766556,2.3237697683333334,6.079394658666668,-44.87131753333335,-0.9354111156666667,-0.8782019613333333,14.830897333333334,-7.286806583333333,-10.399987216666666,-1.7391897836666665
333,2.774889,2.2734346786666664,6.021331628333333,-44.89177446666667,-1.00193731,-0.9263979593333334,15.428311983333336,-6.185718695333333,-7.666435400666667,-2.4918384553333337
334,2.783222,2.2321414149999996,5.959368229,-44.91352336666666,-0.8024485313333334,-0.704722027,15.625080426666665,-5.071209192333334,-8.14715449,-2.6693282126666666
335,2.791555,2.1832992633333332,5.907276312333333,-44.9355367,-0.7875385283333335,-0.43040379866666667,15.94860999,-5.986584345333334,-6.956074873666666,-2.7312031586666667
336,2.799888,2.116173029,5.841496626666667,-44.95789593333333,-0.20734814166666668,-0.9371448956666666,14.97538503,-8.174365679333334,-8.599818229666667,-2.740356365666667
337,2.808221,2.036292513,5.771765073333334,-44.97558083333333,-1.0051879686666667,-1.4203060866666668,13.86801561,-9.768255232666668,-9.046471595999998,-2.1533550023333334
338,2.816554,1.9449875353333332,5.685589154666666,-44.99458823333333,-1.203659157,-1.2676016096666667,14.171813329999999,-11.118403120000002,-11.024279593333333,-2.2588642833333332
339,2.824887,1.8586447240000001,5.593358516666666,-45.00815836666667,-0.808772862,-1.3263605433333332,14.884581246666668,-10.601435026666666,-11.722638763333334,-1.6171465316666669
340,2.83322,1.7624438203333332,5.502652168333333,-45.0226644,-1.5079155366666666,-1.383165042,15.390168826666667,-11.760905903333333,-11.5451657,-1.7372173866666667
341,2.841553,1.6396017073333333,5.406897386,-45.03426613333334,-0.8623746833333333,-1.0228592156666665,15.454701743333333,-15.013831136666667,-12.131613416666667,-1.3936794600000002
342,2.849886,1.4949005843333334,5.3304597540000005,-45.04135636666667,-1.0202332933333333,-1.1831541256666667,14.83152421,-17.66288249,-9.806277275666666,-1.1160723716666667
343,2.858219,1.3203171693333333,5.246437867333333,-45.040201800000006,0.06663415299999999,-0.8166573839999999,14.34553814,-21.357458113333333,-10.68349711,0.04244288799999999
344,2.866552,1.1255439123333335,5.158860842333333,-45.04153953333333,-0.7165614266666666,-1.175464074,13.103728293333333,-23.739569346666666,-11.121093113333336,-0.44704969733333333
345,2.874885,0.9512032570000001,5.067336956666668,-45.03810120000001,-0.41517371966666666,-1.1260476906666668,12.234100342666666,-21.338392893333335,-11.58327484,0.2752591770000001
346,2.883218,0.7876987556666667,4.975145737333333,-45.04692586666667,-0.4590002,-0.5219384283333334,13.719828286666669,-19.900765736666667,-11.689769426666667,-1.3540030716666667
347,2.891551,0.618533224,4.892374118333334,-45.06119286666666,-0.8838341633333333,-0.7577338170000001,13.914119403333332,-20.548072816666664,-10.55734698,-1.9044704833333335
348,2.899884,0.4387341253333334,4.812199910333334,-45.08293153333333,-0.7035365503333333,-0.2616299696666667,12.798538206666668,-21.71652285333333,-10.257716496,-2.9672525723333334
349,2.908217,0.26562255633333337,4.727216800333333,-45.121368399999994,-0.7683091066666666,0.3014413713333333,10.716486930666667,-20.7876784,-10.829593657666669,-4.837310632
350,2.91655,0.09956949933333333,4.641008218333333,-45.16211953333334,-0.9869174756666665,-0.18984072266666666,12.004812556666666,-19.89807065333333,-10.970625239999999,-5.281589508000001
351,2.924883,-0.049067303666666666,4.583044767333333,-45.209584533333334,-1.408171773,-0.48493106166666666,8.839824200666666,-17.78686396333333,-7.560291608,-5.984716892333334
352,2.933216,-0.19763529366666666,4.52321887,-45.25306703333334,-1.1170841853333333,-0.819016258,7.459541003000001,-17.785134,-7.777504284999999,-5.670289039666667
353,2.941549,-0.331117429,4.442672093666666,-45.285527566666666,-0.11129920166666667,-0.3355761863333333,8.497368494666667,-16.113215763333333,-10.251439413333335,-4.236984491333334
354,2.949882,-0.472645904,4.394346396333334,-45.313781733333336,-0.040258874666666666,-0.9269578856666666,6.397273540666667,-17.103056586666668,-6.382480303666667,-3.885543982
355,2.958215,-0.6164211430000001,4.342815955666667,-45.33086649999999,-1.6480277776666667,-0.40582168600000007,6.246052861,-17.51245721,-6.764559110333333,-2.4233121873333334
356,2.966548,-0.7881227533333334,4.272152741666667,-45.335215266666665,1.0473853450000001,-0.603668948,5.697127898666667,-20.922721226666667,-9.085522969333333,-1.0860481956666668
357,2.974881,-0.9580785033333333,4.273028930333333,-45.339197766666665,-1.4966893196666666,-0.9069417716666667,4.508790453,-20.77337328666667,-0.4880280000000001,-0.7900159953333334
358,2.983214,-1.1036852203333334,4.198239167333333,-45.342702233333334,-0.26364711933333335,-0.7268186806666667,4.620258987333333,-17.811222076666667,-9.574074904,-1.0269262393333334
359,2.991547,-1.2537300586666664,4.175375541,-45.3406779,-0.18526953433333337,0.199826859,6.707647880333333,-18.41442871,-3.3541169170000003,-0.13300618033333333
360,2.99988,-1.4122386376666665,4.157450199,-45.34843953333333,-1.4022531903333333,0.09749994433333335,5.131307761,-19.34209887,-2.732578238,-1.4275628623333334
361,3.008213,-1.5717667343333337,4.132582823666667,-45.34491983333333,0.22859561433333328,0.3023239383333333,4.448827584333333,-19.551142373333334,-3.603561004,0.01959073533333333
362,3.016546,-1.7318660816666664,4.109663645333334,-45.35295613333333,-1.2956414619999999,0.07544446233333332,3.672767639,-19.547421136666667,-3.3206431866666666,-1.4882816076666667
363,3.024879,-1.8686891396666667,4.121009747333333,-45.34700013333333,0.2324836653333334,-0.5629390083333333,2.899989148,-16.827453613333336,0.7228380740000001,0.42729671799999985
364,3.033212,-1.9773876273333333,4.1291165350000005,-45.354878766666666,-1.0424921513333336,-0.37330303333333337,4.738726456999999,-13.405374846666666,0.4112323226666667,-1.354929606
365,3.041545,-2.056251287333333,4.150207122333334,-45.34206646666667,-1.139385442,0.772099932,4.813477516,-9.905507725666668,1.853941361333333,1.2885117529999999
366,3.049878,-2.1280005376666664,4.14223059,-45.34355673333334,0.03899415333333334,0.7226012446666666,5.259037574,-9.048549333666667,-1.536952416,-0.6739106179999999
367,3.058211,-2.2112309536666666,4.191001733,-45.332372,-1.3260929386666664,-0.0134087703333333,4.036905169666667,-10.402198316,5.170912901666667,1.2287322679999997
368,3.066544,-2.2973068949999997,4.209224144666667,-45.33101909999999,0.8317900499999998,0.515932729,3.2404007116666667,-10.798526764666667,1.5953015883333332,-0.22114864966666717
369,3.074877,-2.367755015666667,4.282823642,-45.32916256666666,-2.2295738556666667,-1.0854751406666667,1.808955431,-8.780706564666666,8.185956637,0.25336726500000023
370,3.08321,-2.405857801333333,4.304702520333334,-45.32902526666667,0.9011243583333334,-0.11713855233333335,3.503150463333333,-5.033146222666667,2.037283659,-0.33862431866666637
371,3.091543,-2.4306672413333335,4.375993252,-45.3364665,-1.5008146366666668,-0.6512838206666666,3.1702133813333333,-3.2178053456666666,7.955060641,-0.85140093
372,3.099876,-2.449392636666667,4.403046528333333,-45.3433482,0.4131354493333334,0.3496325563333333,4.755525509666666,-2.637715538666667,2.6910698016666665,-1.1290156046666666
373,3.108209,-2.480545203,4.47602733,-45.357091266666664,-0.24411757766666664,-0.23078636333333336,3.6457898516666667,-3.9306328396666674,8.194366614333333,-1.6195460560000001
374,3.116542,-2.527177413,4.521630923,-45.36792500000001,-0.6566687423333333,0.608275555,3.6383879980000002,-5.935723702,4.934160292333334,-1.4850581486666667
375,3.124875,-2.5702877046666663,4.5969604649999996,-45.38726803333333,0.13325150800000016,-1.0005058249999998,2.0677048363333332,-5.329759200666667,8.512683072333333,-2.2763201693333333
376,3.133208,-2.600357294,4.656575282333333,-45.39826963333334,-1.3492625553333335,0.20048146833333333,2.9585979780000002,-3.922470649333333,6.608682569666667,-1.4023496313333332
377,3.141541,-2.630721887,4.725190798666667,-45.42145793333333,0.3164280256666667,-0.9877654266666666,2.6940874653333338,-3.784247239333333,7.738765716333333,-2.7504566906666668
378,3.149874,-2.652250846333333,4.78036499,-45.42416893333333,-0.33624120566666676,0.6800541676666668,3.525437911333333,-2.9542008239999995,6.023554642666666,-0.40618634233333334
379,3.158207,-2.686356942,4.841888507,-45.44971213333333,-0.453591347,-0.352112919,3.065620859333334,-4.221550305666667,6.910332441333334,-3.0781396233333336
380,3.16654,-2.7207206093333327,4.9000240963333335,-45.444661466666666,-0.12166579566666676,-0.39670898499999985,3.1622054573333336,-4.555786609666666,6.3299695353333325,0.5527978886666666
381,3.174873,-2.7600571313333333,4.954427957666667,-45.465952566666665,0.17554255333333332,0.4551688236666666,2.8920050463333333,-4.900566577666666,6.038047631666667,-2.584672530666667
382,3.183206,-2.8133390743333333,5.012437502666667,-45.455846166666674,-0.9355470340000002,-1.228749911,2.5402980643333333,-6.8799157143333325,6.284175492,1.1782762406666667
383,3.191539,-2.8476252553333334,5.048269033666667,-45.46631876666666,0.8597105740000002,-0.0075395703333332635,1.5865321956666667,-4.397511641,3.75014174,-1.3843298953333332
384,3.199872,-2.8967235086666663,5.105760732999999,-45.46194966666667,-1.3546295676666666,0.9679875773333334,2.468633254,-6.313346068,6.252909342333332,0.502529979
385,3.208205,-2.9388766289999997,5.1345906260000005,-45.4683024,1.1574979326666666,-1.9226100643333333,2.776503165333333,-5.402136325666667,2.891117145666667,-0.9273336133333333
386,3.216538,-2.9808786706666663,5.187579472666666,-45.467971799999994,-1.889066603,1.0983751416666667,3.3015544019999994,-5.404006322333333,5.732765038666667,0.017588516333333287
387,3.224871,-3.0454838276666667,5.206724325666666,-45.46836856666666,2.0183825890000002,-0.43784135566666665,2.318565726333333,-8.166950066666667,1.6979719723333335,-0.2908496856666667
388,3.233204,-3.106068054666667,5.236259142333333,-45.456960066666674,-1.5136243946666668,-1.9043265980000001,2.0013807813333333,-7.7571687696666665,2.849780202,1.2043728433333334
389,3.241537,-3.1622358163333337,5.2455161409999995,-45.45651246666666,1.1378094950000002,1.766314149,2.030752420666667,-7.157207012333333,0.5073795716666667,-0.27066997700000006
390,3.24987,-3.219409148,5.257909616,-45.4492086,-1.3648662366666668,-0.5122820933333333,3.2853194873333336,-7.3043516476666674,0.8208679356666669,0.617550691
391,3.258203,-3.2700127763333335,5.256866295999999,-45.44859313333333,1.3263358576666666,-1.9623334406666668,3.564657052,-6.484748284000001,-0.7315385343333333,-0.2900428573333333
392,3.266536,-3.3254119553333332,5.2556360563333335,-45.45457966666667,-1.7136257090000002,2.217716376,3.9828021526666664,-6.943157354999999,-0.7197431326666667,-1.0762717823333334
393,3.274869,-3.395755926666667,5.235251426333333,-45.464950566666666,2.0669194456666666,-1.4227438566666668,4.345959743,-8.722416720666667,-2.9717212913333335,-1.772462567
394,3.283202,-3.4447597663333327,5.211512565333333,-45.48627726666666,-2.0625380276666667,-0.9329176743333334,3.7446651459999996,-6.027678489666667,-3.301205476333333,-3.054437796333333
395,3.291535,-3.515492519,5.141454061,-45.4925537,2.7572922703333336,2.0961221853333334,5.774219036000001,-8.802529970666667,-8.949931462666667,-1.6668978533333334
396,3.299868,-3.5845052403333333,5.071848074666667,-45.51985166666666,-2.337594191333334,-2.5080904166666667,4.716245969,-8.392296630999999,-8.739319085666667,-4.084766785
397,3.308201,-3.6451595623333333,4.934691270333333,-45.5021515,4.171459516,0.31779285266666674,6.603083292666667,-7.846287250333333,-17.16382694,0.6827861466666668
398,3.316534,-3.727537711666667,4.827560504333333,-45.51701353333334,-3.676731189333333,0.10412943366666665,8.088630358333333,-10.141348837333334,-13.315528233333334,-2.912710488
399,3.324867,-3.7811169626666667,4.593518575333333,-45.472554499999994,5.205841859,-1.7029613603333333,7.910689671666667,-7.226354201333334,-28.97759565,3.0052485490000005
400,3.3332,-3.847863912333333,4.4066776433333334,-45.4802195,-3.5153265796666666,1.3812814156666666,10.844011943,-8.356400967666668,-22.898372013333333,-2.7986335356666667
401,3.341533,-3.935957273,4.155488411666666,-45.42960103333334,2.4699832996666666,0.8819905120000001,9.700926461333333,-11.366097767666666,-31.095173516666666,3.5551915966666665
402,3.349866,-3.978423357,3.920655965666667,-45.4329885,-2.7164617779999998,-1.2655763626666667,8.918395041333333,-5.489193916333332,-28.671394986666666,-2.7424878276666664
403,3.358199,-3.997169892,3.645472447,-45.3895416,2.0289248226666667,1.2321378983333335,11.560518263333334,-2.9167731999999997,-33.92078908333334,2.4432271323333334
404,3.366532,-3.9876424473333336,3.378009478333334,-45.4020691,-3.0331048173333333,0.5118775963333334,13.481583276666667,0.77930669,-32.49412981333333,-4.049758116333333
405,3.374865,-3.9291771253333327,3.1672877469999996,-45.36360676666667,-0.7019089063333334,-0.12010851533333333,10.657883325666667,6.425612449666666,-26.16264470333333,2.3933698336666662
406,3.383198,-3.869021256666667,2.9146578709999997,-45.3793691,-1.631844203,0.9929923216666666,13.852188746666668,6.8905463209999995,-30.70502917,-4.2873528
407,3.391531,-3.773522138666667,2.7100109260000003,-45.3608551,-2.073787053333333,0.3482571443333333,12.466882707000002,11.006457010333333,-25.269696553333333,0.1714950403333333
408,3.399864,-3.6572379273333335,2.579768419,-45.38419089999999,-1.4745097163333334,-0.5723065186666666,10.679995060666664,13.658313113333335,-16.001091956666667,-4.228643496666667
409,3.408197,-3.5242231690000003,2.3811091186666666,-45.37430826666667,-1.9251209100000002,-0.005863696666666677,13.834040006666667,15.56441498,-24.479463263333333,-0.7707963783333334
410,3.41653,-3.3852778273333333,2.3257002829999998,-45.39033,-2.5806907813333333,-0.5148929703333334,14.594268480000002,16.31833839333333,-7.1133706163333335,-2.641587734
411,3.424863,-3.259226719333333,2.291692257333333,-45.38497926666667,-1.8669507106666667,-0.883407672,12.275150298,14.742135046666666,-4.727692683666667,-0.003005623999999744
412,3.433196,-3.1354564030000005,2.250723998,-45.390940366666676,-1.1413010356666666,-0.05208472933333332,12.404218039333335,14.452194533333333,-5.462112704999999,-1.3677832283333338
413,3.441529,-3.0006306963333333,2.289949735,-45.38051863333333,-4.206739425666666,-0.793553442,15.696518900000001,15.757850329999998,4.022618373333333,1.0724169413333333
414,3.449862,-2.8852125806666664,2.386870265,-45.3742523,-0.7660611569999999,-0.6647832503333334,14.067762695666666,13.408539136666667,10.969730376666666,0.9888677000000001
415,3.458195,-2.79622825,2.4751105706666667,-45.365987133333334,-2.087922096333333,-1.165933788,12.154194831,10.256429034333333,9.919857501333334,1.0509563683333334
416,3.466528,-2.7179898419999997,2.6452945469999998,-45.3564097,-1.7487027446666668,-2.0083995463333335,13.614234923333333,8.931111335666666,19.733006160000002,1.7710501353333334
417,3.474861,-2.657229661666667,2.824597358666667,-45.35102843333333,-3.235459566333333,-0.176298837,14.674447376666668,6.873186111333333,20.854927696666667,1.2094149813333332
418,3.483194,-2.6206544236666667,3.017208178666666,-45.341451,0.023033062666666677,-1.0145098666666665,13.847141899999999,3.937819083666666,22.4196771,1.8265391983333332
419,3.491527,-2.593456427,3.2343835829999996,-45.3419749,-2.225726056333333,-1.5724799436666663,14.938131016666665,2.861431916666666,25.431310016666668,0.7232141493333333
420,3.49986,-2.6047687526666667,3.5018290679999997,-45.3415324,-1.7214354080000003,-0.5648439226666667,15.455730119999998,-1.7404290236666666,31.437184650000006,1.134485344
421,3.508193,-2.6577217579999997,3.769730329666667,-45.35082499999999,-1.6708935893333334,-1.6868797540000002,14.789758363333334,-6.698991457666668,31.563414253333335,-0.05638972933333338
422,3.516526,-2.738559882,4.0463174183333335,-45.35711666666666,0.1650880776666667,-1.5384117663333334,13.814181963333333,-10.026971498333333,32.56714821,0.4204196630000001
423,3.524859,-2.8673353990000003,4.316789070666666,-45.37752786666667,-1.4665670396666666,-1.2630400853333335,14.366809846666667,-15.686529476666665,31.93326123333333,-1.2789756456666665
424,3.533192,-3.021378199666666,4.610007842333332,-45.39515686666666,-1.0740488966666666,-2.473566532,13.783355076666666,-18.69664065,34.62570826333334,-0.675025508
425,3.541525,-3.185842593666667,4.861278852,-45.4248047,-1.4060957433333332,-1.0221274446666666,14.59722328,-19.856509526666667,29.69858169666667,-2.3282512426666666
426,3.549858,-3.3821860156666665,5.134107589666667,-45.45218403333334,0.18937043333333334,-0.9055485676666667,15.745496113333333,-23.64086024,32.25084622666666,-1.785502255
427,3.558191,-3.6113613443333334,5.378849029333334,-45.49158733333334,-1.229568253,-1.9959946473333332,15.590196926666666,-27.498848600000002,29.003002170000002,-3.3248006303333333
428,3.566524,-3.8473899363333337,5.6436875660000005,-45.512395233333336,-0.9186978339999999,0.47916897633333333,16.35759703333333,-28.452255250000004,31.25690460333333,-0.8231401903333334
429,3.574857,-4.10422651,5.887501557666667,-45.55124916666667,-1.4174252349999998,-0.0034246843333333534,15.776471773333332,-30.781665163333333,28.908375423333336,-2.994923532
430,3.58319,-4.372235775,6.138801733666667,-45.56892906666667,-0.1774419846666667,-1.8815182046666665,14.958709399999998,-32.310944236666664,29.612586340000004,-0.2895351796666666
431,3.591523,-4.639470259333334,6.365612189,-45.5932261,-1.5480641523333334,-0.739012897,14.637473423333333,-32.19258054,26.76598739666667,-1.1552676359999998
432,3.599856,-4.898236751333333,6.587207476333333,-45.596516933333334,-0.9753465653333334,0.30392239000000004,15.488711039999998,-31.36099624666667,25.913449603333333,1.4144546589999998
433,3.608189,-5.150137424333334,6.806526342999999,-45.62473043333333,-1.3112403353333333,-0.4166866393333333,15.75120767,-30.273795446666668,25.91514651,-1.435820857666667
434,3.616522,-5.398254712333333,7.020567258333334,-45.639038100000015,-0.9922644096666667,-0.10141479000000002,14.94804414,-29.92730331333333,25.11623955,0.2575858433333334
435,3.624855,-5.631110668333332,7.219328880333333,-45.67440796666667,-0.5842589340000001,0.934956054,14.667073566666668,-27.85279973333333,23.54849752,-2.2790551546666666
436,3.633188,-5.841478665666667,7.422040303333333,-45.70196023333333,-0.25712536399999997,-0.31840484333333335,14.035510696666668,-25.187664029999997,23.918249133333333,-1.2487463076666667
437,3.641521,-6.030944665333333,7.596879482666668,-45.74346416666666,-0.9013768236666667,-0.5467700956666667,14.97438113,-22.520255406666664,20.78175163,-3.1104202666666665
438,3.649854,-6.185369173666667,7.757696946666667,-45.77246093333333,-1.1149632336666666,-0.16348119433333333,15.284823100000002,-18.448083243333333,18.945243836666666,-1.7744868996666667
439,3.658187,-6.312306722333332,7.882757028333334,-45.80883789999999,-1.023616453,0.9843623836666667,15.638542809999999,-15.066836676666666,14.7920599,-3.046421607333334
440,3.66652,-6.411847909333333,7.994867801666667,-45.8370921,-0.4584352126666667,0.12911809,15.410159746666665,-11.855800627666667,13.134228706666667,-2.258903225333333
441,3.674853,-6.499907493666666,8.090858300666667,-45.87476603333334,-0.7612997493333333,-0.03109510733333333,15.311239239999999,-10.365400312666667,11.351843199000001,-3.516152302666667
442,3.683186,-6.592620849666666,8.190730253666667,-45.91100056666667,-1.3869217636666669,0.4914633929999999,15.326763153333332,-10.898227058000002,11.789624213333333,-3.3011204403333334
443,3.691519,-6.672475020333334,8.274499257333334,-45.9546814,-0.9302701353333332,-0.3135084756666667,14.192318916666665,-9.258889994666667,9.987551054333332,-4.3588090736666665
444,3.699852,-6.738549232666667,8.351316769999999,-46.005935666666666,-0.8135866323333333,-0.7813409266666667,13.227557500000001,-7.423553626,9.255556424666667,-5.349816004333333
445,3.708185,-6.783671538,8.395720640666667,-46.06568909999999,-0.104041661,-0.15257703766666667,13.149257976666666,-4.801866849333334,5.529640039,-6.776400407000001
446,3.716518,-6.802624384666667,8.436424573,-46.1285909,-0.5111047926666666,-0.6376323673333334,13.374711356666667,-1.5568462013333333,5.130732456666667,-7.2470361389999995
447,3.724851,-6.803680896666667,8.441961447333334,-46.186808299999996,-0.4423506556666667,-0.3541377783333333,14.716687836666667,0.4636345903333334,0.8854757946666667,-7.1423759460000005
448,3.733184,-6.792212326999999,8.434591452333335,-46.24162289999999,-0.6790034176666667,-0.202521026,14.159534136666666,1.9409913223333335,-0.7119135583333334,-6.934695720666666
449,3.741517,-6.780708472333333,8.418872515666665,-46.29518126666667,-0.10971107566666667,-0.880612314,12.948282563333334,1.8858398573333333,-1.7151507339999998,-6.893768469333334
450,3.74985,-6.753161271333333,8.380176544,-46.340983066666666,-1.0561198593333334,0.03981216733333335,12.554957709999998,3.698828260333334,-4.573840300333333,-6.286331812333334
451,3.758183,-6.723588943333333,8.329942226333333,-46.38193256666667,-0.5436743549999999,-0.07201098900000001,11.769722938666666,3.828197081666667,-6.011251449666666,-5.881438573333333
452,3.766516,-6.68688186,8.276410738666668,-46.41201276666666,-1.462267150333333,-0.5408198333333334,11.392178853333334,4.5079902013333335,-6.565286954333334,-4.624035199333334
453,3.774849,-6.628017107666667,8.240622202666666,-46.42867026666667,-0.33265592633333335,-0.35958250866666663,8.787906806,6.911561330333334,-4.632760842333333,-2.7855734426666667
454,3.783182,-6.577475388666667,8.203730106333333,-46.440734866666666,-0.8352664610000001,-1.0139564873333333,7.572981675333334,5.855478286666667,-4.8359551430000005,-2.2595001063333338
455,3.791515,-6.5303872426666665,8.148885567666667,-46.43204753333333,-1.266948499,-0.6540555606666667,9.936026254,5.054717699666667,-7.248794398,-0.06246884666666667
456,3.799848,-6.486285368666667,8.234934488666667,-46.433349633333336,-1.8012205363333333,-1.4676663476666665,6.361576239333334,4.894078096,9.675189336333334,0.6880325776666667
457,3.808181,-6.467548847000001,8.184822082333334,-46.4069519,-0.303629478,-0.690328876,8.824728806666666,1.3767055866666666,-6.928847312666666,2.093669216
458,3.816514,-6.483536402333333,8.290717919666667,-46.39780679999999,-0.6167434749999999,-1.4562945363333333,6.207890431,-2.512859106,11.905791916666667,2.1898507276666668
459,3.824847,-6.493231773333334,8.314574082666667,-46.37686156666667,-0.7054942846666666,-0.8267947433333332,5.182267427333334,-1.95267572,1.9630196293333333,2.4623519579999997
460,3.83318,-6.508412997000001,8.377822558,-46.3660329,-0.12699042766666668,-0.3212733466666667,5.315612793333334,-2.4166177906666664,6.788493951,1.8189139466666668
461,3.841513,-6.552995046333334,8.395164807333334,-46.356572466666655,0.8773221969999999,-1.2080247203333332,6.4574135146666665,-5.966370821333332,1.3456096646666669,1.013316147
462,3.849846,-6.588445186666667,8.466738065333333,-46.354298899999996,-1.4576640526666667,-0.6347038943333333,5.742870013,-4.694415092666667,7.895285367666666,0.9334768453333332
463,3.858179,-6.6094789506666665,8.433724403666666,-46.34116616666666,1.980739911,-0.4765588963333333,5.740947087666666,-3.1938563586666664,-4.709937572333334,0.7420060190000001
464,3.866512,-6.648892879333334,8.451748212,-46.339950566666666,-1.2001077926666668,-0.22180262166666667,7.472815235666666,-5.184474627,1.5375882286666667,0.06104301400000001
465,3.874845,-6.698108355333335,8.394677638666666,-46.31111656666667,1.2953684726666665,-0.352256446,5.483887434000001,-6.822847207333333,-7.804461002333333,2.2627060606666665
466,3.883178,-6.726754029666666,8.379578431333334,-46.298014333333334,-0.749503489,-0.6857667166666667,5.706462383333334,-4.112425168333334,-2.5693639913333333,0.9827713566666668
467,3.891511,-6.746042410666667,8.279799461666668,-46.25669353333333,-0.32921973866666665,-0.23548038566666665,6.189053376666666,-3.459245602333334,-13.065379143333333,3.1234726906666666
468,3.899844,-6.793437163,8.295791626,-46.22950743333334,-0.8858475513333334,-0.35352357733333334,5.552104671666666,-6.574871063333333,0.9253952900000003,3.1130256653333332
469,3.908177,-6.853973388333333,8.212488969333334,-46.1856842,0.371927659,-1.244606773,5.152808586666667,-8.462705452333333,-11.136874517999999,3.6296529770000006
470,3.91651,-6.88841184,8.201106230333334,-46.15338643333333,-2.754958669333334,-0.7618014909999999,5.138680299,-5.096840223,-2.4149916323333334,3.3241087196666665
471,3.924843,-6.936484814,8.149130821333333,-46.110687233333344,1.5873091419999998,-0.035511235333333335,5.041950623333333,-6.921137650666666,-7.401908556333335,3.9311153890000003
472,3.933176,-7.01057895,8.129910628,-46.091038999999995,-2.208475987,-1.4158326586666667,5.183269898333333,-9.671171507666667,-3.161031683333333,1.6983092526666665
473,3.941509,-7.094513416333332,8.123952070666666,-46.04911296666666,1.2275805173333334,-0.6027726306666666,4.385413408333333,-11.168380737666666,-1.934882561,4.5290504196666665
474,3.949842,-7.184145609333334,8.091149807,-46.04142253333333,-1.708363495666667,-0.08439229566666666,4.971702893333333,-11.365021386666667,-4.598046303,0.07233889900000001
475,3.958175,-7.2748138110000005,8.079506079,-46.0032603,-0.16111603400000005,-0.8905318276666666,3.950463295,-11.877019883333332,-2.580322822333333,4.002187252
476,3.966508,-7.373241742333334,8.028676033,-45.99842833333333,0.3008260426666667,-0.18735733766666665,4.618573347666667,-12.40461318,-6.691493829333333,-0.5753130909999999
477,3.974841,-7.468262672666667,8.014337063,-45.9628957,-1.5662610133333335,-0.28239719066666663,3.4833997886666666,-12.330473266666667,-2.881038229,3.6538720133333324
478,3.983174,-7.567488034666667,7.954013824666667,-45.95402523333333,2.267591238,0.07631762833333335,3.8515375456666665,-12.592430113333334,-7.8779926300000005,-0.25797319399999924
479,3.991507,-7.674096902,7.928617318333334,-45.92365013333333,-2.767605463666667,-0.584994773,3.177264134333333,-13.614866256666668,-4.135009209,2.8745574956666666
480,3.99984,-7.776594003,7.856376012000001,-45.90547183333334,3.062227646666667,-0.3082738333333333,2.671137293333333,-13.148183186666666,-9.442553838333334,0.623771508333333
481,4.008173,-7.863091786666668,7.814116954666666,-45.87886556666667,-3.5123168626666668,-0.80019478,2.796273231666666,-11.125451088333334,-6.092065016666666,2.148787179666666
482,4.016506,-7.935295741,7.736249764666667,-45.853296900000004,3.0195512373333333,0.6609143813333334,3.5680399736666666,-9.619128543666667,-10.236551601333334,1.3747550656666665
483,4.024839,-8.012122949,7.682416121333333,-45.83293153333333,-3.027583043,-0.35122813766666666,3.3179419440000006,-9.864633239666666,-7.364999453,1.1742755576666664
484,4.033172,-8.082943280333334,7.6159669559999985,-45.80395000000001,2.113305827,0.73316133,3.159960587666667,-9.485047340666666,-8.946738083666666,1.9552079050000002
485,4.041505,-8.150594075666666,7.566354433666667,-45.7912445,-2.9012289046666666,-0.6725566786666667,2.592023531666667,-8.677259286666667,-6.730168183333333,0.3273162046666667
486,4.049838,-8.198002020333332,7.518805822,-45.7583567,1.713089943,0.24622875433333333,2.4228498143333335,-6.678698539666667,-6.789071400666667,2.7286512329999995
487,4.058171,-8.235697110666667,7.464367230666667,-45.772115033333336,-3.1429041226666663,-0.3789211513333333,2.960186004666667,-4.699170350666667,-6.844943999999999,-2.881178632333333
488,4.066504,-8.259459336666668,7.427446683666666,-45.74457803333334,3.0890802543333336,0.7275370356666667,3.4145646886666667,-3.7265297720000006,-5.447209040333334,2.2774942713333335
489,4.074837,-8.283448855333333,7.375580946333334,-45.7765757,-3.4814384776666665,-0.5660331249999999,2.5054784216666666,-2.811879635,-6.2144237360000005,-4.996287028
490,4.08317,-8.299338341,7.343145211666666,-45.753122966666666,2.010088205,0.025969902666666694,1.7101595403333334,-2.6874159973333334,-4.855596701333333,1.8756920696666668
491,4.091503,-8.308233738,7.283516725000001,-45.78461713333334,-1.061534961,-0.08452784533333334,1.8956131139999997,-1.0364588496666667,-7.139200131,-5.055234432333333
492,4.099836,-8.302540302333332,7.248821576666667,-45.7689921,0.26678341133333333,0.24095281466666663,1.815318624333333,0.037059625000000075,-4.991173426333333,0.9127974906666667
493,4.108169,-8.278224468333333,7.184793790333333,-45.7910614,-0.7615066669999999,-0.3505007226666667,1.3633045156666668,2.781313379666667,-7.818827311333333,-4.0242744586666666
494,4.116502,-8.249018351333332,7.148414294000001,-45.76795453333333,0.6921238503333335,0.6697379053333333,2.913253546,2.777727454666667,-5.326194763,1.7657896676666667
495,4.124835,-8.202857017333335,7.083900292666667,-45.779698700000004,-0.7478239636666667,-0.155267661,2.1913282473333333,5.217095057333332,-8.045628548,-2.8182964326666666
496,4.133168,-8.147010644333333,7.052678426333333,-45.75188193333333,-0.8239566336666666,-0.23302798100000002,2.5609885453333336,5.928197701999999,-4.7973545390000005,2.418052037666667
497,4.141501,-8.076975663333334,6.988659382000001,-45.74660236666666,1.7830320400000002,0.40474212666666665,3.3037947813333335,7.815464018999999,-8.275038878333334,-0.7769864403333339
498,4.149834,-8.011377970333333,6.957586765333333,-45.7201284,-2.2539015213333333,0.06536043033333339,2.783324361,7.123349507666667,-4.753763159,2.2930978136666664
499,4.158167,-7.941220601333334,6.901820659666666,-45.70454406666667,1.9447535126666666,-0.9231444496666666,1.3114685216666666,7.687246958666667,-7.465602238999999,0.5923853713333335
500,4.1665,-7.859831333,6.869758765,-45.67874653333334,-2.50753432,0.5625629523333333,2.307696958333333,9.028476873,-4.850346645,2.19553264
501,4.174833,-7.775227864333334,6.833160877333333,-45.660283400000004,2.0155329903333334,0.513986697,1.9892678063333333,9.396622976,-5.235533555333333,1.2538557846666667
502,4.183166,-7.677510261666666,6.819248358666666,-45.64555360000001,-3.535921693,-0.9978107416666667,2.593687295666667,11.144024213333333,-2.5061395963333335,1.2004283266666667
503,4.191499,-7.585153898000001,6.809239228333333,-45.63530983333333,2.268514395,0.0037590066666666846,3.1838239033333333,10.456915221333334,-1.9428997836666666,0.730829994
504,4.199832,-7.488156159666667,6.809012731,-45.63822936666667,-2.571042935,-0.01195393766666668,2.724354227333333,11.29325358,-0.5907582343333333,-0.6718443233333334
505,4.208165,-7.4110682803333345,6.8139734270000005,-45.6411133,1.2990922930000002,-0.505545159,3.3962326050000002,8.842051982666666,0.036961297333333344,-0.6035226983333333
506,4.216498,-7.341743151666667,6.839564800000001,-45.665639266666666,-2.197425922,-1.5238894719999998,2.5564690433333332,8.23607874,2.8248405059999997,-2.8282686073333334
507,4.224831,-7.2712017693333335,6.865619341666666,-45.668818166666675,1.283503592,1.1514947216666667,2.9409976006666665,8.091405232666666,2.5429174903333336,-0.33470127000000005
508,4.233164,-7.222607295,6.899775187333333,-45.699335733333335,-2.204297463,-1.3537243840000002,3.6896137396666666,5.811788718,3.9409083526666664,-3.4390784999999995
509,4.241497,-7.167730331333334,6.949015617333333,-45.68980916666667,1.5235243636666667,-1.018594861333333,4.2602075736666665,6.053454955333334,5.1074442866666665,1.5043283303333332
510,4.24983,-7.120896339333334,6.987900098,-45.72322590000001,-1.7887723446666666,1.3684564133333332,5.381742795000001,5.619153340666666,4.547863165333333,-3.7015349866666667
511,4.258163,-7.097859223333333,7.0302639010000005,-45.7001648,1.088731428,-2.0596303546666666,5.613525232,2.0574037433333334,4.080053806333334,3.0232574940000005
512,4.266496,-7.061848322333333,7.034003893666667,-45.72313436666666,-0.828536287,-1.1391456123333334,4.926339546666667,4.130030949999999,0.2105960050000002,-2.9426403046666665
513,4.274829,-7.045649369666667,7.043108145666667,-45.681366,1.9455509583333335,1.1479035220000002,7.656518300333334,1.0026990773333333,-0.15804843099999996,4.7025480286666665
514,4.283162,-7.020222187333334,7.008689721333333,-45.6978709,-0.7633933823333333,-2.6179109413333332,7.246728261333334,2.7367236616666664,-4.407788474,-2.828617732333333
515,4.291495,-6.968476295666666,6.9348608653333335,-45.63455706666667,1.673005601,0.7222367526666668,8.504711468666667,4.991685708333333,-10.343496003,5.971726416666667
516,4.299828,-6.991033236,6.7916131019999995,-45.6295522,1.215902537,1.19635426,11.627527873333333,-3.337232788,-17.680440903333334,-1.8586966183333338
517,4.308161,-7.005016962666667,6.717001279000001,-45.58058673333333,-2.0797092913333333,-2.3625654776666667,5.945574681,-2.6818702516666666,-10.231385707666666,4.291528067000001
518,4.316494,-6.962241490666667,6.439823309666667,-45.55294803333333,3.941091537333333,0.5842919946666667,12.061183450666666,4.229038635999999,-33.972541809999996,-1.1118176780000002
519,4.324827,-6.913367589333333,6.3128404620000005,-45.51771546666666,-4.473639806,0.006658991333333327,11.717264614,5.051098823666666,-16.259778023333336,1.940080324666667
520,4.33316,-6.8657320340000005,6.037743886333334,-45.487202966666665,3.686359723666667,0.010536074999999942,10.699887198333334,4.817695816,-33.76980336333334,-0.6979598996666668
521,4.341493,-6.752140839666667,5.854058106666667,-45.45620726666667,-4.890143950666666,1.4099373716666668,10.746822674,12.875401816666667,-22.947512943333333,0.7028180760000001
522,4.349826,-6.640387535333335,5.6479795773333334,-45.43057756666667,2.777969603666666,-0.1891727473333333,11.888099989333334,12.616244954,-25.48175367,-0.21038381299999998
523,4.358159,-6.498727003666667,5.3952713013333335,-45.40038046666666,-4.507053097,0.04622436333333335,13.893449466,16.27355639,-31.1563708,-0.2736124993333335
524,4.366492,-6.316624641333334,5.29283762,-45.3824056,0.4763389823333335,0.11875013533333334,10.398278553666666,21.17243448666667,-13.028099696666667,0.4425673883333336
525,4.374825,-6.149098078666666,5.070755640666666,-45.36817930000001,-2.343880931333333,-2.24834768,13.562908809666666,19.564611436666667,-27.28805987,-1.6117127413333334
526,4.383158,-5.991891860999999,5.003003915333333,-45.358215333333334,-2.627058705,0.05925204333333333,16.32715384133333,18.29891332,-8.794573942333333,0.029546220999999928
527,4.391491,-5.855809371,4.897842089,-45.368021633333335,-1.6169829366666668,-1.3493141036666667,13.580423356333332,16.01996358,-13.031981149666668,-2.8835403520000003
528,4.399824,-5.731364091,4.860401073999999,-45.36298116666668,-1.5770050483333333,-1.2343890073333332,14.988885243333334,14.420830409999999,-5.118519697666667,-0.1431876223333334
529,4.408157,-5.632546901666667,4.899918,-45.387624100000004,-2.9495817026666664,-1.3050493996666666,12.828934988999999,11.678902309333333,4.414925993,-2.868812084
530,4.41649,-5.577211697999999,4.891897678333334,-45.38267513333333,0.17772809633333334,-1.7066388129999999,14.355030696666667,6.162644863333334,-1.6052484509999998,0.11017537100000001
531,4.424823,-5.536365986,4.976729869666666,-45.40570576666667,-3.7217014626666667,-2.3289728960000002,15.717694283333332,4.685121695,9.804545240666666,-2.1186988353333334
532,4.433156,-5.537054856666667,5.05766805,-45.402531966666665,0.02866088966666667,-0.7365812463333334,15.886473016666665,-0.530005574,9.030764262,0.9702587523333334
533,4.441489,-5.562359015333333,5.111525535666666,-45.42696123333334,-0.8549509743333333,-1.4576692976666668,13.735230446666668,-3.2376394273333333,6.125119050333333,-2.674416174333334
534,4.449822,-5.600160281000001,5.177508831333333,-45.4296061,0.144090208,-0.7280679343333333,15.123121896666666,-4.920973142,7.313713868333334,0.11629724499999987
535,4.458155,-5.656789144,5.260107994,-45.462712599999996,-1.414629797,-0.3399634313333333,15.46288681,-6.899272441666667,9.665033340333332,-3.3684944513333335
536,4.466488,-5.7363419533333335,5.332539558333333,-45.478317266666664,-1.0509049793333334,-0.7656889356666666,15.341765723333333,-9.775631589666666,8.234418549666666,-1.343261987
537,4.474821,-5.828848044,5.399008433333333,-45.518229166666664,-0.986449485,-0.3741187403333333,14.858713790000001,-11.119167966666666,7.828766185666666,-4.344644943666666
538,4.483154,-5.935720126,5.503111839333333,-45.5449829,-2.4856916666666664,-0.9831285876666666,14.345801356666668,-12.932289759999998,12.156105676666668,-2.241135061
539,4.491487,-6.037588119666666,5.618028958666667,-45.592025766666666,-2.297792991,-0.538591693,15.148954073333334,-12.145001726666665,13.712341306666668,-4.543394963
540,4.49982,-6.129692554666668,5.777437369,-45.62790426666666,-3.0328597226666667,-0.0859617196666667,14.791024523333334,-11.033121746666666,18.875977836666664,-2.585493187333333
541,4.508153,-6.210094611,5.927100817666667,-45.676859533333335,-1.0090765953333334,-0.8058017493333333,15.076422373333335,-9.520895798,17.894699096666667,-4.269975642333334
542,4.516486,-6.28958114,6.122971693666666,-45.71450806666666,-0.7937378483333332,-0.28655235966666665,14.583857216666667,-9.474745432666667,23.254713693333333,-2.267057617666667
543,4.524819,-6.373639742333334,6.320223172666668,-45.76851906666666,-0.5099518993333333,0.07136045900000003,14.732851026666665,-9.853247005666667,23.64714813333333,-4.196262955666667
544,4.533152,-6.435074488000001,6.537412643333333,-45.80620826666666,-1.438699722,-0.8446635803333334,16.087321916666667,-7.294793766333334,25.808181763333334,-1.9294872680000001
545,4.541485,-6.492112318666666,6.759514967333334,-45.8507131,-0.3150071353333333,-0.265250226,16.33708191,-6.695189634999999,26.491561253333334,-2.6670967739999996
546,4.549818,-6.5496497153333335,6.965692838,-45.882797266666664,-1.6942950490000002,0.5771945913333334,15.973359109999999,-6.872431755000001,24.425558726666665,-1.3744692203333333
547,4.558151,-6.584527969333333,7.1873203913333334,-45.91242976666666,-0.7060760159999999,-1.210500439,14.807749746666667,-4.213561614333334,26.240030289999996,-0.8977923393333334
548,4.566484,-6.595240752,7.382182439,-45.92772926666666,-0.8429591056666667,-0.26489676033333337,15.574555080000001,-1.4890459380000003,22.850047426666666,0.4919130803333333
549,4.574817,-6.592450300666667,7.581339518,-45.93571983333334,0.008891065999999967,0.4900525213333334,15.042800266666667,0.004836777666666681,23.260523476666666,1.3967661956666666
550,4.58315,-6.565343221,7.7715457279999995,-45.931442266666664,-1.1798030933333334,-0.581381281,15.622071583333332,2.736104647,22.03328387,2.7330100536666664
551,4.591483,-6.538437684333334,7.936025778333334,-45.913691199999995,0.12296018000000002,0.5261197983333333,16.329120636666666,2.482220739,18.777704240000002,3.9576350849999997
552,4.599816,-6.5201387403333335,8.090755304,-45.8861135,-0.6956534486666667,-0.7519332686666668,14.545926096666667,1.2781846326666666,17.492644626666667,4.993953228
553,4.608149,-6.484378337666667,8.202610492666667,-45.83907573333334,0.16449286066666666,-2.0071202513333337,14.059587160000001,3.0486793916666666,12.109221773333331,6.680582046333334
554,4.616482,-6.4326423010000005,8.279886404666668,-45.79201253333333,-0.6973902829999999,-0.5137088976666667,15.121050836666667,4.938121874999999,8.007125854666667,6.2350560826666666
555,4.624815,-6.394842942666667,8.307109673666666,-45.727813733333335,1.018456608,-0.8067001676666666,16.12600485333333,2.992993672666667,1.7962497076666668,7.564588388
556,4.633148,-6.379330476,8.30415376,-45.669998166666666,-0.11623553433333329,-2.3690121176666668,15.058275539999999,0.3934048213333334,-1.6915600000000002,6.427406152
557,4.641481,-6.397620042333333,8.252861499666666,-45.5995178,0.24270441099999998,-0.7959154396666666,16.241811116666668,-3.838840007666667,-7.646037897,7.254912535333333
558,4.649814,-6.457394758666667,8.178533872000001,-45.543701133333336,-0.42690864433333325,-1.4510116576666665,16.22634665,-8.601620356333333,-10.177579879666666,5.239968776666667
559,4.658147,-6.517407417333334,8.074819247,-45.476231866666666,-0.6970949243333333,-1.2463021303333333,15.247013090000001,-8.760356424333333,-13.873659453333332,6.179964939666667
560,4.66648,-6.565464655666666,7.945576508666666,-45.428858433333325,-1.1510074833333332,0.8474303283333332,16.931808469999996,-7.024795691333334,-16.619173686666667,3.464359998666666
561,4.674813,-6.631792068666666,7.802988052666667,-45.38363136666667,-1.7855820256666666,-0.861364166,16.801569940000004,-9.120856762333334,-18.21792666,3.0151851776666665
562,4.683146,-6.713540395,7.66753006,-45.3470103,-0.7904624516666666,-1.0550432303333332,15.791138646666667,-10.875039101666665,-17.217902503333335,2.0716247163333334
563,4.691479,-6.813288371,7.529229641000001,-45.30851743333333,-2.0309592683333335,0.7286032139999999,16.465058326666664,-12.998050686666666,-17.623650233333333,2.2453871566666668
564,4.699812,-6.930021445,7.397202651000001,-45.28470356666666,-0.8766973016666667,0.2529317313333333,15.635464666666666,-14.858533540000002,-16.632472036666666,0.5441703596666667
565,4.708145,-7.03901879,7.2633592286666655,-45.255508433333326,-1.1830819843333333,-1.0919822306666667,13.704801243333334,-13.944070816666667,-16.969310123333333,1.1449312366666666
566,4.716478,-7.118799209333333,7.124872525333333,-45.22960406666667,-1.2826945183333334,-0.070622941,15.216509499999999,-10.441962559,-17.434438070000002,0.6344946226666667
567,4.724811,-7.165412903,6.984267235,-45.2018636,-2.0952054259999997,-0.18311092266666665,16.67507394,-6.419334729333333,-17.75787226,0.834089279
568,4.733144,-7.194211324,6.818921725,-45.17912293333333,-0.7997195136666666,-0.015653871000000003,16.97290452333333,-4.258095422999999,-20.589525220000002,-0.16878519466666675
569,4.741477,-7.227878729333333,6.657503446333333,-45.16137186666666,-2.00025177,1.2298086683333331,16.804987273333335,-4.708162586,-20.085938773333336,-0.6851383993333333
570,4.74981,-7.2806919416666664,6.513011773333333,-45.15041096666667,-0.6525065303333333,0.07719146166666667,16.32439995,-6.971274614666665,-17.92664019,-1.2751835980000001
571,4.758143,-7.335300286666667,6.3647542,-45.14773053333332,-1.6122358243333332,-0.3819206953333334,14.422614096666665,-7.008893808,-18.288869223333332,-2.318558573666667
572,4.766476,-7.370072364666666,6.254135131666668,-45.14497883333334,-1.9160098233333336,0.26162433599999996,14.100487389999998,-4.68559591,-13.7677056,-1.7820170026666666
573,4.774809,-7.3564613660000004,6.143166224000001,-45.14476523333334,-2.2617171603333333,-0.76427341,15.55013434,1.1998223263333334,-13.807730996666665,-2.049668352
574,4.783142,-7.3113492330000005,6.030190467666666,-45.1463216,-1.4353350200000001,0.8966975856666667,16.961646713333334,4.966169834,-13.985750833333334,-2.337999463
575,4.791475,-7.264918963333333,5.942333539333333,-45.15438336666667,-2.8223305543333335,0.9940282706666667,16.12054189,5.2365700403333335,-10.93382899,-2.6539849046666664
576,4.799808,-7.210690180333334,5.868773937,-45.16553753333333,-1.1457223096666667,0.43546938399999996,15.456589066666666,6.167289653,-9.156911213999999,-2.8120934166666665
577,4.808141,-7.152390956666667,5.833134015333333,-45.187810266666666,-2.0189743840000003,0.747445226,13.583559033333335,6.832209269333333,-4.5094718936666665,-3.542081753333333
578,4.816474,-7.065414746666666,5.828521410666667,-45.206629433333326,-1.6989551783333334,-0.2587791506666666,12.676626523333335,10.191892625,-0.8368896843333333,-2.7138542336666664
579,4.824807,-6.932434876666666,5.852983474666668,-45.233576466666655,-2.8346610863333335,-0.30440572866666665,14.547217686666668,15.849336623333334,2.705218037,-3.1957093876666662
580,4.83314,-6.780579407666667,5.893612066999999,-45.26241556666667,-1.7708039683333332,1.1684366663333334,15.461095493333332,18.108982723333334,4.685609261333333,-3.2719461123333335
581,4.841473,-6.6365644139999995,5.970990817000001,-45.30256143333333,-2.6489121123333335,0.23524443766666667,13.243732133333333,17.33061917666667,9.184128284,-4.031605163999999
582,4.849806,-6.479604403,6.086209297,-45.34053549999999,-1.4711778960000002,0.5687046596666666,11.367602980000001,18.831120806666668,13.675254823333333,-3.26690952
583,4.858139,-6.327634970000001,6.252529144333334,-45.38964333333333,-2.4158830643333338,0.08772160600000001,9.984686216666667,18.415566126666665,19.890973409999997,-3.950135708
584,4.866472,-6.159091473,6.3924659093333345,-45.42318216666667,-0.05556692699999999,-0.824314187,9.635603108333333,20.198941546666664,16.549492196666666,-2.544613679333333
585,4.874805,-5.960641066,6.561669667666667,-45.458648666666676,-2.1748545963333332,0.3439204496666666,8.224500657,23.822820026666665,20.043855670000003,-2.3896949490000003
586,4.883138,-5.766894817333333,6.764087517666667,-45.484268199999995,0.05806478866666668,-0.5582439003333333,7.522742113666666,23.131582260000002,23.894488016666667,-0.9248199066666668
587,4.891471,-5.574349244333334,6.926909287666668,-45.50052386666667,-1.4549342393333333,-0.15744407133333335,6.499626954333333,22.861118316666666,19.041393596666666,-0.3240074716666667
588,4.899804,-5.38275369,7.1313686370000005,-45.509155266666674,0.09487474966666665,-0.42968332766666667,7.452909470000001,22.652174633333335,23.93470764,0.9656531610000001
589,4.908137,-5.198559284333334,7.311981837,-45.51616416666667,-0.6143942323333333,-0.724485,6.537470102,21.738348643333335,21.06417211,0.8302006323333334
590,4.91647,-5.031635761666666,7.5104099909999995,-45.51888019999999,-0.23562726866666664,-0.4623321493333334,5.209935029333333,19.59852981666667,23.162872950000004,1.4459032813333332
591,4.924803,-4.897158782,7.660265286666667,-45.51770526666667,0.4601998523333333,-0.7328981756666667,4.889747302,15.64965057,17.30831845666667,1.3575506606666667
592,4.933136,-4.768660227333333,7.828923543333334,-45.51292419999999,-0.44262027733333337,-1.5263351206666667,3.9260364376666668,14.87869803,19.535828910000003,1.912376851
593,4.941469,-4.636336644666667,7.950906435666667,-45.505096433333335,1.0520922343333334,-0.7233377296666667,5.291018009000001,15.271609943333333,13.921833356666667,1.7826958943333333
594,4.949802,-4.515711625333332,8.053623994,-45.49758913333334,-1.0973609683333334,-0.5719199283333333,5.471663395333334,13.903952600000002,11.627785681333334,1.5200173856666666
595,4.958135,-4.4194768269999996,8.135213692999999,-45.488561000000004,2.281443615666667,0.25300504766666665,5.576224247666667,10.910283086333331,9.087949275,1.4988172356666667
596,4.966468,-4.337775627666667,8.201770941333335,-45.488174433333334,-2.0030256310000003,-0.12712740400000003,4.345159212666667,9.343843778666665,7.378096103666667,0.2936542429999999
597,4.974801,-4.279219627333333,8.262275695666666,-45.47033690000001,2.6879558363333333,-0.125563959,3.9130181470000003,6.260713418000001,6.483514229666667,2.3275699613333334
598,4.983134,-4.214923302333333,8.291275660333334,-45.4836477,-2.921912233,-1.8316539126666667,3.1333057083333333,7.452415466333334,3.017651399,-1.6678369643333333
599,4.991467,-4.137340784,8.322520255999999,-45.45200603333333,2.905895749666667,0.19265990199999997,3.973329544333333,8.351602077666668,2.8524311386666668,3.6966166743333333
600,4.9998,-4.057824134666666,8.321310838333334,-45.47970576666666,-3.0113040209999995,-0.46076826266666665,4.7715755306666665,9.473169646333334,-0.4620381196666667,-3.6451792716666667
601,5.008133,-3.998905579666667,8.340952396333334,-45.437576299999996,2.8984158039999994,0.47673046566666666,5.074634869666666,5.987489541666666,1.3669208156666668,4.8420518239999994
602,5.016466,-3.9718559583333337,8.330638567666666,-45.479909266666674,-2.619161923666667,-0.8075543343333335,3.4367384113333332,3.3813994726666667,-1.4174874273333333,-5.474761483333334
603,5.024799,-3.9475725493333336,8.331979116,-45.43171693333333,2.3232415913333333,-0.39370050533333334,2.5988815623333337,1.7714509366666666,-0.8831618923333333,5.420955019333333
604,5.033132,-3.923053503333333,8.303323268666666,-45.474828099999996,-1.8176554043333333,-1.223977526,2.4640015363333334,3.0452471576666666,-3.6003292403333336,-5.707471213333332
605,5.041465,-3.8839550020000004,8.276139736333333,-45.419733666666666,1.8755786816666669,-0.051943321666666674,3.4479149183333333,3.4690519176666665,-4.355992039,6.000981966666667
606,5.049798,-3.866469224333333,8.231194814,-45.460113533333335,-1.0618926286666668,-0.52943409,4.155200163333333,2.1322017906666666,-5.573649724333333,-5.519607863333334
607,5.058131,-3.851267735,8.187154293,-45.40752156666665,0.817481443,-0.20626888666666665,3.6612259149999997,0.659763083,-6.351434906333334,5.573120753333334
608,5.066464,-3.8660190103333334,8.140100956,-45.441065466666664,-0.10057540766666673,-0.12715699233333333,3.4227318763333336,-1.8564175166666665,-5.884581802666666,-4.727357863333334
609,5.074797,-3.872992674666666,8.089688937,-45.40085856666667,-0.7903762660000001,-1.360883698,2.3759090106666663,-1.7934880256666668,-7.012931506,4.065134680000001
610,5.08313,-3.8839948176666668,8.037299951,-45.42725626666667,1.5690273443333336,0.5495682556666667,2.6423417726666667,-1.5043199063333332,-6.589506387,-3.9175863266666666
611,5.091463,-3.895985285333334,7.969570796,-45.4022573,-2.0203634896666673,-1.4304810860000001,3.294196367666667,-2.1668667,-8.952962399333334,2.1055844613333328
612,5.099796,-3.9023811019999997,7.911081631999999,-45.41812133333334,2.636630296666667,0.531360845,3.109067162,-1.0943000516666668,-7.414323171333334,-2.726032892666666
613,5.108129,-3.928146441666667,7.841398557000001,-45.409784933333334,-3.215624124,-0.32670348866666665,3.176655968,-3.582065741333333,-9.03848807,0.09845177366666628
614,5.116462,-3.9567804336666668,7.801892280666666,-45.41407266666666,2.4364425736666666,-0.7692209086666667,1.501357595,-3.905309180333333,-5.251362641666667,-1.1975638069999996
615,5.124795,-3.978404601333333,7.744846026,-45.42412313333333,-2.8810747263333334,0.7810552889999999,2.128559231666667,-2.8303902943333337,-7.362104257000001,-1.9690303416666666
616,5.133128,-3.9972589016666666,7.716280778333332,-45.418299366666666,2.316589474666667,-0.6038646103333334,2.6386275290000003,-2.8583097753333333,-4.036487420333334,0.08844153099999996
617,5.141461,-3.994304021,7.660373052,-45.438303633333334,-2.8034135103333333,-0.6598882673333334,2.344800075,0.2344855963333333,-7.131583532,-3.1397759119999997
618,5.149794,-4.007905642333333,7.6305499076666665,-45.41821290000001,2.862023135,1.5160724319999999,3.4411547183333338,-2.4112387896666667,-4.318312565333334,1.7805094916666666
619,5.158127,-4.023200988999999,7.570325374333334,-45.441711466666675,-2.36188817,-2.281054536333333,2.086057077,-1.941427072,-7.608998934333335,-3.5785907506666668
620,5.16646,-4.022204955666667,7.536269188000001,-45.414652499999995,2.0501999553333334,1.3519169590000002,1.810638864666667,-0.7361403383333333,-4.892207781333333,2.5623199543333333
621,5.174793,-4.037043571333334,7.466819763,-45.42882790000001,-1.0474343363333334,-0.6119266449999999,1.8947111966666668,-2.0588125783333333,-8.783095837,-2.5575945376666667
622,5.183126,-4.0268058773333335,7.424788157000001,-45.39866133333333,0.622575859,-1.5463082786666666,1.3055795133333332,0.3536770839999999,-5.879884561,2.868546883333334
623,5.191459,-4.031480471333334,7.338577270333334,-45.412012733333334,-0.22426851599999997,1.175240196,3.532839497,-0.8755502403333333,-10.790706,-2.6006264686666665
624,5.199792,-4.043859482,7.282318115333333,-45.37915039999999,0.9114466906666666,-0.9907211066666667,2.406632542666667,-2.3700983129999997,-7.612491924666666,3.0684836706666663
625,5.208125,-4.050570567333334,7.1797431309999995,-45.397181200000006,-0.13796633466666666,-0.511655132,2.101066828,-1.061735829,-12.704133033333333,-3.320779641666667
626,5.216458,-4.062451283,7.1007580756666675,-45.36782836666668,0.08954891933333332,0.24572633666666668,2.6216413183333334,-2.251205305333334,-10.302751223333333,2.4610624316666665
627,5.224791,-4.071270386333333,6.980930646333333,-45.38021343333333,0.549604992,-1.0590723156666666,3.0951882200000003,-1.3816791376666666,-14.821897823333332,-2.8270694413333337
628,5.233124,-4.076976219666666,6.8809010189999995,-45.35940043333333,-1.0696962276666666,-0.38426828366666665,4.392083644666667,-1.3963046869999998,-12.742985406666667,1.256083647333333
629,5.241457,-4.077900569,6.755804062,-45.3632202,1.8716457636666668,0.9712378783333334,4.179995537,-0.53691718,-15.531630833333333,-1.8561319509999998
630,5.24979,-4.0814468066666665,6.635356744,-45.35690306666667,-2.1767746606666667,-1.0356177886666666,5.327748298666666,-0.951094866,-15.054591176666667,-0.637436072
631,5.258123,-4.0642490386666665,6.496418794,-45.34951273333334,2.444956422,0.4654024766666667,5.531051555999999,1.5086660383333335,-17.290568670000003,-0.638319711
632,5.266456,-4.062488238333333,6.346641063666667,-45.347590133333334,-2.204394738,0.188048373,6.384487629,-0.2635401883333334,-18.519908586666666,-1.4590043623333333
633,5.274789,-4.047383944,6.189679145666666,-45.34016926666667,2.110119184,-0.7555528480000001,6.747849464333334,1.270641317,-19.45192528,-0.78705741
634,5.283122,-4.013863960666666,6.034434477666667,-45.3388875,-1.564602295333333,-0.21958686900000002,7.18115441,3.5583947499999997,-19.17098872,-1.5643047093333333
635,5.291455,-3.9746767683333335,5.838164965333333,-45.32563273333333,2.009043803,0.5689459343333334,9.038573424666666,4.094412406333333,-24.200620653333335,-0.4507595596666667
636,5.299788,-3.9415416716666662,5.641726335333334,-45.32393389999999,-1.1023645899999999,-1.0476442973333333,9.067979811333332,3.4873882533333336,-24.10492388333334,-1.7955376303333335
637,5.308121,-3.874324401333334,5.415530522666667,-45.30520630000001,0.15302858733333333,1.2240407466666667,10.851420719333333,7.435156186333333,-27.837263743333335,-0.009212772
638,5.316454,-3.8052442869999994,5.2406004269999995,-45.31542463333334,-1.2261724076666667,-0.034739015,7.981478215,7.941282588666667,-21.43741735,-3.0151553153333333
639,5.324787,-3.702449322,4.986811081666667,-45.30578103333334,0.48870632799999997,-0.09480006499999998,13.6908261,11.818026861,-31.06941159666667,-1.2562172363333335
640,5.33312,-3.5748288633333334,4.869530598333333,-45.329127,-2.772689422333333,0.38274711366666664,11.588102977,15.073927876666666,-14.437058766666667,-4.045667290333333
641,5.341453,-3.4366083940000003,4.685101270333334,-45.33503216666667,-0.03726328633333335,0.052956,11.692872526666667,16.230304083333333,-22.650870639999997,-2.4837369920000003
642,5.349786,-3.2456359070000005,4.619136492,-45.36156210000001,-4.176004886666667,0.439400695,13.370562236666666,22.693632123333334,-8.292110284666668,-3.9392069183333334
643,5.358119,-3.019082943666666,4.566838979666667,-45.37620546666667,0.008007526666666745,0.408623827,12.477068264000001,26.920548119999996,-6.777176877,-2.538474957
644,5.366452,-2.782552004,4.542634566666667,-45.40815226666667,-2.171359499333333,-0.22613770266666666,13.38967101,28.212468463333334,-3.282799641,-4.35157156
645,5.374785,-2.532050212,4.587319374,-45.4323934,-1.0760585266666667,-0.7736464043333333,12.10417811,29.871227899999997,4.8854966163333335,-3.046064456
646,5.383118,-2.2717007396666666,4.648515224666667,-45.464411399999996,-1.4333264826666667,-0.830549081,12.8391517,31.082768123333334,6.917928377666667,-3.9086930753333333
647,5.391451,-2.003603617,4.715311765666667,-45.48916623333333,-0.166656078,-1.0213980673333334,13.084904033333332,31.986021676666667,7.516439914666667,-3.0451680023333334
648,5.399784,-1.7436941863333333,4.785869201,-45.5189921,-0.21111960733333332,-1.3127453326666665,13.792299903333335,31.026212060000002,7.996382554666667,-3.6932771206666666
649,5.408117,-1.508750558,4.846730391333334,-45.548060099999994,-0.0010897816666666689,-1.5307567119999999,14.109658556666666,28.052753446666667,6.80031538,-3.6903993286666665
650,5.41645,-1.2993619443333333,4.913895051,-45.57678223333334,-0.11982541766666666,-2.1100174983333333,14.158970196666667,24.95550855,7.559026082333332,-3.6165955069999995
651,5.424783,-1.1360298393333332,4.977290312333333,-45.60268656666667,-0.18088850566666667,-2.298342069333333,14.820212046666668,19.43684324,7.068656603666667,-3.3213906289999997
652,5.433116,-1.0225591856666667,5.025337139666667,-45.61989846666666,-0.371690858,-2.3129490616666666,14.439684869999999,13.329782806666666,5.223985910333334,-2.3439591526666668
653,5.441449,-0.9501378336666667,5.064519008,-45.626215599999995,0.08578150699999999,-1.998230338,13.99780019,8.321608543333333,4.1137019793333325,-1.063426296
654,5.449782,-0.9377615053333334,5.0795764923333335,-45.623809800000004,0.4000762453333333,-2.096928954333333,14.759392103333333,0.9962656496666668,1.2209153173333334,-0.08089405333333333
655,5.458115,-0.9802402656666667,5.0988281566666664,-45.61248776666667,0.18220152433333334,-2.955126365,13.39268017,-5.6563871699999995,1.6861764986666667,1.0476819873333334
656,5.466448,-1.0662454763333333,5.0991141,-45.5956726,-0.7504456043333333,-1.874463717,14.634056726666666,-10.952623683666667,-0.584141339,1.6082114776666667
657,5.474781,-1.2061706186666667,5.084141731333333,-45.57868956666667,-0.3620898126666667,-2.541430791,15.828032173333334,-17.405570030000003,-2.438424726333333,1.64409705
658,5.483114,-1.3938196103333331,5.035593271,-45.558359766666676,0.5542948243333333,-2.5073412656666667,15.03963057,-23.181278863333333,-6.4637126910000005,1.9186225733333335
659,5.491447,-1.6357008616666666,4.974930207,-45.54484556666667,-1.4375942546666665,-1.7487359843333332,15.678660073333335,-29.596879323333336,-7.921208858333333,1.072652398
660,5.49978,-1.9407303333333334,4.887404521666666,-45.52028910000001,-0.8258096276666667,-2.1287105876666668,16.303192773333333,-37.31051,-11.171850203333333,2.2234336533333336
661,5.508113,-2.3002054293333334,4.800586462000001,-45.4980825,-1.8964069286666667,-1.8831544320000002,15.227067626666667,-43.80093384,-11.109955473333335,1.9491314093333336
662,5.516446,-2.6997101306666664,4.698043902666667,-45.466450999999985,0.46179387999999993,-1.7860242126666666,14.359389306666666,-48.699539183333336,-13.043702763333334,2.853180249333333
663,5.524779,-3.1276330153333336,4.595497290333333,-45.43891396666666,-1.2452284096666666,-1.987289389,13.922359466666668,-52.063078563333335,-13.057794253333332,2.3468718529999997
664,5.533112,-3.571440776333333,4.484645048666667,-45.4036662,-0.9764128276666666,-1.3806753753333334,15.036662103333333,-54.02276611333334,-14.10979525,3.045400381
665,5.541445,-4.017108599,4.387388944666666,-45.38287863333334,-0.7801642416666666,-1.15747114,16.497786836666666,-54.12224706000001,-12.408507983333335,1.3612251676666667
666,5.549778,-4.450158914,4.301468611000001,-45.35562133333334,-0.46249425400000005,0.23993168266666667,16.419827780000002,-52.64243062666667,-11.108452476666665,2.1037753223333335
667,5.558111,-4.867691834666666,4.225646813666667,-45.35550436666667,-2.321411132666667,1.4062681993333335,16.46453253,-50.53460693333333,-9.669609387333333,-1.089725882
668,5.566444,-5.2693864506666666,4.1540516216666665,-45.37072753333333,-0.9427277243333334,0.01668535666666666,15.196783383333333,-48.500120796666664,-8.982530753,-2.960926334
669,5.574777,-5.662028789666667,4.112490733333334,-45.40770976666667,-1.2758537133333334,-0.08398621766666665,14.83267085,-47.229721070000004,-5.140829722333334,-5.271710236666667
670,5.58311,-6.0198516846666665,4.080244779666667,-45.44834393333333,-0.8288883366666666,0.18227400900000001,14.642231623333332,-43.03479767000001,-3.9393734929999997,-5.618909994666667
671,5.591443,-6.324457645333333,4.049795945333333,-45.4968058,-1.8749706350000002,0.9727235236666667,15.05358124,-36.57802454666667,-3.608329057666667,-6.514592011666667
672,5.599776,-6.579822222333334,4.021397749666667,-45.542704266666675,-0.4233870853333333,0.8001825013333334,14.645197233333333,-30.701975503333333,-3.3546567756666668,-6.227176348666667
673,5.608109,-6.790061315,4.005998611333333,-45.589711533333336,-0.8257860936666667,-0.10040657700000001,13.945092203333333,-25.274826686666668,-1.77552855,-6.194319566
674,5.616442,-6.941181342,3.998128096333333,-45.6267039,-0.7896286446666666,0.6034148336666667,15.699835143333331,-18.27265103666667,-0.9919584193333334,-4.912568569
675,5.624775,-7.042703946333333,4.005685249666667,-45.663299566666666,-1.6813345750000002,1.1514907283333333,16.57084751,-12.321243922333332,0.8384950286666667,-4.617043733666667
676,5.633108,-7.0884488423333325,4.016277313,-45.690597499999996,-1.1351201336666668,1.0400701363333333,15.797010106666667,-5.709037800333333,1.0797382593333333,-3.498571395666667
677,5.641441,-7.1007293066666675,4.033420642333334,-45.718083666666665,-1.0781216226666668,0.6553906596666667,15.334005673333332,-1.6823047003333331,1.8530062833333332,-3.3985563913333334
678,5.649774,-7.081559181,4.0546884536666665,-45.73417153333333,-0.7100291850000001,-0.2963167056666667,14.732305206666666,1.9809198576666667,2.1887747446666665,-2.0133130950000004
679,5.658107,-7.029016971666667,4.077771822666667,-45.741826366666665,-0.9102907376666668,-0.224094694,14.8426555,5.928385098666666,2.266565362666667,-0.9593983093333334
680,5.66644,-6.954735279,4.078109979333333,-45.73915099999999,-0.48232188700000006,-0.166612899,15.32352511,8.435711542333333,-0.5811529656666666,-0.09043102466666668
681,5.674773,-6.865596135333334,4.062862316666666,-45.72961933333334,0.013660716333333342,-0.7310206890000001,15.118333816666668,10.167883553666668,-2.5480276343333332,0.537318475
682,5.683106,-6.770233154333333,4.0273083053333325,-45.70700583333332,-0.01926952599999998,-0.47237570100000004,15.002596536666667,10.801963807666667,-5.1414099533333335,1.7586010296666668
683,5.691439,-6.677460670333333,3.963810920666667,-45.679326366666665,-0.07178115333333333,-0.65035518,15.04093011,10.459135373666667,-8.552236557,2.0240756673333333
684,5.699772,-6.586709658,3.898625691666666,-45.647644033333336,-0.242382591,-0.9024682443333333,14.714014053333335,10.184234937,-8.789295991666666,2.4145133496666666
685,5.708105,-6.494312445000001,3.822483142333333,-45.61559549999999,-0.5613998273333333,-0.6522446869999999,14.557640713333333,10.390833535333334,-10.112812995333334,2.400805473
686,5.716438,-6.391725858333333,3.7413218020000003,-45.581771866666664,-1.0307359896666668,-0.6314751256666667,15.488606136666666,11.59798209,-10.713970821333334,2.4806535246666663
