,time,Euler_X,Euler_Y,Euler_Z,Acc_X,Acc_Y,Acc_Z,Gyr_X,Gyr_Y,Gyr_Z
0,0.0,-4.5335164070000005,15.71786833,14.041564949999994,-1.2774766684999999,-1.532346189,-1.5709846019999998,-29.011665344999997,45.69781494,-0.426350042
1,0.0083330000002206,-4.7225730420000005,16.072431565000002,14.056365999999997,-0.822527647,-1.0169420245,3.164395809,-24.499643325,41.91872978000001,4.8207883835
2,0.0166659999999865,-4.8940994735,16.44229317,13.993095400000001,-2.2593055965,0.8860982660000001,8.772618531500001,-19.803699495,44.499080660000004,-3.8474196195
3,0.0249990000002071,-5.079435825,16.767751695,13.995429950000002,-0.296660937,-0.01647762200000001,8.3106701375,-23.648386005,38.532766345,3.350181341
4,0.033331999999973,-5.3424491885,17.230493545,13.918014549999995,-1.899870038,1.2412199975,4.3523290155000005,-30.192641254999998,55.76894188,-4.1152356865
5,0.0416650000001936,-5.534058809499999,17.626247405,13.907478300000008,-1.317420006,-2.4503837820000003,-1.3713493645,-23.939916615,47.03889275,2.9857946635
6,0.0499979999999595,-5.628932714499999,17.967450139999997,13.853820800000008,0.123504106,-0.0199880755,1.464267373,-10.7568044675,41.00819969,-2.442731261
7,0.0583310000001802,-5.700595379,18.260935785,13.869613649999991,-0.2426104285,2.03837049,6.046201706,-10.515053271500001,34.517986295,4.9541187285
8,0.0666639999999461,-5.789278269,18.59741306,13.826408349999994,1.3688920735,-0.2483214815,6.0237123965,-10.3426451665,40.331834795,-1.184596002
9,0.0749970000001667,-5.880228042500001,18.905942915,13.840919500000012,-1.9511048199999999,1.094433248,9.3155026435,-12.798936365,36.312742235,5.0894908905000005
10,0.0833299999999326,-5.970560312,19.11091423,13.815467850000005,1.5939948560000001,0.2398096585,8.27780962,-11.18273449,24.434191705,-0.677829951
11,0.0916630000001532,-6.058314562,19.342257500000002,13.815139799999997,-1.077851415,0.24759016899999997,3.190384626,-11.844544885000001,27.261789325000002,2.5589536429999997
12,0.0999959999999191,-6.079425812,19.446087835,13.788780200000005,1.314300835,-0.938687712,0.10425984849999992,-2.805450499,12.38420105,-2.0351791974999998
13,0.1083290000001397,-5.9967725275,19.47585106,13.805213949999995,-1.1695390940000001,0.4022312465,2.2150979045,7.937648296500001,3.006765842,1.909605682
14,0.1166619999999056,-5.89785552,19.502827645,13.770690899999991,2.8742507694999997,1.3490000370000002,9.2676143645,11.917716980000002,3.3021109104999997,-3.9023805855
15,0.1249950000001263,-5.777801037,19.41236782,13.800170899999998,-3.9033511875,0.962832451,13.7272563,11.90425682,-11.487128735,1.8967859145
16,0.1333280000003469,-5.675100565,19.261601445,13.7663498,5.780199528,0.952732414,3.8899455670000003,12.344337464999999,-17.931508065000003,-6.009384155499999
17,0.1416610000001128,-5.483075857,19.082921980000002,13.797973599999992,-5.981323242,0.6856162625,7.8211157315,20.473448755,-22.035815239999998,1.1646033525
18,0.1499940000003334,-5.2853484155,18.867998125,13.788650500000003,5.110603333,-0.20908603099999998,4.2517185804999995,22.76051521,-25.889388085,-3.850579262
19,0.1583270000000993,-5.016473770499999,18.593990325,13.804267850000002,-5.54476285,0.0031455159999999593,9.2645914545,30.340167045,-33.253932954999996,-1.5041731
20,0.16666000000032,-4.7102105615,18.32240105,13.835327149999998,2.3277269599999997,-0.672601573,4.360542059,34.25463295,-33.07796669,0.338505536
21,0.1749930000000858,-4.38140893,17.96382904,13.85246275,-2.854876399,1.4022300840000002,10.66210461,37.493968960000004,-43.394304274999996,-1.7812319995
22,0.1833260000003065,-4.0341353415,17.719236375,13.910362249999991,-1.9267789725,0.4649122655,12.66321802,38.21230507,-30.0618124,4.0582000019999995
23,0.1916590000000724,-3.749579668,17.423110004999998,13.934051499999995,-0.176773742,-2.0490171315,7.9981186375,31.966461185,-35.984392165,-0.0254413785
24,0.199992000000293,-3.4447177645,17.249938965,13.955162049999998,-4.949822902499999,-1.3478675485,9.740908147,34.511938095000005,-21.1902132,0.672361821
25,0.2083250000000589,-3.1530700925,17.047968865,13.992156999999992,-0.674272567,-1.941473842,5.4564901589999995,32.36733627,-24.788290025000002,2.5235182050000002
26,0.2166580000002795,-2.8887236114999997,16.82286835,13.988243100000005,-3.9031993155,-1.1195758580000001,10.325447084,30.548438075,-27.250537875,-2.328247726
27,0.2249910000000454,-2.663264036,16.805831905,14.030914350000003,-2.720297575,-1.328241825,13.044964310000001,24.25045681,-2.6282143595,4.478497744
28,0.2333240000002661,-2.5425431730000003,16.659905435,14.00988765000001,0.0590635385,-2.460810065,5.0384767649999995,13.880320075,-17.687904359999997,-3.5870443585
29,0.2416570000000319,-2.422204852,16.635512355,14.032447849999997,-3.8019762034999998,-2.770241618,8.251816271500001,12.340645315,-3.3849725724999997,2.146703601
30,0.2499900000002526,-2.3432656525,16.65677452,14.024543800000004,-2.6897002455,-1.4691919685000001,11.535685059999999,8.433269501,2.283995867,-1.2406767605
31,0.2583230000000185,-2.3340859409999997,16.55597019,14.051628149999999,1.2135531305,-0.2257497725,7.1358144285,-1.152820043,-12.56149149,2.3031681775
32,0.2666560000002391,-2.346210122,16.651625635000002,14.040367099999997,-6.252550363499999,-1.1444336475,13.389986039499998,-2.3971723320000002,11.21927929,-1.2113228440000001
33,0.274989000000005,-2.428298116,16.66327286,14.05474855,4.7113170625,-1.9737633465,7.497273862999999,-11.67166567,0.97825259,1.3993186355
34,0.2833220000002256,-2.525306821,16.656697275,14.028259250000005,-6.7653188705,-1.6557718515,8.744345428,-12.04185486,-0.9521836340000001,-3.5106745960000003
35,0.2916549999999915,-2.5878407955,16.80466175,14.044769299999999,-0.043341862,-1.150923014,8.8777191665,-9.4005680085,17.30351067,2.37149477
36,0.2999880000002122,-2.744035721,16.802329065000002,14.013206499999995,-1.929902673,-1.395606041,8.848062515999999,-18.961749079999997,-0.4087841955,-4.0548884864999994
37,0.3083209999999781,-2.8897993565,16.927212715,14.04611204999999,-1.9335832594999998,0.7318084985,14.84140253,-19.96452713,14.43312979,4.1952171325
38,0.3166540000001987,-3.087620974,17.07013702,14.025718650000002,-2.3465812205,-0.3483536545,6.3556461335,-24.3367815,16.954523084999998,-1.8652044535
39,0.3249869999999646,-3.264799118,17.123526575,14.069374100000005,-0.15574044550000002,-2.206583619,7.291534424,-24.128812789999998,5.7699935435,5.039142132
40,0.3333200000001852,-3.4697779415000003,17.35367584,14.039627100000004,-2.728054881,-0.13244746999999998,10.241752626499999,-24.850152015,27.47679329,-2.2065663335
41,0.3416529999999511,-3.631880641,17.40441704,14.058227500000001,-1.189318955,-0.9458881915,3.0198127030000004,-21.44708824,5.5962896345,2.1903892755
42,0.3499860000001717,-3.7640196085,17.53728199,14.057418850000005,-0.558062822,0.357879258,10.1244053835,-17.147109985,15.62165308,0.5472611335
43,0.3583189999999376,-3.935118556,17.688333515,14.017746000000002,-3.0970779655,0.5161816625,16.09911251,-20.419846534999998,18.040678980000003,-3.623916745
44,0.3666520000001583,-4.11372602,17.802492145000002,14.020019549999986,1.5704323055,0.3229030895,11.79710102,-22.84003544,13.35609007,0.8383415935
45,0.3749849999999242,-4.256754875,17.886639595,13.974487299999993,-2.7262010575,-0.27554889,6.6350598335,-16.816378115,10.101424694999999,-4.766566992
46,0.3833180000001448,-4.3675482275,18.05914211,13.969764700000013,0.524002105,-0.567265406,6.818232298,-14.445105555000001,20.39437294,0.6391267775
47,0.3916509999999107,-4.446396589,18.082860945,13.930061300000006,-2.3553177119999997,1.147064865,10.790530685,-9.311288357,2.836879373,-4.610946894
48,0.3999840000001313,-4.482206583,18.19796276,13.936820999999995,-2.4409621955,1.162061274,12.423508645,-5.8700151445,13.42762375,1.4480752945000002
49,0.408317000000352,-4.534218073,18.227545735,13.9081726,1.2107535600000001,0.17491667000000002,8.337160110500001,-6.493708134,3.4474197625,-3.2911731005
50,0.4166500000001178,-4.5633573535,18.301725384999997,13.903251650000001,-1.0168461505000002,-0.011567994999999998,6.0832436085,-4.638341427,8.638991356,-0.23800750850000002
51,0.4249830000003385,-4.5330429075000005,18.354124069999997,13.871620199999995,-2.771034837,0.863019288,11.2165703755,3.5055263045,6.205177068499999,-3.4086532595000003
52,0.4333160000001044,-4.4778897765,18.419525145,13.873908999999998,-2.5119796990000003,0.916345924,12.33059406,5.208642244,7.525987386500001,0.481125027
53,0.441649000000325,-4.459213257,18.47790432,13.8480682,-0.35910090800000005,-0.291942492,7.544638157,1.897566855,6.863949776,-2.702711821
54,0.4499820000000909,-4.4097306725,18.525509835,13.837234499999994,0.2310137745,-0.771691516,6.7912981509999995,5.039089203,5.521085024,-1.226998925
55,0.4583150000003115,-4.327921629,18.587166785,13.825286899999995,-4.994269371,0.1956458835,12.769700530000001,8.94919157,7.1315546035,-1.108942807
56,0.4666480000000774,-4.2394645215,18.663962365,13.826728799999998,0.10059639050000001,0.585909277,14.123689175,9.250544071,8.909273147499999,0.4064979555
57,0.4749810000002981,-4.206669688,18.703230859999998,13.825538649999999,-2.0279189349999998,-0.5597540435,9.0517363535,2.6553509235,4.3598501685,-0.1022968485
58,0.4833140000000639,-4.183072686,18.795481685,13.835891750000002,0.584453106,-1.4555487034999999,3.231384754,1.104549959,10.68508196,1.5901830795
59,0.4916470000002846,-4.104843378,18.825686455000003,13.8061905,-4.0744023325,-0.2430924175,9.0383577345,9.212481022,3.5102391245,-3.4206919669999998
60,0.4999800000000505,-3.9998192785,18.874010085000002,13.831169099999997,-1.6707646845,0.47330132150000004,16.04466009,10.330759526000001,5.3199105265,2.7775181535
61,0.5083130000002711,-3.9720050095,18.945743559999997,13.802368149999992,-0.8095437585,-0.1597854045,11.215549467999999,3.1329796315,8.4650435445,-2.9792814255
62,0.516646000000037,-3.947737932,19.004570004999998,13.78076935,-1.112930298,-1.550890565,5.6708915235,2.449169457,6.954227209000001,-2.420673728
63,0.5249790000002577,-3.8986308574999997,19.01068401,13.776992800000002,-2.178323507,-0.605567992,10.903727530000001,4.715497731999999,0.41313842300000003,-0.6941778359999999
64,0.5333120000000235,-3.845593929,19.072628975,13.763809250000008,-0.43454784150000003,0.6092585175,12.782716749999999,5.5796518325,7.2607519625000005,-1.4595888855
65,0.5416450000002442,-3.780791402,19.07463074,13.752387999999996,-2.6031519175,0.076904333,9.471121311000001,6.8999631405,-0.022764682499999994,-1.5932567715000001
66,0.5499780000000101,-3.715896368,19.043747905,13.783225999999999,-0.14488267249999998,-0.096441015,7.83325243,5.2758157255,-4.179666996,2.7778129575
67,0.5583110000002307,-3.6399356125000004,19.02484703,13.775222799999995,-0.28533776099999997,-0.3931977305,7.6781945225,8.1045746805,-2.5538418295,-1.3685557845
68,0.5666439999999966,-3.5143859385000003,19.026576040000002,13.807647700000004,-2.763154626,-0.139823474,11.593971255,12.497223855,-0.27108182000000003,3.2035723925
69,0.5749770000002172,-3.4079003334999998,18.94062996,13.842300449999996,-0.5010119225,0.3783484845,11.918083191000001,10.1009101885,-10.88110733,2.9875679015
70,0.5833099999999831,-3.3120253085,18.89046955,13.877243050000004,-0.787523389,-0.8480436805,7.732808828,8.844186783,-6.4868187905,3.124552727
71,0.5916430000002038,-3.1886439319999997,18.837273595,13.89164735,-3.991538882,-0.734234601,9.6895735255,12.92275572,-6.8125300405,0.953118712
72,0.5999759999999696,-3.07067883,18.781487464999998,13.944618250000005,-0.519403413,-0.454461604,14.569077969999999,10.80312443,-7.259318113,5.166225195
73,0.6083090000001903,-3.0269672869999997,18.74089432,13.945930500000003,-2.0746957065,-1.3623521925,8.959285259,3.869529605,-5.219797134,-0.42704058450000004
74,0.6166419999999562,-2.9719946385,18.68828869,13.978294399999996,-1.397812009,-1.218379676,4.5691268439999995,4.0490347149999995,-6.7385554315,2.8615585565000003
75,0.6249750000001768,-2.89441967,18.570849414999998,13.992706300000009,-0.590862453,-0.380226195,13.0553031,7.4308061599999995,-14.505318645,0.5993219909999999
76,0.6333079999999427,-2.8385277985,18.557356835,14.006988499999991,-3.9801251890000002,0.19408836949999997,14.1969676,4.8589692115,-1.9380882974999998,1.0643226504999999
77,0.6416410000001633,-2.8017292019999998,18.503058435,14.022789000000003,-1.0666000845,-0.298548922,9.802554131,2.4882183075,-6.9441349510000006,1.1588776705
78,0.6499739999999292,-2.7828747035,18.407361985,14.037162750000007,-1.6045771835,-0.8994405864999999,9.049050095,0.4105897694999999,-11.786929605000001,0.600781977
79,0.6583070000001499,-2.765668273,18.380292895,14.055534350000002,-1.0562691690000001,-1.7546792625,6.424137354,0.04515148699999999,-3.6945973635,1.615348935
80,0.6666399999999157,-2.7366335395,18.28396988,14.061080899999993,-2.0423026085,-0.054228305500000004,14.026722905,1.9703238604999997,-11.81057024,-0.40161845100000004
81,0.6749730000001364,-2.7415322069999997,18.246591565,14.076881450000002,-1.223421395,0.20605944499999998,14.63091755,-2.5092471835000003,-4.9135532375,1.269313395
82,0.6833059999999023,-2.7678322790000003,18.19974327,14.101532000000006,-3.5968323945,-1.492992699,9.89632344,-5.3879282475,-5.981615305,2.0664668085
83,0.6916390000001229,-2.781265974,18.05258083,14.099060050000006,1.4841933250000001,0.10117240250000001,9.398110865,-2.845012188,-17.973308565,-1.4505985975
84,0.6999720000003435,-2.762172937,18.00201988,14.115455650000001,-4.454686880500001,0.204050414,12.352679255,0.372392565,-6.3785591125,1.109723985
85,0.7083050000001094,-2.779286742,17.824296955,14.130035399999997,0.6189649405,-1.330401063,12.2156796445,-3.9179929495,-21.728972435,0.316169446
86,0.7166380000003301,-2.759370327,17.775490759999997,14.133041399999996,-3.8943778275,0.6864951850000001,14.396312235,0.9681924279999999,-6.09162879,-0.3995436505
87,0.724971000000096,-2.7658644915000004,17.58141041,14.137031550000003,1.265833497,-0.310254045,9.88857651,-2.250787914,-23.631115915000002,-0.982690573
88,0.7333040000003166,-2.7040165665,17.479038235,14.131988550000003,-6.3797371384999995,0.8770548555,14.7693514845,6.287566184999999,-12.464056015,-1.613505006
89,0.7416370000000825,-2.641364455,17.37449169,14.16280365,0.7555722,-1.3358658555,12.2878775615,5.0858352185,-13.045011995,2.627892971
90,0.7499700000003031,-2.5797878499999998,17.175577165,14.168594350000006,-4.3974435325000005,0.581497103,17.69575119,5.8653039929999995,-24.09464264,-0.876788497
91,0.758303000000069,-2.4829558130000002,17.095315935000002,14.214225749999997,-2.2938090559999997,-0.1495704055,14.11198425,8.6823945045,-10.201369763999999,4.4839520450000006
92,0.7666360000002896,-2.399679422,16.9611578,14.21707155,-0.5593837795000001,-0.5593358580000001,12.9697270405,8.566157818,-16.31632328,-0.7801585795
93,0.7749690000000555,-2.3151916265,16.795064925,14.282134999999997,-0.617945522,-1.439193547,12.456602575,6.547769785,-20.569188115,6.3270006174999995
94,0.7833020000002762,-2.2250127195,16.763058665,14.29599764999999,-5.5022232535,-0.3759814425,13.465046406999999,9.026483059,-4.1136852505,0.9759921135
95,0.791635000000042,-2.1274110075,16.651602745,14.335487350000008,-0.462180972,0.31847021,15.365486145,9.025958061,-13.88506842,3.7118105885
96,0.7999680000002627,-2.0744240879999998,16.526879309999998,14.33620454999999,-4.569153785999999,-1.6383506655,12.848772525000001,4.972185135,-15.176347735,-0.780235425
97,0.8083010000000286,-1.9839510919999999,16.472474095,14.359397849999993,-3.3028399945,0.3673464265,15.518262865,8.741126060500001,-6.9664964675,2.1166067125000003
98,0.8166340000002492,-1.9551650285,16.397898675,14.360160799999989,-0.862660378,-1.499622554,10.1101722735,2.064891696,-9.1635575295,-0.5246436445
99,0.8249670000000151,-1.9297569989999999,16.29936457,14.357948300000004,-0.281811863,-1.6311198475,12.55321217,1.798874974,-12.155581954999999,-0.9719962179999999
100,0.8333000000002357,-1.9335896375,16.25793314,14.359275799999992,-5.3206715585,-0.26637441,14.411278725,-1.828087747,-5.1832962039999995,-0.4517326055
101,0.8416330000000016,-1.9245613815000002,16.225625514999997,14.356094350000006,0.1953593105,-0.8455529214999999,7.7646880155,-0.134903796,-4.210263014,-0.8127525449999999
102,0.8499660000002223,-1.935233891,16.149550915,14.375579799999997,-3.2609126565,-0.9521695975,13.259750365,-3.2972950935,-9.411746025,1.6450743079999999
103,0.8582989999999882,-1.957121253,16.151370525,14.385787950000008,-1.998449147,-0.5310674634999999,12.413062094,-4.2932019235,-0.1696879415,0.866503984
104,0.8666320000002088,-2.0079911945,16.065608975,14.398071299999998,-1.0207812490000001,-1.4310688375,12.2122299665,-7.8815772535,-10.545765401,0.7833474275
105,0.8749649999999747,-2.060346663,16.092476845,14.421852099999995,-4.3370177745,0.2060790845,9.743281123500001,-8.39981699,2.7761991024999997,2.5379866360000003
106,0.8832980000001953,-2.1505084635,16.070189475,14.425994849999995,-1.0455892685000001,-0.8253036140000001,10.7745821495,-12.32908058,-2.9019907710000004,0.12184693299999999
107,0.8916309999999612,-2.22261858,16.0828495,14.439262400000004,-2.6515997650000003,-0.8010421695000001,11.372205972,-10.419576645,1.110326022,1.2696977255
108,0.8999640000001818,-2.3264166115,16.120625015,14.443008399999997,-1.4028394815,-0.8334266245,9.8553349945,-13.95226812,4.301604152,0.3515170065
109,0.9082969999999476,-2.419024706,16.16796827,14.440788249999997,-1.324254513,0.11653437850000001,7.338468552,-12.365644934999999,5.3386862275,-0.338568993
110,0.9166300000001684,-2.498768687,16.185387135,14.461082449999992,-3.2510539295000003,-1.14558965,13.517413614999999,-11.621845725,1.7775000335,2.1790031195
111,0.9249629999999344,-2.5769569875,16.28014183,14.467567450000004,0.090264842,0.5056676715,9.851688861,-10.92761183,10.978967665,0.9345740675
112,0.9332960000001548,-2.678592563,16.279155255,14.477302550000005,-2.2981377839999997,-1.1845677495,11.009542467500001,-13.896890160000002,-0.3773682005,0.8592680694999999
113,0.9416289999999208,-2.7446255685,16.37300873,14.485275299999998,-1.2623782155,-0.243625753,13.4300251,-9.51966095,10.85799217,1.1340448859999999
114,0.9499620000001414,-2.8473671675,16.36145401,14.509460450000006,-2.1528769729999997,-0.1624883415,11.386015893,-14.52527094,-1.7265790105,2.4791765215
115,0.9582949999999072,-2.9136328694999998,16.38442898,14.517394999999993,-1.015962392,-0.0952964515,11.5780634875,-9.5466046335,2.3600444795,0.731990814
116,0.966628000000128,-2.9946000575,16.377318855,14.526290899999992,-1.0273354945,0.031384356,13.77231884,-11.398054125,-1.1085969805,0.7543008925
117,0.9749610000003486,-3.0772918459999996,16.26526785,14.535758999999999,-1.3304118515,-0.171410948,12.775679584999999,-11.56894016,-13.83257437,0.060724953
118,0.9832940000001144,-3.1127198935,16.291933535,14.557914699999998,-2.9155222175000004,0.6055731775,10.6502437605,-6.339254856,2.8654135465,2.3549729585000003
119,0.9916270000003352,-3.152543545,16.085192205,14.5617218,0.110070966,0.0241122765,14.315826893,-6.232023716,-25.143369675,-1.2313025595
120,0.999960000000101,-3.1896399255,16.02210617,14.584068299999998,-3.502380729,0.438320566,17.30009699,-6.581911564,-7.897688865999999,1.944184661
121,1.0082930000003216,-3.2021815775,15.89381838,14.576950050000008,-1.5390772225,0.26277146500000004,9.1821870815,-2.5974630115000004,-15.67166281,-1.9939788580000002
122,1.0166260000000875,-3.208551049,15.685480115,14.603920000000002,0.6388983425,-1.2041846514999999,6.369133829999999,-3.0337519645000004,-25.330148700000002,1.503774166
123,1.0249590000003082,-3.1819919345,15.54975128,14.60197445,-3.5697717669999998,0.8887059985000001,15.423299315,1.923860073,-16.596209525,-1.4505217075
124,1.033292000000074,-3.1441273685,15.42528677,14.621696450000002,-0.575201005,-0.5979843435000001,12.737347125,2.5130387545,-15.234478475,1.2864111065
125,1.041625000000295,-3.1018099785,15.211575029999999,14.624465950000001,-2.6382170915,1.3405340909999999,12.00682402,3.6640673875,-25.970238684999998,-1.394350171
126,1.0499580000000606,-2.998352647,15.12373114,14.65605930000001,-4.316580534,0.24409102649999997,12.8896904,10.027564045,-10.911985395,2.9059864285000003
127,1.0582910000002812,-2.899420738,14.965949535,14.671646100000004,-1.2020908595000002,-0.33309567700000003,14.218021395000001,10.0614547715,-19.348475455,0.5133222935
128,1.066624000000047,-2.810140729,14.822205545,14.700859050000005,-2.696375251,0.05401890000000001,20.20591164,8.468261242,-17.576480865,2.1481000779999997
129,1.0749570000002675,-2.7252230644999997,14.676665305,14.729126000000008,-1.050486684,-0.2531547845,13.436994075000001,8.0019919875,-17.95073223,2.116146326
130,1.0832900000000336,-2.622063279,14.616937159999999,14.75416564999999,-3.7992800475,0.052580923,15.23417234,10.262818334999999,-7.473197222,2.225454688
131,1.0916230000002545,-2.53141737,14.470283985,14.78437805,-0.5846586229999999,-0.9032516930000001,13.486427305,8.642425537000001,-18.085143090000003,2.4008871315
132,1.09995600000002,-2.439658642,14.341620445,14.809028600000005,-3.567068934,-1.3687039615,13.959482195,8.8964920045,-15.729819775,1.940304518
133,1.1082890000002408,-2.3447897435,14.25608683,14.8447113,-1.8210458754999999,-0.264232136,14.62366104,9.00277853,-10.774938105,3.398702383
134,1.1166220000000069,-2.2042891975,14.193283085000001,14.868316649999997,-4.5014243125,-1.213136017,14.406597135,14.769773485,-7.8212189675,2.2602263689999997
135,1.1249550000002273,-2.0751081705,14.048389915000001,14.91654204999999,0.134443641,0.9645504505,19.808846475000003,12.76567936,-17.93250656,4.641992807499999
136,1.1332879999999932,-2.0249208805,13.96231651,14.930557249999993,-3.106891632,0.193898678,20.97193527,4.209648609,-10.559354305,1.1175363365000002
137,1.1416210000002138,-1.9799268845,13.827890875,14.984802250000001,-0.16889227899999998,-1.540228486,12.258865835,2.510503173,-16.688319205,5.434855461
138,1.1499539999999795,-1.925882101,13.711633684999999,15.005806000000007,-2.809709072,0.2720202805,14.90173006,4.4899709224999995,-14.19990635,1.782904565
139,1.1582870000002004,-1.8539839385,13.506816865,15.06473545,-0.6210491060000001,-2.428429842,13.07919407,5.6392974855,-25.137711525,5.742856264
140,1.1666199999999662,-1.7487797139999999,13.28775501,15.095245349999999,-1.8086736205,-0.15800306949999998,17.717495915,10.3840827955,-26.556589125000002,2.5457496644999997
141,1.1749530000001869,-1.6869899035,13.087210175,15.154823300000004,-4.2342952490000005,0.423623569,21.30587482,4.458031892999999,-24.609131814999998,5.9195296765
142,1.1832859999999528,-1.6715180275,12.864219665,15.176757800000004,-0.6906654834999999,-0.921783179,16.28658867,-0.1454505285,-26.9929657,1.6747366785
143,1.1916190000001734,-1.6845813990000003,12.657928945,15.227081300000009,-4.736084461,-1.1854373515,16.56041145,-4.227734566,-25.26283455,4.8463568685
144,1.1999519999999393,-1.6897060274999998,12.378188134999998,15.241767850000002,0.647798747,-1.9152216320000002,13.590426445,-2.386288643,-33.770868300000004,0.542778984
145,1.20828500000016,-1.6802361609999998,12.134901525,15.27297209999999,-6.276448965,1.862022638,17.0072546,-0.9841893015000001,-29.635154725,2.480279565
146,1.2166179999999258,-1.7034755945,11.897156235,15.2887573,-0.7089239355,-1.42170158,20.022034644999998,-4.576357603,-28.73873043,0.842427135
147,1.2249510000001465,-1.755868733,11.670592785,15.290718049999995,-4.065699577,1.50861153,17.035178185,-7.661901712500001,-27.527881620000002,-0.9062194525
148,1.2332839999999123,-1.7941091065,11.410740375,15.301361100000008,-0.7145161034999999,-2.5022300485,11.571216585,-6.242988348,-31.37266159,0.148902067
149,1.241617000000133,-1.808294475,11.15806961,15.26514435,-5.0687165265,0.7839536069999999,17.647584915,-2.1796070335,-30.516084669999998,-5.530643701500001
150,1.2499499999998989,-1.863231957,10.940305235,15.272430400000005,-2.7721898554999997,-1.4046177864999998,19.04582405,-8.144998788999999,-26.309792514999998,-0.177423544
151,1.2582830000001195,-1.920371711,10.751326559999999,15.217155449999993,-3.5932739975,0.980127215,15.583811285,-6.936069488499999,-22.796373365,-7.5753369335
152,1.26661600000034,-1.9694969654999999,10.568125245000001,15.238052350000004,-3.4193618299999997,-1.1941066385,12.98414707,-7.741995811499999,-22.219872475000003,1.5114710329999999
153,1.274949000000106,-1.9778322579999998,10.385557174999999,15.1834183,-3.7242985964999997,0.480387766,15.738801955,-1.1353001595,-22.018606185,-7.5139644145
154,1.2832820000003269,-2.0084095005,10.260884762,15.2009659,-3.2384039165000003,-0.4967002905,17.974525455,-5.432959795,-15.19140863,1.363932729
155,1.2916150000000926,-2.0473850369999997,10.1570138945,15.140029900000002,-1.872690618,1.052305251,17.341468815,-4.708179235499999,-12.548876765,-7.947560072
156,1.2999480000003132,-2.1002594825000003,10.046784879499999,15.158790600000003,-3.057136655,-1.1446960865,11.269076349999999,-8.120175123,-13.46534157,1.5137502555000002
157,1.308281000000079,-2.0960071085,9.9511823635,15.107681249999999,-4.1198602915,-0.7329498385,15.098411559999999,0.248477355,-11.591251374999999,-6.772264481
158,1.3166140000002995,-2.1076208945,9.9272909145,15.126434349999997,-5.3543684485,0.8896274915,20.948890685000002,-3.1605407000000003,-3.116509795,1.8827360865
159,1.3249470000000656,-2.130475283,9.927548888,15.079032850000004,-1.4611597060000001,-0.07627981900000003,14.1317482,-3.0865023135,-0.1098082195,-5.9153125284999994
160,1.3332800000002862,-2.1251656415,9.9353342055,15.08953855,-3.454451084,0.7067359234999999,12.87978029,-0.9535667,0.71587947,1.017563939
161,1.341613000000052,-2.1154544945,9.9173393245,15.051582299999993,-1.7944315075,-1.2691663505,14.942984580000001,0.6254676505,-2.339424908,-4.8817145825
162,1.3499460000002728,-2.097583771,9.943851949999999,15.065948500000005,-5.7944571975,1.0557224005,18.75135231,0.461997464,2.940270901,1.616757691
163,1.3582790000000386,-2.0706176165,9.9909729935,15.039794950000001,-0.801180303,-0.6277483850000001,12.367886065,2.4546763895,5.415553808,-3.1988335845
164,1.3666120000002593,-2.0279389615,10.073904038,15.055305500000003,-6.733583211999999,1.01622954,17.357494355,3.4136736389999998,9.701443672,1.965815723
165,1.3749450000000252,-1.9744678735,10.128399849000001,15.04662325000001,0.99234733,-1.3695268185,15.789418695000002,5.2751495835,6.223221779,-1.1142193075
166,1.3832780000002458,-1.912509382,10.1599011425,15.041519199999996,-5.127664566,1.147455156,13.92776632,6.163374901,3.6182030435,-0.7080543935
167,1.3916110000000117,-1.842490077,10.244258879,15.038856500000009,-0.0068808945,-1.2289389075,14.413685319999999,7.1350505355,9.7787728315,-0.298764452
168,1.3999440000002323,-1.791244566,10.327826501,15.011550900000003,-5.397289038,1.055728681,15.870011805,5.3455245495,9.94216585,-3.091074824
169,1.4082769999999982,-1.7025163170000002,10.420161726,15.008827200000013,-2.916595697,-1.1392872330000001,15.340182304999999,9.3815612805,10.737092494999999,-0.301005736
170,1.4166100000002189,-1.622345924,10.476551535,14.975486750000002,-2.8372751474999998,0.399099603,15.246037959999999,8.960653305,6.6901943685,-3.9411854745
171,1.4249429999999847,-1.5322993995,10.544384955,14.96533205,-2.660667658,-1.6846361755,14.680282115,9.7045178395,7.821308136000001,-1.2904325129999998
172,1.4332760000002054,-1.4667685625,10.650445935,14.923889150000008,-1.8579033015,1.7712621684999998,14.64232874,7.3812294005000005,12.65935135,-4.704618454
173,1.4416089999999713,-1.365915358,10.73994398,14.916938799999997,-3.6600277425,-3.135352373,12.845936295,10.934015275,10.40835953,-0.87088415
174,1.449942000000192,-1.259579569,10.813896655,14.874076849999994,-2.887455821,3.0281828644999997,19.516301155,12.33966017,8.79516077,-5.0693399905
175,1.4582749999999578,-1.1938768325,10.873550415,14.868652350000005,-2.461454034,-1.888586402,14.263819694999999,6.682971954,6.82236433,-0.800598562
176,1.4666080000001784,-1.1144738495,10.935741905,14.838302599999992,-1.5702037215,0.5395225275,13.66796684,8.8325829505,7.3395035265,-3.6483000514999997
177,1.4749409999999443,-1.0355106295,10.996878145,14.82182315,-2.6311295035,-2.995463371,11.484004495,8.52742815,7.023487806,-2.1198086739999997
178,1.483274000000165,-0.9184713065,11.03557825,14.808746299999996,-3.6408438685,1.910483539,19.29624939,12.95490217,4.472400069,-1.635968685
179,1.4916069999999308,-0.8675680160000001,11.093760015,14.791389449999997,-3.062426448,-2.1586555240000003,15.55495071,5.1839244365,6.6647732255,-2.2493910789999996
180,1.4999400000001517,-0.798412457,11.15591383,14.783927899999995,-3.9582792519999996,1.828671932,13.946760654999999,7.0748693945,7.2703192229999996,-0.921267182
181,1.5082729999999174,-0.7372795045,11.247707845,14.765090949999987,-2.4279944895,-3.0655539034999997,11.597115039999998,6.450638056,10.69566059,-2.3857102395
182,1.516606000000138,-0.6428939405,11.284581185,14.756088250000005,-3.5304014685,0.757023424,16.780056475000002,10.157069684,4.2342255115,-1.2257181405
183,1.524938999999904,-0.5844624860000001,11.33590841,14.74808505,-1.5972833039999998,-0.4686831385,16.50531292,5.875828504499999,5.8206679825,-1.191548526
184,1.5332720000001243,-0.545842402,11.37576008,14.719154349999997,-2.6468851565,0.10388266300000001,11.546244623,3.942210317,4.6108698845,-3.602962494
185,1.5416050000003452,-0.4925920665,11.450805665,14.713920549999997,-2.2975414995,-1.7014949320000001,12.408314225,5.1895594595,8.6629905705,-0.851301968
186,1.549938000000111,-0.4116237425,11.473985195000001,14.680129999999991,-2.93800199,-0.0406745785,13.471271515,9.146689892000001,2.6038150790000003,-4.1857118605
187,1.5582710000003317,-0.35131629950000004,11.539186,14.681831349999996,-3.652154446,-0.2830324545,18.309568405,5.871104002,7.4754903315,-0.063702613
188,1.5666040000000976,-0.315786396,11.586853505,14.636627199999992,-1.1170260905,0.4697191265,13.341776370000002,3.985485673,5.538540601999999,-5.558135270999999
189,1.5749370000003182,-0.283615308,11.654337405,14.646011349999995,-4.7353513245,-1.9781814215,13.05021477,2.308124065,7.7444894315,0.8296706380000001
190,1.583270000000084,-0.21904011399999998,11.671010970000001,14.589187599999988,-0.600073129,-0.703335568,13.80689669,7.7478196625,1.813026905,-6.8719666005
191,1.5916030000003047,-0.1668699085,11.73181057,14.594985950000009,-5.495327711,0.35091088699999995,16.39559269,4.793230295,6.946619033999999,0.3903993965
192,1.5999360000000706,-0.134163119,11.77202606,14.535766600000002,-0.726058066,-0.6797504055,13.414444445,4.0290687085,4.623318911,-7.315273285
193,1.6082690000002913,-0.1133119095,11.868098735,14.533256550000004,-5.903465748,-1.2636505365,13.718636515,1.2380640509999998,11.182253365,-0.5882693235
194,1.6166020000000572,-0.06074114150000001,11.900068755,14.4770355,-0.6512817145,-0.5307724625,12.85708523,6.3287904264999995,3.6208025215,-6.836618662
195,1.6249350000002778,-0.026355937499999982,11.964897155,14.462776199999993,-4.9077539445,0.21874126799999993,16.741911885,3.1537274120000003,7.4339182375,-1.9834641815
196,1.6332680000000437,-0.011581421000000008,11.988282680000001,14.409637450000005,0.662613526,-1.4365145264999999,14.23066568,1.7293578985,2.579136014,-6.483936787
197,1.6416010000002643,-0.029390439000000018,12.070682525,14.383499150000006,-5.979887962,0.22214496150000007,13.769144534999999,-2.8087549210000002,9.541367053999998,-3.3784538504999997
198,1.6499340000000302,-0.003955825999999996,12.095896719999999,14.347328149999996,-0.229439944,-2.2673968675,11.034832479999999,2.6047626729999998,2.7929887774999997,-4.531017065
199,1.6582670000002508,0.009162888000000008,12.15820217,14.303741450000004,-5.993865013,0.6288911365,15.742788314999999,1.3463226855,7.129940271500001,-5.4282841685
200,1.6666000000000167,0.011427149499999983,12.214839935,14.274246200000007,0.1237467605,-0.788290918,16.02468872,-0.303944975,6.5568993095,-3.890969276
201,1.6749330000002374,-0.02223725600000001,12.300717355,14.221679699999996,-4.979562044,0.5895018875,14.305065155000001,-4.0283001665,9.958867548499999,-6.4775464535
202,1.6832660000000033,-0.028427511500000002,12.342043875,14.204673749999998,-0.5070038585,-2.784959674,11.60366726,-1.673954189,4.7180011275,-2.210201025
203,1.691599000000224,-0.036672175,12.382356165000001,14.142929100000003,-4.555957079,1.756245017,14.853990555,-0.7304667685,4.495439291,-7.548451185499999
204,1.6999319999999898,-0.071667492,12.44691658,14.132469200000003,-0.664447397,-3.1375790835,14.586064815,-5.2661845685,7.502281666,-1.574097216
205,1.7082650000002104,-0.138302423,12.53338432,14.059623699999989,-4.671663523,0.954017818,16.031372545,-7.434071779,10.046199798,-8.832212448
206,1.7165979999999763,-0.1919190585,12.58627224,14.055084199999996,-1.944435477,-3.1509361265,8.858915805999999,-7.6368336679999995,6.097571373,-0.9285545049999999
207,1.724931000000197,-0.22277731100000003,12.628000740000001,13.976028449999987,-3.2440357205000003,1.6648234725000002,15.242453099999999,-2.96032691,4.6954739095,-9.555173397499999
208,1.7332639999999628,-0.28638524000000004,12.676106455,13.955429050000006,-1.5672510860000002,-2.4073022605,13.08483362,-8.4446680545,5.5293066500000005,-2.6486017705
209,1.7415970000001837,-0.345639189,12.726034644999999,13.867767350000008,-2.409781814,2.185278833,14.428274155,-6.1251456735,5.701563119999999,-10.545829770000001
210,1.7499299999999494,-0.433512073,12.7631588,13.819694499999997,-3.2161132095,-3.0639970300000003,10.362282753,-10.633225920000001,4.2370557785,-5.8303000925
211,1.75826300000017,-0.47404459899999996,12.789338585,13.741210899999999,-2.0149954555000003,0.7911990435,13.761948584999999,-4.107179046000001,2.8667964935,-9.4747962955
212,1.766595999999936,-0.5454812725,12.787467,13.68292240000001,-4.7351834775,-1.505680025,13.0703311,-8.339983225,-0.422301881,-7.2508268355
213,1.7749290000001563,-0.614105895,12.808356284999999,13.604850749999997,1.1660138365,-0.010278031000000007,12.103211405,-7.485926151,2.251708984,-9.422542095
214,1.7832619999999224,-0.6955801545,12.813011645,13.548156750000004,-5.8284652235,0.014492512000000013,13.715222355,-9.6256375325,0.3712015005,-6.866434097
215,1.791595000000143,-0.7843611685,12.825564385,13.466949499999998,-0.9572231470000001,-1.6620926855,11.325809,-9.8179378495,1.2816211585000001,-9.796831131000001
216,1.799927999999909,-0.8360641005,12.83514547,13.414230349999997,-4.595748663,-0.05056908350000001,11.007133965,-6.150093317,0.9699727300000001,-6.4220523835000005
217,1.8082610000001296,-0.9077219965,12.841738225,13.333656300000001,-1.191478312,-0.434071824,12.893320085,-7.776853561499999,0.587411329,-9.7265586855
218,1.8165940000003504,-0.9795727435,12.840070725,13.271865849999998,-3.8781826495000002,-1.3760362865,11.392288685,-8.289663315,-0.3500953615,-7.6536872385
219,1.824927000000116,-1.074162513,12.836553575,13.185722350000006,1.49361217,0.8273967205,9.4709548925,-10.381105425000001,-0.5879492905,-10.39774227
220,1.8332600000003367,-1.1717663705,12.86405039,13.109275850000003,-4.826008797,-1.9098604915000001,10.315662385,-10.997793675,3.201869488,-9.247585773499999
221,1.8415930000001024,-1.2557321785,12.87764454,13.022201550000005,-2.7131683825,-0.571164444,14.00624943,-9.0751495365,1.4993165735,-10.463133335
222,1.8499260000003237,-1.3407250044999999,12.851205345,12.93624115,-1.5535367130000002,-0.25190761700000003,12.012587069999999,-9.2208957675,-3.219364047,-10.522547724999999
223,1.8582590000000887,-1.4421806335,12.860935215000001,12.860099750000003,-2.4820328955,-1.1497069,11.916024685,-11.469531055000001,1.0361727175,-9.19015789
224,1.8665920000003096,-1.5484633445,12.865461825,12.774658200000005,-4.823130130499999,-0.100186037,13.04550743,-11.78407383,0.525847524,-10.403069495
225,1.874925000000076,-1.6544523835,12.873206615,12.691131549999994,-1.155490547,-0.36369735000000003,10.3720707915,-11.813492775,0.855054587,-10.056304453
226,1.8832580000002963,-1.7564837935,12.87003088,12.604583750000003,-1.2215616705,-1.161685884,5.887819767,-11.284993645,-0.3654255495,-10.366402625
227,1.8915910000000624,-1.856830776,12.847426415000001,12.517120349999999,-0.5570860805,-0.7847933174999999,8.297269344,-11.0328722,-2.73575449,-10.62499189
228,1.8999240000002828,-1.9405069945000002,12.859425545,12.434516900000006,-5.7812511925,0.122981429,13.168056965,-9.190311432000001,1.4685924055,-9.8442053815
229,1.9082570000000487,-2.0257200595,12.85419655,12.341560399999992,-1.2205851675,0.9881795945,11.294281005,-9.0713968275,-0.597157493,-11.204524995
230,1.9165900000002691,-2.1300250295,12.856756690000001,12.255462649999998,-3.672679067,-1.490197539,7.213906526500001,-11.57105303,0.3778484615,-10.29162216
231,1.9249230000000352,-2.2345939875000003,12.8303628,12.158058149999988,-0.6565766185,0.47124948,11.060709475,-11.277027605,-3.0778455730000003,-11.82364798
232,1.933256000000256,-2.3431106805,12.91119957,12.049797049999995,-5.782944679,-0.3257543895,6.0165121555,-11.481955055,9.900493621999999,-12.50003195
233,1.9415890000000215,-2.437868118,12.891129020000001,11.95974735,-0.006049463499999998,-1.004043102,7.063432932,-10.286421778,-2.313285887,-10.93560171
234,1.9499220000002424,-2.538754344,13.082727434999999,11.85057830000001,-5.7540221215,-0.40259501350000004,3.4546902175,-10.511397365,23.22139454,-12.007845880000001
235,1.9582550000000083,-2.6448478695000004,13.160384180000001,11.745018000000002,0.4860643295,-1.1209334435,5.004219651,-11.18259001,9.5195331575,-12.21536875
236,1.966588000000229,-2.7477291825,13.344930170000001,11.648086550000002,-4.739205599,-0.482029308,6.744257688499999,-11.030982495,22.346591949999997,-10.50802946
237,1.9749209999999948,-2.856272459,13.545639035,11.555053700000002,-0.5306266545,0.972506702,5.7777059075,-11.75675011,24.23876667,-9.982002733
238,1.9832540000002157,-2.9378819465,13.858661175,11.442749050000003,-7.2840356825,-0.8356882185,5.436518073,-7.9466226105,37.865205765,-11.442945004999999
239,1.9915869999999811,-3.0181622504999996,14.207509515,11.375549300000003,1.357334852,0.04270872449999999,3.7746062275,-9.0038280485,41.86260414,-5.9523482325
240,1.999920000000202,-3.0900537965,14.443507669999999,11.24073030000001,-2.8989647625000003,0.596886456,4.5346304175,-6.0049557685,28.79357624,-14.264900685
241,2.008252999999968,-3.1385416985,14.93485403,11.1825714,-4.3553669455,-0.173520908,5.8755948865,-5.374907017,58.890857694999994,-3.8540956975
242,2.0165860000001885,-3.2074723245,15.192739965000001,11.036453249999994,3.474020243,-0.41220290150000005,-3.22764039,-5.056805730000001,31.518361095,-15.468297960000001
243,2.0249189999999544,-3.1986461879999997,15.666838169999998,10.981613150000001,-8.9778871535,-0.16128148150000002,8.121725918,1.4847588539999999,56.808015825,-3.476297259
244,2.033252000000175,-3.2223644255,16.046058175,10.85401155000001,6.5325040815,-0.20226386149999998,-0.41742896999999957,-0.052259505000000095,45.927730565000005,-12.26260805
245,2.041584999999941,-3.2212308645,16.457454205,10.781684900000002,-10.47297144,-0.38791844249999996,10.3808114225,1.238911904,49.40847969,-5.8638920785
246,2.0499180000001616,-3.24036932,16.83782482,10.692748999999992,8.2857723235,0.03289359799999991,-4.3646867275,-0.5702314374999999,45.826179505,-7.9449739455
247,2.0582509999999274,-3.233979702,17.26382065,10.603019700000004,-8.980714798000001,0.189812839,9.008951544,2.5978657605,51.26949501,-7.7079436779999995
248,2.066584000000148,-3.256270528,17.618989945000003,10.556793200000001,5.2014057635,-0.975170501,4.2967557905,-2.34091413,42.52755928,-3.1848149295
249,2.074916999999914,-3.3064142465,17.948516845,10.45041655,-2.9564384224999998,-0.34577947099999995,-0.35116130149999997,-3.445606351,39.826105115000004,-10.185117245
250,2.0832500000001346,-3.2861766814999998,18.349492075,10.448165900000006,0.207702041,-0.2934826335,1.6380428969999998,1.183226239,47.72769165,2.193966031
251,2.0915829999999005,-3.3187747,18.574139595,10.335960400000005,-1.3583540914999999,-0.522013113,6.7365977765,-0.9740651844999999,27.301005359999998,-11.51225042
252,2.099916000000121,-3.3284896615,18.83756924,10.362655649999994,0.668387294,-0.635361552,0.71496772,-3.5224853750000005,31.05918217,4.5463774205
253,2.1082490000003418,-3.356742144,19.049325945,10.265006999999997,1.419928968,-0.0031180980000000136,-1.418803811,-0.911687963,25.664645195,-9.8962960245
254,2.116582000000108,-3.3299092055,19.25441074,10.2859421,-2.9934356209999997,-0.7018619925,5.751328707,1.065603837,24.10651493,3.489467263
255,2.1249150000003283,-3.3521192075000004,19.355228425,10.2351532,2.54316783,0.36618649950000004,6.3163244725,-1.9761767985,12.064778805,-5.3517363074999995
256,2.133248000000094,-3.36606729,19.439328195,10.215141299999999,-3.47624743,-0.673469022,0.89340204,-2.205949187,9.884175299999999,-1.9846423865
257,2.141581000000315,-3.3723682165,19.45557976,10.216461199999998,4.142311096,-0.19253556449999998,0.118289113,-2.134049952,1.5910282135,-0.052176193999999995
258,2.1499140000000807,-3.3767521384999997,19.45396328,10.160133349999995,-2.711799383,-0.4619486705,2.2378779055,0.3934410235,-0.14227425700000002,-6.688542366
259,2.1582470000003013,-3.3760221,19.424642565,10.192161549999994,1.6654862165000002,-0.111079514,3.612347841,-2.515740633,-4.0722922085,3.096517563
260,2.1665800000000672,-3.4030971525,19.3586483,10.117927550000005,-2.1636060475,0.009708888999999998,4.5780246255,-1.621522069,-7.7328231335,-9.170639515
261,2.174913000000288,-3.408769488,19.274950985,10.165451050000001,-0.3627239165,-1.514327049,1.5000315905,-3.8936588765,-10.692073820000001,4.4595797065
262,2.1832460000000538,-3.4188339715,19.11887455,10.094741800000008,-0.5958508849999999,0.274948176,1.901881218,0.2538627945,-18.543151860000002,-9.430153369500001
263,2.1915790000002744,-3.3869674205,18.974905964999998,10.147689850000006,-1.3684746620000001,-1.092168063,0.9221851974999999,0.423576303,-17.947999955,4.6537106035
264,2.1999120000000403,-3.398318648,18.79280758,10.086311350000003,1.3129416704999999,1.00384669,4.3667348625,-0.3075246585,-21.72670841,-8.5639567375
265,2.208245000000261,-3.386826873,18.67271423,10.139091500000006,-3.412541151,-0.8728550075,2.9517636300000003,-1.982221842,-15.087285040000001,4.817769288999999
266,2.216578000000027,-3.4193549154999996,18.4984951,10.08251955,1.244055152,0.2729935945,2.8725899459999997,-3.0686633590000003,-20.81423664,-7.9770314695
267,2.2249110000002474,-3.398601651,18.365278245,10.135520900000003,-4.4610307215,-1.8781819044999999,0.800354421,-0.846729964,-16.661603925,4.755744934
268,2.2332440000000133,-3.3825143575,18.161693575,10.086761500000009,1.13015157,-0.09273743649999999,1.216694057,2.436107278,-24.387928965,-7.306682824999999
269,2.241577000000234,-3.3418613675,18.014258384999998,10.137260400000002,-4.232454538,-0.8519043919999999,3.149268508,1.6706760525,-18.344457625,4.396159410499999
270,2.24991,-3.3396061660000003,17.874911304999998,10.086135850000005,1.2937654855,0.680402249,4.6346389055,0.8341534435,-16.684707645,-7.114676236999999
271,2.2582430000002205,-3.367492199,17.811480520000003,10.116912850000006,-4.530385732499999,-0.473568082,3.408809066,-5.8055949215,-8.1496562955,2.7484714985
272,2.2665759999999864,-3.3822350505000003,17.758229255,10.08245085,-0.037796488,-0.655545771,0.43893137200000004,-1.832019806,-6.479249239,-4.6225373745
273,2.274909000000207,-3.3559856415000002,17.707958220000002,10.084121699999997,-4.1720392705,-1.0585106835,-0.880187899,1.7611708045,-6.3788924215,-0.4808048535
274,2.283241999999973,-3.2979983095,17.665183065,10.0907974,0.208494581,-0.5200511215000001,2.268650055,5.3895361425,-5.5022895335,0.149952136
275,2.291575000000193,-3.2677373885,17.6456852,10.070297199999999,-3.3131712674999996,-0.0481348935,5.4963482615,3.0505019425,-2.5480401515,-2.790248394
276,2.2999079999999594,-3.3091466425,17.704771995,10.117790250000013,0.282650143,0.6165130885,6.722136021000001,-8.0257093905,6.4317348005,5.513311386
277,2.30824100000018,-3.381658673,17.790218355,10.065948500000005,-3.293089509,-1.536134452,1.8544282315,-8.133738279500001,10.23468256,-5.629549265
278,2.316573999999946,-3.3973454235,17.909204485,10.116897550000004,-1.342303157,-0.7069488755000001,-2.87072897,-5.081134796000001,13.572486399999999,6.338358878999999
279,2.3249070000001666,-3.382956505,18.013779645,10.079010000000011,-2.013234675,-2.832578063,-3.0093866585,1.80284518,12.43594217,-3.890469551
280,2.3332399999999325,-3.3228658435,18.147935865,10.138229350000003,-2.9304493665,0.38984588550000004,3.7671767469999997,3.680715084,15.337871074999999,7.3689229485
281,2.341573000000153,-3.3201812505,18.31120205,10.092384350000003,0.2698214315,2.5516502855,11.432808875,0.716718532,19.51427555,-4.39623642
282,2.349905999999919,-3.3457503319999997,18.522069934999998,10.132476850000003,-3.384836793,-0.2040716375,7.7017450335,-5.913869142499999,24.656493185,5.7136683465
283,2.35823900000014,-3.4411501885,18.769566535,10.07813265,-1.564323604,0.2702053185,0.618149556,-10.690238954,29.665216445,-4.7223341465
284,2.366571999999905,-3.5033819675,19.051724434999997,10.122161849999998,-1.416832447,-1.6660196185,-2.938038111,-10.506957056,33.15287209,6.726778984
285,2.374905000000126,-3.540484071,19.309793470000002,10.050895699999998,-0.8834362920000001,-1.438944936,-1.5859395710000002,-2.9679364560000003,31.057285309999997,-6.4747333524999995
286,2.383238000000347,-3.522866368,19.60499382,10.06591795,-4.179480314,-0.325889241,0.626371771,0.18900114300000004,34.910739899999996,3.5621496434999997
287,2.3915710000001127,-3.544905305,19.927597050000003,10.016555799999992,1.7477838995,-0.6269741655000001,2.585768521,-1.9666507245,38.63323021,-3.490161538
288,2.3999040000003333,-3.5496715305000004,20.18250656,10.010108950000003,-2.515114188,0.18651150500000002,4.6791303155,-1.6319738775000001,30.2343502,0.8522630929999999
289,2.408237000000099,-3.5978226665,20.51675987,9.957641600000002,-0.347374022,0.42823303349999997,4.624784350500001,-4.9138162135000005,40.050756455,-3.7052839994999998
290,2.41657000000032,-3.6225782635,20.801963805,9.948181149999996,-2.0186336039999997,-1.3131726385,-1.143582076,-3.8961464164999997,33.880607604999994,0.780671358
291,2.4249030000000857,-3.646507144,21.13418865,9.899284350000002,-0.32335177049999997,-0.022926450000000015,0.9699526730000001,-2.0970788000000002,39.78519249,-3.2547029255
292,2.4332360000003064,-3.6342724559999997,21.35143471,9.895660399999997,1.0168620945,-0.647500664,2.2530376315,0.29989820749999996,25.699734685,0.9369692505
293,2.4415690000000723,-3.645617962,21.62508869,9.84981535,-1.728167832,0.26703309249999996,4.4420263765,-0.6712664885,32.748746874999995,-3.3380498885
294,2.449902000000293,-3.6553021670000003,21.84511757,9.830413800000002,-0.8674924075,-1.131921917,1.5938625334999998,-1.6254674495,26.145233155,-0.7938624025000001
295,2.458235000000059,-3.6665903330000003,22.089888575,9.798416099999997,0.1215324625,1.0193057655,2.5892097950000004,-1.242701009,29.19067955,-1.9925583005
296,2.4665680000002794,-3.6919641495,22.250275615,9.762313849999998,-0.33769013000000003,-1.7430998685,1.031699851,-2.736036658,19.12314415,-3.0819696185
297,2.4749010000000453,-3.69106853,22.392139435,9.75446319999999,0.52099067,-0.941367835,0.18131332100000003,-0.861355616,16.696668625,-0.089406512
298,2.483234000000266,-3.727786183,22.48704243,9.722671500000004,-0.735313207,-0.5649386345,1.05733709,-4.2752982375,11.251206875000001,-3.095788002
299,2.491567000000032,-3.760314107,22.58601761,9.7309494,-0.8776135144999999,-1.3260182139999999,3.6466870305,-5.6092615125,11.443365095,1.3757918475
300,2.4999000000002525,-3.8025794025,22.64969635,9.7047424,0.722314507,1.1081599595,2.75688684,-5.189047098,7.4748363495,-2.7070916890000003
301,2.5082330000000184,-3.8237268925,22.67374325,9.71930694999999,-1.3377019165,-0.1141610485,2.0426719785,-4.536729336,2.425488949,1.4858048560000001
302,2.516566000000239,-3.836184025,22.663754465,9.70384215,0.338705927,-1.3515559435,1.8874828815,-2.106578708,-1.422589123,-2.1029798385
303,2.524899000000005,-3.840035081,22.6412611,9.714988699999992,-1.1497330665,0.6269776819999999,3.347010374,-2.302668452,-3.121978283,0.7345394494999999
304,2.533232000000225,-3.873565674,22.601499555,9.69571685000001,-1.47838676,-0.7944371105,5.7722277645,-4.460693598000001,-4.9588389395,-2.7643524404999997
305,2.5415649999999914,-3.886288166,22.566536905,9.695701599999992,0.6527342494999999,0.28056327999999997,4.7398939135,-2.8517608645,-4.532976866,-0.6003208605
306,2.549898000000212,-3.9303125145,22.48748493,9.678306599999999,-3.0337787865,0.21896390599999999,1.97117281,-5.810615301,-9.672268867500001,-2.8834073545
307,2.558230999999978,-3.9327789545,22.415709495,9.6759567,1.545378089,-1.5904241205,0.07610294250000002,-1.5145058635,-8.9213113785,-1.1663187145
308,2.5665640000001986,-3.9389792679999998,22.313785555,9.672248849999988,-3.6315268275,-0.5336532295,1.2689685225,-1.8998976945,-12.51450157,-1.5674247745
309,2.5748969999999645,-3.9154318569999997,22.212774275,9.67848205,2.523784399,-1.532833159,2.420048416,1.2164458035,-12.48644066,-0.454985723
310,2.583230000000185,-3.893506527,22.09020424,9.683448799999994,-3.1201115845,0.6016156075,8.426038264999999,1.080562413,-15.052080629999999,-0.764303297
311,2.591562999999951,-3.8909425735000003,21.98237324,9.70735169999999,-0.156758504,0.5147874355,10.66176033,-2.095526457,-13.436973094999999,1.4589998125
312,2.599896000000172,-3.950514793,21.85756016,9.701477050000008,-2.563472271,0.9426766635,6.8567655085,-8.213488102,-15.236887935,-1.9941326975
313,2.608228999999937,-4.0036276575,21.709218025,9.730361949999988,0.5205690565,-2.129199624,-3.2367906570000002,-8.9864373205,-18.32688999,1.6616600154999999
314,2.616562000000158,-3.9831069709999998,21.62434578,9.72263335000001,-1.8265928630000001,-1.053086221,1.569900155,1.4797087315,-10.441925525,-1.882620931
315,2.624894999999924,-3.9293388125,21.416186335,9.762001049999995,-2.6616754535,-0.13499061799999998,10.4659767175,3.393478394,-25.568132405,2.343806505
316,2.6332280000001447,-3.930413127,21.278339385,9.762290949999993,0.333787933,1.319801271,5.739849925,-1.4671710135,-16.84596157,-1.4151996375000002
317,2.6415609999999106,-3.9163264035000003,21.167209624999998,9.789108249999998,-3.3598935604999998,-0.763510585,8.1117427345,-0.8005088865000001,-13.855034825,1.7638731600000002
318,2.649894000000131,-3.9245741364999995,21.003521919999997,9.787528999999992,-0.23743693500000002,0.023295149,5.5636258125,-2.2475731375,-19.92555046,-1.834210396
319,2.658227000000352,-3.9176073075,20.900296214999997,9.816658000000004,-2.7212796215,-1.0784753855,4.5014172795,-1.739629269,-12.92695522,2.092785418
320,2.6665600000001177,-3.891419053,20.768041615,9.810745249999997,-2.7305902245,0.25511846699999996,6.6833405495000004,2.0698227885,-16.129749775,-2.059679568
321,2.6748930000003384,-3.8506236074999998,20.674990655000002,9.829170250000004,-1.0529079435,-0.3114684525,4.791509867,2.7864958050000004,-11.624841215,0.995599717
322,2.683226000000104,-3.8339653015,20.599610325,9.832038850000004,-3.264306307,0.397787064,13.3135314005,0.5519996810000001,-9.3888859765,-0.6025620995000001
323,2.691559000000325,-3.828263402,20.5202589,9.840522749999991,-0.44857373850000004,-0.792405158,2.3758174180000005,-0.9993522765,-9.9107503885,0.001415178000000003
324,2.6998920000000908,-3.78777194,20.472287174999998,9.85896305,-4.1752779485,0.599567741,7.5533358459999995,2.7584739925,-6.221851826,1.3671215774999999
325,2.7082250000003114,-3.7612046005,20.438233375,9.840194750000009,0.6899053455,-0.857391149,4.958062292,2.6487166880000004,-4.2858507635,-2.6854219434999997
326,2.7165580000000773,-3.7234272955,20.35991001,9.872657799999999,-3.81210804,-0.6137637495,11.4369721415,1.850487828,-9.957919119,2.7098966835
327,2.724891000000298,-3.7142610549999997,20.396292685,9.833793650000004,-1.0264429744999999,-0.8092907965,4.9251772984999995,1.397820175,4.2935609815,-4.3946220875
328,2.733224000000064,-3.6626909975,20.236632345,9.889503500000004,-2.1538829205,0.8800317645,7.454008579,2.541868329,-19.86401367,4.7058358195
329,2.7415570000002845,-3.6520903115000003,20.397494315000003,9.82278445,-3.2994195225,-1.478694141,9.104683876,2.72539407,19.395477295,-6.573217392
330,2.7498900000000503,-3.6051415205,20.20152664,9.891998299999997,0.04513309900000001,0.02040629100000002,4.90758799,1.426758379,-24.302811625,5.9748048780000005
331,2.758223000000271,-3.586980343,20.422307015,9.810523950000004,-4.961511135,-0.376603782,10.039617418999999,4.2472531794999995,26.669223785,-7.8093116285
332,2.766556000000037,-3.5491888525,20.270151135,9.895286550000009,1.3448892235,-0.6305068435,3.9121873395000004,-0.32634472849999996,-19.15781689,8.0680515765
333,2.774889000000257,-3.5151753425,20.41841316,9.802848850000004,-6.9310033319999995,0.509287849,14.734775782,6.6125097275,18.050922395,-9.605072975
334,2.7832220000000234,-3.4929938314999998,20.444984435000002,9.87718199999999,2.169970393,-1.5906244515,0.591328625,-1.7788574325,2.328372568,8.2305078505
335,2.791555000000244,-3.4660731555,20.476107595000002,9.778053299999996,-4.842759609,0.9243792295,13.7241737845,6.0626847745,4.0588700775,-11.218266965
336,2.79988800000001,-3.4536141154999997,20.66190624,9.85028840000001,-0.9417773485,-2.79489243,1.8194856645000002,-2.875519514,21.42153931,9.134591103
337,2.8082210000002306,-3.457492828,20.610573770000002,9.757125849999994,-1.281788647,1.8850536944999998,12.325216293499999,2.1484456659999998,-5.8644182685,-11.13153839
338,2.8165539999999964,-3.4331763984999997,20.850610735,9.828681950000004,-5.068025588999999,-1.768339068,6.3603515625,-1.446808398,27.925953865,9.435535431000002
339,2.824887000000217,-3.483644009,20.83571911,9.727546650000008,1.8484764695,-0.3917186855,10.7994036675,-3.0641928910000003,-1.446999669,-11.74211788
340,2.833219999999983,-3.4846634865,21.078907970000003,9.792060850000013,-6.618690014,-0.747508228,5.4078884125,-4.218002081,28.347286224999998,8.674370288999999
341,2.841553000000204,-3.5584094525000003,21.031010625,9.721969600000008,4.187330127,0.40889680399999995,5.551852703,-7.1535315515,-5.6015136245,-8.504310131
342,2.849885999999969,-3.5546979905000002,21.34550381,9.76492309999999,-9.728934763000002,-2.089888899,9.151365757,-2.7440820935,37.024755475,6.8201315405
343,2.85821900000019,-3.6122170685,21.17708683,9.742973300000003,8.8990778925,1.0350812075,7.0063238165,-7.271628618499999,-20.363801005,-4.0259064435
344,2.866551999999956,-3.631262064,21.526602744999998,9.740287750000007,-13.14872026,-1.1391361354999998,10.288740514,-3.4949909449999996,41.534622195,2.03572005
345,2.8748850000001767,-3.6470012665000002,21.334164620000003,9.779884350000003,12.037108895,0.37868070600000014,0.20055723499999978,-4.9490184785,-23.67346764,2.6409825085
346,2.8832179999999425,-3.6353833675000002,21.564881325,9.73715974999999,-14.30675316,0.43938821549999996,17.099623202500002,1.9416371585,27.591468810000002,-3.3271120785
347,2.891551000000163,-3.635983825,21.533907895,9.823089599999989,9.161588669,-0.08794683250000002,8.484483717,-5.1831948755,-4.665402888999999,9.023742199
348,2.899883999999929,-3.6698396205,21.429771425,9.751594549999993,-6.946719885,-0.69273898,9.2639937385,-2.2502365115000003,-12.301365855,-9.077161312000001
349,2.9082170000001497,-3.602224827,21.504213335,9.84741975,0.267029226,0.592395343,8.956571102,2.5818513635,7.889186144,10.930428979999999
350,2.916549999999916,-3.6192338470000003,21.32861233,9.775817899999993,0.4243154525,-1.9261298775,5.7586278915,-0.23269899200000002,-20.86586285,-9.625512599499999
351,2.924883000000136,-3.542303085,21.188276295,9.87055205,-1.233737171,1.609832048,12.198958395,3.785362482,-17.815371515,9.204299449499999
352,2.933215999999902,-3.5257816315,20.972257615,9.787239100000008,-2.999485731,0.159272015,11.99242306,4.251235962,-25.636063575,-11.225407605000001
353,2.9415490000001228,-3.4232314825,20.80872059,9.895935050000006,-1.1235543195,-0.80966413,13.412619115,6.3311247825,-20.673092845,10.65742302
354,2.9498820000003434,-3.398522854,20.537578585,9.786231999999998,-1.580464125,0.4792651835,12.104871750000001,6.2854075435,-32.084529875,-14.54920864
355,2.9582150000001093,-3.3019521239999996,20.26250839,9.905128450000007,-1.4818911555,-1.120764196,8.782891034,5.2907288075,-34.078691485,11.10483408
356,2.96654800000033,-3.2565829749999997,19.997056965,9.81033325,0.2018337695,-0.7966686935,11.694472309999998,8.030660152,-31.5289793,-12.802046295
357,2.974881000000096,-3.179674268,19.64645672,9.914833099999996,-3.9090009925,-0.4761701915,14.569105625,3.6498298645,-43.01179123,9.101983070500001
358,2.9832140000003164,-3.1521267890000004,19.356333735,9.827262900000008,-0.033294318,-0.8537292329999999,11.55192518,5.4867043495,-34.551124575,-12.13256979
359,2.9915470000000823,-3.052113414,19.083400725,9.95581820000001,-6.561880588499999,-0.21832928050000003,14.746651175,5.596678257000001,-33.83764648499999,12.456318855
360,2.999880000000303,-3.0464242695,18.706383705,9.879280100000003,2.867249608,0.030728206000000008,12.615993021,2.3321419955,-45.053140639999995,-11.398047925
361,3.008213000000069,-2.9562448265,18.50292778,9.97496034999999,-9.10747242,-1.2518521545,13.594101904999999,5.831929922,-25.29515171,9.268581867
362,3.016546000000289,-2.9288675785000002,18.165802955,9.960861199999997,1.8191304205,0.448379874,15.658685684999998,2.558532357,-40.6465683,-4.202418089
363,3.0248790000000554,-2.8734807965,17.95684433,10.022285450000012,-7.652995347999999,-0.898972526,11.790788175,3.0352373125,-25.74335766,5.41304636
364,3.033212000000276,-2.836727381,17.715158459999998,9.993736299999995,-0.221251935,0.688057423,17.51531601,4.1970238685000005,-29.13189888,-5.216125249999999
365,3.041545000000042,-2.8016076085,17.5703125,10.0202484,-7.3193824295,-1.322703004,16.693778035,1.9229252935,-17.855099674999998,1.8564819099999998
366,3.0498780000002625,-2.7830543515,17.368330004999997,10.007843000000008,-0.0706461705,1.6401507560000002,15.287374015,1.410640597,-24.46877766,-3.1178302765000003
367,3.0582110000000284,-2.7144740819999997,17.275999069999997,9.988105750000003,-5.797335863,-0.7949390704999999,8.4229607595,7.608249426,-11.30325794,-3.1048688885
368,3.066544000000249,-2.6688895224999998,17.06917191,9.972007750000003,-1.407505453,0.19913378,21.68107605,4.776865244,-25.034163475,-3.5267746449999997
369,3.074877000000015,-2.599921584,17.06884098,9.957099900000003,-3.586959243,-1.1562161745,13.930901525,7.4759755135,-0.30827377749999996,-2.0275716785
370,3.083210000000236,-2.5073732140000002,16.843922615,9.975807200000006,-0.4286350015,-1.0199644715,7.2806258205,9.186859129,-27.388038635,0.424594633
371,3.091543000000001,-2.333634615,16.78704834,9.967750550000005,-9.5661268235,0.2762093545,23.962192535,19.802681925,-7.125051259999999,-1.5338450670000001
372,3.099876000000222,-2.2277252675000003,16.641430855,9.996902450000007,6.064336776999999,0.06838554149999998,18.315461635,10.378468510000001,-17.933173175,2.338964701
373,3.108208999999988,-2.1744198205000003,16.43862772,9.978958149999997,-7.175888777,-0.2009913325,14.318383215,5.6833791735,-24.58407116,-3.316648245
374,3.1165420000002086,-2.0783398155,16.392932415,10.02217865,-3.920723319,0.659954168,23.37694073,8.7983493805,-5.9953062535,4.2466993330000005
375,3.1248749999999745,-2.066595137,16.15452814,9.989929200000006,0.37781447199999996,-2.8836550715,12.2805383225,1.1674592795,-28.80056572,-5.0581364635
376,3.133208000000195,-2.010182977,16.008416655,10.033103949999997,-4.811661482,-1.226939142,9.719308855000001,4.0070922375,-18.036447525,4.0314511060000005
377,3.141540999999961,-1.9101923705000001,15.870275495000001,10.00861359999999,-4.1921465394999995,-1.2976176145,13.352247715,11.480074405,-16.816276549999998,-3.708814621
378,3.1498740000001817,-1.787748694,15.673384665,10.047912600000004,-0.31918421399999997,-0.1652569175,19.78920555,12.08655834,-24.09869385,3.4580903055
379,3.158206999999948,-1.7160050275,15.477597235000001,10.014480549999988,-4.4473629,1.1921420695,20.567269324999998,8.3595309255,-23.710356715,-4.8964202405
380,3.166540000000168,-1.665967524,15.306620595,10.0661621,-2.831538677,0.5987662675,20.331562995,3.0784225464999997,-21.016846655000002,4.8883252145
381,3.174872999999934,-1.6193863155,15.121886255,10.031562800000003,-4.078988433,-0.902443737,16.823619365,5.35319829,-22.390117645,-4.9574837684999995
382,3.1832060000001547,-1.578167379,14.961047175000001,10.08130645,-0.5129190084999999,-1.408950388,9.9024105075,2.105542183,-19.788042065,4.771229267
383,3.1915389999999206,-1.522751033,14.796397205,10.047393799999995,-5.4319980144999995,-1.769234955,14.377248765000001,6.369776249,-19.9902277,-4.7825894355
384,3.1998720000001413,-1.4301046130000001,14.591990945,10.061851500000003,-2.7912834880000004,-1.0837297735,15.447930335,9.383243084,-24.897923470000002,0.6075956225
385,3.208204999999907,-1.3646146055,14.3707366,10.014289849999997,-2.9173892735,0.5196231975,19.809254645000003,7.9596929549999995,-26.752190589999998,-6.490959644
386,3.216538000000128,-1.328481853,14.21211338,9.994712800000002,-2.965486407,-0.380581118,21.94517803,3.6178452969999997,-19.31120491,-3.151653051
387,3.2248710000003484,-1.3426060675,13.97866058,9.928321849999989,-1.5920380355,-0.30030827250000003,13.342144015,-1.0808190705,-28.171617505,-8.690378189
388,3.2332040000001143,-1.3259179595,13.80522585,9.89741515,-4.719601154499999,-0.36436174800000004,16.380552295,1.5656452175,-21.059829715,-4.4022049905
389,3.241537000000335,-1.3339908125000002,13.711235045,9.833076449999993,-4.54152751,-1.4947836995000001,17.586257935,-0.4596090915,-11.447566510000001,-8.075771570499999
390,3.249870000000101,-1.2642597555,13.493232725,9.795280450000007,-1.9144693615,-1.270278394,9.952319143,8.136328936,-26.389455795,-5.428915262
391,3.258203000000321,-1.178988129,13.321568965,9.738647449999988,-1.27785176,1.613175929,14.90578699,10.481837275,-20.797974585,-7.365991592
392,3.266536000000088,-1.126022339,13.159198285,9.705566399999995,-7.086670398500001,-1.9676982164999999,24.778848645,5.962561369,-19.739850045,-4.6749336715
393,3.274869000000308,-1.110269934,13.019367695,9.660934450000013,0.5297472475,0.5393991025,18.399754525,1.7771160005,-17.019791605,-5.8599870205
394,3.283202000000074,-1.127486974,12.870589735,9.613403300000002,-5.5938773155,-1.369937703,9.4158639905,-2.091300249,-18.07704449,-6.3280620575
395,3.2915350000002945,-1.094540715,12.75018597,9.579040500000005,-1.679579556,-3.213962793,14.963256835,3.5426031350000002,-14.71413946,-4.6187467575
396,3.2998680000000604,-1.066068411,12.553656105,9.501396200000002,-2.257847786,0.540610537,17.0218482,4.150264025,-23.743717195000002,-9.9377393725
397,3.308201000000281,-1.0823855995,12.375370499999999,9.46652985,-4.5593402385,-0.3804271965,18.151489255,-2.3818430905,-21.65939331,-4.8011987210000004
398,3.316534000000047,-1.1276277305,12.243665695,9.373199450000001,-3.822890878,-1.941271484,20.17768669,-4.3553819655,-15.928769115,-11.62620306
399,3.324867000000268,-1.1797337235,12.15089846,9.325042749999994,-2.6705960035,0.485162377,16.045085905,-6.358952045500001,-11.36134863,-6.1847240925
400,3.333200000000033,-1.2444120645,11.97290945,9.22697445,-1.359517276,-3.0661239625,6.836271524500001,-6.6123692985,-21.447373390000003,-12.356095315
401,3.341533000000254,-1.2066943645000001,11.852482315,9.177421600000002,-5.034828186,-0.155687306,17.085514070000002,4.427408695,-14.668570995,-6.444747925
402,3.34986600000002,-1.238647014,11.712596895,9.102737450000006,-2.2354134319999996,1.3281457425,25.41709137,-3.3153926135000003,-16.93264103,-9.525680542
403,3.3581990000002406,-1.307835102,11.55144358,9.041320799999994,-4.2736697195,-1.3706179855,16.596053599999998,-8.1442668435,-19.518145565,-7.961918831
404,3.3665320000000065,-1.3504829704999999,11.483204839999999,8.968887299999992,-3.202810645,1.4028160870000002,11.250087737000001,-4.6917092799999995,-8.3270359035,-9.102353096
405,3.374865000000227,-1.3689864275,11.40720272,8.909294099999997,-3.4605118035,-2.682010531,14.22221899,-2.127288103,-9.297916889,-7.534863472
406,3.383197999999993,-1.3615315555,11.249661445000001,8.838279700000001,-0.6318508385,-1.103135049,17.45875597,1.2594524625,-19.038762095,-9.21104908
407,3.3915310000002137,-1.3830544355,11.12211609,8.790512050000004,-5.033441782,0.856234193,15.742081639999999,-2.797894597,-15.510522845,-6.304214954500001
408,3.39986399999998,-1.409754336,11.031619545,8.725570700000006,-3.2370612625,-2.2075164915,18.405573845,-3.016025424,-11.008384705000001,-8.309745312
409,3.4081970000002,-1.459812462,10.91312933,8.68653105,-0.5823232235,0.04390351500000003,15.827068805,-6.4418282505,-14.44488287,-5.2679657935
410,3.416529999999966,-1.529240251,10.836847305,8.60624695,-5.8083746435000005,-1.170473963,14.210243705,-7.8280189035,-9.242181301,-10.0895385755
411,3.4248630000001867,-1.551745832,10.762787345,8.580429050000006,-2.9561911820000004,-2.1220185760000003,14.150366785,-3.446959257,-9.1476516725,-3.592038393
412,3.4331959999999526,-1.5980632899999998,10.63434839,8.488929750000011,-1.5333912965,0.3595523315,19.657634735000002,-4.826530218,-15.448885919999999,-11.619695665
413,3.4415290000001733,-1.693248689,10.560010909999999,8.44508359999999,-5.8837521079999995,-1.5521116855,14.17961836,-11.782614235,-9.114006996,-5.7366673944999995
414,3.449861999999939,-1.7468344569999998,10.580099585,8.3688736,-3.431084275,0.795640916,15.379542825,-6.058867931,2.3419350985,-9.345674038
415,3.45819500000016,-1.8254547715,10.62358809,8.32176969999999,-5.041503906,-1.0577833054999999,16.120006565,-9.7220249185,5.0427007674999995,-5.7039194105
416,3.4665279999999257,-1.883953869,10.599490164999999,8.254692050000003,-0.459204182,-2.0039696695,12.3628335,-6.842318296,-2.9735438825,-8.427608967000001
417,3.4748610000001463,-1.885197699,10.643535135,8.216224650000001,-4.315218687,1.389376372,12.886530874999998,-0.6253715455,5.086398125,-4.6766982079999995
418,3.483193999999912,-1.895339072,10.689310075,8.183326699999995,-2.0121279955,-0.37425854049999996,18.073123934999998,-1.797389269,5.278171539500001,-4.080834149999999
419,3.491527000000133,-1.9309637545,10.72822237,8.135360750000004,-1.583214283,0.053039516999999994,19.1369648,-4.5322208405,4.5083613395,-5.8086678984999995
420,3.4998599999998987,-2.0045112965,10.7872653,8.116523749999999,-4.7587594985,-1.4864054919999998,10.6010751725,-9.717709063000001,6.8162436485,-2.3597244025
421,3.50819300000012,-1.9918335675,10.869410035000001,8.070976250000001,-3.975787878,-2.347886324,11.48571682,1.2225675585,9.69223547,-5.3374307155
422,3.51652600000034,-1.975557506,10.926127435,8.058387800000006,-1.63801682,0.873548448,17.073117255,0.9374810754999999,6.5149552825,-1.6976987719999999
423,3.524859000000106,-1.999426186,10.97208166,8.009155250000006,-3.592731595,-1.061984539,19.500320435,-3.0676120520000003,5.3648631575,-5.9188861845
424,3.5331920000003265,-2.0662036539999997,11.025164605,7.993682849999999,-0.6008243265,-0.7437094449999999,15.433900355,-8.9550447465,6.0943191055,-2.066659093
425,3.5415250000000924,-2.143982351,11.089763645000001,7.936637849999997,-3.1494584085,-0.196734294,11.56330395,-9.3476347925,7.6469902990000005,-6.746098995500001
426,3.549858000000313,-2.1764510274999997,11.13630581,7.925972000000002,-4.3275010585,-3.2449134585,10.8696637135,-4.945365905999999,5.292284727,-1.5206659435
427,3.558191000000079,-2.1889680625,11.16942072,7.869415250000003,0.410916403,0.935470864,20.100273129999998,-1.5155814589999999,3.876868248,-6.8196115495
428,3.5665240000003,-2.259683013,11.17116547,7.8469009500000055,-6.2446918485000005,-0.9385960865,16.35720873,-9.268217563499999,-0.024045378000000006,-3.0706222055000003
429,3.574857000000065,-2.324360669,11.228580950000001,7.78538515000001,-0.645852894,-0.8147124349999999,12.074388984999999,-7.6550965305,6.8270528315,-7.2751991745
430,3.583190000000286,-2.3940912485,11.28936958,7.747405999999998,-6.2530851365,-0.41862702350000003,14.181187155,-8.7825727465,7.135921717,-4.603378296000001
431,3.591523000000052,-2.459439874,11.378650664999999,7.697997999999998,-0.8614203335,-2.9731360674999996,14.179060459999999,-8.0028488635,10.602092265,-5.6683800225
432,3.5998560000002726,-2.4892773625,11.39229822,7.664192199999988,-4.4800083635,0.30481073300000006,15.002141,-4.0822942255,1.4711663725,-4.339051485000001
433,3.6081890000000394,-2.5658494235,11.425845145,7.629592900000006,-0.50027743,-0.31221506,16.043889999999998,-9.694821836,3.8540714979999997,-4.2007856365
434,3.616522000000259,-2.6444559095000004,11.427526475,7.596412649999991,-4.211528659,-1.4156781435,16.19525957,-9.941666605,0.042487591500000005,-4.342074394
435,3.624855000000025,-2.7445260285,11.454149725,7.562309249999998,0.324443504,0.568343967,12.36605501,-12.525119305,3.0335326195,-4.1696140765
436,3.6331880000002457,-2.774462223,11.4512043,7.534812900000006,-6.572680712,-3.230432391,10.361320019,-4.232829332,-0.532801762,-3.7083268165
437,3.641521000000012,-2.7895946504999998,11.425083635,7.503486649999999,1.688312352,2.6091259715,19.323260310000002,-2.3966472145,-3.2980505224999996,-4.14907074
438,3.649854000000232,-2.8532691,11.35124588,7.4781646499999965,-6.1365168095,-2.539238095,16.72385216,-8.3354871275,-9.037676334,-3.8791606425000005
439,3.658186999999998,-2.904881358,11.31210661,7.464218149999994,2.030084908,-0.19179880600000004,12.314524174999999,-7.192004442,-4.953908682,-2.18940258
440,3.6665200000002183,-2.9632568360000002,11.25398779,7.4316254000000015,-5.513562918,-0.687267523,10.4204473515,-7.535887718000001,-7.103493929000001,-4.6519551275
441,3.6748529999999846,-2.9771590235,11.2076478,7.424430850000007,-1.1647747755,-1.9670278429999999,16.5959692,-2.825237036,-5.8564515114999995,-1.4523270725000001
442,3.683186000000205,-3.0402119159999996,11.13073063,7.379508999999999,-4.496262312,0.450642124,17.480154995,-7.82047534,-9.2736091615,-6.2265653610000005
443,3.691518999999971,-3.1026771065,11.055309775,7.380668650000004,-1.9571868775,-2.5445513725,11.5918974885,-8.850063801000001,-9.3909225465,-0.661474869
444,3.699852000000192,-3.1697876455,10.981131555000001,7.328224199999994,-1.6290780900000001,0.7669541205,11.550137995,-8.155151844,-8.8856568335,-7.090687989999999
445,3.7081849999999577,-3.2359439135,10.930302144999999,7.317741350000006,-3.7411456105000003,-3.1126203534999997,15.673826214999998,-9.02670002,-6.3667900565,-1.8890116215
446,3.7165180000001774,-3.2917118074999996,10.84828615,7.265510550000002,-2.3796061275,0.882603224,15.10596275,-6.808624505999999,-9.810690402999999,-7.1535327435
447,3.724850999999944,-3.3694725035,10.791062355000001,7.263954149999989,-3.738776326,-1.797884524,12.882742405,-10.623556135,-7.1907105445,-0.8978943530000001
448,3.733184000000165,-3.435792923,10.752045635,7.212280300000003,-2.2227358815000002,-0.524541244,12.657144545000001,-8.104574442,-4.648715019,-6.787337065
449,3.7415169999999303,-3.5130802395,10.74646902,7.21045685,-3.8947542905,-1.383644283,15.11242199,-10.5620045645,-1.0009019075,-0.568418324
450,3.7498500000001513,-3.5651474,10.71232653,7.155242950000002,-2.5416187050000003,-1.1165124325,15.486196995,-6.324693203,-4.0253543855,-7.1530065535
451,3.758182999999917,-3.6225188975,10.67565775,7.159255999999999,-3.246110797,0.6666597725,13.94932747,-8.3013563155,-4.7670657635,-0.11749891600000001
452,3.766516000000138,-3.676009059,10.625944615,7.110107450000001,-1.8724983929999999,-2.2580175995,13.14522934,-6.6331267359999995,-5.92146039,-6.598688126
453,3.774848999999904,-3.732708454,10.62935877,7.113098149999999,-2.4706686735,1.098627791,14.656284805,-8.1980547905,0.03995180900000002,0.06510497650000001
454,3.783182000000125,-3.7598563435,10.60507441,7.07444000000001,-3.848225832,-2.968147516,12.10729504,-3.701526165,-2.9443309305,-5.196577787
455,3.791515000000345,-3.777589202,10.562412264999999,7.070304849999999,-1.973733425,1.589610696,15.662899495,-3.3646349905,-5.421406746000001,-1.1411654945
456,3.799848000000111,-3.816161275,10.51942253,7.0357131500000065,-3.784008503,-2.710107207,14.200167180000001,-5.170080185,-5.2131121154999995,-4.8576631545
457,3.808181000000332,-3.8536674975,10.47799158,7.025871300000006,-0.9942833185,0.601238444,13.175376414999999,-5.6124508385,-5.2294409275,-1.806444168
458,3.8165140000000974,-3.8747028109999997,10.447792530000001,6.997322049999994,-3.79425323,-2.2563830019999997,10.8871026,-3.209130645,-3.7256803515,-4.02376616
459,3.824847000000318,-3.842288375,10.366611481,6.9913482500000015,-1.7332393525,0.8529317375000001,15.529481885000001,2.6933882235,-10.017432691500002,-1.6782575845
460,3.833180000000084,-3.857711792,10.302050589,6.968803399999999,-4.109091043499999,-0.988522023,16.090435025,-2.6715393064999997,-7.888646841,-3.589233637
461,3.8415130000003046,-3.852856517,10.2428235995,6.958831750000002,-1.0772563215,-0.8804523049999999,13.032655720000001,-0.529932961,-7.3576517105,-1.9720401170000001
462,3.8498460000000714,-3.8557422160000003,10.2152972225,6.9311905,-3.3472460505,-0.902095407,10.3821024885,-1.06541121,-3.414377451,-3.8883690834999998
463,3.858179000000291,-3.7866636515,10.168762209,6.919456449999998,-3.4269518855,-0.22286979099999998,14.022404195,7.212251425,-5.8248689175,-2.0731266735
464,3.866512000000057,-3.767565727,10.130857468999999,6.8773345999999975,-2.740847826,-0.225708927,18.069886205,1.8696855305,-4.5498054025000005,-5.6535487175
465,3.8748450000002777,-3.758604288,10.070833683,6.847030649999994,-2.423395157,-1.695276797,12.846751690000001,0.387152776,-7.2983789439999995,-4.3617455960000004
466,3.883178000000044,-3.7517290115,10.037244795,6.802139299999993,-1.9750185605000001,-0.18711293850000002,12.382312774999999,0.452052884,-4.014135003,-5.9488811495
467,3.891511000000264,-3.704661369,9.946092127,6.755142250000006,-2.5842632055,-2.5701398844999996,12.733636855,5.3011615275,-10.900741575,-6.567439556
468,3.89984400000003,-3.6631020309999998,9.850520611499999,6.715698250000003,-1.933470726,1.8017136455,19.158509255,4.4747948645,-11.489946365,-5.6974010465
469,3.9081770000002503,-3.662268877,9.731581209,6.65872195,-2.4594367745000003,-2.1756809355,13.753777985,-0.06513062149999999,-14.157105445,-7.950006484999999
470,3.9165100000000166,-3.635882497,9.6445965745,6.632385249999999,-2.119688332,0.755344585,13.342630385,2.38731122,-10.557574273,-4.1779893635
471,3.924843000000237,-3.5729088785,9.5245676025,6.583183300000002,-2.310462117,-2.7915667295,10.1785140025,7.2139060495,-14.35382414,-7.0326206685
472,3.933176000000003,-3.4855092765,9.418354988499999,6.573143000000002,-4.5336077215,2.379702568,18.703693389999998,9.3796777725,-12.9844861,-2.402782202
473,3.941509000000224,-3.4391168355,9.293851852500001,6.525672899999989,-1.6196829080000001,-2.77240479,14.563672064999999,5.168005228,-14.919372085,-6.8299469945
474,3.9498419999999896,-3.4016922715,9.214345455,6.516418450000003,-4.5633764265,0.6432074605,13.241381650000001,3.3593709465,-9.7973308565,-2.0705524085
475,3.9581750000002094,-3.3553557400000003,9.110543251,6.469291699999999,-1.0095948875,-3.510994315,10.086667536,5.135462760999999,-12.450940135,-6.6239573955
476,3.966507999999976,-3.2837544679999997,9.013852596500001,6.459899950000008,-4.0491515395,1.017726511,16.385669710000002,7.4551010135,-11.859085085,-2.171229303
477,3.974841000000197,-3.261152029,8.9152312275,6.430839550000002,-1.4787792565,-1.405891955,15.862238405,1.92914927,-11.964078905000001,-4.4309177395
478,3.9831739999999622,-3.251247525,8.872950553999999,6.419944799999996,-4.473604679,-0.004404507499999988,10.364686489,0.07652894399999999,-5.331769942999999,-1.972309053
479,3.9915070000001833,-3.232925534,8.8419809345,6.392448400000006,-2.42638278,-1.446326554,11.26275301,1.3809658885,-3.8716939685,-3.781352639
480,3.999839999999949,-3.1867825985,8.829779625,6.371238700000006,-3.7164725064999997,-1.3809466365,10.57822132,4.6140713689999995,-1.660762787,-2.9964298009999997
481,4.00817300000017,-3.1429016589999996,8.789455413999999,6.337287899999993,-0.469645098,-0.053369306000000005,12.6045198455,4.565788984,-4.956393242,-4.5993432995
482,4.016505999999936,-3.150379896,8.8257536885,6.282020599999996,-8.223874807000001,-0.7545758115000001,14.45245361,-1.210106134,4.363449215499999,-6.6154785154999995
483,4.024839000000156,-3.1808539624999996,8.904533386499999,6.216873149999998,-0.6407141385,-0.07800081,11.675356385,-3.7782412765,9.5183410645,-7.5065863135
484,4.033171999999922,-3.2530055045,8.989883423,6.103942900000007,-4.99166131,-3.053110361,4.48320353,-7.8984458449999995,10.62405777,-12.975444795
485,4.041505000000143,-3.3164260385,9.0640015605,6.011985749999994,-1.4812217355000001,-1.706865102,5.160491228,-7.206463813999999,9.1573081015,-10.686618805
486,4.049837999999909,-3.3736215830000003,9.312335968,5.897354100000001,-5.7431943415,-0.6847179830000001,7.406202793,-6.009654999,30.187387465,-12.02759695
487,4.058171000000129,-3.46634984,9.4600992205,5.822051999999999,-0.289164156,-0.42092075949999996,10.1972634805,-10.9807753565,17.884236335,-8.152399063
488,4.06650400000035,-3.57291615,9.811354639000001,5.753112799999997,-5.236732483,-1.2000223995,4.2796056275,-12.7334857,42.222824095,-5.853977442
489,4.074837000000116,-3.6681860685,10.060258867,5.693992600000001,1.6031832695000001,-0.160308659,1.794530079,-11.535098080000001,29.901146885,-5.4020466805
490,4.083170000000337,-3.7626959090000005,10.451034069999999,5.6516266,-6.9950838090000005,-0.7388355135,8.650269747500001,-11.763682365,46.769731525,-2.2718851565
491,4.091503000000103,-3.879036188,10.834298615,5.598403950000005,2.4170298580000003,0.704081744,8.547104596,-14.107954025,45.95759201,-3.507556796
492,4.099836000000323,-4.013373494,11.18303156,5.536033650000007,-6.361896753,-1.2538136545,0.685408056,-16.01977301,41.90592194,-4.7637569905
493,4.108169000000089,-4.1232472655,11.738660809999999,5.484046949999993,0.6123805495,-0.622912481,5.8306338785000005,-13.271851065,66.59077453500001,-1.6876134875000002
494,4.11650200000031,-4.2323431970000005,12.048222065000001,5.3875045499999885,-2.2481365205,-1.016720116,-0.9623386860000003,-12.030752658499999,37.524545669999995,-8.9095773695
495,4.124835000000076,-4.317925692,12.624882695,5.364860550000003,-2.3562589884999996,0.5129097404999999,11.853910443999998,-11.015486715000002,68.85415649500001,2.1923571225
496,4.133168000000296,-4.439460039,12.959011555,5.238380450000008,0.44507540749999996,0.1678922845,-3.2347764979999996,-12.552084919999999,40.758991245,-12.00109577
497,4.141501000000062,-4.5053625104999995,13.5378952,5.2598038,-3.55926466,0.5870075525,10.216881452,-9.821731569,68.708717345,7.591118335500001
498,4.149834000000283,-4.6365261075,13.895025255,5.102615350000008,1.1638836860000001,-0.9513093534999999,1.461433649,-12.59460926,43.829887389999996,-15.162080764999999
499,4.158167000000049,-4.6942522525,14.38665581,5.146148650000001,-1.2909497019999998,-1.1603472235,-1.448388457,-9.5287046425,58.038339615,9.5288453105
500,4.166500000000269,-4.722358942,14.767397405,4.99631500000001,-0.46994501350000006,1.1119241715,3.4624698165,-0.17481112499999996,46.61256409,-13.904513354999999
501,4.174833000000035,-4.745449066000001,15.147779465,5.0262909000000064,-2.209960699,-0.831267607,6.5477700235,-5.0248180625,44.85426903,6.9155614375
502,4.183166000000256,-4.8337602615,15.512378215,4.901046750000006,2.9472409485,-0.699926615,0.33967173100000003,-7.949982166,44.45885086,-11.10575104
503,4.191499000000022,-4.7928624155,15.834542275,4.902359000000004,-4.811380386,-0.1790101825,-1.0847250075,3.5401606560000003,38.162685395,3.0761328935
504,4.199832000000242,-4.771118640499999,16.09840107,4.82492065000001,4.751160383,0.9390455710000001,7.626838445500001,3.8423308135,31.947139739999997,-6.578099966
505,4.208165000000008,-4.7745227815,16.361885545,4.797607400000004,-4.951549053,1.138174169,8.63890934,-0.8206680905,31.422676085,-0.8185164334999999
506,4.216498000000229,-4.820139407999999,16.626296995,4.752533,4.2726852895,-0.749197997,-1.719966173,-5.2625005245,31.70284462,-2.829824924
507,4.224830999999995,-4.7995181085,16.785468100000003,4.688369749999993,-3.4489560125,-2.083732307,-4.2926595215,3.3617413640000002,19.30444336,-6.0640695094999995
508,4.233164000000215,-4.6759438515,16.90882969,4.696014450000007,2.8732242585,-0.5865529775,-0.010543644500000005,13.240118025000001,14.331808565,1.7797032595
509,4.241496999999981,-4.568626881,16.915631295,4.622047450000011,-0.7311000225,0.7634973005,6.733246326,14.133412835000001,1.152025938,-8.715898514
510,4.249830000000202,-4.463345766,16.945221905,4.661453249999994,0.43721504499999997,1.0125329795,7.919927835499999,9.9320092225,2.8363412615000003,4.4737060070000005
511,4.258162999999968,-4.448007584,16.89628601,4.592689499999992,1.7267616984999998,-0.269699201,3.5391175744999996,2.915771127,-5.5870671275,-8.6429991725
512,4.266496000000188,-4.3975172045,16.878555300000002,4.641014100000007,-3.2032084464999997,-1.3045893015,0.034878008000000016,3.0497202875,-2.895394683,5.0502307415
513,4.274828999999954,-4.3506269455,16.786309244999998,4.604095450000003,3.1496459244999997,-2.024179399,-2.226640582,5.585338831,-11.060101029999998,-5.388480902
514,4.283162000000175,-4.241684079500001,16.677806855,4.641624450000009,-4.982165575,-1.800732076,0.5152282265,10.452289105,-13.651929854999999,3.0068558455
515,4.291494999999941,-4.121750355,16.527737615,4.64811705000001,3.778347492,-0.30687198050000003,3.0265047550000004,12.845635415,-18.36060047,-0.8855357465
516,4.299828000000161,-4.0257753135000005,16.377484325,4.646881100000002,-6.1709952354999995,-0.14378669849999998,7.945567131,10.234261515,-18.319999695,-1.7395015955000002
517,4.308160999999927,-3.965322256,16.227600575,4.687187200000011,4.0833051205,0.6170104439999999,7.229627132500001,4.572244644,-18.612511635,3.0614142419999997
518,4.316494000000148,-3.9797353744999997,16.11935997,4.629280100000003,-7.143378973000001,-0.858461626,3.7369407414999998,-1.1209175885,-12.83956003,-7.874674797000001
519,4.324826999999914,-3.9756765365,15.979930875,4.699600249999989,4.4713165759999995,-1.3572196365,-2.3042151335,-3.171901226,-17.599852565,6.612854480499999
520,4.333160000000135,-3.9599379299999997,15.88490868,4.604156500000002,-6.8522179130000005,-3.0199227334999996,-4.6626081465,3.7068288325000003,-10.958630565,-12.091944695
521,4.3414929999999,-3.8608586789999997,15.757236005,4.6954727000000105,4.2372176645,-0.8349377065,1.9285234805,7.578281641,-16.349942204999998,9.156630993
522,4.349826000000121,-3.8108975889999996,15.68933487,4.602149949999998,-6.1283948420000005,0.71985811,10.0782957065,7.7064790725000005,-7.7552998065,-11.616300105
523,4.358159000000342,-3.79340589,15.61839008,4.702079749999996,0.875982821,0.185879402,8.5944771765,-2.4626423715,-9.6058382985,10.639462945
524,4.366492000000108,-3.835000515,15.615722179999999,4.636520400000009,-4.496269702999999,0.0608748945,1.914595783,-4.199556589,-0.16177953,-7.8957424165
525,4.374825000000328,-3.8175328969999995,15.576851845,4.722854599999991,0.51496166,-2.1288217305000003,-4.1501237154999995,-2.0138553679999998,-5.667162895,9.328051567
526,4.383158000000094,-3.7654935125,15.570857045,4.673530599999992,-1.254534721,-0.390230149,1.3257387280000001,6.5082831384999995,-0.686858609,-6.0535533425
527,4.391491000000315,-3.704234004,15.586438655000002,4.747413649999999,-2.4552291635000003,0.1341306645,6.1205096245,3.6452901365,0.9618914425,8.327047825000001
528,4.399824000000081,-3.738092065,15.668148039999998,4.703109699999999,-1.961034417,-2.2316245434999997,4.3443038465,-3.9558629990000003,9.7693471905,-4.7856619355
529,4.408157000000301,-3.7113357785,15.762907985000002,4.757995600000001,-1.0410125854999999,0.27284438899999996,0.7081394645,0.10109293450000001,10.587772845,6.748518944000001
530,4.416490000000067,-3.6940737965,15.87310934,4.725868249999991,-2.0920267105,-2.2659142015000002,0.012881488000000024,1.7985292975,13.087146755,-3.162423372
531,4.424823000000288,-3.631067753,16.03869438,4.780372650000004,-2.7917894125,-1.8779189585,3.735349417,4.4380390645,19.08073044,7.228339672000001
532,4.433156000000054,-3.632654786,16.188939095000002,4.753494249999989,0.6479773074999999,3.2389941215,9.947221279,-0.6203960925,17.841357235,-2.2659127715
533,4.441489000000274,-3.700618267,16.397124769999998,4.792549149999999,-4.822282791,-2.920511484,8.464867115,-10.796023845,24.294748305,5.7699184415
534,4.44982200000004,-3.7948431969999996,16.640166285,4.769157399999997,-0.17841488849999998,-1.210452497,-0.9334120750000001,-11.834146019999999,28.928269385,-1.090808779
535,4.458155000000261,-3.8249371055,16.876994134999997,4.786529549999997,-3.6816829445000003,-0.083258688,-3.7678803205,-5.538748979999999,27.876861575,3.563633919
536,4.466488000000027,-3.8371210095,17.12349796,4.7792816000000045,0.7511065305,-4.2353385685,-0.4586580695,-2.530880511,29.22053528,0.8310288485
537,4.474821000000247,-3.828917623,17.361891745,4.790664699999994,-3.371887684,1.6230276225,6.8609206675,-0.7455604969999999,28.107312205,2.8974583144999997
538,4.483154000000013,-3.895644188,17.644228939999998,4.747589099999999,0.727906674,1.060724437,7.535397291500001,-7.777476310999999,33.786069870000006,-2.9526585340000002
539,4.491487000000234,-3.9799566265,17.967144965000003,4.751625050000001,-3.8662017585,-1.443536043,3.486836076,-11.59176445,38.2782135,2.8070424794999997
540,4.49982,-4.109783769,18.261959075,4.69190214999999,2.1953517195,-0.888258159,-0.736453861,-14.677871225,35.420333865,-4.6127324105
541,4.50815300000022,-4.2136495115,18.59017086,4.693100000000001,-5.266835689500001,-2.5000888110000004,-0.8330163845,-13.83653593,38.92335892,2.680303335
542,4.516485999999986,-4.3072109224999995,18.900663375,4.625,3.8884457350000003,0.41011581550000004,-0.06460097449999996,-9.9257335675,37.37998962,-5.2643597125
543,4.524819000000207,-4.390436172499999,19.22909069,4.6105804000000035,-6.209800959000001,-1.5513331295,1.8442140814999999,-10.7485160815,39.073749545,1.041809201
544,4.533151999999973,-4.532724141999999,19.544775965,4.580085749999995,4.2939300535000005,-1.198253095,4.4048788545,-17.18393803,37.686151499999994,-0.8080022634999999
545,4.541485000000193,-4.672522545,19.821294785,4.5477142499999985,-4.305074214999999,1.4698727725,3.9750202894999997,-16.794594285,33.01956558,-1.2980412245
546,4.549817999999959,-4.7999174595,20.14783096,4.537734950000001,1.9310919045000001,-0.7386033835,-0.057472929500000006,-16.203819275,38.79304695,1.799248934
547,4.55815100000018,-4.8904750345,20.41966915,4.500564600000004,-2.3222297435,-1.402763486,0.5894726365,-10.646515368,32.509887695,-1.7290778160000002
548,4.566483999999946,-4.9627904895,20.664649009999998,4.501625050000001,1.1968598365,1.408929288,4.7647283080000005,-10.048522950999999,28.927865985,2.3297829625
549,4.5748170000001664,-5.101629019,20.93978405,4.459327700000003,-2.7264196875,-2.2688217164999998,1.1259211,-16.183950425,32.956809995,-2.1456430555
550,4.583149999999932,-5.191982746000001,21.175281525,4.469116249999999,1.5679523945,-1.371724844,-1.0791277435,-12.59148073,27.69779587,3.3108729125
551,4.591483000000153,-5.3215014935,21.360846520000003,4.414115899999999,-1.7474465965000001,1.9939463735,3.363593459,-14.475418569999999,22.389017105,-4.398107529
552,4.599815999999919,-5.4380760195,21.540887830000003,4.421165450000004,1.2272690535,-2.3763582705,1.0816528795,-15.62409115,21.088097570000002,2.4941749570000002
553,4.60814900000014,-5.503100634,21.695895195,4.3558121000000085,-2.4600511789999997,1.4867346879999999,0.15510678249999998,-6.2409367565,18.863867759999998,-5.799257517
554,4.616481999999905,-5.5390760895,21.81751251,4.3494110500000005,2.4821259975,1.9538384675,4.638814926,-5.3576409814999995,14.24683285,0.37998725499999997
555,4.624815000000126,-5.576534033,21.895489695000002,4.320114149999995,-2.6311228274999996,-3.3030726909999997,4.118829846,-4.5114228725,9.2811522485,-2.658770561
556,4.633148000000347,-5.5859816075,21.932424545,4.325515749999994,2.1982940435,1.3868550654999998,2.8733365535,-2.7004831435,4.0059251785,0.713305235
557,4.6414810000001125,-5.609075546,21.93048954,4.330719000000002,-2.110122919,-0.45880354949999996,3.1404761075,-4.3305602069999996,-0.635040879,0.23931378849999999
558,4.649814000000333,-5.6093137265,21.90546894,4.328125,1.1290922165000001,-2.0665436985,3.5989204645,-1.237974465,-3.3067977429999997,-0.8982912304999999
559,4.658147000000099,-5.606169224,21.816407204999997,4.355384849999993,-0.9913462995,0.8966852725,2.0835648774999997,-2.1667082905,-11.279062750000001,1.6613906025
560,4.66648000000032,-5.582125902,21.727165225,4.333763149999996,0.3232542275,-1.132373929,0.70326443,2.5233739020000003,-10.769212245,-3.7568531035
561,4.674813000000086,-5.497599363000001,21.553836824999998,4.371521000000001,-0.322441489,-1.201185405,1.672413647,7.147322893,-21.453981400000004,1.865536809
562,4.683146000000306,-5.39475131,21.42778778,4.341957100000002,-1.4975284935,2.2522310020000003,7.7795641425,12.318657395,-15.090335844999998,-5.037309647
563,4.691479000000072,-5.3017590045,21.20063305,4.3883743500000065,0.5905899555,0.16869218600000002,11.141519545000001,7.8080818655,-27.96876621,2.308638096
564,4.699812000000293,-5.2813441755,21.056070329999997,4.348709100000008,-3.265940547,-0.3943732085,6.9318804745,2.8400684595000003,-17.209209445,-6.337385416
565,4.708145000000059,-5.21117568,20.849175455,4.398887599999995,1.80649817,-1.643176854,-3.224123955,4.941514253999999,-25.582426075,3.0116596225
566,4.716478000000279,-5.072309017,20.673122405,4.357192999999995,-5.430152893000001,-0.8509698809999999,3.5261640549999997,17.11315346,-20.966969489999997,-6.8712542055
567,4.724811000000045,-4.910041809,20.41888332,4.427497849999995,1.795774579,-0.37756224,9.4383096685,15.18701744,-31.424845695000002,4.898394823
568,4.733144000000266,-4.809154987,20.30372429,4.377075200000007,-3.8427946564999997,0.4579740835,6.4824984075,12.88769102,-13.635460375000001,-7.1399703025
569,4.741477000000032,-4.67807436,20.119259835,4.448638899999992,-0.974525452,0.0030654665000000025,11.159778595,11.437455655,-23.070987700000003,5.88276124
570,4.749810000000252,-4.6257224085,19.96266365,4.398468000000008,-2.5848811864999997,-1.7734197969999999,2.278399542,7.021402836,-18.616446494999998,-7.478949547
571,4.758143000000018,-4.4955482485000005,19.88707733,4.4561920000000015,-1.0291405025,-1.256253958,6.852294207,11.936147215,-9.9058599475,5.452900887
572,4.766476000000239,-4.419487238,19.714406015,4.4234466500000025,-3.1153992415,-0.7591660695,5.847087145,9.1343865405,-20.71530533,-5.610608816
573,4.774809000000005,-4.341793537,19.72964001,4.456603999999999,-1.7368859049999998,-1.9134624005,10.1199650745,6.654233217,1.1905498505,3.556024551
574,4.783142000000225,-4.2913956639999995,19.575613025,4.4509735500000005,-2.3014113905,0.236057669,5.420783161999999,4.949709177,-18.728327755000002,-2.3411034345
575,4.791474999999991,-4.247378349,19.67245579,4.450050349999998,-1.9716205000000002,-2.0693653825,5.4662623405,3.9944250585,11.249556065,0.4421273765
576,4.799808000000212,-4.183991670999999,19.5772562,4.47702025000001,-2.8022605179999998,-0.926057339,6.6263476610000005,5.1956175565,-11.963309765,1.885041356
577,4.808140999999978,-4.175524354,19.661065100000002,4.464164699999998,-1.613799691,-1.52957958,5.9390974045,0.2073280665,9.7889928835,-1.0306912365
578,4.816474000000198,-4.109692216,19.685030935,4.514495850000003,-2.376701355,0.2763460875,7.0381240845,4.5421847105,2.111471057,5.564807892
579,4.824806999999964,-4.099162698,19.67867088,4.490005500000009,-1.354534686,-0.8816195725,8.782339096000001,0.9279140530000001,-0.909804806,-3.1324287655
580,4.833140000000185,-4.0937554835,19.8433485,4.543197649999996,-3.0090298655,-1.1766162219999998,12.873461723,-2.832551122,18.934983255,7.086757183
581,4.841472999999951,-4.1399458645,19.756704329999998,4.510681149999996,1.1162149605,-1.5808479785,-0.9674158094999998,-5.5483891960000005,-10.453413964500001,-4.7188084125
582,4.849806000000172,-4.090264201,19.91891575,4.553146350000006,-6.2430987355,-0.22983103949999997,9.894886469000001,2.910110831,18.724152565,5.8567609785
583,4.858138999999937,-4.109847307,19.946955680000002,4.514877300000009,1.9857661725,-1.6847053769999998,12.011550903,-2.1108819845,3.3182730675,-4.379176378
584,4.866472000000158,-4.150848627,19.911418915,4.548980700000001,-1.796116352,-0.22379472150000002,15.258117675000001,-7.6404702665,-4.8761053085,3.2156754735
585,4.874804999999924,-4.187685012499999,20.074986455,4.50217434999999,-3.810588956,-0.9382581114999999,4.57721591,-3.826102138,19.61199379,-4.1515948775
586,4.8831380000001445,-4.2272164825,19.944409375,4.557006800000011,3.1700003145,-1.7995689515,5.275669694,-8.3217220305,-16.425172330000002,4.699457883499999
587,4.89147099999991,-4.2789974215,19.99650097,4.500968950000001,-4.628321886,-0.32947851699999997,14.409656526,-5.243797778999999,6.354930400500001,-6.158431053499999
588,4.899804000000131,-4.280241966,19.919836045,4.566268899999997,-0.309412867,-1.1801221665,9.168435812,-4.149737239,-10.067650793,6.3430330755
589,4.908137000000352,-4.3063778875,19.78217316,4.546455399999999,0.3934680075,0.3391164465,14.346027375,-3.6546652315,-16.651894570000003,-3.783901572
590,4.916470000000118,-4.315063715,19.683218955,4.617553749999999,-2.887381315,-1.122786179,12.7962832435,-5.249049187000001,-12.787730215,6.7996327875
591,4.924803000000338,-4.3408670425,19.48468304,4.612274150000005,0.7460970285,-1.4300696554999999,9.9006991365,-4.2096885440000005,-24.0563879,-2.7095519305
592,4.933136000000104,-4.3452141285,19.277888295,4.674682650000008,-3.2596104145,-0.5340822785000001,14.087785239999999,-4.3336497545,-25.621948240000002,4.8485472205
593,4.941469000000325,-4.3429942135,19.103653905,4.650230399999998,-0.605493739,-0.4874507565,13.839275839999999,-0.09383136050000002,-20.98449516,-4.6642642025
594,4.949802000000091,-4.325856208499999,18.84738922,4.684654199999997,-2.7596479655,-1.0799129605,13.882791520000001,-0.611565951,-31.30064678,1.25587976
595,4.958135000000311,-4.2885780335,18.59070015,4.681892399999995,-3.7480840685,0.337290683,14.875932215,3.2540349964999997,-31.036885265,-2.9437825679999996
596,4.966468000000077,-4.231981039,18.41604328,4.68199924999999,-5.3550493715,0.6940066069999999,16.47148466,5.4608547685,-21.24352169,-1.8633596304999998
597,4.974801000000298,-4.1689620015,18.183522224999997,4.6828766,0.157047734,-1.458231509,14.36200428,6.203861475,-28.180289270000003,-2.258703113
598,4.983134000000064,-4.140291333,17.920313835,4.667610199999999,-1.8011850715,-2.43424499,11.0544762625,2.6816844939999998,-31.71692848,-4.342769027
599,4.991467000000284,-4.058111787,17.702072145,4.7038650500000045,-1.13702929,-1.0876546355,11.79459906,7.2061851025,-26.76443291,1.9432763459999998
600,4.99980000000005,-3.9685189725,17.47225666,4.70288085,-5.3157906530000005,-1.6163123549999998,13.18053913,9.5241742135,-27.829210279999998,-2.559004903
601,5.008133000000271,-3.8494672775,17.310119630000003,4.745223949999996,-1.5953732729999999,-0.060443878000000006,22.420095445,11.442358015,-20.087563515,3.191970944
602,5.016466000000037,-3.811429143,17.056957245,4.714775099999997,-1.9747207165,-1.761549294,16.823177815,4.3170015815,-30.41812134,-5.8267314435
603,5.024799000000257,-3.7452275755,16.8653965,4.751724250000009,-5.1883404255,0.7233327924999999,16.365594865,5.3247282505,-23.561613084999998,2.3986077310000002
604,5.033132000000023,-3.7077101470000002,16.666858675,4.7254409500000065,1.2653009295,-1.5499188305,16.72973871,4.08685565,-23.91991806,-4.876709938
605,5.041465000000244,-3.682172179,16.451509955,4.751251249999996,-7.783725977,-1.7955872414999998,14.70985365,0.8562844395,-26.325764655,0.980231702
606,5.04979800000001,-3.6309995649999998,16.322930815,4.711708049999999,-0.5506620999999999,-1.007549822,14.443040844999999,6.154859066,-15.448589325,-5.8426089285
607,5.05813100000023,-3.6003700495,16.06267357,4.71850585,-1.5882027745,-2.789820433,12.330496312000001,2.1237167120000002,-31.563542365,-1.5050299169999999
608,5.066463999999996,-3.589047432,15.910852430000002,4.666564949999994,-1.721815288,-0.042376078,16.721710205,1.7483385205,-18.147715565,-7.439862013
609,5.074797000000217,-3.572087526,15.711921215,4.686737050000005,-3.8896950484999997,-2.489730716,15.114478590000001,0.05122217550000002,-24.31715298,0.5193288475
610,5.083129999999983,-3.5699677469999997,15.489039420000001,4.642547650000012,-2.6077519655000003,-1.1869753895,16.310959815,0.35379040250000005,-26.715562820000002,-7.0819945335
611,5.091463000000204,-3.546654701,15.333746909999999,4.641693099999998,-3.8184838295,-0.08383978149999999,17.928803445,1.497908175,-18.93833828,-1.571613073
612,5.099795999999969,-3.56573534,15.129535675,4.613182050000006,-0.2393308955,-1.253355086,18.640043255000002,-2.7157764435,-24.594469070000002,-5.1306881905
613,5.10812900000019,-3.60845232,14.986981870000001,4.6018524499999955,-6.7729973795,-0.6113876625,19.690546035,-6.100429058,-17.336131095,-2.6984091995
614,5.116461999999956,-3.657426238,14.8162756,4.576271050000003,0.6766994,-1.426065892,10.592773436,-6.414908171,-20.59656811,-4.570375204
615,5.1247950000001765,-3.699021697,14.605196955,4.567092899999992,-4.229197979,-2.2905923130000003,11.847921375,-6.037867546,-25.553634645000002,-3.006088376
616,5.133127999999942,-3.7263637780000005,14.50848436,4.5488433999999955,-0.3758098335,-1.3250286574999999,16.210179330000003,-4.057525754,-11.784842014999999,-3.1827483174999998
617,5.141461000000163,-3.7250336405,14.308139324999999,4.526748650000002,-6.838710308,-0.41893387200000004,16.346772195,-0.506745895,-24.169579505,-4.4387700555
618,5.149793999999929,-3.724521637,14.123960495,4.515121449999995,0.5070118905000001,-0.16147990899999998,18.572584155,-0.8918112815,-22.299904825,-3.2198774815
619,5.15812700000015,-3.755414009,14.004515645000001,4.49626155,-6.6522715095,-1.19769761,21.935742375,-4.4853224755,-14.50476837,-3.4408890010000004
620,5.166459999999916,-3.845544696,13.810519695,4.495414749999995,1.2791207435,-0.31187544,13.13317013,-12.093154909999999,-23.556723595,-2.051752925
621,5.174793000000136,-3.9171308280000003,13.76148605,4.469390899999993,-7.7918612955,-2.0507606865,14.36852884,-9.173661709000001,-6.0108542445,-3.741035819
622,5.183125999999902,-4.000365734,13.625189305,4.465377799999999,3.9643261435,-1.0553456975,15.1251921665,-11.176915645000001,-16.619813915,-2.0016249420000003
623,5.191459000000123,-4.108848214,13.50251436,4.4278336,-7.9448292255,-2.079790175,10.020495415000001,-13.28888798,-14.72059536,-5.7256162165
624,5.199792000000343,-4.1288266185,13.441735265,4.426963799999996,-1.921533704,-1.98916477,14.943610665,-3.6772561075,-7.6020355225,-1.0280528665
625,5.208125000000109,-4.1743032935,13.294819355000001,4.391754150000011,-1.1550757885,0.2880495785,20.394867895,-5.8073639870000004,-17.630770679999998,-5.6886417865
626,5.21645800000033,-4.2776920794999995,13.23121834,4.380081149999995,-5.5929067135,0.6677132135,23.106102945,-13.39442873,-7.8454494475,-2.3254528045000002
627,5.224791000000096,-4.3975896835,13.212485789999999,4.338363649999991,-3.5505776405000002,-1.3400104345000001,15.149418829999998,-14.570097445,-2.2193585035,-5.341247796999999
628,5.233124000000316,-4.5247900485,13.126036645,4.313430749999995,-0.7212640345000001,-1.1876250210000001,11.6598181745,-15.892752170000001,-10.451160909999999,-4.1045670505
629,5.241457000000082,-4.650185346500001,13.13670206,4.270553600000014,-4.6944196225,-1.9014122185,12.3550643905,-15.206751345,1.3301217555,-5.2071316240000005
630,5.249790000000303,-4.6834850315,13.118965625,4.2436600000000055,-2.3444163795,-1.6502206474999999,12.87662506,-4.570245743,-2.2015306949999998,-3.6943285465
631,5.258123000000069,-4.7176778315,13.08095884,4.216697699999997,-1.8197845815,1.7758333085,20.70231438,-4.6963706015,-4.6336541175,-3.8269721265000003
632,5.266456000000289,-4.821959018499999,13.0963974,4.1833038000000045,-5.610937594999999,-1.152463913,20.230447765,-12.914648055,1.835836649,-4.1344583035
633,5.274789000000055,-4.8991098404999995,13.124032975,4.152748100000011,-0.262010213,0.41129004950000003,13.1099853495,-9.753254891000001,3.259930134,-3.592403531
634,5.283122000000276,-4.9642498495,13.14157152,4.127273549999998,-3.9405961035,-0.918198809,11.160058020000001,-8.430740118,2.017178774,-3.1772216555000004
635,5.291455000000042,-4.9582190515,13.14206791,4.096755999999999,-2.2766996625,-2.237978816,15.536262035,0.23089312750000002,0.022015423000000034,-3.8680500985
636,5.299788000000262,-4.936677456,13.170651435,4.086456300000009,-4.7746095655000005,1.505131215,17.69834995,1.5594521759999997,3.187147498,-1.2995830175
637,5.308121000000028,-4.9286682605,13.15952015,4.0656204,-1.3481380939999998,-1.6313700079999998,17.258646965,0.20528520649999998,-1.468188703,-2.857005358
638,5.316454000000249,-4.943170547499999,13.16427517,4.056541449999997,-1.6434091925,-0.9427496195,15.512893675,-2.8004364969999997,0.324948624,-1.404140413
639,5.324787000000015,-4.979744196,13.216025349999999,4.026344300000005,-2.7277458904999996,0.0677992625,14.294264795,-4.8891494275,6.1451556685,-3.293753862
640,5.3331200000002354,-4.991008519999999,13.259269715,4.023788449999998,-5.429363728,-3.4063800575,14.05312395,-2.588568211,4.8617546560000005,-0.247055711
641,5.341453000000001,-5.0008203985,13.22486353,3.994094849999996,2.006731093,0.25246715550000004,14.895841125,-1.6867421865,-4.1582980155,-4.1277015205000005
642,5.349786000000222,-5.0353376865,13.252536294999999,3.970794699999999,-6.874401808,-0.933856808,14.772046565,-4.8117809295,3.212044239,-2.812974453
643,5.358118999999988,-5.0778162479999995,13.276237965,3.9447555500000107,1.4459553955,-0.8140347895,15.696008205,-5.7057821749999995,2.7539976834999997,-3.0949105025000003
644,5.3664520000002085,-5.168675661,13.365356445,3.917587249999997,-6.5487113,-0.861191836,19.451654435000002,-11.46309519,10.600599765,-2.59632957
645,5.374784999999974,-5.267173767,13.352471354999999,3.9077987499999978,1.422582209,-3.6014875175,11.092992785,-12.87507963,-1.7830774785,-1.594006002
646,5.383118000000195,-5.3131854535,13.38250208,3.888069150000007,-5.509175777499999,1.7757543624999998,12.771472455000001,-6.278760433,3.4688783885000003,-2.3720638750000003
647,5.391450999999961,-5.400580883,13.40685844,3.8880539000000027,-0.624709457,-2.1538720725,19.268764495,-11.814510345,2.5638507605000003,-0.045785449500000006
648,5.3997840000001815,-5.501269579000001,13.468230720000001,3.8577499499999988,-3.835425615,-0.23627772,17.311581609999998,-12.544541835,7.3343873025,-3.2283866405
649,5.408116999999947,-5.6065723895,13.493748185,3.881034849999992,-1.1212909819999999,-0.34548510600000004,11.759581565000001,-14.6137619,2.4372522835000003,2.6838278769999997
650,5.416450000000168,-5.673107624,13.47902727,3.8691635000000133,-2.2995929715,-2.1666836735,12.69146872,-8.9551281925,-1.9528742435000002,-1.9727381469999998
651,5.424782999999934,-5.7220020295000005,13.427269935,3.9158325500000046,-1.656339705,0.9840815965,18.419882774999998,-8.496978282499999,-7.0669231415,4.4885425565
652,5.433116000000155,-5.802912474,13.379527095,3.9001236000000006,-1.2235441805,-1.805145681,13.75610876,-10.5736536975,-5.845547199,-2.826524973
653,5.4414489999999205,-5.8397984505,13.33059788,3.9469375500000012,-2.6221531625,2.212368071,15.043529515,-7.0505309105,-6.7420198915,4.523775578
654,5.449782000000141,-5.879621505999999,13.257344725,3.93462375,-3.1725761895,-3.279923558,12.677999975,-5.7373518945,-8.926260948,-2.766433716
655,5.458114999999907,-5.853930950500001,13.14982891,3.9790954999999997,-2.507570505,0.887654513,16.53949022,0.537726089,-13.710553645000001,3.5316723585
656,5.466448000000128,-5.853378295500001,13.02247477,3.972023000000007,-2.2248209115,-0.5434090345,15.46772814,-1.039842129,-15.445188045,-2.8235151765
657,5.474781000000348,-5.8115019795,12.909556385,4.012054450000008,-1.3092760440000002,-0.21434981949999998,14.308604715000001,2.621854186,-14.301484585,2.9620752335000002
658,5.483114000000114,-5.7782771585,12.769637585,4.006553650000001,-3.059425473,-0.344448501,16.041994575,2.836245418,-16.966263769999998,-2.7803680894999996
659,5.491447000000335,-5.687525749000001,12.612455364999999,4.0518340999999936,-2.149981856,-0.879506484,13.166172979999999,8.3721380235,-19.64254761,3.0704244375
660,5.499780000000101,-5.5781195165,12.42856741,4.0483627499999955,-3.5695797205,0.9077400565,15.04873705,11.92676926,-22.245212555000002,-3.0375744105
661,5.508113000000321,-5.423550844,12.268881799999999,4.08984375,-1.698418498,-1.3069458004999999,12.614490985,16.160176274999998,-19.88593483,2.684072256
662,5.516446000000087,-5.266009569,12.13444471,4.078826899999996,-4.1621611115,0.8482452925,16.430146215,17.88780689,-16.268933295,-3.2420530320000003
663,5.524779000000308,-5.0633208750000005,11.957242965,4.104827849999992,-2.594302416,-2.049690664,15.00814247,22.347654345000002,-21.797549245,0.8040250835
664,5.533112000000074,-4.8522479535,11.765305045,4.096908600000006,-2.0138828755000002,1.5502609015,15.559499265,24.233476635000002,-23.19241047,-3.390271306
665,5.541445000000294,-4.6295814515,11.547882555000001,4.108573949999993,-3.250911593,-2.7478727105000003,13.98799896,25.113783835,-26.459236145,-1.1121906639999999
666,5.54977800000006,-4.4138491155,11.415534019999999,4.0857467999999955,-2.2651360035000003,0.6557877435,14.83773756,25.13805294,-15.948977475,-4.3942089079999995
667,5.558111000000281,-4.1845924855,11.25553417,4.075080850000006,-5.7902879715,-3.5699586864999997,15.527210710000002,26.43968487,-19.39686489,-3.012435317
668,5.566444000000047,-3.9514884945,11.079340460000001,4.041030850000013,-0.6185777035,0.763995737,17.839291095,27.473542209999998,-21.132437705,-5.9907467365
669,5.574777000000267,-3.7676619295,10.88736248,4.0073394500000035,-5.47260499,-2.838518381,15.5042243,21.505647655,-23.063712119999998,-5.8262767790000005
670,5.583110000000033,-3.577430725,10.770717144999999,3.964309700000001,-1.0989888904999998,0.43842119,14.116325855,22.50149918,-13.974155905,-6.4349853995
671,5.591443000000254,-3.378044009,10.689667700000001,3.9151992500000006,-6.65397644,-2.385189295,12.31521845,23.70089912,-9.7025561325,-6.6881308555
672,5.59977600000002,-3.132742763,10.575989725,3.8849105500000007,-0.1126062035,-0.4458231775,16.305274484999998,28.81143379,-13.748331069999999,-4.820686579
673,5.6081090000002405,-2.9397332670000003,10.4917640705,3.8465347499999893,-5.4396252635,-0.8361968694999999,16.4529686,22.678516385,-10.198063373499998,-5.376424312999999
674,5.616442000000006,-2.7279002665,10.414429186,3.8335647999999907,-0.4887548425,-1.4554795025,13.35804272,24.407377245,-9.527791021,-2.4594739675
675,5.624775000000227,-2.534781098,10.394550321499999,3.791152949999997,-4.7055776115,-0.338355154,12.985950469999999,22.769918445000002,-2.4983814955,-5.4301495555
676,5.633107999999993,-2.3184389475000002,10.3359675425,3.77614595,-2.150778294,-3.5089633465,14.88266039,24.99097252,-7.2839312555,-2.5546182395
677,5.6414410000002135,-2.1270463465000002,10.277523994500001,3.745811450000005,-2.8105145695,-0.747331694,16.14082289,22.294389725000002,-7.214835167,-4.1704025265
678,5.649773999999979,-1.9781103729999998,10.2292213435,3.717086800000004,-3.8079487085,-1.6007705925,15.63147974,17.188635825,-6.0071356295000005,-4.0643720629999995
679,5.6581070000002,-1.8569275739999997,10.18610811,3.6819915499999922,-1.8228435520000001,-3.0431467295,13.70550346,13.964440345,-5.378202438500001,-4.634608268999999
680,5.666439999999966,-1.8060095905,10.137178422,3.653610200000003,-1.358060181,-2.735263109,14.708695415000001,5.4112827775,-6.0995886325,-3.9998229745
681,5.674773000000187,-1.8199314475,10.123250009,3.6048888999999917,-4.5759129524999995,-2.351381779,13.434741975,-1.968242586,-1.8345491885,-6.121296167000001
682,5.6831059999999525,-1.8215957285,10.0936341305,3.566635149999996,-3.7751172779999997,-3.2044126989999997,11.25932169,-0.6922695635,-3.7451279164999995,-5.1105582715
683,5.691439000000173,-1.83396256,10.0167913455,3.531112699999994,0.40275529,-1.7863724825,16.95015669,-2.06565392,-9.42873621,-4.8059165475
684,5.699771999999939,-1.9246051309999999,9.973947527,3.5053635000000014,-4.530683756,0.344452843,17.64789581,-11.64471388,-5.375564337,-3.6700527665
685,5.70810500000016,-2.0570515990000002,9.987860201,3.4650344500000045,-4.183256626,-2.3883259295,16.019647120000002,-16.382570270000002,1.4885141255,-5.021538018999999
686,5.7164379999999255,-2.230805099,9.925658225500001,3.4311751999999984,-0.818688214,-2.732146859,10.328114508,-21.449170109999997,-7.645884037,-4.7492973805
687,5.724771000000146,-2.4582027195,9.9399356825,3.369346649999997,-4.3863432410000005,-1.5171372889999999,7.9194612505,-27.336613655,1.6644589905,-7.5463626385
688,5.733103999999912,-2.6741387845,9.935301782,3.322006250000001,-1.3446936015,-3.6604641675,7.793601272,-26.260055545,-0.64813654,-5.9268360135
689,5.741437000000133,-2.921339989,9.949278832000001,3.253158600000006,-3.709250331,-2.529675126,7.7112631795,-29.567450524999998,1.72506249,-8.3578739165
690,5.749769999999899,-3.173543692,10.0116372085,3.181701650000008,-3.9925023315,0.5896893145,15.69127035,-30.10717201,7.578215361,-8.3508319855
691,5.758103000000119,-3.4846725464999997,10.149843216,3.0884551999999985,-1.8676875229999998,-0.5259876925,10.766640665499999,-36.707889555,16.849806309999998,-10.343959810000001
692,5.76643600000034,-3.848553538,10.190933227,3.0052108499999974,-2.8990447525,-1.7597488760000002,5.6134593485,-43.23211861,5.204533338499999,-9.8114533425
693,5.774769000000106,-4.1618480685,10.425348282,2.900260949999989,-2.9580925705,0.4249415395,4.811832428,-36.67180061,28.57898045,-10.708981515
694,5.783102000000326,-4.46036911,10.525592805,2.8409042500000083,-4.739659071,-0.367817275,10.7018890395,-35.855093005,12.176875590000002,-6.391496419999999
695,5.791435000000092,-4.7565724849999995,10.859034059999999,2.762313799999987,-1.9520730375,0.3630930745,7.1792995909999995,-35.123716355,40.2790966,-6.3338465695
696,5.799768000000313,-5.0205574035,11.178570745,2.6910781999999926,-4.295546531499999,-0.7747221295,-0.7496212720000002,-31.373120309999997,38.57346535,-5.404199123
697,5.808101000000079,-5.242358922999999,11.472745414999999,2.6435927999999933,0.971663296,-0.27341504400000005,2.5330877755,-26.824979785,35.30936813,-2.719141245
698,5.816434000000299,-5.4266433715,11.89735079,2.529472350000006,-8.3360123635,-0.6414347295,8.791679027,-20.669316295,51.632202145,-8.930727958999999
699,5.824767000000065,-5.635081291500001,12.36066246,2.4803390499999978,3.6616898775,-0.6038847565000001,0.45539545999999964,-25.101284024999998,55.543075560000005,-0.6881735325
700,5.833100000000286,-5.8181889055,12.67149067,2.334175099999996,-6.7833468915,0.530021325,7.015063583,-19.49884033,38.47621727,-13.635923385
701,5.841433000000052,-5.9932014945,13.349027155,2.2990264999999965,0.7785529645,-0.7487926485,6.143115997000001,-21.378944394999998,80.94395447,3.968508482
702,5.8497660000002725,-6.1889026165,13.586384774999999,2.137214650000004,-2.4548305275,0.685569927,3.273263872,-20.29036331,29.978486065,-16.06245899
703,5.858099000000038,-6.287940502,14.245453354999999,2.1358490000000074,-0.23822975150000003,-1.1901707049999999,-3.5529524090000004,-13.170934200000001,78.28622436500001,8.121635437
704,5.866432000000259,-6.3555665015,14.49799299,1.9947891000000055,-0.564118542,1.8018935324999998,6.8984286785,-5.2398774625,31.577881815,-13.27678776
705,5.874765000000025,-6.4102942945,15.06046486,2.0119781500000045,-2.630525589,-0.20055189749999996,6.066759348,-8.4191834925,66.505889895,9.167416096
706,5.8830980000002455,-6.499782801,15.336619375,1.888778650000006,3.6461589334999998,-1.0390071795,-0.648351431,-8.188348293499999,34.183814999999996,-10.763555525000001
707,5.891431000000011,-6.447419405,15.698678015,1.9166641500000026,-6.8613078595,0.0019063350000000368,0.7672404644999999,4.06433928,42.45778656,7.784352064
708,5.899764000000232,-6.4336080550000005,15.911324025,1.8204879500000004,8.3600382805,1.1388992514999998,4.6916234495,3.4758599995,26.253510475,-8.485968589999999
709,5.908096999999998,-6.4146130085,16.19956827,1.8184737999999925,-8.222446918500001,-0.5515684485,7.810495615,1.020939618,34.051525115,3.319319844
710,5.916430000000219,-6.416426182,16.375217915,1.7529144000000088,7.5115749835,0.24747568350000004,1.9973788259999998,0.6641901585,21.441562655,-5.4644591810000005
711,5.9247629999999845,-6.368122101000001,16.4641819,1.7210692999999964,-7.8447782995,-1.3680731210000001,2.2088403105,5.5504961015,10.671294215,-2.7714797255
712,5.933096000000205,-6.296254158,16.495186805000003,1.732414250000005,6.7483985425,-0.2597538825,2.458110154,6.9165287015,3.2068703175,1.3908978104999998
713,5.941428999999971,-6.237856150000001,16.48020935,1.6583175499999925,-5.5912742615,-0.761310905,1.6748559475,8.2037730215,-1.201121986,-8.988785267
714,5.949762000000192,-6.1378996375,16.432843685,1.7337035999999983,5.3183057305,-0.5276889205,0.598660618,8.1082134245,-6.9311492445,7.6944916249999995
715,5.9580949999999575,-6.0642461775,16.313704015,1.63162994999999,-3.8634012935,-0.5912387225,3.876708031,10.964817525,-13.31156874,-13.523142335
716,5.966428000000178,-5.942144871,16.190080639999998,1.757232650000006,3.1700047255,0.091459915,4.9342632295,9.10994339,-16.61098766,12.520596025
717,5.974760999999944,-5.896132468999999,15.991035459999999,1.6255950500000012,-3.1530303955,0.167754438,5.9602072239999995,8.5740332605,-22.537886614999998,-17.87666893
718,5.983094000000165,-5.8072228435,15.80974531,1.7591171499999945,0.515603483,-1.024817109,4.456979990000001,4.9543271065,-23.557700155,12.793044089999999
719,5.991426999999931,-5.801144123,15.57944918,1.611167899999998,-3.138750196,-0.38079738599999996,3.048537612,4.2044713495,-26.10984802,-20.1152668
720,5.999760000000151,-5.7191259865,15.352183345,1.7468032999999963,0.3457617535,-1.613700569,0.7584201989999999,4.1763340235,-29.050953865,12.55099249
721,6.008092999999917,-5.691747904,15.096048835000001,1.6181183000000061,-2.159229875,-0.6653369520000001,1.575703442,6.013376951,-29.446711540000003,-18.19925976
722,6.016426000000138,-5.5885863305,14.82433748,1.7530975499999926,0.240930788,-1.7295885685,2.100590706,6.873632669499999,-34.32839775,12.046612265
723,6.024758999999904,-5.5535914900000005,14.54899168,1.6724624999999946,-2.103917241,-0.48504760850000006,2.401904106,5.327811241,-32.32234955,-12.838796615
724,6.033092000000124,-5.4814560414999995,14.342645645000001,1.7896041999999994,-3.1553410289999997,-1.691498518,2.4262462855,3.8226264714999996,-26.298299784999998,10.84869194
725,6.041425000000345,-5.43274045,14.146271225,1.739776599999999,1.5068511365,2.4892099500000002,5.090713501,5.991243601,-23.252609255,-8.3274679185
726,6.049758000000111,-5.385611772500001,13.942043779999999,1.8113631999999882,-4.106307983000001,-1.3772002145,4.9643267390000005,2.243776262,-25.526669505,5.6704378129999995
727,6.058091000000331,-5.3868200774999995,13.80058718,1.801048250000008,-0.6089636085,-1.473262593,2.9707795385,-1.1737020610000002,-17.13371754,-3.104682803
728,6.066424000000097,-5.386277914,13.6431756,1.830451949999997,-2.7737107275,0.04481118950000007,2.2247098684999997,-2.097774446,-19.471083645,1.3197803495
729,6.074757000000318,-5.3701348305,13.486045834999999,1.8359527500000041,-1.4103130099999999,-2.4278820750000003,4.03338635,0.4574511795,-19.179297445,-1.4438812135
730,6.083090000000084,-5.3251531125,13.41755581,1.8401489000000026,-5.5886018275,-1.4845860305,1.41726923,3.955280423,-8.5727334025,-0.5958703905
731,6.0914230000003045,-5.2972152235,13.27287054,1.8666991999999993,3.0370554925,1.723269165,3.5098115205,1.2912842334999999,-17.920829775,1.163149029
732,6.09975600000007,-5.2786662579999994,13.178745750000001,1.855567899999997,-5.7774908545,-3.1688685415,6.709029913,1.2072053249999999,-11.47195673,-2.654704213
733,6.108089000000291,-5.275637865,13.15251541,1.8785934499999968,-0.2717549355,1.8304451105,3.6474637985000005,-1.5921616555,-3.7282739874999997,2.073530078
734,6.116422000000057,-5.2760784625,13.105424405,1.84272,-1.7606434825,0.4611011815,2.116977155,-0.40115095700000003,-5.586163759,-5.011021852500001
735,6.1247550000002775,-5.3014712335,13.091067315,1.8777999999999935,-1.845819175,-3.934028864,3.656871676,-5.3260006905,-2.4411203859999997,3.6077975035
736,6.133088000000043,-5.2990720275,13.136469365,1.8304901000000058,-2.381117463,2.2962442635,1.489490986,0.249239346,5.5906853675,-5.319072008
737,6.141421000000264,-5.2968902589999995,13.141242980000001,1.8364638999999983,-0.6088319125,-0.8907894195,-0.0038515329999999626,-1.2259933950000002,0.159186058,0.43232345550000006
738,6.14975400000003,-5.308013439,13.23123407,1.8208389499999953,-2.6546393635000003,-2.6011242865,4.7065520285,-2.233196318,10.574011325,-1.1364076134999999
739,6.1580870000002506,-5.31358099,13.287810325,1.7979812500000065,-0.3405474425,1.9215306045,1.204184711,-1.3655525445,6.661167383,-2.3472691775
740,6.166420000000016,-5.3357670305,13.413094995,1.7931671500000022,-3.8365819455,-1.9974696635,-0.4817619919999999,-3.8545142415,14.67268896,0.5192967205
741,6.174753000000237,-5.3518543245,13.50692272,1.7715301499999896,0.906003386,-0.9820396605,2.7382442355,-2.651925266,11.09830904,-1.7794018385
742,6.183086000000003,-5.3530170915,13.654054165,1.7610474000000096,-4.692444801000001,0.388982147,0.547025204,-1.168015748,17.344727515000002,0.1117485295
743,6.191419000000224,-5.377972841,13.79726839,1.7515563999999983,0.8667942584999999,-0.3759564255,2.165852815,-4.049924612,16.86572742,0.1908837185
744,6.1997519999999895,-5.3659763335,13.95940018,1.714111299999999,-4.440364122,-1.3212124109999999,5.5983099935,1.1931818425,19.430663105,-2.840997338
745,6.20808500000021,-5.374510527,14.154158115,1.72704315,0.9034329055,1.1687512395000001,3.8747404815,-2.7268867495,22.780014039999998,3.369432807
746,6.216417999999976,-5.398942709,14.305341245000001,1.6778716999999972,-1.52410084,-1.1167988035,4.648191214,-2.806033969,18.25030804,-4.306964159
747,6.224751000000197,-5.419286489,14.521781445,1.6885528500000078,-2.015008688,-2.7267282605,-0.9089733085,-4.086145401,25.39214325,3.3676145075
748,6.2330839999999625,-5.463648796,14.641849995000001,1.6699676500000038,2.2923510074999998,1.872911036,-1.0007226839999999,-6.086667061,14.19959259,-1.0998178125
749,6.241417000000183,-5.4771516325,14.84215546,1.6740035999999918,-6.035326004,-2.2613511085,-0.5825016425,-3.0695921185,23.534555435,2.442017317
750,6.249749999999949,-5.4917757515000005,15.02007532,1.6796646000000095,1.8522891405,0.8135789705,4.2436842915,-3.2553720475,20.840357779999998,2.376252532
751,6.25808300000017,-5.535727739,15.25280285,1.6451492000000059,-6.039714098,-1.3988921644999999,5.94554162,-5.5197107795,27.834435465,-1.611719072
752,6.266415999999936,-5.5751578805,15.456804275,1.6800384499999979,4.7282090189999995,-0.7064487930000001,0.33668744549999996,-7.1652209755,23.62479687,6.0722224715
753,6.274749000000156,-5.6187331675,15.597299575000001,1.6249618500000054,-3.6638573405,0.4300154445,1.8345889445,-4.786385774499999,17.052379610000003,-5.0082945825
754,6.283081999999922,-5.631898165000001,15.78140783,1.6525192499999974,-0.26513163,-1.2363622785000001,-1.0380221235,-3.7988168,21.326005935,5.016736030500001
755,6.291415000000143,-5.656113863,15.891567705,1.6128082000000035,-0.07655809050000001,1.2310435769999999,2.3060576915,-2.931376696,13.25867939,-3.5795066355
756,6.299747999999909,-5.6477143765,16.049275395000002,1.619163499999999,-2.0814973114999997,-0.45704104,7.315634489000001,-0.525168702,18.410820010000002,2.277778506
757,6.308081000000129,-5.647893906,16.16777992,1.5808868499999988,-2.418148637,-0.5289478005,2.82112813,-0.07232180249999998,14.23879385,-3.309173584
758,6.31641400000035,-5.6221630575,16.29574442,1.6075744500000013,0.5619829000000001,-0.7580199240000001,-0.7032751145,0.8661646805,14.630808355,4.252354145
759,6.324747000000116,-5.594792366,16.3508873,1.5877151500000082,-1.8375846745,0.67716524,6.465959786999999,2.6301274895,6.4624145035,-1.9483533505000001
760,6.333080000000336,-5.577656745500001,16.36983061,1.6276703000000055,2.858017564,-1.116982788,6.5680856705,-0.6172966344999999,1.466549456,4.4848029615
761,6.341413000000102,-5.5676443575,16.339809895000002,1.610603349999991,-2.4442088605,0.9796943665,4.0293759105,0.45250748100000004,-3.741068125,-2.6215850115
