,time,Euler_X,Euler_Y,Euler_Z,Acc_X,Acc_Y,Acc_Z,Gyr_X,Gyr_Y,Gyr_Z
0,0.0,-4.417127370499999,16.35123968,-128.4474678,-0.6341052095,-1.4158014655,0.7684154515000001,-25.698579785,45.823303225000004,1.76165466
1,0.0083330000002206,-4.588745594000001,16.6636982,-128.44959255,-1.8391388055,0.08419275249999991,1.8456324935000001,-21.653912544999997,37.16139793000001,2.2715710400000004
2,0.0166659999999865,-4.7823011875,17.07693577,-128.48629,-0.8697190585000001,0.503011629,4.0133288205,-23.195279125,49.580562595,-0.627311468
3,0.0249990000002071,-5.009248495,17.43729973,-128.5034752,-2.550859816,-0.6722756105,7.460700035,-27.75031376,43.02311707,1.2497778235
4,0.033331999999973,-5.2214670185,17.8664217,-128.5575943,0.0511998535,0.024337232499999972,7.3391468500000006,-24.740733145,51.644618985,-1.9910778515
5,0.0416650000001936,-5.370331526,18.218923565,-128.5780144,-2.1431574225,-0.597388923,-0.064132035,-18.250664715,42.102481845,1.1551475525
6,0.0499979999999595,-5.4806370735000005,18.568598745,-128.60714719999999,0.96906773,-0.270207949,-0.013543606000000041,-13.375329492499999,41.8951931,0.21529483799999993
7,0.0583310000001802,-5.597812891,18.920481685,-128.6160126,-1.4048258550000001,2.3810983895,4.288874865,-14.8391513815,41.893146515,2.579254016
8,0.0666639999999461,-5.7192327975,19.271098135000003,-128.6421776,0.21104645699999997,-0.8639405075000001,8.647009609,-14.778210641500001,41.962762835,0.7521575095
9,0.0749970000001667,-5.806565285,19.568995475,-128.63851929999998,-1.4687737825,0.724577561,7.702353477499999,-11.770445825,35.298080445,3.5453474519999997
10,0.0833299999999326,-5.8965501785,19.802324295,-128.65341565,0.788845949,-0.4939760305,6.4706840515,-11.372960565,27.837804795,0.6089469495
11,0.0916630000001532,-5.955215931,20.032697675,-128.6591377,-0.055492222499999966,0.18875621250000002,5.2582111355,-7.963830232,27.340820315000002,1.7497609555
12,0.0999959999999191,-5.945681095,20.13038349,-128.6691437,0.177834153,-0.23826408349999997,2.936319947,0.31429332500000007,11.579760075,-0.3264214395
13,0.1083290000001397,-5.8900296685,20.216535565,-128.67602535,0.7991275189999999,1.725981012,0.43357648000000004,5.844414234,10.1314178715,-0.1944952605000001
14,0.1166619999999056,-5.8297219275,20.252725599999998,-128.69370655,0.3191491364999999,0.5045270285000001,10.5181012145,6.7163097245,4.330227375,-1.956818953
15,0.1249950000001263,-5.7531759739999995,20.166933059999998,-128.68397525,-1.0233737230000002,1.0767659545,9.7420259735,7.6570311795,-10.5844182965,-0.4097312095000001
16,0.1333280000003469,-5.6379241945,20.05835819,-128.7051468,2.6482562124999998,0.04417616099999999,5.6920130845,13.444814685,-12.920594218000002,-4.075534046
17,0.1416610000001128,-5.462435722,19.879392625,-128.68408970000002,-3.003441155,0.681911655,10.829170705,19.04977131,-21.830542565000002,-0.1790115235
18,0.1499940000003334,-5.250879526,19.66907883,-128.7032051,2.4038223625,0.008353173500000005,4.887360394,24.97043705,-25.126787184999998,-4.9157743455
19,0.1583270000000993,-4.9879231455,19.391079904999998,-128.6761246,-3.131995261,0.23342081899999995,7.0554127685,29.269247055,-33.714439395,-0.410667479
20,0.16666000000032,-4.7114391325,19.12905598,-128.67432785,0.2089638709999999,0.619106598,5.378382683,31.94934273,-31.55555153,-2.8246333005
21,0.1749930000000858,-4.410296202,18.785315515,-128.64178465,-1.2554877439999999,0.5958517195,9.5365815185,33.659293175,-41.625919339999996,-0.09269273249999999
22,0.1833260000003065,-4.086850762,18.53690243,-128.61173245,-2.7243576650000003,0.1313877255,12.789665695,36.504327775,-30.181108475000002,0.8179991249999998
23,0.1916590000000724,-3.7793183325,18.236108780000002,-128.57751085,-0.24621572349999998,-1.945229113,6.3095202445,34.41169739,-36.494817729999994,0.932635814
24,0.199992000000293,-3.462984562,18.01970196,-128.55545805,-5.2482151985000005,-1.390843034,10.869832993500001,35.910295489999996,-26.26196289,0.48380255699999997
25,0.2083250000000589,-3.1591014865,17.819673539999997,-128.5276146,-0.5343390405,-0.7450483889999999,1.944703221,34.291713715,-24.37202263,1.321081892
26,0.2166580000002795,-2.9009561535,17.58324051,-128.52109529999998,-3.354532719,-1.7117399574999999,10.163600923,29.49538517,-28.552652360000003,-1.172115475
27,0.2249910000000454,-2.6781780719999997,17.54845142,-128.5001297,-3.5576446055,-1.572643995,14.026042935,24.855324745,-4.5176239014999995,1.7435555159999998
28,0.2333240000002661,-2.525028348,17.429179195,-128.51235585,-0.17655548100000001,-2.5724899765,3.1951907279999996,17.57974768,-14.413584234999998,-2.4646795395
29,0.2416570000000319,-2.3876223565,17.339170455,-128.48927305,-3.2706303595,-2.015211582,9.237397431,14.488812925000001,-11.1256766335,1.739104509
30,0.2499900000002526,-2.3027038575,17.36775589,-128.50206375,-2.7236288785,-1.379114032,7.09178221,9.440895082499999,3.3005098105000004,-1.714155972
31,0.2583230000000185,-2.2802760005,17.258543969999998,-128.47284315000002,0.553348869,-1.0425089895,5.6318695545,0.47235853250000004,-13.44796181,2.35282135
32,0.2666560000002391,-2.293735683,17.35567665,-128.48650745,-5.6055853365,-1.281471759,18.58649826,-2.343216062,11.524985314999999,-1.4698986415
33,0.274989000000005,-2.3343072535,17.37887478,-128.4781418,2.2877084,-2.3820387125,1.4312515855,-6.324795127,2.518775821,0.6001991855
34,0.2833220000002256,-2.421610117,17.352033615,-128.48703005,-3.957821488,-1.372757137,7.3082559125,-11.416752814999999,-3.3435803649999998,-1.530815631
35,0.2916549999999915,-2.5011004210000003,17.504008295,-128.48858645,-2.8726667315,-0.5457537619999999,10.833558085,-10.61193037,17.995173455,0.14436841
36,0.2999880000002122,-2.6554471255,17.51945114,-128.4997253,0.5027424095,-1.484002948,3.4592827555,-19.387675285,1.7401037365,-1.5727077425
37,0.3083209999999781,-2.8248679635,17.623429299999998,-128.49269485000002,-4.2833582165,0.70254232,15.1502862,-21.696640015,12.187580585,0.9595931769999999
38,0.3166540000001987,-2.9807416205,17.766789435,-128.49372485,0.8386435509999999,-1.173161,6.600634099,-19.93324089,17.01843929,0.3819527625
39,0.3249869999999646,-3.1484532355,17.805561065,-128.46100235,-3.3590885454999997,-1.7413088085,9.550451280499999,-22.469483375,4.217449784,3.5284649135
40,0.3333200000001852,-3.3311830755000003,18.025655745,-128.48130415,-1.3387535549999998,0.078655485,9.6805160065,-22.419034955,26.326836585000002,-1.1847108305
41,0.3416529999999511,-3.4904776815,18.098691945,-128.4576912,-1.812421918,-0.22608247400000003,0.9816004040000001,-21.175732609999997,8.373899460499999,2.7232552764999998
42,0.3499860000001717,-3.646899581,18.21500301,-128.47016904999998,-0.538140953,0.36002128549999995,13.496516705,-19.48484707,13.82989931,-0.930649072
43,0.3583189999999376,-3.82636559,18.40251637,-128.4869537,-3.7332378625000002,-0.8499761075,13.43681192,-22.12528801,22.37774277,-0.9500514864999999
44,0.3666520000001583,-4.0022107365,18.50314331,-128.50489805,2.1938088535,0.6569332405,7.584661722,-21.59133816,11.993525980000001,-1.5625780525000001
45,0.3749849999999242,-4.1324772835,18.6059227,-128.52711105,-2.7536376715,-1.4205882695,10.253847836,-16.00584173,12.280761720000001,-2.146799922
46,0.3833180000001448,-4.250851512,18.73526001,-128.54516984999998,-0.410075635,0.5837202370000001,8.1706421375,-14.689962390000002,15.445006845,-1.272380948
47,0.3916509999999107,-4.344404697,18.803506849999998,-128.57763675,-2.340941787,1.096689999,7.903805973,-11.160151006,8.230867862,-3.568870306
48,0.3999840000001313,-4.399843216,18.88199711,-128.57526395000002,-0.0650997164999998,0.874516606,11.012839319000001,-7.950670958,9.194216968,0.624993749
49,0.408317000000352,-4.4523923395,18.957841870000003,-128.60365675,-1.8947166799999997,-0.03862988949999996,10.8010320655,-6.371618986,9.1067082865,-3.0083025694999996
50,0.4166500000001178,-4.484111786,19.02456188,-128.6134033,-0.3170315625,0.2023752185,7.1989755644999995,-4.6403644085,7.896471977500001,-0.8427724245
51,0.4249830000003385,-4.455011606,19.070534709999997,-128.63949965,-2.4987540245,1.179421455,10.484492777,3.3315029144999997,5.514706372999999,-2.9921398165
52,0.4333160000001044,-4.413002968,19.134301184999998,-128.64123535000002,-1.4998870345,0.20277105250000002,10.584362029000001,3.8975777625,7.476667881,0.012211576000000002
53,0.441649000000325,-4.391578913,19.195197105,-128.66605,-0.979464263,0.246194258,9.122385980499999,2.3789989945,7.2825374605,-2.7165305615
54,0.4499820000000909,-4.3430948255,19.240009309999998,-128.67728805000002,-1.1902371349999998,-0.832520038,7.7246234415,5.0353491305,5.2970240115,-1.2366937994999998
55,0.4583150000003115,-4.271004915500001,19.304805754999997,-128.69393155,-3.379648566,0.7876775115,9.3593497295,8.151525497,7.672539711000001,-1.7659863235
56,0.4666480000000774,-4.195897817500001,19.361922265,-128.69251635,-0.126557812,0.375229761,10.909255027,7.729992628,6.6632623675,0.2916565165
57,0.4749810000002981,-4.1575553415,19.43002701,-128.6915016,-2.8044998645,-1.5161513985000001,11.1345782285,3.3847675324999997,7.9252498155,0.2232473045
58,0.4833140000000639,-4.1075640915000005,19.496964455,-128.69926835,-0.6908973755000001,-0.5911885985,7.827414035,5.1317486164999995,7.9071919909999995,-0.6687557694999999
59,0.4916470000002846,-4.017889738,19.53604317,-128.70408245,-2.6323931815,-0.048799603999999996,7.902524471,9.729055881499999,4.512562752,-0.7089573145000001
60,0.4999800000000505,-3.9481589794999996,19.59860897,-128.7013321,-1.0005464705,0.454496682,10.427652836,7.083719969500001,7.3010692595,0.4432096485
61,0.5083130000002711,-3.9187333585,19.669405935,-128.7198181,-1.447149813,-1.2853108194999998,11.828844548,3.0838385820000003,8.404670715,-1.979519129
62,0.516646000000037,-3.8763848545000004,19.699098585,-128.73469925,-1.8143912555,-0.825527631,9.1760795115,4.445350647,3.523635328,-1.825706124
63,0.5249790000002577,-3.833227754,19.734153745,-128.74986645,-2.0048123595,-0.052250116999999985,8.6400771135,4.6480617525,4.087200198000001,-1.9051998555
64,0.5333120000000235,-3.78275764,19.793429375000002,-128.7661476,-0.5086580515,0.2950469255,9.3964738845,5.5064592359999995,7.070374727,-1.766998172
65,0.5416450000002442,-3.7180958989999997,19.785972595,-128.76437755,-2.040038705,-0.0580522725,9.571238041,6.48845768,-1.1186122295,-0.3368465305
66,0.5499780000000101,-3.6579670909999997,19.765583995,-128.75737379999998,-0.84227907,-0.041297663,9.8145132065,5.7647147180000005,-2.649575144,0.2343386409999999
67,0.5583110000002307,-3.5782860515,19.77116394,-128.76179505,-1.533709779,-0.538583562,10.6966614725,8.5641207695,0.4825658799999999,-0.944409758
68,0.5666439999999966,-3.463828087,19.753186225,-128.73022459999999,-1.8458765745,0.36968113449999995,9.8223264235,11.234800339,-2.512141466,3.0203791855
69,0.5749770000002172,-3.370023251,19.68335819,-128.70534515,-0.5839310435,0.017697408999999997,9.514849186,9.102121355000001,-8.7570080735,1.8357084389999998
70,0.5833099999999831,-3.2625676390000002,19.63615227,-128.67137144999998,-0.9974909425,-1.232356787,8.614557503,10.306516648999999,-6.0140435695,3.0808932785
71,0.5916430000002038,-3.1367498635,19.569491385,-128.64279935000002,-3.363806963,-0.021841108499999984,9.299551962999999,12.74351883,-8.378289938,2.299018711
72,0.5999759999999696,-3.0387041569999997,19.517085075,-128.60960004999998,-1.0765380414999999,-0.036963104999999996,11.289648534000001,9.338157416,-6.6166827675,2.7964344025
73,0.6083090000001903,-2.969876409,19.485640525,-128.59443665,-2.1198909285000003,-2.011575818,10.166245939,6.448871373999999,-4.069961667,1.026753247
74,0.6166419999999562,-2.893213749,19.39649296,-128.56845470000002,-1.4816592339999999,-0.5269843934999999,6.127936363,6.952715874,-10.9707708335,2.0053898095
75,0.6249750000001768,-2.830937743,19.31896019,-128.55742644999998,-1.5109876395,-0.41296237700000005,10.661589148000001,5.871116042000001,-9.574385166999999,0.28917193399999996
76,0.6333079999999427,-2.7806761265,19.298049929999998,-128.54174805,-2.3444247545,-0.500593722,12.563889025,4.182279348,-2.7227804659999997,1.2495776415
77,0.6416410000001633,-2.73348248,19.221253394999998,-128.52796935,-1.4752482175,-0.46409492199999997,10.115006925,3.9531737565,-9.501320362,0.6587854025
78,0.6499739999999292,-2.708492637,19.149546625,-128.5087891,-1.5902522205,-1.475202501,9.59733176,1.009597868,-8.8205442415,1.334335148
79,0.6583070000001499,-2.6910117865,19.10884762,-128.5047226,-2.585358918,-0.6216552035,8.645064354,0.8015846615000001,-5.1298270225,-0.22104436149999995
80,0.6666399999999157,-2.6731168035,19.019824985,-128.486908,-1.1264178155,-0.157130234,10.079772948,0.20217955099999985,-10.88146591,1.0814139245
81,0.6749730000001364,-2.688120842,18.997787475,-128.4775543,-1.8744297625,-0.15738823600000001,13.13568592,-3.3240232465,-2.913196504,0.4630477095
82,0.6833059999999023,-2.6888523099999997,18.920602795,-128.45998,-2.379422426,-1.0552218555,11.187593935,-1.9797815680000002,-9.472542284,1.1776144805
83,0.6916390000001229,-2.6936479804999998,18.804458615,-128.45619965,0.7046994865,-0.100102633,6.586573362,-1.9068520665,-14.157567025,-0.719010994
84,0.6999720000003435,-2.688955903,18.733345030000002,-128.4381981,-3.828825355,0.3351195675,14.364550115,-1.3603915869999998,-8.737131116499999,1.245146513
85,0.7083050000001094,-2.707321405,18.58394337,-128.4349289,-0.2647669315,-1.2290620209999998,9.3798627845,-3.4749302865000002,-18.150661945,-0.951844389
86,0.7166380000003301,-2.6945233345,18.504917145,-128.4290161,-3.316209197,0.3607345075,16.14697933,0.08386731149999999,-9.6178781965,-0.1752589645
87,0.724971000000096,-2.697450876,18.350251200000002,-128.42884444999999,0.05953896049999996,-0.19993422900000002,8.861994265,-1.5209096075,-18.761050224999998,-1.3452984095
88,0.7333040000003166,-2.6439436675000003,18.22292995,-128.424324,-4.388097167,0.4635130615,17.74214077,5.007827520499999,-15.39017677,-0.6102016865
89,0.7416370000000825,-2.5918389555,18.133131025,-128.413826,-1.767341405,-0.883292735,10.9089727415,4.7377762795,-11.052416324,0.24298334100000019
90,0.7499700000003031,-2.5329140425,17.92065239,-128.3980789,-1.7638663350000001,0.43655926700000003,13.8294792155,5.242302179499999,-25.65564251,0.23911559599999999
91,0.758303000000069,-2.4495165345,17.830645564999998,-128.36952209999998,-4.132570385999999,0.0754835905,17.513654705,7.8265836239999995,-11.162595275000001,2.3335081785
92,0.7666360000002896,-2.3729869125,17.707829474999997,-128.35367200000002,-0.0005707739999999961,-0.922088504,9.088991642,7.344435215,-14.89956093,0.7830336095
93,0.7749690000000555,-2.2822892665,17.533652305,-128.3061676,-2.1053694785,-0.5519977065,11.643258095,8.030859947,-21.33545208,4.123714447
94,0.7833020000002762,-2.1878570914999997,17.490406035,-128.28368375,-4.7763741015,-1.2498486565,19.100356105,9.2829971315,-5.3822557925000005,1.941840798
95,0.791635000000042,-2.082744658,17.38410091,-128.25209809999998,-1.0674743055,0.18486268849999998,10.274786469999999,10.3271117195,-13.10685921,2.670720279
96,0.7999680000002627,-2.0161058305,17.258442879999997,-128.2377586,-2.5335083904999998,-1.2885606585,12.649029729999999,6.235236168,-15.218726635,0.6705999970000001
97,0.8083010000000286,-1.9393232464999999,17.197714804999997,-128.22179035,-3.077156186,-0.44742236500000004,15.14503479,7.4923813345,-7.570095539,1.111055881
98,0.8166340000002492,-1.90214771,17.132720945,-128.2283478,-1.606557697,-0.789494336,11.374264718500001,3.4925904274999997,-7.871254921,-1.4265336990000002
99,0.8249670000000151,-1.8733363745,17.04374266,-128.2246132,-1.3510749935,-1.1985170545,10.16839886,2.141798377,-10.901086333,-0.40574875499999996
100,0.8333000000002357,-1.8591427805,16.985087875,-128.22751235,-4.148662448,-0.7949708995,15.522447110000002,0.5978556274999999,-7.121564627,-0.9616993365
101,0.8416330000000016,-1.8527974485,16.965613845,-128.2260971,-1.8118381645,-0.371761838,8.081813335500001,-0.4693489,-2.5567872525,-0.39531093100000003
102,0.8499660000002223,-1.8618481755,16.874000075,-128.2184067,-1.528741747,-1.2910339835,11.83480549,-2.538742423,-11.118859289,0.12919163700000003
103,0.8582989999999882,-1.8751645685,16.870301725,-128.20774845,-3.367523849,-0.101611319,13.677801604999999,-3.1413042544999996,-0.702329546,0.739598185
104,0.8666320000002088,-1.934860766,16.810715675,-128.1928444,-0.04616993700000005,-1.2543490825,5.604891777000001,-8.8972713965,-7.2926805015000005,1.0340339835
105,0.8749649999999747,-1.9880813955,16.79149914,-128.17082595,-4.936363935499999,-0.415560972,15.876914020000001,-8.317544460499999,-2.6131197215000004,2.0080792905
106,0.8832980000001953,-2.059676707,16.801343915,-128.163414,-0.4083669485,-1.111218244,7.282604456,-10.066510676,1.0623698235,0.461927097
107,0.8916309999999612,-2.137941718,16.7820673,-128.14957809999999,-3.930629492,-0.4460764065,11.633492469,-11.04041481,-2.5910530384999997,1.053910583
108,0.8999640000001818,-2.249138832,16.837739465,-128.146286,-0.378372341,-1.104913205,8.029189348,-14.66444778,6.5707192425,0.206578847
109,0.9082969999999476,-2.330319464,16.849860665,-128.14093400000002,-3.3403685094999997,0.1164905915,10.976174833,-11.115221505000001,1.213506579,0.21825253949999998
110,0.9166300000001684,-2.419285655,16.9006753,-128.12634655,-1.6097190749999999,-0.45016101049999996,7.7290000925,-12.379234794999999,5.9306962489999995,1.496255696
111,0.9249629999999344,-2.5152313709999996,16.97539711,-128.12651065,-2.0052495895,-0.18858706949999993,12.51043415,-12.663501265,8.734929561000001,-0.08507126600000003
112,0.9332960000001548,-2.5921077730000004,16.99293184,-128.1048813,-0.3859842419999999,-0.8559151144999999,9.020464420500002,-11.208163736500001,1.9125894419999998,2.1066044870000002
113,0.9416289999999208,-2.6645183565000004,17.072497365,-128.0946121,-3.2449927925,-0.010272279500000009,12.387573241999998,-10.2263574595,9.266604900499999,1.1512193085
114,0.9499620000001414,-2.7688931224999997,17.071333885,-128.0775795,-0.10933363399999996,-0.44878646749999995,8.807696819,-14.30870247,-0.32229748350000004,1.509677559
115,0.9582949999999072,-2.8400707245000003,17.09495926,-128.06882480000002,-2.930334121,0.125465466,15.700266840000001,-10.022505283,2.5639083385,0.6671996115000001
116,0.966628000000128,-2.920326352,17.10866594,-128.05811690000002,0.6316151915,-0.5065276105000001,9.8348522205,-11.219382764999999,1.500040293,0.877134055
117,0.9749610000003486,-2.9906806945,16.998862745,-128.03897095000002,-2.3657229545000003,0.145148687,12.34718132,-10.3076314925,-13.48546267,1.0340788085
118,0.9832940000001144,-3.0411374569999996,17.01548052,-128.0316582,-2.000623643,0.17494110799999996,15.268003465,-7.5064954754999995,1.8558924195,0.59342435
119,0.9916270000003352,-3.0795166495,16.857062815,-128.01970675,-0.20884712049999998,-0.1202955545,9.6380224225,-6.2124652865,-19.269684315,-0.15019565849999994
120,0.999960000000101,-3.1155743595,16.75798321,-128.0058708,-2.5007317065,0.448160816,18.24340725,-6.0015830995,-12.040678502999999,0.567746043
121,1.0082930000003216,-3.133016348,16.664607525,-128.00203705,-2.8005323410000003,0.3929831235,10.4097933765,-3.4245723485,-11.422209026,-0.6737377050000001
122,1.0166260000000875,-3.13130486,16.45622921,-127.98779295,0.7768631575,-0.254644722,8.313571335,-1.4620869755,-25.141204835,-0.13577479149999994
123,1.0249590000003082,-3.109218478,16.331350325,-127.98405075,-4.42237556,0.520749107,16.230793955,1.33792147,-15.20047665,-0.871005898
124,1.033292000000074,-3.083547115,16.192934989999998,-127.96809389999999,-0.708299816,-0.508654207,9.208079339,1.328937262,-16.762190345,0.5767814069999999
125,1.041625000000295,-3.05457592,15.989053725000002,-127.9635811,-2.8386445045000004,0.6312044485,12.496643070000001,2.1503161339999997,-24.675703050000003,-1.2703771295
126,1.0499580000000606,-2.966696143,15.874186515,-127.93393705,-3.549923301,0.9439945144999999,16.369359494999998,8.352444885,-14.01734209,2.3180758360000002
127,1.0582910000002812,-2.8793840404999997,15.728961944999998,-127.93299485,-1.8537929655,-0.314969279,12.844420435,9.311417578499999,-17.638466835,-1.249008
128,1.066624000000047,-2.7881259915,15.567115784999999,-127.89149474999999,-1.281550281,0.029526338000000013,12.850946428,8.367200136000001,-19.69311428,3.3944253325
129,1.0749570000002675,-2.7100340129999996,15.43026924,-127.87672805,-2.4288987515,-0.4009431005,14.845903395,7.76119113,-16.713126185,0.4493700265
130,1.0832900000000336,-2.6071920395,15.347263815000002,-127.83815765,-2.7967551950000002,-1.0189967455,17.874396320000002,9.850327014,-10.214253902,3.618907809
131,1.0916230000002545,-2.4985096455,15.23337698,-127.8249855,-1.924289286,-0.1537877995,13.46437168,11.4968757625,-13.949592595,0.43524366599999986
132,1.09995600000002,-2.3873938325,15.084174155,-127.787117,-2.3599847555,-0.8998486099999999,12.90801239,10.903241633,-18.127802375,3.194109321
133,1.1082890000002408,-2.293051958,14.996192935,-127.76868820000001,-3.1106753945,-0.09779750749999999,13.619629385,9.618684292000001,-10.866918085,1.241592944
134,1.1166220000000069,-2.1756923795,14.914445879999999,-127.72916409999999,-2.5306997,-0.5993075965,14.860363005,11.607491019000001,-10.031304834,3.7855286599999998
135,1.1249550000002273,-2.0773248075,14.78956795,-127.7046585,-1.9014975724999998,0.7845231035,17.00775051,9.9384160055,-15.315344334999999,1.8152109684999997
136,1.1332879999999932,-2.0254241825,14.69943714,-127.66971585,-2.1770305635,-1.5739429595,19.18450546,3.8821582794999996,-10.999663824999999,3.285192937
137,1.1416210000002138,-1.9597102405,14.59257603,-127.63644024999999,-1.7751131055,-1.304737717,16.30802107,5.7554299835,-13.182049275,2.9395926295
138,1.1499539999999795,-1.8734019995,14.458856585,-127.60104369999999,-1.653145671,0.231349716,14.90716505,8.0443456195,-16.217453005,3.1501680015
139,1.1582870000002004,-1.791015148,14.263036249999999,-127.55257415,-1.5290175675,-1.0423128305,10.5252094265,7.299612999000001,-23.89344883,4.40834105
140,1.1666199999999662,-1.7179065345,14.054389475,-127.51944735,-1.066539079,0.47821470350000006,15.677578445,6.5822865975000004,-25.192842480000003,2.651958585
141,1.1749530000001869,-1.6782909035,13.86577892,-127.4647102,-4.1824523209999995,-0.8518860865,20.489643094999998,2.010379225,-23.033791545,5.2218616010000005
142,1.1832859999999528,-1.649052739,13.649940489999999,-127.43851855,-0.4881768675,-1.0296994745,17.042339325,1.5127068645,-26.02720261,1.9828119275
143,1.1916190000001734,-1.629820466,13.428691390000001,-127.38871764999999,-4.446518421,-1.3704949615,17.2677536,-0.2614251379999999,-26.925393105,4.5870766634999995
144,1.1999519999999393,-1.622692168,13.144046785,-127.3752518,0.21324539199999998,-0.8266614080000001,11.3388833995,-0.7352510394999999,-34.23661232,0.2424645875
145,1.20828500000016,-1.6297257545,12.915868280000002,-127.33597565,-5.968800068,0.856374204,18.8025074,-3.09902963,-27.713263515,3.3221684695
146,1.2166179999999258,-1.661501467,12.676215645,-127.3355713,-0.659984678,-1.1115748585,18.09280777,-5.020176171999999,-28.807914735,-1.0758051275
147,1.2249510000001465,-1.6995210055,12.452249049999999,-127.30695345000001,-4.2198946475,0.06365695600000004,16.2247715,-6.5485141275,-27.160724639999998,2.075221896
148,1.2332839999999123,-1.7340125445,12.17621851,-127.32218169999999,-1.1084762215000001,-0.8162074985000001,12.90516138,-4.9177715775,-33.1243639,-3.0450620415
149,1.241617000000133,-1.7612766625,11.93745375,-127.32674785,-4.0230623485,-0.023408531999999982,16.202534675,-4.411696911,-28.81392479,-1.9099596740000002
150,1.2499499999998989,-1.8309695124999998,11.718254564999999,-127.35419844999998,-2.875941396,-0.9010982959999999,16.67350578,-8.829732179499999,-26.262548445,-4.3531549575
151,1.2582830000001195,-1.8767821785,11.520255565,-127.37673185,-3.2448922395000004,0.27002134899999997,16.468521595,-6.2084457875,-23.854344365000003,-3.895024307
152,1.26661600000034,-1.9190646409999998,11.313014505,-127.3899498,-3.8052146435,-0.778099641,14.93122768,-5.9018559454999995,-24.878531455,-2.6664754155
153,1.274949000000106,-1.932183862,11.137319565,-127.41899104999999,-3.4552280905,1.0608478485,15.47106457,-2.1330518125,-21.15280628,-4.614355445
154,1.2832820000003269,-1.988139868,11.016580582,-127.42939755,-3.8087711335,-1.002786368,15.678733825,-7.647951364,-14.509430405,-1.9756588339999999
155,1.2916150000000926,-2.023714602,10.9049591995,-127.4643669,-2.074539721,0.44488671399999996,15.623342515000001,-4.707590103,-13.440764430000002,-5.060809969999999
156,1.2999480000003132,-2.071489334,10.7730512595,-127.46985245,-3.7770282030000004,-0.8199576175,13.480875014999999,-6.785929918,-15.863655569999999,-1.4695724245
157,1.308281000000079,-2.063497603,10.6900825485,-127.50465015,-2.960778713,-0.004349105499999992,16.192492485,0.5248101430000001,-10.00747061,-4.948696851999999
158,1.3166140000002995,-2.0847451685,10.656024454499999,-127.50039670000001,-4.479015708,0.2551806325,15.748780249500001,-3.8401118515,-4.1621468065,0.048391699499999996
159,1.3249470000000656,-2.1067305805,10.654933453,-127.536541,-2.815642476,-0.041320740999999994,14.847909925,-3.0325589180000003,-0.18530618399999998,-4.737903118
160,1.3332800000002862,-2.109568894,10.629494665500001,-127.53320695,-3.9379075765,0.7529751805,15.58029604,-1.6150417030000002,-3.1199617685,-0.06479763999999999
161,1.341613000000052,-2.091973066,10.6197009095,-127.56298065,-1.5346241594999999,-1.070782423,13.276946545000001,1.5812820795,-1.25799828,-4.034075737
162,1.3499460000002728,-2.080467403,10.640649320000001,-127.5567436,-4.9515497685,0.9853984565,16.66238451,0.03739032149999999,2.429074645,0.480836749
163,1.3582790000000386,-2.062055111,10.704643728499999,-127.58091734999999,-1.8810816705,-0.6367865355,14.77793932,1.571907237,7.5608484745,-3.055496454
164,1.3666120000002593,-2.0165033340000003,10.757892608,-127.56291959999999,-5.546258688,0.3040078875,17.74279976,3.831915617,6.2621942755,2.0094112755
165,1.3749450000000252,-1.9676276444999998,10.808855058999999,-127.58188245,-0.5252000985,-0.12300948800000001,12.671724315,5.146027565000001,5.9630315305,-2.485438883
166,1.3832780000002458,-1.9174319510000002,10.8618826875,-127.57351685,-4.5108172895,0.18000892549999997,14.363659380000001,4.586703539,6.2873729465,0.7722626925
167,1.3916110000000117,-1.850391626,10.947712898999999,-127.59456635,-1.1570816005,0.37572810050000005,15.13933277,7.39926219,10.1426110265,-2.602829903
168,1.3999440000002323,-1.7926030155,11.022680281,-127.59807205,-4.571256876,-1.232355766,15.396856305,5.7358601095,8.972500801,-0.5202316045000002
169,1.4082769999999982,-1.7033338544999999,11.090025901,-127.61746595,-2.027769923,0.3256672625,14.15539837,10.0276918425,7.916617394499999,-2.4827623665
170,1.4166100000002189,-1.6299014685,11.153939725,-127.63259504999999,-2.8247367145,-0.7736994625,13.894260405,7.887404202999999,7.678891182,-1.9102135075000002
171,1.4249429999999847,-1.530444622,11.23974848,-127.65692899999999,-3.2077788115,-0.41598817699999996,15.75160456,11.36731863,10.143675329499999,-3.0564706925
172,1.4332760000002054,-1.4552167655,11.333590985,-127.68069075,-2.5217344165,0.7331568745,14.965984825,8.317019701,11.29189682,-2.8753775955
173,1.4416089999999713,-1.3625180124999998,11.417874815000001,-127.70311735,-3.88898921,-1.539014194,15.012378214999998,10.523814678,9.944958211500001,-2.8481749
174,1.449942000000192,-1.2716922165,11.49067831,-127.72753525,-1.952275932,1.350309711,15.95735788,10.2109746955,8.762104988,-3.055420101
175,1.4582749999999578,-1.1991614995,11.56438589,-127.75031659999999,-2.6814922095,-1.499370992,14.123431685,8.1226582525,8.669702053,-2.95776546
176,1.4666080000001784,-1.1048849225000001,11.62355614,-127.77004245,-2.167191744,0.22675152,13.125464435,10.548071863,7.1038401125,-2.6131902335
177,1.4749409999999443,-1.0182256995,11.676989075,-127.7895622,-2.5520642994999996,-2.023589194,11.73287916,9.710896015,6.2321105005,-2.6393680575
178,1.483274000000165,-0.9272645715,11.71477032,-127.80623245000001,-3.5437400345,1.571696818,16.86795235,10.113102911,4.5123702285,-2.2992875575
179,1.4916069999999308,-0.8776271045,11.785185814999998,-127.82162855000001,-2.468375206,-2.4107205865,14.70763826,5.1590788365,8.260566473,-2.1532354355
180,1.4999400000001517,-0.794500008,11.849909785,-127.833004,-4.312050939,1.1736742555,16.560657980000002,9.047627926,7.731004476500001,-1.634841621
181,1.5082729999999174,-0.7260903715,11.923327925,-127.85028075000001,-2.08054024,-1.7388206720000001,11.94084406,7.464334965,8.618666647,-2.3693810705
182,1.516606000000138,-0.642269388,11.958298684999999,-127.85710524999999,-3.607190609,0.3350907455,13.69268465,9.029031039,4.153847933,-1.255238414
183,1.524938999999904,-0.598615736,12.012620925,-127.8727188,-1.9365956189999998,-0.1977121535,15.52507782,4.4762923715,6.314574957,-2.2312688825
184,1.5332720000001243,-0.539529689,12.06688261,-127.8880768,-3.164470911,-0.8141859395000001,13.934367658,6.2358629704999995,6.4844744205,-2.2129677235
185,1.5416050000003452,-0.4722570925,12.120317935,-127.90803149999999,-2.715649605,-0.341138452,13.41670847,7.439718723,6.2028715615,-2.7333976325
186,1.549938000000111,-0.4042259805,12.160217285,-127.92485810000001,-2.7116972205,-0.729372181,12.041362764999999,7.3554227355,4.758971572,-2.4722733495
187,1.5582710000003317,-0.35922315650000003,12.221141339999999,-127.93934635000001,-3.1225076915,-0.2041574305,15.930133340000001,4.6364973785,7.092454195,-2.109409135
188,1.5666040000000976,-0.3162051795,12.27638054,-127.9650345,-2.18875885,-0.7247164845,13.830185414999999,4.5665061475,6.600033522,-3.4555655119999997
189,1.5749370000003182,-0.263524376,12.323223590000001,-127.9735527,-4.043939233,-0.4370486735,13.677353385,5.411967635,5.395382643,-1.4183052775
190,1.583270000000084,-0.2023471515,12.3537178,-128.01101305,-1.1402516365,-0.5739234835,11.067043783,7.0480513575,3.627590835,-4.831498027
191,1.5916030000003047,-0.16629228000000001,12.418028355,-128.01914599999998,-4.7364747524999995,-0.121552162,15.868471145,3.3983558415,7.493137121,-1.3930366485
192,1.5999360000000706,-0.13280648,12.469911575000001,-128.06810380000002,-1.193325788,-0.5488897785,14.664464469999999,4.0552845,6.181009531,-6.1912815575
193,1.6082690000002913,-0.09279812900000001,12.54310465,-128.07570264999998,-5.0198485855,-1.814156294,14.505490779999999,3.838638723,8.5638895055,-1.3245504205
194,1.6166020000000572,-0.04058055600000002,12.582341670000002,-128.12797545,-0.7850836514999999,0.45694281150000005,10.993832111,6.438112259,4.6469602585,-6.648469925000001
195,1.6249350000002778,-0.017336934999999998,12.64530182,-128.14136885,-4.4164072275,-0.9768947065,14.94719362,1.9659565945000002,7.3391067979999995,-2.0343211295
196,1.6332680000000437,0.003760784500000003,12.680393695,-128.19774625,-0.954215795,-0.429816095,14.45565128,2.841515422,4.1343301535000005,-7.1361138825
197,1.6416010000002643,0.008364692499999993,12.745013714999999,-128.21171185,-4.861523509,-1.2647890445,14.84534502,-0.27848446400000004,7.544891118999999,-2.099022716
198,1.6499340000000302,0.032460838500000005,12.7726326,-128.264431,-1.5316666665,-0.0742902755,11.65323687,3.1594519615000003,3.2188255789999998,-6.724863529
199,1.6582670000002508,0.032570540499999995,12.840647695000001,-128.28243635,-4.2270480395,-0.9819551445,14.285623075,-0.7413850425000001,7.9627871515,-2.59883976
200,1.6666000000000167,0.027889683999999998,12.90531206,-128.33893204999998,-1.998463854,0.1736563515,14.842533585000002,-0.1643729805,7.6516776085,-7.126713754
201,1.6749330000002374,0.006306886999999983,12.96784115,-128.36161420000002,-3.428050637,-1.2383747395,14.04190874,-3.2241026164999997,7.307267903,-3.1238164305
202,1.6832660000000033,0.009606629500000019,13.01621151,-128.4084969,-2.2595625669999997,-0.8728840355,11.50624418,0.5446164604999999,5.6933534145,-5.945551276
203,1.691599000000224,-0.0073144585000000095,13.0696311,-128.4375076,-2.924812436,0.15021279449999997,12.81501532,-2.496414766,6.2169983385,-3.8880235365
204,1.6999319999999898,-0.04687643050000001,13.145219325,-128.48397065,-2.629169017,-1.7765212955,14.834899425,-4.5996513365,8.955532076499999,-5.828020633
205,1.7082650000002104,-0.10266746599999999,13.210927485,-128.51830675000002,-3.5115774870000003,0.05666860899999998,15.142754555,-7.022719383,7.7018814085,-4.478387315
206,1.7165979999999763,-0.15253509599999998,13.258799074999999,-128.5572853,-2.3269618745000002,-1.899788737,11.252883434000001,-6.0072045329999995,5.6321609025,-5.034747541000001
207,1.724931000000197,-0.188411072,13.308300975000002,-128.6048126,-2.3100477455,1.080896616,12.653579235,-4.244099736,5.7635233405,-6.025736213
208,1.7332639999999628,-0.25485877300000004,13.368100644999998,-128.64764789999998,-2.559811473,-2.0198432805,12.043403625,-7.9012491705,7.0772776605,-5.5084825754999995
209,1.7415970000001837,-0.31151190250000005,13.406509400000001,-128.71254729999998,-2.701382041,1.135031715,15.35579586,-6.2209172245,4.445940137,-8.028564691
210,1.7499299999999494,-0.383434372,13.441702365000001,-128.7673874,-2.630256176,-2.407394409,11.057193755,-8.269441844500001,4.152208805,-6.854575157
211,1.75826300000017,-0.430335492,13.464312549999999,-128.8409195,-2.187091231,0.23806801649999998,13.575760365,-4.756000638,2.5596565005,-9.031568050499999
212,1.766595999999936,-0.506437816,13.488749025,-128.89726635,-3.416025877,-1.138050169,11.3532638565,-8.7445604805,2.8794310165000003,-7.051253795499999
213,1.7749290000001563,-0.580388054,13.511930464999999,-128.9768105,-0.604344249,-0.47064013749999994,11.849865914999999,-7.81249547,2.6503050325,-9.722139835
214,1.7832619999999224,-0.6616322695,13.516032215,-129.0301132,-5.039665461,-0.3294691645,13.673085685,-9.4431109425,0.44915843,-6.7021057605
215,1.791595000000143,-0.7429878415,13.513809205000001,-129.11450575,-1.098204702,-0.9328226445,11.996134755,-8.557690859,-0.367519617,-10.304581642
216,1.799927999999909,-0.8054298015000001,13.53083467,-129.16559215,-3.8365750315,-0.07960514,10.613921645,-7.238724469999999,2.0085914735,-6.4502408505
217,1.8082610000001296,-0.8886897865,13.53489399,-129.2530403,-1.9122309089999998,-0.677357808,11.0876340875,-8.688553812,0.4151555375,-10.656060695
218,1.8165940000003504,-0.9577710930000001,13.54531574,-129.30598070000002,-3.256946802,-0.783174217,11.00447178,-8.009802818499999,1.2351249455,-6.644333124
219,1.824927000000116,-1.0493250785,13.54255581,-129.39939495,-0.39767640849999997,0.30154132850000004,10.1232190125,-9.513114931,-0.36345323900000004,-11.36479473
220,1.8332600000003367,-1.1388736965000001,13.574297905,-129.4657097,-4.57771492,-1.5730265675000001,12.08314228,-10.096529959,3.8377683165,-8.119200468
221,1.8415930000001024,-1.2226582765,13.5752182,-129.5586128,-1.878798246,-0.607177332,11.8940668115,-8.592245102,0.11082625400000001,-11.28679943
222,1.8499260000003237,-1.3141168655,13.561654090000001,-129.6349487,-1.6526814105,-0.10844893750000001,8.517152787,-10.034237861,-1.552543204,-9.421558381
223,1.8582590000000887,-1.4247878790000001,13.567373275000001,-129.72397995,-2.786292434,-1.345988333,12.392480849999998,-11.913657664999999,0.706389442,-10.8237843525
224,1.8665920000003096,-1.519738376,13.575999735,-129.8004837,-4.0386970044999995,-0.713690713,13.981892585,-10.4459094985,1.136478245,-9.371084691
225,1.874925000000076,-1.6201465725,13.587874415,-129.89138415000002,-1.4110737740000001,0.15169046799999997,9.6965508465,-10.641281607,1.4923241135,-11.027954575
226,1.8832580000002963,-1.7170979979999998,13.584136964999999,-129.96785355,-1.756625712,-0.9601918460000001,6.2997875215,-10.684698104999999,-0.3203700705,-9.3897442825
227,1.8915910000000624,-1.8223034144999999,13.56116152,-130.06325915,-1.635837108,-0.504790664,8.676384925499999,-11.08885193,-2.636191845,-11.669283865
228,1.8999240000002828,-1.9221081735,13.566512105000001,-130.13739395,-4.2507131099999995,-0.7763423325000001,13.34102869,-11.094371796499999,0.7857551275000001,-9.071756364999999
229,1.9082570000000487,-2.0243398545,13.571388245,-130.2374687,-2.2132337095,0.8667487060000001,10.741527080000001,-10.604666234,0.7651550324999999,-12.117404935
230,1.9165900000002691,-2.129167974,13.570162775,-130.3174858,-2.8319405915,-1.2585513590000001,7.4156234265,-11.53156948,0.04581746449999999,-9.753608226499999
231,1.9249230000000352,-2.2334347965,13.542602065,-130.42043305,-1.387711868,0.10758328449999999,8.3452603815,-10.774553775000001,-3.0694313045,-12.59137154
232,1.933256000000256,-2.328766823,13.6074667,-130.51184845,-4.6126610040000005,-0.3527808375,8.7682459365,-10.0794210455,8.0627996925,-10.825256348
233,1.9415890000000215,-2.4339221715,13.60391617,-130.61697385,-1.146380175,-0.6955665945,3.6011699440000005,-10.787258623,-0.14343315349999997,-12.735260485000001
234,1.9499220000002424,-2.52787745,13.750935080000001,-130.71565625,-5.2506747245,-0.22978419100000003,8.2528255,-9.6708126085,17.973851685,-11.193092345
235,1.9582550000000083,-2.6325569150000003,13.832331660000001,-130.82613755,-0.8957250565,-0.7193777560000001,1.83059144,-10.558600905,10.1160888695,-12.88899708
236,1.966588000000229,-2.747308135,14.01214695,-130.9143715,-3.711423397,-0.757352561,4.6376200915000005,-12.415201665,21.8822813,-9.7435078615
237,1.9749209999999948,-2.8563309905,14.206508634999999,-131.02495955,-1.9655388295,0.7515993445,4.123599887,-10.97714138,23.695732120000002,-12.167013168
238,1.9832540000002157,-2.935605526,14.489623545,-131.1041031,-5.4171433449999995,-0.67859932,8.2097821235,-8.400299311,34.252649309999995,-7.978306055
239,1.9915869999999811,-3.0223895315,14.82494116,-131.2065773,-1.080698669,0.673229098,2.0994895695,-8.393247603999999,40.56214142,-10.2290608865
240,1.999920000000202,-3.093895316,15.070627689999998,-131.29954525,-1.2177094965000002,-0.875453204,1.1976441144999999,-7.005230903499999,29.865880015000002,-9.5629293905
241,2.008252999999968,-3.1549128294999997,15.52230835,-131.3936844,-5.6325502400000005,1.146336198,11.626635555,-5.432652711999999,54.47491646,-8.3517727875
242,2.0165860000001885,-3.190261841,15.84153223,-131.50471115,3.142101884,-0.8174573844999999,-8.122955918,-1.8747592865,38.811527255,-11.2598142625
243,2.0249189999999544,-3.2112712859999997,16.229453565,-131.58127595000002,-7.839036226499999,0.288622886,13.632217885,-1.1056324245000002,46.73785782,-6.6280535455
244,2.033252000000175,-3.2134439945,16.703841685,-131.70336915,3.7245308159999997,0.2193624305,-7.1551640055,2.6676808,57.44657135,-11.22397327
245,2.041584999999941,-3.2445942165,17.008137225,-131.76229475,-6.9980558155,-0.6550669969999999,12.733932494500001,-2.8867949250000002,36.625686645,-5.121701717500001
246,2.0499180000001616,-3.250863075,17.49704361,-131.87652205,3.5563446285,0.25150847449999997,-5.3431266545,2.142831862,59.11949921,-10.0940432535
247,2.0582509999999274,-3.254592776,17.842552185000002,-131.9313431,-5.180505991,-0.30397584299999997,11.054917096,0.3050748110000001,41.548549655,-4.357848822999999
248,2.066584000000148,-3.282306075,18.238111495,-132.0216255,2.278335899,-0.6468795615,0.00036370750000003227,-1.09712404,47.767976759999996,-7.8949544414999995
249,2.074916999999914,-3.2875756025,18.586198805000002,-132.07788465,-1.7566432955,-0.886063516,0.7451955080000001,0.22154462350000004,41.87929916,-4.5126386274999994
250,2.0832500000001346,-3.294368148,18.9508276,-132.13497545,-1.7481072915,0.7484737315,5.606086969,0.28022706500000005,43.83339882,-4.2213917975
251,2.0915829999999005,-3.3104759455,19.209487915,-132.19632719999998,0.9521023035,-1.2280207575,1.574211359,-0.8049090499999999,31.198605535,-5.6792890345
252,2.099916000000121,-3.321276665,19.489274025,-132.21699525,-1.283278376,-0.3197668045,1.191833906,-1.6036832030000001,33.436869625,-0.675980091
253,2.1082490000003418,-3.33714366,19.73089695,-132.28738785000002,1.1760882735,0.01577952499999996,1.5441210269999999,-0.297855355,29.205320355,-6.762162566
254,2.116582000000108,-3.328429341,19.908812519999998,-132.2771263,-2.5450775625,0.09964287250000003,3.9342733625,-0.588762343,21.04528904,2.118579745
255,2.1249150000003283,-3.362482548,20.039204599999998,-132.33747105,1.6897798185000001,-0.40123522300000003,3.4382288905,-2.758256972,15.796879765,-6.35608387
256,2.133248000000094,-3.365284443,20.13073921,-132.32987595,-1.520499021,-0.896732971,2.0925337080000004,-1.9449917075,10.733057500000001,1.1502521035
257,2.141581000000315,-3.3699887989999997,20.180620195000003,-132.3708458,1.4014915224999998,0.354482226,1.0282266734999999,0.05792033650000006,6.00988209,-4.705643220000001
258,2.1499140000000807,-3.364467144,20.19467831,-132.38080595,-0.8684861960000001,-0.8888752464999999,1.951540172,-0.26859727499999997,1.576882675,-1.3929212089999998
259,2.1582470000003013,-3.3851748705,20.16405392,-132.39745715,-0.5747715234999999,0.610067874,3.430480361,-2.8483159540000003,-3.799974799,-2.5150175095
260,2.1665800000000672,-3.4022448059999997,20.098270415,-132.42758179999998,-0.293714821,-1.1582258885,4.3625597955,-2.1311427355,-7.854682207,-4.239533782
261,2.174913000000288,-3.4112035035,19.997884749999997,-132.41904835,-1.455720827,-0.447639495,1.3969366550000002,-2.505917609,-12.320806505,-0.18643975249999967
262,2.1832460000000538,-3.41046083,19.869874000000003,-132.46141054999998,0.49230372899999997,-0.5768057405,0.9881689174999999,0.5790355205,-15.226207735,-6.1910396809999995
263,2.1915790000002744,-3.3988707065000003,19.728775974999998,-132.433609,-1.7627462745,-0.05020731700000003,0.662441388,-0.851782262,-17.31856823,1.675664425
264,2.1999120000000403,-3.4120169875,19.5842495,-132.4853363,0.415596634,0.05273038149999998,3.4928023814999998,-0.688869536,-17.15247774,-7.359677076500001
265,2.208245000000261,-3.412687421,19.43656635,-132.44029999999998,-2.9411859514999996,-0.5681848525,3.4941551685,-3.0402444605,-18.21645069,3.576465249
266,2.216578000000027,-3.4332983495,19.27148342,-132.496521,-0.024621426999999918,-0.05279141700000001,3.1766654255,-1.4392454105,-19.5932827,-7.935370445
267,2.2249110000002474,-3.4054932595,19.10186386,-132.43984225,-2.9488699435,-1.1711710094999999,0.426863171,-0.07973071150000001,-20.918848035,4.738775968500001
268,2.2332440000000133,-3.399340391,18.928666115,-132.49954985,0.0015466214999999561,0.05486291649999997,0.03288221349999998,1.9023060800000002,-20.549579620000003,-8.4015364645
269,2.241577000000234,-3.3624924419999997,18.78149414,-132.43776705,-2.9956932065,-0.35921239849999986,1.0771446820000001,0.824797779,-18.25574398,5.479552269
270,2.24991,-3.383080125,18.668508525,-132.51081465,-0.26393222800000005,-0.12931334950000006,3.9468969109999996,-0.7976208925000001,-13.258045675,-9.4810855405
271,2.2582430000002205,-3.376341224,18.56644249,-132.45534135,-3.8990806339999997,-0.4518229965,3.9678045514999996,-2.551325351,-12.8053145425,5.101831198
272,2.2665759999999864,-3.3899626735,18.488664630000002,-132.51923375,-0.320642924,-0.8320717215000001,2.266187966,-0.3212215305,-9.107129814499999,-8.1785244925
273,2.274909000000207,-3.344750285,18.408186909999998,-132.47633745,-3.601125121,-0.5950440164999999,-0.5887147189999999,2.5258966685,-10.1239380845,3.8176675435000003
274,2.283241999999973,-3.331158638,18.38630104,-132.51772309999998,-0.40099231199999996,0.39791253249999997,0.09387946150000004,2.140216768,-2.5724309385,-5.2974272755
275,2.291575000000193,-3.316411257,18.382761005,-132.493042,-3.0753567215,-0.9925277235000001,3.152650833,-0.44524538550000003,-0.7830207945,2.2669432165
276,2.2999079999999594,-3.3522815704999998,18.438474655,-132.50830075,-1.3390366734999999,0.8046049475,5.470490932500001,-4.7449350355,6.543617725500001,-1.7632641795000001
277,2.30824100000018,-3.3711652755,18.490626335,-132.49428555,-2.1624200345,-3.0876556634999996,3.88602525,-4.1255577805,5.969155966,1.4563541409999998
278,2.316573999999946,-3.3687059880000003,18.585544585,-132.4954491,-2.674620271,0.7365280395,-1.351790369,-0.7323429584999999,11.139697075499999,0.18572282799999984
279,2.3249070000001666,-3.3530111314999997,18.67689419,-132.47974015,-0.9074856120000001,-1.1710333825,-4.004584550500001,-0.009662985999999929,10.652448653,1.922918558
280,2.3332399999999325,-3.3490140435,18.820565225,-132.4739342,-3.271095276,1.0067735015000001,0.597262263,-0.8145780565000003,16.936059,1.2893886565
281,2.341573000000153,-3.3714747430000003,18.990837095,-132.47744365,0.03120505799999998,0.30709362000000007,7.645377395,-3.8243927359999996,20.223483085,0.29551815999999986
282,2.349905999999919,-3.423916936,19.208158495,-132.46622845000002,-3.2247874735,-1.073424369,6.628884315500001,-7.8595535755,25.73621273,2.428198427
283,2.35823900000014,-3.4715094564999998,19.431970595,-132.48955915,-1.617019713,-1.070865557,3.133845128,-6.023897290500001,26.76309204,-1.5047546625
284,2.366571999999905,-3.4832968715000003,19.700344084999998,-132.47926715,-2.9214830995,-0.020031809999999983,0.664255619,-2.9471576214999997,31.846629145,2.7517719864999997
285,2.374905000000126,-3.4827506545,19.96417904,-132.51159665,-0.007756382000000006,-1.5432902574999998,-2.241058409,0.1289485695,31.628217695,-2.2205706235
286,2.383238000000347,-3.4850975275,20.240338325,-132.5135727,-3.8803272245000002,0.4816889465,-0.43251138899999997,-1.3319225315,32.873723985,1.3454721269999999
287,2.3915710000001127,-3.514190912,20.55741501,-132.5520134,0.795061082,0.03874978400000001,1.3337133525,-3.0736732484999996,38.02999878,-2.4624146225
288,2.3999040000003333,-3.5322315690000003,20.828970910000002,-132.5619087,-2.4829913374999997,-0.7355402820000001,3.3725433349999996,-2.906885996,32.38451767,0.41992644949999997
289,2.408237000000099,-3.570071578,21.168564795,-132.6096344,-0.958273828,0.06450572649999997,4.7498328685,-3.6653895375,40.789218899999995,-3.2851331234999996
290,2.41657000000032,-3.587211013,21.43801594,-132.61338805,-0.635992557,-1.1460578590000001,-1.2530075015,-3.074748039,32.089180944999995,1.1349676845
291,2.4249030000000857,-3.601788163,21.75739479,-132.66630555,-1.397591993,0.1732340975,2.9033594135,-0.571070153,38.40169716,-3.9478629825
292,2.4332360000003064,-3.599601507,22.007071494999998,-132.6677818,-0.17860871550000001,-0.6806921065,-0.36701470599999997,-0.8457382914999999,29.704211235,1.2340052424999999
293,2.4415690000000723,-3.622770548,22.300038335,-132.71370315000001,-0.6162962464999999,0.327053858,3.5625211,-1.8691820425,35.191741945000004,-3.3556861875
294,2.449902000000293,-3.645410657,22.520062449999998,-132.7270508,-0.973910451,-1.1793330910000002,1.144031525,-3.2877689895,26.23670483,-0.2789071125
295,2.458235000000059,-3.6575037239999997,22.747112275,-132.7609253,0.7027766405,0.255689442,3.0683903690000003,-1.050004855,27.210299489999997,-2.4681764245
296,2.4665680000002794,-3.6813077925,22.91806984,-132.78565215,-1.0896558315,-0.695459381,0.2826935795,-2.899404287,20.442433355,-1.896965265
297,2.4749010000000453,-3.6899272205,23.073075295000002,-132.80545425,-0.222330898,-0.8083755675,0.528610617,-1.2501032485,18.481227875000002,-1.4514440375
298,2.483234000000266,-3.7080029249999997,23.19208622,-132.8259964,-0.192415193,0.3581493795,-0.575203732,-2.3943037985,14.192811965,-1.8256802854999998
299,2.491567000000032,-3.7334132195,23.28325176,-132.83426285000002,-1.1820343135,-0.8867130875,2.7049747705,-3.788524985,10.7500782,-0.6506465675
300,2.4999000000002525,-3.7541582580000004,23.34831047,-132.84538650000002,0.5195386559999999,-0.29252684100000004,2.8781808615,-3.1651641725,7.6660602094999994,-1.196537003
301,2.5082330000000184,-3.7735500335000003,23.37935829,-132.8453102,-1.2939974665,0.191826932,2.9890035985,-3.469230533,3.492193341,-0.2052403690000001
302,2.516566000000239,-3.785870552,23.393500330000002,-132.85213855,-0.7432930769999999,-1.411011815,2.778847337,-2.3434720039999997,1.5363736749999999,-1.125482989
303,2.524899000000005,-3.793802023,23.3788023,-132.85245895,-0.07278588400000002,0.376410961,1.7639064785,-2.081566572,-1.9802876710000001,-0.6144150495
304,2.533232000000225,-3.8231949805000003,23.348312375,-132.86515045,-1.832406342,-0.4421368315,4.3670105935,-4.109292269,-3.7663173675,-2.1173369285
305,2.5415649999999914,-3.8437891005000004,23.29708672,-132.86699295,0.9776415825,-0.9875055555000001,3.4774491789999997,-3.5488528015,-6.339331627,-1.074722141
306,2.549898000000212,-3.8765335085,23.230462075,-132.88022229999999,-2.7783720495,0.40811723450000004,3.3080682159999997,-4.484450817,-8.087374687,-2.470070362
307,2.558230999999978,-3.8844984769999997,23.143672945,-132.88082125,0.5660143945,-1.2881458995,1.8769913915,-2.1036206484999997,-10.6045260445,-1.2364121675000002
308,2.5665640000001986,-3.8844434024999996,23.0687027,-132.8892212,-2.9179546829999996,0.30224320299999996,1.5484270455,-0.7562987615000001,-9.126902580500001,-2.0124849085000003
309,2.5748969999999645,-3.8806153535,22.959546085,-132.8815155,0.8330672385,-0.45093500599999997,0.44285196100000007,-1.076418996,-13.344108105,-0.5062782315000001
310,2.583230000000185,-3.8910889625,22.86434555,-132.88274765,-1.9655894040000002,0.7615891395000001,3.935492918,-2.3563368915,-11.60210991,-1.384423971
311,2.591562999999951,-3.9281734230000005,22.745619775,-132.86410905,-0.986774968,-0.5104789439999999,8.590961935,-6.477522133,-14.57501602,0.6234121435000001
312,2.599896000000172,-3.9659932849999997,22.626650814999998,-132.86549374999998,-1.284961507,-0.5133922694999999,8.348171949,-5.658608079,-14.44193697,-1.614068568
313,2.608228999999937,-3.9630099535,22.490659715,-132.84359740000002,-1.622464776,-1.3426211175,1.1379806995,-1.803620815,-16.669287205,0.823958926
314,2.616562000000158,-3.9250091315,22.375413895,-132.84477235,-0.1595656875,0.373064518,1.022742413,3.4288244845,-13.998642445,-1.54150337
315,2.624894999999924,-3.926223397,22.187810900000002,-132.81262205000002,-3.607311964,-0.12941434999999998,5.9464008535,-2.76397562,-22.924984934999998,1.5453333855
316,2.6332280000001447,-3.9362902645,22.06808281,-132.8117828,1.2584892360000002,0.3171679675,4.5711613895,-2.4190853835,-14.55287075,-1.3691963555000002
317,2.6415609999999106,-3.935033083,21.939437865000002,-132.7882004,-4.7563441995,-0.3436257545,10.4177880285,-2.072909087,-15.801077365,1.0945988295
318,2.649894000000131,-3.930838704,21.7649498,-132.7831764,1.3462349625,-0.698583439,3.8365722895000003,-0.908044182,-21.137897495,-1.348884523
319,2.658227000000352,-3.9033347369999998,21.687568665,-132.76246645,-5.419222474500001,-0.097727656,5.574068427,1.229066908,-9.6424667825,1.1954163015
320,2.6665600000001177,-3.8958045245,21.49611187,-132.76065445,0.6604470010000001,-0.10302397599999999,5.599893212,-0.36520230749999993,-23.147803305,-1.816344619
321,2.6748930000003384,-3.856190443,21.47310829,-132.74903485,-4.536370456,-0.10548663150000001,5.029966116000001,3.087501645,-3.0592038655000002,0.616739601
322,2.683226000000104,-3.8559644219999996,21.30431175,-132.73970415,-0.03305828599999994,0.03806903950000001,9.958981158,-1.5663565099999999,-20.494347575,-0.7644827665
323,2.691559000000325,-3.8325347905,21.32719898,-132.7357521,-4.312924892,-0.8127392825,2.9820839165000006,1.4775253535,2.4944744114999997,0.12031647550000002
324,2.6998920000000908,-3.8050540685,21.164658545,-132.7195091,-0.3849546910000001,0.336184211,10.708234311,1.424926162,-19.799831867,0.089604676
325,2.7082250000003114,-3.7558590174999997,21.234528545,-132.7286949,-3.510002762,-0.2802350575,3.6257549525000003,5.105661273,8.223704339000001,-0.9891766605000001
326,2.7165580000000773,-3.7398642300000002,21.036831855,-132.70713425,0.30682313399999983,-0.5090031775,7.756745219499999,-0.156843901,-24.052761075,0.4405192134999999
327,2.724891000000298,-3.70423615,21.179844855,-132.72951505,-5.4570068715,-0.8252779545,7.5522653695,4.0332588555,17.0818007,-1.9155284764999998
328,2.733224000000064,-3.6777533295,20.93977642,-132.70217895,2.266955793,0.1813475485,3.918599963,0.8944040535,-29.17498779,0.7855045795
329,2.7415570000002845,-3.6418418885,21.157944675,-132.73731995,-7.8671743869999995,-0.6752273215,15.426565168,4.578560889,26.17730522,-2.774182558
330,2.7498900000000503,-3.614043713,20.917326925,-132.7027359,4.130392909,-0.594786838,-5.75928928,0.67549181,-29.304463390000002,1.8174262045
331,2.758223000000271,-3.579773903,21.14126873,-132.74666595,-9.2419664855,-0.01791328200000003,21.550603865,4.747781037999999,26.929274555,-3.731388003
332,2.766556000000037,-3.547799945,21.0100193,-132.70650485,4.2733386755,-0.2248293535,-8.9223783005,1.0371847375,-16.232424260000002,3.068285644
333,2.774889000000257,-3.5161806345,21.12040329,-132.75683594999998,-8.5796117775,-0.39054420600000006,24.030281064999997,4.6980741025,13.368826865,-5.303761869500001
334,2.7832220000000234,-3.4914978745,21.182672500000002,-132.7199631,2.6362190245,-0.3596550225,-6.66207069,0.2806103005,6.9766900540000005,4.133369955499999
335,2.791555000000244,-3.4724786285,21.164953230000002,-132.7791176,-5.284666538,-0.18462991700000003,16.336090565,3.5847764315,-1.9208438395,-7.2265956414999994
336,2.79988800000001,-3.447372913,21.37847519,-132.74140165,-1.4796493055000002,-0.9590642450000001,1.6860976220000001,0.27947104,25.094703674999998,5.306490660000001
337,2.8082210000002306,-3.4545497894999997,21.313084605,-132.80924225,-1.37301296,0.02431285399999994,10.090662003,0.8742846845,-7.58367157,-8.5270442955
338,2.8165539999999964,-3.4257258175,21.54270172,-132.7558937,-4.1921612024999995,-0.656125069,7.9020533565,-0.00872811699999998,26.926289555,7.1541240215
339,2.824887000000217,-3.4831596615000002,21.527843475,-132.8404999,0.25453013199999996,-1.132210672,7.8348411325,-4.370672822,-1.42189765,-10.013925076
340,2.833219999999983,-3.4663240909999997,21.757314685,-132.7773819,-4.7488776445,-0.42839378100000003,5.6918253895,-1.9418167175,26.846362114999998,8.233290911
341,2.841553000000204,-3.5409044025,21.729857445,-132.86157609999998,1.5987670425,-0.16912198050000016,7.4176044465,-6.343467712500001,-2.9393552245,-10.03410721
342,2.849885999999969,-3.5152177814999996,22.018464090000002,-132.7927742,-6.6443769915,-0.9856944084999999,10.6982893935,-1.222357543,33.895418164999995,9.2931103685
343,2.85821900000019,-3.590839028,21.90033245,-132.86298755,5.44302243,0.12503957749999994,-0.8104944229999997,-6.980482817,-13.9047708525,-9.122358201
344,2.866551999999956,-3.5923534630000002,22.19149685,-132.7929993,-9.982647655,-0.5121561285,19.1406517,-4.670953274,34.20479584,9.450775922
345,2.8748850000001767,-3.6353054045,22.103326795,-132.84885789999998,7.0601521715,1.1709764900000001,-7.8702967155,-3.5758123399999997,-10.427308561,-7.2808675780000005
346,2.8832179999999425,-3.6100057365,22.23523712,-132.78147505,-8.8083490135,-1.2019816635,24.94974041,-1.525577545,15.1463074695,8.134858966500001
347,2.891551000000163,-3.639974952,22.29131985,-132.8178177,3.3567225935000007,1.45400846,-0.14742147949999995,-2.8306681515000003,6.704205035499999,-3.9898891439999993
348,2.899883999999929,-3.639262557,22.139679909999998,-132.76667785,-1.5264700654999999,-2.7476804255,10.886102913,-3.774708748,-18.69361353,4.1366739295
349,2.9082170000001497,-3.6081693175,22.257546425,-132.7798538,-4.2346568705,2.1729820970000002,13.133715628,3.4138410095,13.9455349445,-0.9528203050000004
350,2.916549999999916,-3.586558342,22.083209994999997,-132.76350785,2.7850793,-2.0873386265000002,2.5446856025,0.3821005075,-21.179702759999998,0.15032387000000025
351,2.924883000000136,-3.5534511804999998,21.959563255,-132.75101469999998,-3.2700144055,1.7458125349999998,13.856250765,2.435555786,-15.148826125,0.06137847900000004
352,2.933215999999902,-3.508629799,21.7732687,-132.7540207,0.13898742200000003,-0.943367064,10.272507191999999,4.1424131395,-22.46853733,-2.2689437889999997
353,2.9415490000001228,-3.4407148359999997,21.59687328,-132.73641965000002,-3.7476226985,0.9408169985000001,13.96952391,6.423221111,-21.505300525,0.2969908695000001
354,2.9498820000003434,-3.385572791,21.32704258,-132.75498960000002,1.052411437,-1.506087601,10.8599915525,5.9719393255,-32.379964825,-4.4072990425
355,2.9582150000001093,-3.3249144555,21.07262611,-132.71886065,-4.0274908545,0.11103647949999995,9.667938949,4.7446955445,-30.968624115,1.8459258095000002
356,2.96654800000033,-3.267317295,20.791941645,-132.75974655,0.3591956495,-1.3152334545,12.223243235,7.280534744000001,-33.56248474,-6.8428376445
357,2.974881000000096,-3.1998627185,20.456752780000002,-132.704113,-3.646064639,0.2877595425,11.3086395285,4.6894094944999996,-40.749616625,3.5360068085000003
358,2.9832140000003164,-3.163236499,20.181523325,-132.74793625,-0.17839311800000002,-1.155131802,11.82223129,4.8781468865,-32.90120125,-7.129321097
359,2.9915470000000823,-3.0868997575,19.865368845,-132.6745834,-6.205138444499999,0.09700494999999998,14.430922034999998,5.111097097,-38.57824135,5.7833357765
360,2.999880000000303,-3.0653648374999998,19.535373685,-132.7158432,2.2604756355,-0.7180896105000001,10.496507646,2.934690952,-39.495018005,-7.145000100999999
361,3.008213000000069,-2.9853092435,19.295446395,-132.63708495,-8.474653243999999,-0.19093036650000006,15.901322365,5.332298994,-29.44805813,6.9363536835
362,3.016546000000289,-2.964502692,18.958078385,-132.66170125,0.501339704,-0.46801877050000007,12.848344805,2.3399276135,-40.497238159999995,-5.414920807
363,3.0248790000000554,-2.9044796225000002,18.75961208,-132.58992005,-6.6631011964999995,-0.5338807105,13.010067464999999,3.2189936635,-24.416705135,6.4340558055
364,3.033212000000276,-2.8746470215,18.488348005,-132.62862395000002,-0.301248491,0.10649794349999997,15.564798355,3.929598808,-32.501641275,-6.531636238
365,3.041545000000042,-2.828112602,18.34440422,-132.57543945,-5.891225815,-1.2251668275,13.1498785,2.3255169985,-17.758942599999997,4.69383502
366,3.0498780000002625,-2.8254849909999997,18.123562815,-132.63206865,-0.9452381915,0.4160884025000001,16.52931547,1.393556118,-26.380105975,-8.226837756
367,3.0582110000000284,-2.7427868845,18.056158070000002,-132.6139374,-6.110307455,0.13992828150000003,15.949051859499999,7.978796959,-8.3782007675,1.160254121
368,3.066544000000249,-2.6831735375,17.83191395,-132.65758515,-0.7287767235,0.455479544,15.18630886,7.6744914055,-26.86572647,-6.727494717
369,3.074877000000015,-2.6085511445,17.80931568,-132.64053725,-5.0126324895,-0.9106308224999999,12.3090901365,7.0789937975,-3.0007974205,1.3351867194999998
370,3.083210000000236,-2.5342594385,17.59826183,-132.67111584999998,-0.34508647049999996,-0.49711500100000006,10.9057183245,8.9932026845,-25.377702714999998,-5.1130593215
371,3.091543000000001,-2.3805030585,17.515880584999998,-132.64028165,-6.727809667500001,1.0452492835,24.279902455,16.06398678,-10.2266154285,2.607203424
372,3.099876000000222,-2.3203150035,17.410610195,-132.658905,1.9854112865,-0.210618973,8.0240178095,6.8179348695,-12.7661261535,-3.025893688
373,3.108208999999988,-2.2595247030000003,17.21065664,-132.63453295,-5.0773247480000006,-2.086866796,20.721882819999998,5.1451597215,-24.29003048,1.3237373829999999
374,3.1165420000002086,-2.155178428,17.14161253,-132.62838365,-3.750056505,0.4430429115,25.123983385,11.2572665205,-8.526391029,-0.16260647799999983
375,3.1248749999999745,-2.085021734,16.944324015,-132.6255112,-0.46436265099999996,-2.2687319515000004,7.223095894,7.057479859,-23.870944025,-1.0602581500000001
376,3.133208000000195,-2.023312509,16.764359955,-132.61961365,-5.0878887175,-0.0005912184999999903,15.119359020000001,6.110675812,-21.83774662,-0.4911981824999998
377,3.141540999999961,-1.925749004,16.62348652,-132.61761855,-2.937649548,-1.5286795495,13.94364929,10.398909568,-17.10605049,-0.8428431750000003
378,3.1498740000001817,-1.8381731510000001,16.434171675,-132.60894015,-2.3272831145,0.8284792005,15.076899525,9.103406904,-22.965993885000003,-0.1507203575
379,3.158206999999948,-1.8078659175,16.24914026,-132.61344530000002,-3.0795419214999997,0.3050572275000001,18.18131065,2.5412607189999994,-22.381038665,-1.7224242090000002
380,3.166540000000168,-1.765628338,16.070690155,-132.5926819,-3.2425910235,-2.2060946225,19.930836675,3.315239072,-21.69640541,1.1576679945000001
381,3.174872999999934,-1.6749589440000001,15.905807970000001,-132.5981407,-3.474425316,0.28780338150000007,18.811228755000002,9.8146100025,-19.963588715,-1.7230768205000002
382,3.1832060000001547,-1.6117503050000002,15.734095575000001,-132.57595825,-2.1466496285,-0.469922438,10.5970530525,5.785618186000001,-20.891402245000002,1.420815408
383,3.1915389999999206,-1.5462146995000001,15.54586458,-132.59176250000002,-4.0377590654999995,-1.8131659624999998,15.256832119999999,7.158925056499999,-22.738431929999997,-2.918358922
384,3.1998720000001413,-1.467089057,15.33499479,-132.58155059999999,-2.5168967245,0.05268204249999997,13.76866579,8.0322580335,-25.535986899999997,-0.042039364999999995
385,3.208204999999907,-1.4304661749999998,15.138464925000001,-132.6305199,-2.824782014,-0.045452743500000004,18.725398065,4.769603789,-23.6509161,-6.747740984
386,3.216538000000128,-1.4203918575,14.98296928,-132.64997105,-3.737445116,-0.9282875655,17.239981649999997,0.6627368330000001,-18.80559158,-3.268966317
387,3.2248710000003484,-1.42102617,14.767879005000001,-132.70970535,-1.108731508,-1.7547440085,15.04092312,0.5741113425,-25.846277235,-8.044577837
388,3.2332040000001143,-1.3802191615,14.571779249999999,-132.7467308,-5.0913167,0.961344898,20.085623745,4.85229969,-23.633256915,-5.283310175
389,3.241537000000335,-1.3645235900000001,14.44505739,-132.80928425000002,-3.4619483950000003,-2.7436181905000003,15.662733079999999,2.586929619,-15.246185305000001,-8.0817027095
390,3.249870000000101,-1.2941022515,14.242888924999999,-132.8453293,-2.8508026600000003,0.8625935915,8.1640963555,8.368828773499999,-24.362891195,-5.3224747180000005
391,3.258203000000321,-1.2570402625,14.07149887,-132.91093445,-1.212651074,0.9803482585000001,16.32401705,5.22250219,-20.61448574,-8.553903102500001
392,3.266536000000088,-1.2197953165,13.92197466,-132.9366379,-6.212110996,-2.3296265005,22.077680585000003,4.0567329525,-18.077445985,-3.989380598
393,3.274869000000308,-1.2007501425,13.78569508,-132.99331665,-0.7505418660000001,0.5027503965,15.995124815,2.7743552325,-16.434443,-7.410916567
394,3.283202000000074,-1.1869059205,13.624292855,-133.0283241,-5.1700892445,-2.1291706565,14.78312683,1.477307916,-19.48004055,-5.0596324205
395,3.2915350000002945,-1.146327853,13.486126425,-133.0876503,-2.113487601,-1.1846408844999998,14.646532535,5.430872797999999,-16.669404985,-7.7032275175
396,3.2998680000000604,-1.137766749,13.30954361,-133.13461685,-1.608300507,-0.501255244,10.6184151175,1.1078614000000002,-21.26693058,-6.508183002499999
397,3.308201000000281,-1.1728591915,13.126533030000001,-133.19487,-4.3487842085,-0.46541959050000004,19.7424345,-3.664553285,-22.046705245,-7.9322326190000005
398,3.316534000000047,-1.20020923,13.006020544999998,-133.2653427,-3.3129173520000004,-3.0940295455,20.848818780000002,-2.5763060155,-14.484020235,-9.1304261695
399,3.324867000000268,-1.228030145,12.900103094999999,-133.326725,-4.0807017085,1.0767378509999999,14.512907980000001,-2.8247828485,-12.781120775000002,-7.8989446165
400,3.333200000000033,-1.279087007,12.722688675,-133.4105301,-1.483003199,-2.1601626275,9.779018165,-5.0755017995,-21.26895714,-10.8723511685
401,3.341533000000254,-1.2831323745,12.59180641,-133.4749641,-4.328071594,1.0444397295,17.59891987,0.07441592199999958,-15.76021242,-8.348706484000001
402,3.34986600000002,-1.3429169655,12.459155084999999,-133.54868315,-1.9655766485,-0.893281102,16.6563301075,-6.3963763715,-15.923056599999999,-9.6217341425
403,3.3581990000002406,-1.396909833,12.311288359999999,-133.61111835,-4.006333351,-1.228828609,18.152311805,-6.040735483,-17.782395365,-8.214603901
404,3.3665320000000065,-1.4291268585,12.222339155,-133.67985915,-4.071155190500001,0.9176310870000001,17.7040205,-3.263561487,-10.6780381215,-8.9154839515
405,3.374865000000227,-1.433523476,12.137051580000001,-133.74423984999999,-3.690335393,-2.4959369895,14.016465664999998,-0.055538058,-10.2640357035,-8.261898756
406,3.383197999999993,-1.4390290975,11.981052875,-133.80987935,-1.3582757415,0.5894607304999999,11.589882851999999,-0.17256939399999993,-18.72679329,-8.761493683000001
407,3.3915310000002137,-1.4832018615,11.86629534,-133.87168885,-3.9174743894999997,-0.8541050554999998,15.729014395,-4.905703187,-13.806241515,-8.074197531
408,3.39986399999998,-1.505375862,11.773345469999999,-133.9279747,-2.7512686255,-1.0932173135,19.06215763,-2.4445717335,-11.18139553,-7.4918315415
409,3.4081970000002,-1.546267688,11.66641045,-133.9782715,-2.563475788,-0.7746617794999999,14.40388107,-4.8232001065,-12.894401075000001,-6.718013525
410,3.416529999999966,-1.59811765,11.556811335,-134.03757855,-4.633948803,-0.9822933819999999,18.183199885,-5.9864578245,-13.151259899,-7.9267621055
411,3.4248630000001867,-1.6251347065,11.486580374999999,-134.0822258,-3.1211841104999998,-1.1954078080000001,13.352688310000001,-3.2961297035,-8.5063734055,-5.9425673485
412,3.4331959999999526,-1.6852285265,11.366078375,-134.1565208,-1.7919993994999999,-0.19077947699999998,12.417381762,-6.624330044,-14.399585245,-9.7894301435
413,3.4415290000001733,-1.7816004155,11.300136089999999,-134.20913315,-4.869566679,-1.908019543,15.419929024999998,-11.47333527,-7.9448451995,-6.893086195
414,3.449861999999939,-1.8426308034999999,11.29542923,-134.28631975,-4.3565841915,0.563970052,20.103876115,-6.640554905,-0.48482006749999995,-9.731297016
415,3.45819500000016,-1.9088180660000003,11.31033278,-134.33418655,-4.174525976,-1.4681657549999998,13.741594315,-7.986660003500001,1.753364682,-6.022175789
416,3.4665279999999257,-1.9527900814999999,11.29103422,-134.405056,-2.000269011,-0.4682138565,11.340588095,-4.7257244585,-2.2430515884999997,-9.081169605
417,3.4748610000001463,-1.99363935,11.342474934999998,-134.43917084999998,-3.778357625,1.2627575695,13.39063406,-5.2834492625,6.0934352875,-4.2758871315
418,3.483193999999912,-2.0264809135,11.401544574999999,-134.48669815,-2.6161378625,-1.4341245814999999,16.77092743,-3.911089182,7.0670449735,-5.9878787995
419,3.491527000000133,-2.0529584285,11.435757635,-134.51714705,-2.090660274,0.6272004655,15.91955042,-3.666882515,4.021511674,-3.9078355435
420,3.4998599999998987,-2.094384968,11.483233455,-134.54732135,-4.5751981735000005,-2.5812802315,14.34754467,-5.353016734,5.608505964,-3.9805418254999996
421,3.50819300000012,-2.0673612355,11.550689694999999,-134.57978055,-2.4636009335,0.07235467449999988,13.642244815000002,2.8184754255,8.018806219,-3.9875478744999997
422,3.51652600000034,-2.0788561105,11.62180567,-134.60303495,-3.022302806,-0.149565399,13.011508464999999,-1.9052060844999998,8.4175300605,-3.162308216
423,3.524859000000106,-2.1162109375,11.672245975,-134.6426506,-2.7972848415,-1.3021751045,16.93623495,-4.716247201,6.0067942145,-4.905869007
424,3.5331920000003265,-2.166876614,11.732336045,-134.6660347,-2.121975839,-0.87407887,15.98850012,-6.599021435,7.101931572,-3.2422373295
425,3.5415250000000924,-2.2238762975,11.783321860000001,-134.7137566,-3.1929036379999998,-0.7303539735000001,14.905879975,-6.867125273,6.116846084500001,-5.834948063000001
426,3.549858000000313,-2.246657908,11.837215425,-134.72579955,-3.054628551,-1.9548287835,11.23108816,-3.5386452674999997,6.315253973,-1.941943347
427,3.558191000000079,-2.283688426,11.85645914,-134.78271485,-0.864725247,0.57291618,13.828517437,-4.210353464,2.353167236,-7.051036835
428,3.5665240000003,-2.3706403975,11.883933545,-134.7973213,-5.020039558000001,-1.3529207405,14.979970455,-11.207138535999999,3.1672902705,-2.3328425285
429,3.574857000000065,-2.4257147315,11.933208465,-134.86834715,-1.4810195565000002,-1.6281149389999998,17.862079625,-5.9977009295,6.033778906,-8.544626951
430,3.583190000000286,-2.4675405025000003,12.004135605,-134.89114765,-5.34160614,0.09627282599999998,12.53535509,-5.594304204,8.4278018475,-3.1036390660000004
431,3.591523000000052,-2.530568123,12.056330679999999,-134.95619205,-1.0761711,-2.1568870545,12.4500002845,-7.0672762395,6.3612325175,-7.7911474705
432,3.5998560000002726,-2.583898425,12.089704035,-134.97508625,-4.332990408000001,1.0497231485,13.312276364999999,-7.071232797,3.90788728,-2.8008655905
433,3.6081890000000394,-2.6783703570000004,12.125653745000001,-135.02828979999998,-0.6653829215,-2.58013773,16.639128685,-11.123187541,4.3684828284999995,-6.496820688
434,3.616522000000259,-2.7328072785,12.150288105000001,-135.0438423,-4.3966844080000005,0.001996099999999945,16.684812065,-7.281051635499999,2.8509864955,-2.4948650895
435,3.624855000000025,-2.8224236965,12.16509104,-135.0911522,-0.9903028610000001,-0.8189121485,12.206819055,-10.697351934499999,1.8173046705,-5.9099602695
436,3.6331880000002457,-2.85222137,12.16879082,-135.1035309,-4.691514253999999,-1.6484391505,14.084605695,-4.399846792,0.327266604,-2.2224960325
437,3.641521000000012,-2.8995203975,12.13080072,-135.14870835,-0.04313743099999989,1.7017057835,14.500658510000001,-5.671543479,-4.5135362145,-5.9788887504999995
438,3.649854000000232,-2.9618649479999997,12.094376085,-135.1621361,-4.4179394245,-2.8484832045,14.629239559999998,-8.26941514,-4.474640451,-2.616378784
439,3.658186999999998,-3.0099505185,12.047329900000001,-135.19275285,-0.4288430809999999,0.8343687655,13.542289255,-6.132266283,-5.677190781,-4.3379119635
440,3.6665200000002183,-3.0575054885,11.9985528,-135.20890425,-4.751428366,-1.7720538375000001,13.73437071,-6.4476673600000005,-5.933435917000001,-2.986632943
441,3.6748529999999846,-3.0804411175,11.9365654,-135.2299004,-1.7318075894999998,0.05972826450000002,13.824362755,-3.363546014,-7.5225555900000005,-3.3147894145
442,3.683186000000205,-3.1624041795,11.86713648,-135.2600212,-3.4554233555,-1.4329144354999999,15.093647005000001,-10.2311861535,-8.3156502245,-4.7720099685
443,3.691518999999971,-3.2123883959999997,11.797979354999999,-135.27207565,-2.0523399710000003,-1.7881537675,12.2418074585,-6.839641094499999,-8.4323732855,-2.3408850135
444,3.699852000000192,-3.2718104125,11.73282528,-135.3114662,-2.416691363,0.0909432174999999,13.192378519999998,-7.3130316735,-7.735858679,-5.804404497
445,3.7081849999999577,-3.326501012,11.65460396,-135.3263321,-3.771544218,-1.850203052,14.19080734,-7.3620693685,-9.491778610499999,-2.73674047
446,3.7165180000001774,-3.398402572,11.58289623,-135.373024,-1.834154367,0.26848679749999993,12.864442345,-8.627042768999999,-8.463880062,-6.723046779500001
447,3.724850999999944,-3.4744770525,11.523674490000001,-135.37903215,-3.8664451834999998,-1.971282065,14.408080575,-10.144263265,-7.27153635,-1.597419322
448,3.733184000000165,-3.530213833,11.50533438,-135.42598725,-2.2317742110000003,-0.083092794,13.660773275,-6.6866610049999995,-2.054947108,-6.394837856500001
449,3.7415169999999303,-3.5993902684999997,11.469168660000001,-135.4285774,-4.186354637,-2.0150240065,13.03221035,-9.411310195999999,-4.53149119,-1.0258629325
450,3.7498500000001513,-3.662406087,11.4414444,-135.47832870000002,-1.9710183145,0.572110519,13.343860150000001,-7.505150795,-3.144365311,-6.778103590000001
451,3.758182999999917,-3.7383143905000003,11.395480635,-135.47875215,-3.518365502,-1.692621589,13.56603241,-10.2603464145,-5.7216825485000005,-0.8670803755
452,3.766516000000138,-3.7810144425,11.380066395,-135.52885435000002,-1.79245162,-0.8718528075,14.61870575,-5.036821127,-1.6538660525000002,-6.795174122
453,3.774848999999904,-3.8326075079999997,11.366088869999999,-135.52194980000002,-3.7815927265000004,-0.2686333505,12.85842323,-7.538487911000001,-1.9433837979999997,0.23793700349999997
454,3.783182000000125,-3.867483139,11.342715264999999,-135.56504825,-2.3923459055,-0.7726255655,13.624084,-4.2541532515,-2.6544929745,-6.0393118855
455,3.791515000000345,-3.9031039475,11.289690494999999,-135.5592804,-2.622234702,-0.0707182885,14.26593542,-5.6094534395,-6.6061284545,-0.22570627899999995
456,3.799848000000111,-3.9371534585,11.27246618,-135.6053505,-2.4930708404999997,-2.024139285,14.70695448,-4.0791950225,-1.8919122814999998,-6.3325817585
457,3.808181000000332,-3.9566512105000005,11.21735096,-135.60306165,-2.4609161615,0.2065289165,12.204762935,-3.596200347,-6.8284738065,-0.6553211510000001
458,3.8165140000000974,-3.979951024,11.18395567,-135.64159015,-2.663818002,-1.612570405,12.19297361,-2.985095978,-3.8861281874999998,-5.5386693475
459,3.824847000000318,-3.9704939125000003,11.091741561,-135.6366806,-2.8442753554999998,0.9970104689999999,14.248098375000001,-0.17774355400000008,-11.290819645,-0.663389504
460,3.833180000000084,-3.9901007415,11.049626829000001,-135.6699066,-2.510457516,-2.124543786,14.294509885,-2.6690802575,-4.9718127249999995,-5.0071350335
461,3.8415130000003046,-3.970500469,10.9833736445,-135.6704407,-3.2432187795000003,-0.2003836035,13.939761165,1.169104114,-8.139692545,-1.086933784
462,3.8498460000000714,-3.964699507,10.952027797500001,-135.70138550000001,-2.1683066485,-1.340781778,11.095890520000001,0.29778474549999995,-3.7006807330000004,-4.6258027555
463,3.858179000000291,-3.9136030675,10.896303179,-135.70539854999998,-4.57375145,0.9338881819999999,15.425575734999999,5.03075099,-6.851513624500001,-1.4025203435
464,3.866512000000057,-3.9089586735,10.869129179,-135.75219725,-1.265665777,-1.4172725975,14.391228195,0.5102933049999999,-3.0777043699999997,-6.451714277000001
465,3.8748450000002777,-3.8809592725,10.818214893,-135.77144625,-3.380123019,-1.736898005,14.318228725,2.5955670775,-6.1528847214999995,-3.15989995
466,3.883178000000044,-3.865592122,10.77760172,-135.8273239,-1.646465659,-0.1133105865,12.509511475,2.0075031819999998,-4.623126745,-7.608043909
467,3.891511000000264,-3.82306087,10.689333917,-135.8537979,-2.6025532485,-1.7825549239999998,11.695571900000001,4.473783135,-10.565732955,-4.3048315045
468,3.89984400000003,-3.81772995,10.6036834715,-135.9172592,-1.8765434025,0.8842983095,16.082435135,0.9950429199999997,-9.968024252500001,-8.8824417565
469,3.9081770000002503,-3.8024990560000003,10.502719879,-135.9478073,-2.265141964,-2.287513912,13.841076855,1.2561607060000002,-12.05170536,-4.8924860955
470,3.9165100000000166,-3.774270177,10.4040613195,-136.0049286,-3.2181766630000004,0.904426873,15.012586115000001,3.5930756329999998,-11.58466673,-8.2185196855
471,3.924843000000237,-3.7126455309999997,10.2860898975,-136.02827455,-1.8508569000000001,-1.6796736714999998,10.5980143525,6.658601999,-14.14975548,-4.156986505
472,3.933176000000003,-3.6545060874999997,10.17499304,-136.06440735,-4.547310114,1.4127583505,16.979605199999998,6.6973809005,-13.240986345,-5.8629710675
473,3.941509000000224,-3.6090388295,10.061686993,-136.09433365,-1.3121590015,-2.3680567745,13.72325563,4.8709442615,-13.554043295,-4.872929573
474,3.9498419999999896,-3.5532188415,9.969069004,-136.1175957,-4.521457672,-0.461412519,14.633656505,6.100389719,-11.1284132,-4.1645036935
475,3.9581750000002094,-3.494053483,9.8510417935,-136.1516037,-1.246317208,-1.7737151385,9.994191646,6.5981256965,-14.101240635,-5.3493546245
476,3.966507999999976,-3.4401400090000003,9.7602438945,-136.17220305,-4.0700057745,0.08648163099999995,14.129525665,5.787639260500001,-10.938431265,-3.7756280899999997
477,3.974841000000197,-3.4254752395,9.659880639499999,-136.19914245,-1.8437777165,-0.9109855295,14.62752819,1.1288194950000001,-12.047542575,-4.3738105295
478,3.9831739999999622,-3.4021378755000002,9.618795870500001,-136.20984264999998,-4.6832847595,-1.1817167025,13.621146679,1.8854896125,-5.047708034499999,-2.269946456
479,3.9915070000001833,-3.3714046480000004,9.5616936695,-136.2382965,-2.8689800500000002,-0.8449055105,11.336777685000001,3.0890896325,-6.859978914000001,-4.2213283775
480,3.999839999999949,-3.3287596705,9.5527887355,-136.24745174999998,-2.966702819,-0.43764892250000004,8.862278462499999,4.135494828000001,-1.200603068,-1.8326599005
481,4.00817300000017,-3.3178954125,9.5157861695,-136.29437255,-2.1009559485,-0.4335374015,9.4602470395,1.0999197959999998,-4.3364520075,-6.263833761
482,4.016505999999936,-3.327698469,9.53827524,-136.32635495,-5.492147684000001,-1.737629533,15.22977638,-1.7387069460000002,2.7187334895,-4.280318379500001
483,4.024839000000156,-3.3402428625000002,9.598795889,-136.40561675,-1.795407623,-0.5138458345,11.269060135,-1.05898869,7.570313691999999,-9.3959181315
484,4.033171999999922,-3.3724166154999997,9.6739845265,-136.4885521,-3.525093317,-2.4334778784999997,5.4688025709999994,-3.4234394435,9.3864545805,-9.8253922465
485,4.041505000000143,-3.4230921265000003,9.745421885,-136.5965271,-2.7380755545,-0.9562814534999999,4.361463666000001,-5.027883053,9.0871248245,-12.70406103
486,4.049837999999909,-3.486654997,9.9670753485,-136.6945229,-4.931286334999999,-0.529270366,7.501842022,-6.795845747,27.048318865,-10.5581698435
487,4.058171000000129,-3.587581873,10.115001677999999,-136.78918075,-1.480911434,-0.6345754265,5.249321103,-11.2552828765,18.17904377,-10.5275187495
488,4.06650400000035,-3.6926894185,10.439177989000001,-136.85272600000002,-4.500475049,-1.3120857479999999,6.78477335,-12.387497905,39.099653245,-5.7196166515
489,4.074837000000116,-3.7928525210000004,10.681649687,-136.91956715,-1.613685489,-0.05253706899999999,2.4059941025,-11.701258185,29.327644345,-6.431304455
490,4.083170000000337,-3.9079879525,11.062760355,-136.95230865,-4.860470176,-0.39420937,9.013744355,-14.245911119999999,45.684324265,-1.3538561164999998
491,4.091503000000103,-4.015993476,11.456090929999998,-137.02100755,-0.011407852000000052,0.08329397449999998,4.2835458515,-12.484418864999999,47.421813965,-5.2690006495
492,4.099836000000323,-4.1266293525,11.80466509,-137.04657745,-3.359479725,-1.9552261235000001,1.7426092030000002,-13.881901265,41.749082565,-0.6553736925000002
493,4.108169000000089,-4.235066652,12.31542921,-137.13752365,-3.1777584699999997,0.8335521669999999,9.797803878500002,-11.812904360000001,61.66829872,-6.607443331500001
494,4.11650200000031,-4.3248412609999995,12.67523813,-137.1804543,0.6567828655000001,-1.7086998224999999,-8.212907553,-10.914616583499999,43.255821229999995,-2.4512137175000004
495,4.124835000000076,-4.4571070675,13.169620035000001,-137.25627135,-5.176980138,1.4913083915,16.166557785,-14.88928127,59.585128785,-4.705890059500001
496,4.133168000000296,-4.5535018444999995,13.614861965,-137.31965255,2.382158071,-1.5784476775,-7.4428977975,-11.08488607,53.67219925,-3.8532736304999995
497,4.141501000000062,-4.648146391,14.086569785,-137.36406705,-5.5958521365000005,1.5497668685,15.175820825,-11.102343559000001,56.587869645000005,-1.0129151364999993
498,4.149834000000283,-4.7409107685,14.526929379999999,-137.4498291,2.8964411615000003,-2.108055979,-3.9001711605000002,-9.8776044845,53.310825345,-6.2832382915
499,4.158167000000049,-4.7868292335,14.962884905,-137.46593860000002,-3.8284074065,0.757188201,3.176320434,-6.0553746225000005,52.04227829,2.0665464405000002
500,4.166500000000269,-4.8314983845,15.388985635000001,-137.56986235,1.2427727874999999,0.0509854555,2.2802358270000003,-3.324872911,51.77859497,-8.352322338
501,4.174833000000035,-4.875620127,15.76040363,-137.56978225,-2.691208124,-0.24360889200000002,4.607712746,-6.4004324675,44.180971145,3.3298377545
502,4.183166000000256,-4.930085182,16.14582443,-137.6768341,1.4090303125,-0.9670749310000001,2.3116689325,-4.1793674825,46.936244959999996,-8.943509103
503,4.191499000000022,-4.9057018755,16.45766544,-137.67139434999999,-2.7175086735,0.4299929144999999,-1.029555902,1.5640648605,37.015176775,3.3607839345
504,4.199832000000242,-4.927686691,16.755730630000002,-137.7677498,2.584697455,0.8030541245,4.5298559664999996,-0.4291367530000003,36.369991299999995,-8.524453640499999
505,4.208165000000008,-4.9330637455,17.038473605,-137.7681427,-3.648142576,-0.3722371535,7.7236900330000005,-1.866357673,33.60002899,2.378226727
506,4.216498000000229,-4.9527759555,17.274754525,-137.84848785,2.305817321,-0.6445051805,2.5043935775,-0.5872902869999999,28.818074225,-7.2324152
507,4.224830999999995,-4.8683228495,17.448138235000002,-137.85879135,-1.9046890435,-1.1590034365,-2.1867149175,9.2117550375,20.63547802,0.09297418600000018
508,4.233164000000215,-4.7897434235,17.57107639,-137.9096794,2.258443296,1.032288909,-2.316829026,10.2327241895,14.948433875,-4.9909804475
509,4.241496999999981,-4.7143137455,17.635121345,-137.9333763,-0.17656976700000004,-0.21412035100000001,3.5918248295,8.621548294,7.685130296,-2.5897468330000004
510,4.249830000000202,-4.6648011205,17.679044725,-137.9533577,0.1036791205,0.5401373655,6.5439658165,5.646952392999999,5.2093721625,-2.2905211449999996
511,4.258162999999968,-4.616069317,17.65224266,-137.98005675000002,0.5529797075,-1.524640083,5.7081568240000005,5.545047164,-3.1666499375000003,-3.810098827
512,4.266496000000188,-4.5333080290000005,17.626727105,-137.96536255,-2.4504329565000003,-0.8915997035000001,2.2436108885,8.3174169085,-3.4122773410000002,0.9676477910000001
513,4.274828999999954,-4.447925329,17.52239037,-137.9843521,1.6799441499999999,-1.0443440975,-1.103500143,9.721706391,-12.52459526,-3.6262468695
514,4.283162000000175,-4.341625452000001,17.41844082,-137.9486809,-3.145460248,-0.6918579935000001,-1.104488194,10.312896251000002,-12.965698244999999,2.6093100309999997
515,4.291494999999941,-4.2618904115,17.270544049999998,-137.9607811,1.8941325455,0.10795772049999999,0.9615482985000001,8.8789992325,-17.81804943,-3.17292577
516,4.299828000000161,-4.1950371265,17.14132023,-137.92866135,-3.4775785805,-1.0270888805,4.9184519049999995,5.627155006,-15.944378855,2.0266945365
517,4.308160999999927,-4.1657311915,16.99634886,-137.94200135,0.9597083330000002,-0.202025354,5.997721433500001,2.953168541,-17.470207215000002,-3.2258641719999996
518,4.316494000000148,-4.139175892,16.88016796,-137.9337845,-3.5936576945,-2.120841384,5.1710230115,1.5726698634999998,-14.172718525,-0.6281051635000003
519,4.324826999999914,-4.095458865,16.729063035,-137.93782805,-0.29712128650000036,-0.4356506245,0.06501316999999984,4.401353837,-18.295588494999997,-2.179433585
520,4.333160000000135,-4.0316525695,16.62992859,-137.95032885,-2.102459669,-2.295450926,-3.1548519135,6.7100994585,-11.948019505000001,-2.8057391645000003
521,4.3414929999999,-3.971956253,16.50593424,-137.94096754999998,-1.4728243349999999,1.0580040065,-0.6564939620000001,5.8793271780000005,-15.171905039999999,-0.37898158999999954
522,4.349826000000121,-3.9691262245,16.44460106,-137.96053695,-0.8873653410000002,-1.145478934,5.371530055999999,-0.3388066289999996,-7.3777205944999995,-3.3112866875
523,4.358159000000342,-3.990086436,16.356888769999998,-137.9321213,-3.5155756475000004,0.25991168600000003,7.3378837105,-4.4701711535,-10.96398258,2.116997717
524,4.366492000000108,-3.9885139465000004,16.324668405,-137.9392433,0.4047222134999999,-1.864672661,3.6571361425,-0.884965658,-4.00274983,-1.5930204395000005
525,4.374825000000328,-3.941966772,16.276343345,-137.9029007,-3.5090480145,-0.17303067400000005,-1.6895347835,3.3126954735,-6.3099782465,3.3375030754999995
526,4.383158000000094,-3.888296485,16.28197765,-137.90946195,0.2212225200000001,-1.054529488,0.514428824,5.3871865275,0.5242400765,-1.2108554839999999
527,4.391491000000315,-3.8558359145,16.31511068,-137.8730316,-4.4061883690000005,1.0722089190000001,3.6879423855,1.590420127,3.453183502,4.002551325
528,4.399824000000081,-3.8683754205,16.373420714999998,-137.8880005,-0.28287059049999996,-2.266110718,3.4172883035,-2.235201001,6.8892185685000005,-1.7400714160000001
529,4.408157000000301,-3.8226577045,16.444252015,-137.85082245,-2.7350515724999998,-0.5206471530000001,2.194267914,3.098951429,7.9689221375,4.3878721
530,4.416490000000067,-3.7977716925,16.551842215,-137.86100770000002,-0.8095753044999999,-0.419121921,-0.8892685619999999,2.1230488419999998,12.75138235,-0.8221976755
531,4.424823000000288,-3.7802706955,16.692736625000002,-137.82209015,-3.4136607645,-1.7630984785,1.604112208,-0.36929941200000016,16.351684095,5.1293165685
532,4.433156000000054,-3.8019179105000003,16.849824905,-137.84305955000002,-0.2673593465,1.225676,8.032155991,-3.047333017,18.754724505,-1.6525797844999999
533,4.441489000000274,-3.857405543,17.056678294999998,-137.80808639999998,-4.050586581,-2.2520125505,6.836477995,-9.0411016915,24.280967715,5.1948912145
534,4.44982200000004,-3.8965234754999996,17.257093429999998,-137.82247545,0.28263464600000004,-2.7545537355,-0.05446702200000003,-5.368440382499999,23.889349935,-0.492626155
535,4.458155000000261,-3.8942049745,17.488980294999998,-137.7998543,-3.7301853895,1.0423522145,-1.5130167135,-1.7147393229999999,27.372323989999998,4.002392888
536,4.466488000000027,-3.9207179545,17.73915577,-137.8087807,0.3219319395,-1.518864691,-2.904907286,-4.0182749630000005,29.802853585,0.5576478895
537,4.474821000000247,-3.9515960220000004,17.997977255,-137.8011894,-2.8104894165,-0.13910228049999995,3.3122969455,-5.1450668275,30.707015995,2.5232603549999997
538,4.483154000000013,-4.0408875945,18.290965085,-137.8294792,-0.11873847250000003,0.3687545655,5.868434906,-10.8581056615,35.08502579,-1.2519545705
539,4.491487000000234,-4.1295616625000005,18.591638565,-137.8322487,-2.5591432455,-1.7890209555,3.8652204275,-11.689377310000001,35.79253197,1.7960855064999999
540,4.49982,-4.213056803000001,18.880556105,-137.8746567,-0.2045855525,-1.147675961,1.666386008,-9.5916841025,34.716537474999996,-2.7653544544999997
541,4.50815300000022,-4.294864178,19.220041275,-137.88953014999998,-3.925748348,-0.9160379170000001,-1.1384646185,-10.369247913999999,40.530056,0.8784607649999999
542,4.516485999999986,-4.379916668,19.51141739,-137.93668365,2.304568231,-0.264180541,-0.46154876049999993,-9.5421590825,35.056810375,-3.1577910185
543,4.524819000000207,-4.476466179,19.859335895,-137.95616535,-4.707864881,-0.479935825,2.3190783259999996,-11.9556064615,41.578813554999996,0.556591693
544,4.533151999999973,-4.602085352,20.160452845000002,-137.99249650000002,1.696018308,-1.2986688615,1.9530367849999999,-14.737017635,36.12438011,-1.682575673
545,4.541485000000193,-4.723314761999999,20.484039305,-138.0233574,-2.7233740089999996,-0.29161459199999995,4.192602158,-14.433938025,38.769924165,-0.7909430565
546,4.549817999999959,-4.838958978999999,20.77540779,-138.03780365,0.9271068309999999,-0.09258198750000002,1.5915115025,-14.4224329,34.755307195,0.8453415039999999
547,4.55815100000018,-4.941916942500001,21.059247015,-138.06389615,-1.4710327685,-1.8209239245,1.8134566099999998,-12.429052828,33.97497749,-0.49361875650000003
548,4.566483999999946,-5.0359745025,21.321387289999997,-138.07414245,-0.5891987084999999,0.9309562295,1.6387991905000003,-11.984925271,31.214954380000002,1.1306578515
549,4.5748170000001664,-5.1690273285,21.59052277,-138.09720995,-0.21164941800000014,-0.5627408625000001,-0.5554342269999999,-16.16139603,32.186869619999996,-0.17889636749999993
550,4.583149999999932,-5.268973827,21.80822945,-138.0985527,-0.822076857,-2.0964984295,1.193676889,-13.078957079999999,25.80851078,1.772762336
551,4.591483000000153,-5.368904591,22.034622195,-138.13417435,-1.140585333,1.7704312805,1.757611975,-11.606829166499999,27.20809746,-1.9260954114999997
552,4.599815999999919,-5.4829957485000005,22.21883106,-138.15406035,0.2020441295,-0.7204600274999999,1.1497705575000001,-13.89937973,21.987475395,-0.5570392609999999
553,4.60814900000014,-5.548901558,22.391846655000002,-138.19109724999998,-0.899612874,-1.177098632,3.6193304285,-7.456307411500001,20.85417366,-2.5963687
554,4.616481999999905,-5.5979385375,22.509115219999998,-138.2182884,0.9263589385,2.4190324545,3.7901058195,-5.7602455615,14.07421875,-2.0837501735
555,4.624815000000126,-5.648524999499999,22.613442425000002,-138.2325897,-1.165852025,-2.3334909675,1.786491543,-6.6145057675,12.4018383005,-0.8420488235
556,4.633148000000347,-5.6699807645,22.649204255,-138.24184415000002,0.8341136575000001,0.28588029699999995,1.6108692585000002,-3.2815421225000003,4.1482892035,-1.051982999
557,4.6414810000001125,-5.6867935655,22.66932678,-138.2342453,-1.0654737724999999,0.9566359520000001,3.370215893,-3.544292688,2.1035243275,0.5996805055000001
558,4.649814000000333,-5.6856534485,22.642468450000003,-138.2382393,0.415748477,-2.1523053645,3.3130364415000004,-0.8451031445,-3.3829227690000003,-1.230815053
559,4.658147000000099,-5.6643152235,22.577971455,-138.21786115,-0.982745826,0.6970045265,2.0689822435,0.46521204699999996,-8.144212723,1.011045128
560,4.66648000000032,-5.635309219,22.480421065,-138.22419355,0.75149326,-0.18242931399999995,1.8418551829999998,2.5680707695000002,-11.794307235,-2.3336364925
561,4.674813000000086,-5.573325634,22.33336163,-138.20274355,-1.6335179954999999,-0.591422662,2.344267428,5.3250353335,-18.017814635,0.17952412350000002
562,4.683146000000306,-5.509266853,22.197052,-138.2162666,0.3278897999999999,0.983952388,6.2635760309999995,7.091994522,-16.351171015,-3.5567552449999997
563,4.691479000000072,-5.4583427905,21.99953842,-138.1945114,-1.9149658975,0.2584995475,8.580621002,4.0146625935,-24.046723365,-0.30984878549999995
564,4.699812000000293,-5.411095381,21.84205914,-138.2117081,-0.7655376195000001,-2.0244008449999997,8.350802898,5.213715315,-18.846359255,-4.1887354255
565,4.708145000000059,-5.297635554999999,21.617247585,-138.1859894,-1.6634696124999997,-0.6279083489999999,1.0916954275000001,11.3599486335,-27.35154629,-0.11089098450000012
566,4.716478000000279,-5.1570210455,21.428398135,-138.19747165,-1.3743140700000003,0.38572832949999997,1.0780713560000001,16.1361866,-22.661749835000002,-3.836874306
567,4.724811000000045,-5.0477421284999995,21.201782225000002,-138.16727065,-2.2213004830000003,-0.58085309,6.3462591175,10.721668004,-27.613923075000002,0.5017521379999998
568,4.733144000000266,-4.946706533,21.062117575000002,-138.1827278,-0.5444124934999999,-0.555793166,7.0137040614999995,11.540062425,-16.75838852,-3.6835845375
569,4.741477000000032,-4.836571455,20.870040895,-138.14367675,-4.9317750335,-0.12132574650000003,9.837798595,10.4444417955,-23.56239605,1.9515051245
570,4.749810000000252,-4.743346691,20.72986984,-138.16228485,1.5936284065000001,-2.1622778769999997,2.058027342,10.733253000000001,-16.799499985,-3.9874337615
571,4.758143000000018,-4.6218171120000004,20.629315374999997,-138.13312150000002,-5.5968439865,-0.5081550779999999,8.721111298,12.246593,-12.5191164,1.8338965775
572,4.766476000000239,-4.5408542155,20.466396335,-138.14331435,2.1517335175,-1.1048888045,0.13430941100000005,8.9221844685,-19.60935688,-3.1941605805
573,4.774809000000005,-4.4658885,20.477721215000003,-138.12593075,-7.589370074,-0.9825796485,13.082497595,7.131541967,0.9799110295,1.5961959769999998
574,4.783142000000225,-4.4173867705,20.31443787,-138.13101955000002,3.4413853885000005,-1.105245173,-1.1533311605,4.862659216,-19.70958519,-2.556877971
575,4.791474999999991,-4.3601853845,20.402374270000003,-138.12610245000002,-8.1651464685,-0.8420921564999999,14.692543986,5.475376368,10.263855459999998,0.8829868435
576,4.799808000000212,-4.3010222915,20.277912139999998,-138.1110153,2.87778306,-0.7291012705,-2.4261111025,5.3314629795,-15.244237900000002,0.11069810399999991
577,4.808140999999978,-4.271511078,20.381801605,-138.10712815,-6.8664819024999995,-1.1303476095,12.7572178855,2.169263348,12.187152385000001,0.879023194
578,4.816474000000198,-4.224390507,20.369755745,-138.0840607,1.6276786325,0.18219988799999998,2.4459930809999997,3.584763229,-1.8600996730000001,2.0406795145
579,4.824806999999964,-4.200562716,20.399013519999997,-138.07652665,-4.033497274,-1.810910225,10.2124104495,1.3001528975,3.230998993,0.5951277015000003
580,4.833140000000185,-4.1958248615,20.497863770000002,-138.05210115,-1.6116421520000002,-0.7464573944999999,11.09076333,-1.5569872855,11.4027050745,3.1742136480000003
581,4.841472999999951,-4.207482338,20.51996422,-138.06102755,-0.6359020475000001,-1.5409780145,-3.0966031549999995,-2.250095468,2.5103421205,-1.3205100295
582,4.849806000000172,-4.1755738255,20.55815029,-138.03001405,-3.9616797565,-0.30315302299999997,17.574198245,1.382957667,4.091422079,3.3782621919999998
583,4.858138999999937,-4.1922626495,20.69138527,-138.05960844999998,-0.9031908515,-1.1909228564999998,3.5143308639999997,-1.941982329,15.976747511,-2.6506513355
584,4.866472000000158,-4.2510151865,20.596214295000003,-138.0341072,0.6180603505,-1.1933541895,8.6671160465,-9.2787082215,-11.821715594,1.5650938155
585,4.874804999999924,-4.268996477,20.81054401,-138.0626297,-5.6080557109999996,-0.5681072025,13.247628213,-2.1608560015,25.676161765,-1.7799912095
586,4.8831380000001445,-4.3038976195,20.651046755,-138.03118899999998,2.8406413795,-1.6169691684999998,2.834231734,-6.639302254,-19.57466316,1.6443512439999997
587,4.89147099999991,-4.354239940499999,20.73583794,-138.0742531,-4.7589213845,-0.7703034725,18.01344204,-5.4159517285,10.2978866095,-4.544939279499999
588,4.899804000000131,-4.352013588,20.646333695000003,-138.01900485,1.261600971,-0.12066304650000004,3.6880370975,-3.221937895,-11.400256633,4.9098266365
589,4.908137000000352,-4.397783279,20.546525955,-138.03572465,-0.986845255,-0.8122744260000001,12.848281385,-5.9628276825,-12.0158822525,-3.2697083950000003
590,4.916470000000118,-4.411313057,20.42282772,-137.96812054999998,-2.2776864765,-1.1056337355,14.15207815,-5.566628218,-15.588841915,5.819287061500001
591,4.924803000000338,-4.444355965,20.2803545,-137.9773827,-0.17676955449999998,-1.0417882505,8.4988656065,-4.740363717,-17.18332815,-2.8386728765
592,4.933136000000104,-4.4422125815,20.03537178,-137.9066925,-1.838653296,-0.8496191125000001,14.512033935,-3.8148852585,-30.133959769999997,5.0806782245
593,4.941469000000325,-4.443702221000001,19.894108770000003,-137.93344115000002,-2.4248463659999997,-0.5293509439999999,14.85852337,-0.24577507400000004,-16.886138915,-4.796676636
594,4.949802000000091,-4.4359469415,19.628792760000003,-137.8889847,-1.4502547945,-1.0142221599999999,10.4212660775,-2.04506791,-32.339666365,1.9969133735
595,4.958135000000311,-4.4099366665,19.387571335,-137.90714645,-3.8337510825,-0.09153807150000004,17.571742055,2.716852844,-28.924105644999997,-4.7425177094999995
596,4.966468000000077,-4.3528189655,19.18577099,-137.88829800000002,-4.192180394999999,0.0009576160000000083,18.79429245,4.912991762,-24.514347075,-0.27502661949999996
597,4.974801000000298,-4.2886073585,18.975450515,-137.91542815,-1.627214521,-0.095968038,12.099150654999999,7.6695849895,-25.161581995,-5.4216525555
598,4.983134000000064,-4.2299160955,18.6987133,-137.8963432,-0.8188926465,-2.752219319,9.474979876999999,5.0485067365,-33.482816695,-0.8126564025000003
599,4.991467000000284,-4.156550407499999,18.498082165,-137.9035339,-2.9735422135,0.056739911500000004,12.570134165,8.020385742,-24.184936524999998,-3.0164554715
600,4.99980000000005,-4.0625787975000005,18.245274545,-137.86680984999998,-3.7346338030000004,-1.772905499,15.64974165,8.684783459,-30.74805927,1.3025815485
601,5.008133000000271,-3.9865858555,18.07493496,-137.86711125,-2.3224800825000003,-0.16601133350000002,18.23317051,8.06655383,-20.619775775,-1.906896949
602,5.016466000000037,-3.9473564625,17.83843136,-137.8529892,-2.0356981755,-1.6481606960000001,13.824833869999999,2.908319712,-28.62319851,-0.8955585954999998
603,5.024799000000257,-3.910182834,17.628787995,-137.85209655,-4.1334893699999995,-0.5025313794999999,18.80290222,3.3463224169999997,-25.33360863,-2.062607169
604,5.033132000000023,-3.8518136739999997,17.42943287,-137.8480606,-0.4238767029999999,-1.8087278605,13.966476440000001,5.6197662355,-24.10498142,-1.6710161570000002
605,5.041465000000244,-3.8069655895,17.222645285,-137.85080335,-6.129085064,-1.6271296145,17.146576879999998,4.3810356855000006,-24.965173720000003,-2.423024893
606,5.04979800000001,-3.739773035,17.082111835,-137.86901475,-0.771995127,-0.8255881965,15.691242214999999,7.501938105,-16.89351511,-3.7327640055
607,5.05813100000023,-3.7046937945,16.850748064999998,-137.87989425,-2.3884494899999997,-1.5786213279999999,10.628073217,3.4667352439999997,-27.84894562,-3.5169521569999995
608,5.066463999999996,-3.707305908,16.665430065,-137.9123497,-2.7817296385,-0.681861234,17.50628853,-0.39198142300000005,-22.15465927,-5.6968262195
609,5.074797000000217,-3.6957721709999998,16.478472235,-137.91214374999998,-2.610004246,-2.347190857,11.740298275,0.2573655845,-22.615368845,-1.884318486
610,5.083129999999983,-3.690662861,16.242198945,-137.94312285,-2.2692880630000003,-1.0524611175,17.9872942,0.4611717615,-28.272974965000003,-5.8836193085
611,5.091463000000204,-3.687077403,16.10804129,-137.9523506,-3.336310148,-0.06851065149999999,14.60247374,-0.41243398200000003,-16.217336655,-2.5692750215
612,5.099795999999969,-3.709889531,15.897019865,-137.97948455,-2.0052503125,-2.020694256,16.94667816,-3.0140286685,-25.282391545,-5.2271385195
613,5.10812900000019,-3.747695446,15.74531317,-137.990345,-4.8335676195,-1.5217937830000001,21.45731354,-5.3549644945,-18.303246495,-2.9054746625
614,5.116461999999956,-3.7639347315,15.5894413,-138.01341630000002,-1.0712415875,-1.187521249,12.419657705999999,-2.3499978785,-18.695528985,-4.460144043
615,5.1247950000001765,-3.7841830255,15.373522285,-138.02676775,-3.4952754975,-0.528326571,11.783751965,-3.162552893,-25.973067285,-3.714629769
616,5.133127999999942,-3.8199213745000002,15.255187035,-138.04825590000002,-2.3060058205000002,-2.2606289385,13.778881550000001,-4.737789273000001,-14.212970734999999,-3.9922099115
617,5.141461000000163,-3.836906552,15.060322285,-138.0566368,-3.306736652,0.7985304555,13.834828375,-2.9805191365,-23.479071615000002,-3.01208204
618,5.149793999999929,-3.875426173,14.866476055,-138.08180620000002,-1.5505275424999998,-0.9802713245,20.17210102,-4.9135298135,-23.217253685,-5.168161392
619,5.15812700000015,-3.9167727230000002,14.767846105,-138.08793645,-5.135737777,-1.8385764955,17.867210865,-5.980041504,-11.9728393555,-1.999588646
620,5.166459999999916,-3.992459893,14.580777170000001,-138.11031725,-1.3594496845,-1.4013010634999998,14.325787545,-9.467103959000001,-22.424902914999997,-4.779938817
621,5.174793000000136,-4.0435948370000006,14.516019345,-138.11923215000002,-5.298977852,-1.1962796629999999,20.19204521,-7.082234144500001,-7.891004324,-2.056144327
622,5.183125999999902,-4.1109689475,14.37116337,-138.14254765,0.23394310499999982,-0.4703249465,8.8121004105,-8.4664542665,-17.358553885,-4.5444021225
623,5.191459000000123,-4.1864157915,14.23890686,-138.14951705,-4.707333982,-2.347498715,12.70089388,-10.094265701,-15.973938465,-2.4427857994999997
624,5.199792000000343,-4.234439373,14.17330265,-138.17544935,-3.003799677,0.12220370750000009,15.81308746,-6.0678464175,-7.844987392,-4.186365485
625,5.208125000000109,-4.3093252185,14.055020335,-138.1920624,-0.9733980595,-1.0141423345,13.137252805,-9.719732287,-14.218798159999999,-3.477210164
626,5.21645800000033,-4.4332840440000005,13.981492045,-138.2156525,-5.6949555875,-0.620509874,23.050273895,-15.294110775,-8.79635334,-4.013290882
627,5.224791000000096,-4.533405304,13.956822395,-138.2484169,-1.7819074689999999,-1.7855398949999999,17.23867035,-12.260063169999999,-2.867539346,-4.507145286
628,5.233124000000316,-4.6138226985,13.867283825,-138.2795792,-3.2240212259999996,-0.38652014,13.1007046695,-9.888786317000001,-10.631407265,-5.017790794
629,5.241457000000082,-4.7203309534999995,13.851071834999999,-138.3122177,-3.484263897,-2.5119334455,12.363604067,-13.039159295000001,-1.8417088389999998,-4.412116885
630,5.249790000000303,-4.780386925,13.842874049999999,-138.3399925,-3.12232089,1.045722827,12.588371275,-7.533659694500001,-0.9136148390000001,-3.9374463559999997
631,5.258123000000069,-4.870261430499999,13.798499105,-138.36939619999998,-1.7616452575,0.12276524299999997,16.04032898,-11.10733485,-5.2365500925,-4.327077627
632,5.266456000000289,-4.9705696105,13.821290495,-138.3996315,-4.8032231329999995,-2.2982464435,20.262274740000002,-12.305657865,2.8296821115,-3.919081211
633,5.274789000000055,-5.035290003,13.85333395,-138.4352341,-0.7727441305,0.8444958925,13.3229923245,-7.903036355999999,3.9726593495,-4.266903280999999
634,5.283122000000276,-5.0769016745,13.852166175,-138.4547806,-4.213737488,-1.7054953574999998,14.899423599999999,-5.577710986,-0.13686966899999997,-2.900946498
635,5.291455000000042,-5.0746517185,13.848786835,-138.4894867,-2.280518055,0.31232261650000004,15.773383615,0.10805366150000001,-0.265901342,-4.5324963335
636,5.299788000000262,-5.0836281775,13.882009505,-138.4953041,-3.997112751,-0.252769321,14.994061945,-2.0546975135000003,3.8345853090000004,-0.9480148555000001
637,5.308121000000028,-5.0910019875,13.889571190000002,-138.52925875,-2.0974531770000002,-1.1525009275,15.208927635,-1.0444844365,1.0319975615,-4.329426527
638,5.316454000000249,-5.096020222,13.89873648,-138.53128815,-2.3203045725,-0.8216245769999999,15.891566274999999,-1.6931074860000002,0.92027463,-0.7688497379999999
639,5.324787000000015,-5.1300756935,13.93799925,-138.5705032,-3.9017757175,-1.248507418,17.33033848,-4.103944659,4.878749490000001,-4.5917295215000005
640,5.3331200000002354,-5.123224735,13.95157814,-138.56009675,-2.5448884815,-1.829257319,12.58051157,-0.6421746020000001,1.3205164075000002,0.727200985
641,5.341453000000001,-5.1400129795,13.938999175,-138.6055679,-0.9436367750000001,0.25886029050000003,11.663500785,-1.8309887649999999,-1.253458023,-5.8793311115
642,5.349786000000222,-5.1783380505,13.967914579999999,-138.60678860000002,-4.0941854715,-1.6211540700000002,14.943507669999999,-5.75168252,3.277501345,-0.4556643960000002
643,5.358118999999988,-5.227279663,14.00938654,-138.6590347,-1.5636364820000002,-0.7159479559999999,17.353340625,-5.4624347685,5.279895425,-6.069044471
644,5.3664520000002085,-5.295105934,14.068385124999999,-138.65792085,-4.2824183705,-1.038874209,16.464941025,-9.37196064,6.8513919130000005,0.1399816275000001
645,5.374784999999974,-5.382814407,14.061124325,-138.69215395,-0.679724932,-2.7699580194999998,10.0739889145,-10.637227058499999,-0.7255486845,-4.5072411895
646,5.383118000000195,-5.4372730255,14.097513675,-138.6902237,-3.512681842,1.087795466,14.766868115000001,-7.76777935,4.141430974,-0.03228664400000003
647,5.391450999999961,-5.536029339,14.138599395,-138.71954345,-2.2412777245,-1.9535846115000002,15.958556174999998,-12.092963695000002,5.004389048,-3.3856203925
648,5.3997840000001815,-5.6272182465,14.19458389,-138.7201004,-2.707577586,-0.169276487,16.43739891,-12.124774935,6.510005474,-0.0732182265000001
649,5.408116999999947,-5.733199834500001,14.199085235,-138.72569275,-2.3733082415,-0.921818256,14.56969643,-13.651779650000002,0.370791674,-1.041487455
650,5.416450000000168,-5.778386116,14.195666315,-138.70946125,-1.0033794045,-1.084789157,12.926346305,-7.091038942,-0.77862151,1.158442378
651,5.424782999999934,-5.8537619115,14.16200304,-138.6954155,-2.9654757975,0.417227857,14.855014325,-10.549741746999999,-4.4158751370000004,0.7549667359999999
652,5.433116000000155,-5.928485155000001,14.13600159,-138.68291475,-0.552662052,-2.1251363755,14.266434194999999,-10.5200042725,-3.430815935,0.4228783844999999
653,5.4414489999999205,-5.974977255000001,14.080387115,-138.65929415,-4.250087738,2.4316812755,18.282801155,-7.3830673695,-7.1504514215,1.5833443405
654,5.449782000000141,-6.0043084625,13.998300075,-138.6478195,-0.9387272004999999,-3.193540454,13.56839371,-5.0238549710000004,-10.1156578045,-0.4068182705000001
655,5.458114999999907,-5.988384247,13.90460634,-138.62086485,-3.63219285,1.1929068565,14.07091522,0.0024076399999999887,-11.7344656,1.4781975445
656,5.466448000000128,-6.002346277,13.78977728,-138.61522675,-1.1818080245,-0.8018472489999999,13.864738465,-2.9845003485,-13.954708095,-1.502736121
657,5.474781000000348,-5.966649532,13.68674755,-138.5891876,-2.934948742,-0.304080181,15.137485025,2.407142818,-12.836184025000001,1.2604254554999998
658,5.483114000000114,-5.938501358,13.53128815,-138.5803528,-2.448669076,-0.813140094,16.104839325,1.9799870849999999,-18.844006535,-1.6293537395
659,5.491447000000335,-5.856926441000001,13.37796402,-138.5491867,-2.2012000080000003,-0.11234384800000001,12.912751674999999,7.7841117385,-18.898773194999997,1.2608998265000002
660,5.499780000000101,-5.759959697999999,13.2088027,-138.5417633,-3.2050617929999996,0.21927838,15.23426485,10.267118456,-20.47577858,-1.8271347880000002
661,5.508113000000321,-5.618500947499999,13.059120655000001,-138.5171585,-2.0777025225,-0.3772873135,13.818706035,15.17834234,-18.3829031,0.6139224765
662,5.516446000000087,-5.4627354145,12.905009745000001,-138.5120697,-3.354843974,-0.394161612,16.400890349999997,17.4050684,-18.646769525,-1.92952773
663,5.524779000000308,-5.272711277,12.71405506,-138.49622730000002,-2.5988771914999997,-0.5929605364999999,13.969358920000001,21.237532615,-23.209011075,-0.7625876965
664,5.533112000000074,-5.071320056999999,12.528362755,-138.49477765,-2.020676732,-0.2152727245,14.75023508,23.00683689,-22.390223505,-2.6286444065
665,5.541445000000294,-4.843509674,12.33225393,-138.4914436,-3.492626071,-0.814592183,14.431435105,26.102695465,-23.69914246,-2.1200349335
666,5.54977800000006,-4.621856451499999,12.183659555,-138.5016174,-3.061080575,-1.243711792,16.21858978,25.72531223,-17.854347230000002,-3.4508358240000003
667,5.558111000000281,-4.3949797155,12.00978136,-138.5167847,-4.391299129,-1.852947369,15.069339750000001,26.448343275,-20.881467819999997,-3.881142974
668,5.566444000000047,-4.1810007095,11.829398155,-138.54036715,-1.3843014985,-0.732904762,14.436328885,25.138225554999998,-21.561641695,-5.198151827
669,5.574777000000267,-3.9916858674999998,11.666318415,-138.58185195,-4.0918596985,-2.3038405775,15.195905685,22.58235359,-19.3931613,-6.7308177945
670,5.583110000000033,-3.7956433295,11.524064540000001,-138.6229591,-2.6360562439999997,0.011176720499999987,15.354823110000002,23.411036494999998,-16.8927989,-6.7851579189999995
671,5.591443000000254,-3.596028328,11.42675638,-138.6698723,-5.194386601,-2.029399395,13.86902428,23.899359699999998,-11.515123365,-6.7269496915
672,5.59977600000002,-3.3669620755,11.292304994999999,-138.7050209,-1.5397868065,0.9479090125,12.927473545,27.233662605,-16.04718685,-5.9183220865
673,5.6081090000002405,-3.180264592,11.2201833705,-138.74314115,-4.3515716795,-2.841558158,15.669434549999998,22.125387189999998,-8.6015138625,-5.4496421815
674,5.616442000000006,-2.9595327375,11.139704706,-138.76680755,-2.18415365,-0.5996971130000001,15.145392895,25.9657774,-9.693976877,-4.0977489945
675,5.624775000000227,-2.755680561,11.1174674015,-138.79509735,-3.8282022475,-1.492987275,12.742267609999999,23.910149575,-2.7118633985000002,-3.940463543
676,5.633107999999993,-2.5350440745,11.036915777499999,-138.81892015,-3.194190741,-1.6200738355,14.251632215,25.953879360000002,-9.726417303,-4.072647214
677,5.6414410000002135,-2.354287982,10.9833712595,-138.84375765,-2.1008819345000003,-1.5024285915,13.261432169999999,21.07541943,-6.510340929,-3.6731916665
678,5.649773999999979,-2.209065914,10.9403138185,-138.88018035,-3.820658088,-1.950258493,15.986794475,17.176712035,-5.194869399,-5.3026158809999995
679,5.6581070000002,-2.070046425,10.905367375,-138.90903855,-1.1186993275000001,-2.3604653475,12.518005370000001,16.15435743,-4.278481245,-4.0341082815
680,5.666439999999966,-1.993871629,10.847007752,-138.9424744,-3.4058825375,-2.9440141915,14.151085855,8.809933185,-7.063401699,-4.9857409
681,5.674773000000187,-1.9808801415,10.811981199,-138.98012925,-3.338061452,-2.6528098585000004,13.90002346,1.20910722,-4.259961307,-5.0493793485000005
682,5.6831059999999525,-1.9718600515,10.7894587505,-139.01971435000002,-3.4363828895,-2.621609211,12.21325827,0.8762373925,-2.7422664164999997,-5.5799138545
683,5.691439000000173,-2.0008476975000002,10.7238421455,-139.06035995000002,-0.509372205,-1.076008424,11.611814022,-3.724854231,-7.923399687,-5.535358667000001
684,5.699771999999939,-2.1072277425,10.698124886999999,-139.08583065,-4.4167578225,-2.119511962,14.94063139,-13.30199337,-3.177555442,-3.932304382
685,5.70810500000016,-2.2394487855,10.686743736,-139.1246605,-3.3301393985,-1.2512328475,17.8502264,-16.17774582,-1.4082582595,-5.089505433999999
686,5.7164379999999255,-2.375371337,10.6375455855,-139.1565514,-1.7185749415,-3.0968227385000002,11.610900403,-16.713735104999998,-5.946954727,-4.808158398
687,5.724771000000146,-2.553299546,10.634429452500001,-139.20737455,-4.4355039595,-1.9415825605,9.720797063,-21.425133705,-0.3276183604999999,-6.4705500605
688,5.733103999999912,-2.7607162,10.634445667,-139.25865555000001,-2.642000735,-1.687893629,4.890676259999999,-24.87669468,0.07323113199999999,-6.6779227255
689,5.741437000000133,-3.01310432,10.639748097,-139.3205032,-2.3065251115,-2.5694568155,7.917313099,-30.10657597,0.7893288734999999,-7.718515872999999
690,5.749769999999899,-3.2865610125,10.6969323135,-139.3866272,-3.6565328835,-0.5003266335,11.612411021500002,-32.492788315,7.0789818765,-8.0576138495
691,5.758103000000119,-3.6233567,10.835220335999999,-139.47953795,-2.7263320085,-0.5107967335,9.903116703,-39.506641384999995,17.00732422,-10.39899445
692,5.76643600000034,-3.964243531,10.876068592,-139.55654909999998,-2.670249224,-2.2792090180000004,6.42912364,-40.351144794999996,5.2798001765,-9.2042274475
693,5.774769000000106,-4.2698075775,11.083244802,-139.66389845,-3.9761583805,0.24875798800000004,9.4643199445,-35.38088417,25.485922815,-11.282149315
694,5.783102000000326,-4.5699665545000006,11.202656745,-139.72010425,-3.000741661,0.09501644999999997,2.702050805,-35.892425540000005,14.584771635,-5.9723703865
695,5.791435000000092,-4.8758897779999995,11.492505075,-139.80881885000002,-3.2883231045,-0.006013453000000002,9.9723062495,-35.761405945,35.29876232,-7.97900033
696,5.799768000000313,-5.1232423785000005,11.817728995,-139.85551835,-4.2751874925,-0.41256701949999997,2.1836786269999995,-29.744446755,39.16839218,-2.6937586514999996
697,5.808101000000079,-5.351380825,12.081687925,-139.9308777,-0.47026872649999996,0.02813062050000001,-0.8053698685,-26.60844612,32.11642742,-6.359582544
698,5.816434000000299,-5.557561636,12.503969195,-139.99978255,-6.547549963,-0.7595753075,9.854857924000001,-24.221727375,51.03333473,-3.8491765859999996
699,5.824767000000065,-5.7716548445,12.973810669999999,-140.09349825,0.8980265260000001,0.363158688,-1.8137578965,-24.279258725,56.951766965000004,-5.7980145215
700,5.833100000000286,-5.9710457325,13.264747145000001,-140.17774965,-4.379904628,-1.051408753,8.845509289999999,-22.90492344,35.56155205,-6.8534783565
701,5.841433000000052,-6.1406595710000005,13.946761604999999,-140.27872465000002,-2.3590122905,0.36753523349999995,5.4800047875,-18.526323315,82.38559723,-3.512168883
702,5.8497660000002725,-6.327779293,14.1803751,-140.36862185,0.6013499495000001,-1.414594576,0.05287694949999988,-21.121004104999997,28.832140925,-7.9985354394999995
703,5.858099000000038,-6.4194681639999995,14.83954668,-140.43491365,-4.106651633999999,1.4931015970000001,4.1493728155,-10.038602111500001,79.225357055,0.6919600964999999
704,5.866432000000259,-6.51079607,15.112672325,-140.52728654999999,1.669273995,-0.014623641999999992,0.4196891785000001,-9.3666827695,33.575261115,-7.453743458
705,5.874765000000025,-6.583549023,15.660975935,-140.55212785,-4.149184346,0.6194936335,9.7929718495,-9.015227557500001,65.466976165,4.202633798
706,5.8830980000002455,-6.639763116999999,15.95123434,-140.64359665,3.214504361,-1.0928199219999999,-1.6395917535,-4.9602341655,35.620918270000004,-7.0711185915
707,5.891431000000011,-6.606570482,16.323169710000002,-140.63238905,-4.5574672225,0.4704108235000001,2.240071654,2.4771567880000003,43.96439552,5.965533733
708,5.899764000000232,-6.6166336535,16.599520204999997,-140.73633955,4.714733094,1.2307209964999999,1.7486388685,1.1794840095,34.102095605,-8.5411205295
709,5.908096999999998,-6.602025032,16.878937245,-140.71666335,-5.69343853,-1.222837582,9.077618599000001,-0.14840894949999994,32.837038039999996,5.616803646
710,5.916430000000219,-6.6010384559999995,17.041584495000002,-140.81845475,4.387787759,0.19052732000000006,3.2054032085,2.598482013,20.506169319999998,-9.8040390015
711,5.9247629999999845,-6.5258231165,17.145512580000002,-140.7907257,-3.7145125269999997,-1.4307768645,1.5493616165,6.739433050000001,11.825896740000001,4.0665299875
712,5.933096000000205,-6.477798462,17.199112895,-140.86130905,3.1394415795,0.8320147099999999,1.3313375115000001,7.2902030945,7.069064022,-7.727139769499999
713,5.941428999999971,-6.3964645865000005,17.21638775,-140.8473587,-2.277755618,-1.685819268,2.1593728665,7.8798811435000005,1.6881189939999999,1.2775354404999995
714,5.949762000000192,-6.3307812215,17.180842875,-140.87500385,1.2078784704999999,1.071995914,1.397071034,7.945563555,-4.131000638,-4.019662381
715,5.9580949999999575,-6.2456321715000005,17.084222320000002,-140.87533185,-0.35943674999999997,-1.7549068929999998,3.4836511615,8.8032314775,-11.7142519975,-1.8617405849999997
716,5.966428000000178,-6.17676425,16.963278770000002,-140.85680775,-0.7199797630000002,1.16245538,3.7672241925,6.712962151,-14.894690035,0.14999866500000003
717,5.974760999999944,-6.118694305,16.780831335000002,-140.88733675,0.6967169045000001,-1.84551597,5.13851738,6.604117155,-21.595279689999998,-6.381959913500001
718,5.983094000000165,-6.053003788,16.58108568,-140.84629055,-3.0168580115,-0.12548404950000003,5.1695718765,5.5344130995,-24.566875455,1.7491707774999998
719,5.991426999999931,-6.0045204165,16.35827589,-140.91134265,0.931992173,-1.8054369685,2.807621598,6.6497480865,-26.00652981,-10.785477935
720,5.999760000000151,-5.921002865,16.10095501,-140.85048675,-3.3982922810000002,-0.12913119800000006,1.6069070399999998,6.9958627225,-31.675242425,3.3481545470000005
721,6.008092999999917,-5.8641958235,15.867172720000001,-140.92274095,0.9940881730000002,-1.2881001085,1.3926445245,7.889375926,-27.25243664,-11.688242196500001
722,6.016426000000138,-5.773137331,15.601428984999998,-140.839653,-3.9893145490000004,-0.49737876700000005,0.267709851,7.184218168499999,-32.930536270000005,5.8707060375
723,6.024758999999904,-5.7318208219999995,15.372411249999999,-140.89333725,1.342054129,-0.6154313385,0.3866884114999999,5.439884424000001,-26.932063104999997,-9.431662799
724,6.033092000000124,-5.671647072000001,15.13884449,-140.79833985,-5.049431205,-0.6569223999999999,2.7546772959999997,3.1053379774999996,-29.206072804999998,7.7024815105
725,6.041425000000345,-5.639611721,14.94669485,-140.84248735,2.0573713185,0.5308358670000002,5.243501425,4.0341994759999995,-22.657614709999997,-7.841449976
726,6.049758000000111,-5.6045782565,14.718524455,-140.7573166,-5.077653408,-0.8536605835,4.8520721195,0.377694607,-28.431253435000002,6.671239376000001
727,6.058091000000331,-5.6008486745,14.569097995,-140.79140855,-1.0345957575,-1.525899455,4.889351726,0.3744547964999999,-17.684194565,-6.1437996625
728,6.066424000000097,-5.5531225200000005,14.388628005,-140.73321915,-2.6439120765,-0.11947962599999995,0.932623863,2.73525697,-22.41886425,4.136387706
729,6.074757000000318,-5.540497779500001,14.230187415,-140.7552376,-1.23660624,-1.168062538,1.969810367,1.0695035755,-18.905456545,-4.839048922
730,6.083090000000084,-5.509660720499999,14.123428345,-140.7106781,-3.5567071435,-2.0800070765000003,0.15245431650000008,1.120135963,-13.455065728000001,3.4374701085000003
731,6.0914230000003045,-5.49804163,13.984275345,-140.7275887,0.20811319399999983,2.3723062280000002,2.010313511,0.824458316,-16.66428423,-4.009473472500001
732,6.09975600000007,-5.496188163999999,13.926101684999999,-140.70380405,-3.8783031705,-2.9050623775,4.9639496805,-1.724773109,-7.421078085,1.5867122415000001
733,6.108089000000291,-5.5050120355,13.865406515,-140.7106323,-0.35495252899999996,-0.07675409349999995,2.1596753595,-1.958074093,-7.4004338965,-1.9380247590000002
734,6.116422000000057,-5.5027167795,13.8244009,-140.7127304,-2.702477217,0.857192285,4.5739441515,-0.919826493,-5.083395004,-1.2109644415000003
735,6.1247550000002775,-5.518469334000001,13.818489555,-140.71235655,-1.898422241,-2.335660726,0.820961952,-2.983181536,-0.9370713829999999,-0.4787299635000002
736,6.133088000000043,-5.515189886,13.835647585,-140.73039625,-1.6075894235,-0.2788050175000001,2.1290354135,-0.33491888649999996,2.042108238,-2.3775138260000004
737,6.141421000000264,-5.523817300999999,13.84784603,-140.73452759999998,-2.0832340719999998,1.296967864,1.124714136,-2.0613889695,1.2828057485000002,-0.8070149424999999
738,6.14975400000003,-5.529473543,13.933546065,-140.7584953,-2.2683238390000002,-2.396535158,3.2981459495000003,-1.118874669,10.292396069999999,-2.3209636805000002
739,6.1580870000002506,-5.527875185,13.97950363,-140.75868605,-0.8540515154999999,0.15858095900000002,0.114028513,-1.0291480425000001,5.2797789569999996,0.0253199340000001
740,6.166420000000016,-5.5437438485,14.10732412,-140.78567885,-3.749507785,0.3956650494999999,2.3824637535,-2.208735347,15.35430908,-2.190119654
741,6.174753000000237,-5.532698631,14.196475505,-140.7916832,-0.13948762400000003,-1.9388346675,0.926190436,0.2938850519999999,10.503098966,-0.14233827599999993
742,6.183086000000003,-5.539411306,14.349354264999999,-140.8124542,-3.1069071885,0.1584473255,1.6763243079999999,-1.333586186,18.271424295000003,-1.1027058735
743,6.191419000000224,-5.539584875,14.47658491,-140.81850055,-0.8146601019999999,0.24776399100000002,2.151262194,-1.0173337459999998,15.047514435,0.30476463600000003
744,6.1997519999999895,-5.546986818000001,14.64272213,-140.85636905,-2.407500088,-2.3250624540000002,3.5725941955000002,-0.8834481240000001,20.059251785,-3.0215141770000002
745,6.20808500000021,-5.5539617539999995,14.800133705,-140.84059525,-0.7608572245,0.6950919925,1.0040471105,-2.495448232,18.40724802,3.181794763
746,6.216417999999976,-5.5891222955,14.971712114999999,-140.89059065,-1.283317685,-0.5342151374999999,3.4064471129999996,-3.8086656335,20.849157335,-4.3663640025
747,6.224751000000197,-5.61365962,15.152994155,-140.86601255,-2.5040762425,-2.4197295905,-0.879838761,-4.9135227205,21.15827179,4.482371329999999
748,6.2330839999999625,-5.6404993535,15.326866625000001,-140.9071693,-0.32616984849999997,1.7801747024999999,0.9176009895000001,-3.0360625685000002,21.007893085,-3.1656207445
749,6.241417000000183,-5.655543804000001,15.52464676,-140.88267515,-2.5079427365,-1.4427271339999999,1.1435455155,-3.8057588339999997,23.129595755,4.6713029145
750,6.249749999999949,-5.666438818,15.69853544,-140.9049187,-0.4196491834999999,-0.07203936599999994,4.0571227069999996,-1.688932896,20.790563585,-0.9531574250000001
751,6.25808300000017,-5.702386379,15.914226535000001,-140.90404895,-2.5693767370000002,-1.402477086,1.071976185,-5.596232891,25.540141105,2.172459662
752,6.266415999999936,-5.746753931000001,16.06981611,-140.89876175,0.6585412025000001,-0.12044122800000001,-0.816973478,-6.599439621,18.28728485,2.0264713765
753,6.274749000000156,-5.776806831,16.273602484999998,-140.9205399,-2.875906706,-0.051651373499999986,3.9805328845,-4.124194860499999,24.377806665,-0.5507175920000003
754,6.283081999999922,-5.805772543,16.442923065000002,-140.9193153,-0.669671014,-0.7270330115000001,0.4206544160000001,-4.574735999,19.991003990000003,1.5786702635000003
755,6.291415000000143,-5.811470508499999,16.596316815,-140.9459114,-0.6265673860000001,0.357648611,3.8770952225000004,-0.9759282995,18.410564425,-1.67314779
756,6.299747999999909,-5.8152890205,16.757730485,-140.9514008,-0.7377964260000001,-0.2687014675,3.7893737405000003,-1.4068237395,19.110793115,0.8696036040000001
757,6.308081000000129,-5.8314061165,16.87583256,-140.97343825000002,-1.6500163079999999,-0.8359084425,1.4303946195000001,-2.376873523,14.143433095,-1.565042682
758,6.31641400000035,-5.8205170630000005,16.97246218,-140.95837405,0.249966288,0.1852119565,1.298667192,-0.36118626600000014,11.138716221500001,2.439506352
759,6.324747000000116,-5.7909579275,17.05028725,-140.97766495,-1.9576094149999999,0.4521677345,5.699919939,3.0557338,9.298499822,-1.7349100115
760,6.333080000000336,-5.770233154,17.087866305000002,-140.94852824999998,1.0771556795,-0.8398964704999999,2.6916880610000002,0.31779578500000005,3.9294346570000003,3.312003851
761,6.341413000000102,-5.7523036004999994,17.094320775,-140.95461275,-1.2915643155,-0.4776883719999999,5.529732108,1.169834137,0.6267544030000001,-1.102539122
762,6.349746000000323,-5.718567848,17.070196629999998,-140.9330101,-0.6916493175,0.2573148905,6.6492651700000005,2.1538562775,-3.350630164,1.7125741395
763,6.358079000000089,-5.6883523465,17.019375325,-140.92291260000002,-1.6184920075,-1.446658373,6.1028990745,2.0584369750000002,-6.396700859,0.061410308000000025
764,6.3664120000003095,-5.6334395409999996,16.908253195,-140.8990593,-0.808724344,-0.3269261925,2.3606491085,4.6268856524999995,-13.76422787,0.9555134179999999
