,time,Euler_X,Euler_Y,Euler_Z,Acc_X,Acc_Y,Acc_Z,Gyr_X,Gyr_Y,Gyr_Z
0,0.0,-3.5569207666666665,10.083525656,-150.50921123333333,-1.4218631583333334,-1.2089791300000001,10.176001866333333,-1.3625620403333334,-1.8315032723333333,-1.9282097316666669
1,0.0027776666667401998,-3.566068967333333,10.119593301333333,-150.49629463333335,-4.291420936333333,-0.491046635,14.994138083333333,-1.8229054213333333,3.6815683839999997,1.4406983853333333
2,0.005555333333328833,-3.588551521333333,10.135032017999999,-150.50756836666667,-0.10343933099999998,0.14476040999999998,7.603935719666667,-2.8609095016666672,1.3113378283333335,-1.539167950666667
3,0.008333000000069033,-3.607121388,10.154624621333333,-150.51012673333335,-1.5787663003333332,-0.71887968,5.293024063,-2.7318649293333337,1.79482766,-0.11397067700000003
4,0.011110666666657667,-3.6324362753333332,10.150175412333333,-150.49518333333333,-0.9151047320000001,-0.396640589,11.255044618999998,-3.7410954633333326,-1.2646814186666668,1.420215249
5,0.013888333333397868,-3.648385445,10.177608489333332,-150.5126928,-2.6429090496666667,-0.7995639046666666,10.471500396333333,-2.02621003,2.871117353666667,-2.232093056
6,0.0166659999999865,-3.644053379666667,10.217553455333332,-150.49462636666667,-2.7273674806666666,-0.5658464196666667,9.155687649666666,-0.27122900899999997,4.025409777999999,2.1118127903333335
7,0.01944366666672673,-3.647411664333333,10.209684053,-150.4967219,-0.16845889900000008,-0.43603432299999995,12.061864217666667,-0.7414510249999999,-1.4496499700000003,-1.0576629640000001
8,0.022221333333466934,-3.6621961593333334,10.229506811333332,-150.4891281,-2.258065303,-0.5628859996666665,10.539378801,-2.353089809333334,1.6927763423333333,0.724050353
9,0.024999000000055564,-3.6844402946666666,10.25377814,-150.48451233333333,-0.9678538643333332,0.06654287866666668,8.287568729,-3.2219207683333333,2.334933758,0.22577665266666666
10,0.027776666666795766,-3.697842995333333,10.268362680333334,-150.47984570000003,-2.9207175176666667,-0.605792979,8.020229974666668,-2.1205939056666665,1.087601741,0.34280383566666667
11,0.030554333333384403,-3.702509085666667,10.290987649333333,-150.47435253333333,-0.7882289166666666,-1.0324028516666666,5.170550744,-1.1395389636666666,2.121469155333333,0.46752383799999997
12,0.03333200000012463,-3.6932569343333337,10.288697876666667,-150.49094903333335,-1.841161251,0.19221074900000001,11.494255700000002,1.0407617486666665,-0.7728710173333333,-2.281169454
13,0.03610966666671323,-3.676592111666667,10.306005478000001,-150.48398336666668,-3.105515957,-1.390802592,14.546702066666667,1.321852515,1.4443226656666666,1.0009231570000001
14,0.03888733333345346,-3.670174360666667,10.345130919333334,-150.4971339,-0.46338953566666663,0.3552917043333334,8.620552063333333,0.6449111303333336,4.163295586666666,-1.5806289513333336
15,0.0416650000000421,-3.6649151643333333,10.371893883,-150.50391896666667,-1.837670842666667,-0.7203029393333334,8.209262848,0.28710561999999995,2.705243111,-0.9325331846666668
16,0.044442666666782295,-3.6696062086666665,10.385452271,-150.48748273333334,-0.8528024193333333,-1.034723858,9.380566277999998,-1.31760482,0.8774754603333333,1.7287814416666667
17,0.04722033333337094,-3.6710708936666663,10.403985976333333,-150.50748696666668,-3.236938476666667,-0.21468088166666668,9.905183473333333,-0.2195310543333333,1.823481599666667,-2.549312115
18,0.04999800000011113,-3.6557118890000004,10.465397834333332,-150.49368033333334,-2.963964224,-0.3163850013333333,9.215401014333333,1.1141085623333333,6.624725421333334,1.7679330113333334
19,0.05277566666669977,-3.6428163846666664,10.474231084666668,-150.49748233333332,0.16961264600000003,-0.5452444306666667,8.767088412333335,1.2246081433333333,0.5425905386666665,-0.8867948056666667
20,0.05555333333344,-3.635249535333333,10.525892894333333,-150.49683123333332,-2.220227003333333,-0.608556529,8.304777304333333,0.4459485213333334,5.554698944333334,0.14382841199999996
21,0.0583310000000286,-3.625897169,10.601450286666667,-150.498052,-2.1727563936666665,0.04776667299999999,10.726581889,0.6723309953333333,8.497646968,0.2295803823333333
22,0.061108666666768834,-3.6022489073333332,10.675870579333333,-150.49991609999998,-3.559695561666667,-0.42428258066666663,13.061857223333334,2.4561789830000005,8.301211357,0.02411579566666668
23,0.06388633333335747,-3.5805321536666668,10.801708536666666,-150.49436696666666,-1.9261125326666668,-0.5887945866666667,6.330327987666667,2.019396787,14.471494040000001,1.3244611223333331
24,0.06666400000009766,-3.553315480666667,10.891289076666666,-150.51240536666666,-0.493356476,-0.19054786366666668,6.343696594333333,3.227756897666666,10.233583768333334,-1.7740120493333336
25,0.0694416666666863,-3.512180646333333,11.018606501333332,-150.4895986,-2.947136561,-0.8431274743333333,13.731496493333333,3.8980516593333334,14.50385825,3.62261343
26,0.07221933333342649,-3.47453777,11.168612163333334,-150.50896963333335,-1.121386985,0.7472118783333332,11.040927884333334,4.538873225666666,17.481631916666668,-1.5145018099999998
27,0.07499700000001513,-3.4101476670000004,11.381617863333332,-150.4816691,-5.122244278666667,-0.34809800166666666,8.095402558666668,6.540760835,24.744980493333333,4.695510308
28,0.07777466666675537,-3.339626868333333,11.58650462,-150.47434486666668,-0.8978135486666666,-0.31122695633333336,5.456673145,7.898794174333332,23.872515996666664,1.9967544676666664
29,0.08055233333334397,-3.2444213229999996,11.813851356666667,-150.46265156666666,-2.646242300666667,0.5584403023333334,9.371343137000002,10.654121081666666,26.588996883333333,2.579184810333333
30,0.0833300000000842,-3.135958115333333,12.069806733333332,-150.43233236666666,-1.4877851803333335,-0.471449816,9.006421725000001,11.848306021666666,29.845594406666663,4.936828613666667
31,0.08610766666667284,-2.996971686666667,12.357439676666667,-150.41964466666667,-2.985696554333334,-0.16169799366666668,10.296253047,15.910330773333333,33.822822573333326,2.8523491223333335
32,0.08888533333341303,-2.8170052366666667,12.69228236,-150.38984936666665,-3.899310191666667,1.3524328369999996,15.35644913,20.38979975333333,39.32560984333333,5.193914254333333
33,0.09166300000000166,-2.6261425813333332,13.061350186666667,-150.3411484,-2.530016581,0.665587817,10.575759887333332,21.181786853333332,43.40327580666667,7.29694732
34,0.09444066666674188,-2.4231958386666665,13.461327553333334,-150.31363423333335,-2.096541524,0.10133600233333333,3.1035610436666663,23.171131133333333,47.182809193333334,4.997631232333333
35,0.0972183333333305,-2.16456604,13.895244916666664,-150.23641206666665,-2.168709715,0.1891117693333333,3.0962796509999997,28.362831749999998,51.088746390000004,10.695962273333334
36,0.09999600000007074,-1.859698653,14.321005503333334,-150.19497933333335,-0.729298393,0.17615083733333334,11.973004339333334,34.96253331666667,50.2665507,6.297139644666667
37,0.10277366666665937,-1.4899418750000002,14.808324816666667,-150.1235809,-4.043237448,1.4041971763333336,18.14542389,41.69951883666666,57.62581253333334,9.640920797
38,0.10555133333339957,-1.1203638313333333,15.299959503333332,-150.04005176666666,-1.9315746423333333,1.694426139,9.715288799,41.37402089666667,58.142786660000006,10.706491309999999
39,0.1083289999999882,-0.715467334,15.80609544,-149.98206073333333,-2.04279081,0.8343541823333335,2.2544429203333336,46.184252423333334,60.041470843333336,7.315800350333333
40,0.1111066666667284,-0.205735882,16.29397011,-149.87784829999998,-1.057798485,-0.05002401266666667,7.166896742,57.305437723333334,57.82358296666666,12.1579682
41,0.11388433333346863,0.34865486366666665,16.793306346666668,-149.80075326666667,-3.0711672306666666,2.3957472643333335,14.955836929999998,63.38782501333333,59.35388311,8.443784713666666
42,0.11666200000005723,0.947511832,17.25142161,-149.69392143333332,-0.250025769,1.0044796070000002,7.958967526666666,67.70652644,54.48630142,11.314720153333333
43,0.11943966666679746,1.596003572,17.71642431,-149.58698526666666,-1.363903284,0.8219143133333334,5.948067506,73.43310038,55.488831839999996,10.628826457666667
44,0.1222173333333861,2.282122453,18.162448246666667,-149.46041363333333,-0.6960948133333332,0.882700185,8.294474442333334,77.26239522333334,53.360819496666664,12.314341226666665
45,0.1249950000001263,3.0283838113333332,18.57752736,-149.35027823333334,-2.3866114613333336,0.4545007346666667,11.515601159999997,84.84436035,49.773167926666666,9.866086005666666
46,0.12777266666671494,3.843694051,18.9821523,-149.18235776666668,-1.3001441756666667,1.8277953463333334,14.69926961,90.96591949333333,48.99238713666667,15.81171576
47,0.13055033333345514,4.6397775013333336,19.395415626666665,-149.05471036666668,-1.7802187403333336,-0.04227811100000004,5.815286000666667,89.95946502666668,49.97723388666666,10.375700314666666
48,0.13332800000004377,5.5205623306666665,19.763527550000003,-148.87693786666668,-0.7320668870000001,0.6112580253333333,10.355730694333333,98.13983663333333,45.15585581333334,15.781351406666667
49,0.136105666666784,6.425237337666666,20.10945193,-148.72443136666666,-3.1053223613333336,1.222852071,13.836999893333333,101.80045574666667,42.542875923333334,12.431700703333334
50,0.1388833333333726,7.3394335113333335,20.441919326666667,-148.5422821,-0.6896777149999999,-0.501898944,5.971477031666666,101.72330727999999,41.441354116666666,15.241475106666668
51,0.14166100000011284,8.285143216666667,20.762943266666667,-148.3820597,-0.1921059786666667,-0.04528303966666666,9.424637953333333,106.2118937,40.08709335333334,12.20061493
52,0.14443866666670147,9.220112482666666,21.01387087333333,-148.20152536666666,-1.225852107,-0.03603186433333335,9.490904331333333,104.04152426666667,32.213078816666666,15.10434246
53,0.14721633333344167,10.167436602666667,21.290877026666667,-148.05194853333333,-1.3324518403333334,-0.8591231803333335,11.286750476666667,106.7063319,35.08120282666666,10.514188449999999
54,0.1499940000000303,11.116926193333333,21.517143886666663,-147.86717226666667,-2.7066811323333333,0.0749711493333333,12.454957643333335,105.42443593333333,29.871335983333335,14.955562273333333
55,0.1527716666667705,12.03625266,21.711617153333336,-147.7274831,-0.6078803243333334,-1.1228112083333333,9.844703515,103.662028,25.49675750666667,10.19683552
56,0.15554933333335913,12.96231524,21.886801403333333,-147.5547689,-1.121875922,-1.0811795793333332,10.702480633,103.02439116666666,24.064972559999998,13.907844863333333
57,0.15832700000009936,13.816838266666664,22.030498506666664,-147.42719016666666,-0.408923189,-1.326202472,7.086274464666666,96.34753672333333,19.581334113333334,9.427823066666667
58,0.16110466666668796,14.672106110000001,22.125199,-147.2828471,0.3374183126666666,-1.438973109,10.898652713333334,95.70164998333333,14.336710296666666,12.426957450000002
59,0.1638823333334282,15.457333563333334,22.20360438,-147.17415110000002,-2.0489029486666666,-1.596877138,12.772085507,88.85981750333333,11.770497639666667,8.841162681666667
60,0.16666000000001682,16.21810213666667,22.242926279999995,-147.04066973333335,-1.9445249440000003,-1.6242456040000002,10.960905871666668,84.81372833333334,7.9603894550000005,12.65206019
61,0.16943766666675705,16.929960250000004,22.296493533333333,-146.95203146666668,-0.722509096,-2.2678614456666666,12.384948093666665,81.01333872333333,8.537312547,7.216993808999999
62,0.17221533333334568,17.576058706666668,22.283441543333335,-146.84612783333333,-2.141327539666667,-1.4656687576666665,13.578520456666668,72.25536600666668,1.3604425586666666,11.368155799999998
63,0.17499300000008589,18.155805586666666,22.296482086666668,-146.76421100000002,-0.536900292,-3.3153086503333333,6.765823364333333,65.49721908666668,3.870785554666666,7.800115267333333
64,0.17777066666667451,18.66579819,22.245434443333334,-146.67508953333333,-1.7730696596666666,-2.217089732333333,14.045846303333335,56.685723626666665,-3.3164324763333326,10.996379853333332
65,0.18054833333341472,19.117659253333333,22.240422566666666,-146.61259206666668,-1.7641302643333334,-1.7105990249999998,11.549487589,51.10512924,1.2919050853333331,6.401076952666666
66,0.18332600000000335,19.489521023333335,22.19866689,-146.54347483333333,-2.589173635,-2.575412671,7.9752526286666665,41.00802866666667,-2.8250198359999996,8.562659899000002
67,0.18610366666674358,19.839405696666663,22.19294929666667,-146.4772262333333,-1.5536201793333333,-1.183530768,15.54694303,38.74297841333333,1.4664848646666664,6.825080712666666
68,0.1888813333333322,20.11741955666667,22.17670504333333,-146.40779876666667,-2.4196285006666667,-2.819878975666667,6.239847738000001,29.765889483333336,0.17184176033333334,7.575327078666667
69,0.1916590000000724,20.331453319999998,22.11504046,-146.35535683333333,-1.3898825049999999,-1.614183068,11.554550807333333,23.00453758,-5.277103266333333,7.711652597
70,0.19443666666666104,20.52678426,22.13938140666667,-146.29863486666667,-1.4225187799999999,-1.2915420926666665,12.713713646666667,20.51613744,4.321566583333333,4.576775312333333
71,0.19721433333340124,20.615999220000003,22.07187144,-146.2696889,-2.184499527,-2.5024063586666663,11.265701609666666,9.064697743,-6.799697876666664,5.531238079
72,0.19999199999998987,20.72659429,22.107137680000005,-146.20307923333334,-3.4131391843333336,-1.297274987,13.533817769999999,9.920486451666667,5.95930767,5.141261100666667
73,0.2027696666667301,20.77758344,22.073882423333334,-146.16380566666666,-0.8714629409999999,-1.3657193583333334,8.915621441,4.120464166333334,-2.519266921666667,5.1728672976666665
74,0.20554733333331873,20.793335596666665,22.05999883,-146.14166006666667,-3.7602845830000007,-0.6696104146666667,15.957602817666668,0.4547207303333332,-1.3102495276666666,2.5691335596666667
75,0.20832500000005894,20.805782316666665,22.085145949999998,-146.07640836666667,-1.1969921193333333,-2.2885599136666666,5.838544766999999,-1.545499344666667,5.09638532,5.443346023666667
76,0.21110266666679914,20.75369708,22.04262034,-146.0796432666667,-1.2808803720000002,-0.400233651,15.660382903333334,-6.620692729999999,-5.536078773333332,1.1172975103333334
77,0.21388033333338777,20.72076225,22.085623423333335,-146.01234689999998,-3.4187531473333337,-0.9548192433333335,9.265278818,-7.014837064999999,7.208515166666668,4.939514955
78,0.216658000000128,20.627031326666668,22.060679116666666,-146.00050099999999,-2.0599664846666665,-1.6916022696666666,6.975736897333333,-12.323457719999999,-2.9770956033333342,1.915113091333333
79,0.21943566666671663,20.5660553,22.12979762,-145.95384726666666,-1.8717277050000003,0.397908052,15.845000743333335,-9.390702565333333,9.311820986666667,1.6652716893333332
80,0.22221333333345683,20.43621826,22.14745585,-145.9434255,-1.0928208433333333,-2.151121139666667,4.993170081666666,-16.556097666666666,1.7542465526666657,-0.016252299000000026
81,0.22499100000004546,20.33828099333333,22.191833493333334,-145.89786276666666,-2.557788054,0.06419747099999996,14.530550797999998,-13.8534619,6.498089797333333,2.627017895333333
82,0.22776866666678566,20.22722371333333,22.252680459999997,-145.87260436666665,-1.8515708246666664,0.15582150866666664,7.451588073333334,-14.889396666666668,7.197094839333334,-0.222997581
83,0.2305463333333743,20.105471926666667,22.28367742,-145.8459422,-2.421374708666667,-1.2607896426666667,12.467482405666667,-15.91311359,4.2553373966666665,1.2094404699999999
84,0.23332400000011452,20.00749461,22.38811684,-145.81633506666665,-1.499347550666667,-0.550739517,7.7447670313333346,-13.47378381,12.283014455333332,-1.5104293426666668
85,0.23610166666670315,19.88834762333333,22.41347821333333,-145.7914276,-1.5979729889999998,0.9642687539999999,15.918686546666665,-15.518423713333332,3.5448634230000002,1.2531555893333333
86,0.23887933333344336,19.77491824,22.507673266666668,-145.76985679999999,-2.2954987686666666,-1.855917096,7.008502801333333,-14.955229442000002,10.829339980333332,-1.8746041853333335
87,0.24165700000003199,19.672772086666665,22.523364383333334,-145.73461406666667,-2.0602909723333336,1.4303300780000001,10.432418505666666,-13.968760170000001,2.870440006999999,2.7977195583333336
88,0.2444346666667722,19.586405436666666,22.635869343333336,-145.72499083333332,-1.7194597326666667,-0.2732311436666666,11.110077223666666,-11.149269421666666,12.459987561666667,-3.8178499539999997
89,0.24721233333336082,19.49257215,22.646224973333332,-145.7089792666667,-2.0371657610000002,-0.6549412533333333,11.171824137333333,-12.077818553333335,1.5450690580000004,0.999348258
90,0.24999000000010105,19.42554156,22.757982889999997,-145.6975708,-2.1948538026666666,0.39781702566666666,13.173318226666666,-8.927391846,12.45016376,-3.5676711396666665
91,0.25276766666668965,19.31810188,22.780729296666664,-145.68015543333334,-3.167927106,-0.28853165966666666,7.761048476,-13.725697516666669,3.0086793896666664,0.6555665730000001
92,0.2555453333334299,19.256843566666664,22.88818995,-145.67697653333335,-0.7006058966666667,-0.8552486303333334,9.780478793999999,-7.854419390333334,11.672693808,-4.219724575666667
93,0.2583230000000185,19.183773040000002,22.918446856666666,-145.66827393333332,-3.4630365370000002,1.6751282413333335,13.650849979999998,-9.199412982666667,3.5554409836666667,-0.5182741086666668
94,0.26110066666675874,19.11759885,23.013729096666665,-145.66030883333332,-1.5530109006666668,-1.7346058090000003,9.525159039666667,-8.682501952,10.472981651666668,-3.2171401183333335
95,0.26387833333334737,19.053603486666663,23.04205131666667,-145.65339153333335,-2.6437936623333336,0.7703410586666667,10.603579838,-7.978579839000001,3.291085360666667,-0.6013199290000001
96,0.26665600000008755,18.991813660000002,23.122064593333334,-145.6628952,-1.4150403139999999,0.4577367703333333,9.451331456666667,-7.3505011399999995,8.116674902333331,-4.4251157443333335
97,0.2694336666666762,18.94776535,23.15322876,-145.65812430000003,-2.5280589263333333,-0.41200115800000003,10.840272267333333,-5.4718801180000005,3.5401739173333335,-0.9458568989999999
98,0.2722113333334164,18.901552836666667,23.228459036666663,-145.66777543333333,-1.8303625783333333,0.09760667866666665,12.102363903333332,-5.4592736366666665,7.576956192333333,-4.237038692
99,0.27498900000000503,18.84722519,23.267070136666664,-145.67374416666667,-2.5913167793333334,0.0029047033333332952,7.504251320999999,-6.174072583666667,4.0222588366666665,-2.3380333583333335
100,0.27776666666674527,18.82166799,23.3499101,-145.68493653333334,-1.5001895029999999,0.26456123566666667,11.754036903333335,-2.9235662616666667,8.39129702,-4.6841094493333335
101,0.2805443333333339,18.79296112333333,23.413675943333335,-145.68569946666665,-3.3728607096666665,0.03716795666666665,10.747705459,-3.3187941710000004,7.079232851666667,-2.751464406666667
102,0.28332200000007407,18.768552143333334,23.490724563333334,-145.6949997,-0.5723050436666667,-0.5080126326666666,10.780103844000001,-2.8805942933333335,7.8037064869999995,-4.257470607666666
103,0.2860996666666627,18.760146459999998,23.573245999999997,-145.69565073333334,-3.9992371,1.042212581,9.975362620333334,-0.8353188436666666,9.220592340000001,-3.4867300589999997
104,0.28887733333340293,18.740122476666667,23.663543703333335,-145.70001726666666,-1.103852703,-0.9855981570000001,9.099249839,-2.4492290420000002,9.696551483333332,-4.252505699666666
105,0.29165499999999156,18.769257863333333,23.766948063333334,-145.6900863666667,-3.6704800526666665,0.7755779823333334,12.440164565666665,3.028546492,11.762746491666666,-3.186103979666667
106,0.2944326666667318,18.76568158666667,23.865687050000002,-145.68685913333334,-1.7510881226666666,0.11512377866666663,11.004501343333333,-1.0152754783333333,10.707866349999998,-3.8035097123333337
107,0.2972103333333204,18.782949446666667,23.979305266666668,-145.68049113333333,-3.30898571,-0.2755713066666666,7.994976361666667,1.9303530853333335,13.035884698333334,-3.8982226049999995
108,0.2999880000000606,18.79001744333333,24.098466240000004,-145.67585499999998,-1.3853769303333336,-0.19016538800000002,11.756004013333333,0.19923605000000003,13.076611836333333,-4.4478957653333335
109,0.30276566666680077,18.794979733333335,24.197354633333333,-145.67890926666666,-3.393899281666666,-0.05950094299999997,7.963866073666668,0.9162508846666667,11.024167854333333,-4.329190572000001
110,0.30554333333338946,18.80374082,24.31784884,-145.67124936666667,-1.0830052993333334,-0.07190831599999997,10.815938948666668,0.25996330366666665,13.334520656666667,-4.184700568333334
111,0.3083210000001297,18.789775846666668,24.423115413333335,-145.67537943333335,-3.3746747176666667,-0.8060327509999999,8.341536205333332,-1.296614488,11.722505886333332,-4.6618769963333335
112,0.31109866666671826,18.781730653333337,24.538047793333334,-145.6716028666667,0.31325096133333336,0.3887973900000001,10.779867807999999,-1.5688465436666668,12.567494076666668,-4.3715991973333335
113,0.31387633333345855,18.744658783333332,24.62502352333333,-145.6820221,-3.9675908883333335,-0.4459121326666667,9.628329118333333,-3.7534718910000002,9.435623486666666,-4.593793869
114,0.3166540000000471,18.720519386666666,24.725516003333336,-145.67182920000002,0.03869278966666667,-0.5080026296666666,8.238048552666667,-3.818715334,11.15449206,-3.1385636330000004
115,0.31943166666678735,18.673851016666667,24.81556066,-145.68311053333335,-3.613669633666667,0.20997845633333334,10.202983539333333,-4.820625027,9.754690488666666,-4.8282750446666665
116,0.32220933333337604,18.641458510000003,24.902797063333335,-145.6755701666667,0.2001856856666667,-0.14349892733333333,9.428523859666667,-4.682906230333334,9.558230878666667,-2.8883984483333336
117,0.3249870000001162,18.593237563333332,24.974401473333334,-145.68784843333333,-3.782489776666667,-0.056251485999999996,11.499928791666667,-4.970912695,7.651823202,-4.162621259666667
118,0.3277646666667048,18.554930369999997,25.046691893333332,-145.6754481,-0.36395999266666673,0.04823295266666668,7.40497907,-5.639861743,8.030049801333334,-1.8022602796666665
119,0.33054233333344507,18.50535965,25.11951383,-145.68860626666665,-3.4323878289999996,-0.014654686000000009,12.430558526666665,-5.043776035,7.761417071333334,-4.324084361666666
120,0.33332000000003364,18.469067256666666,25.173512776666666,-145.67988843333333,-0.3390899573333333,0.041518290666666645,8.716104189666668,-5.2241519290000005,5.821881910333333,-1.4786715706666669
121,0.3360976666667739,18.414433796666668,25.233796436666665,-145.69147996666666,-3.7497590383333335,0.11504713700000002,11.774462702666666,-5.719791571333334,6.405950465000001,-3.670183181666667
122,0.3388753333333625,18.37394015,25.278640109999998,-145.6886495,-1.0047431983333333,-0.4527004063333333,7.271125952333333,-5.216514031,4.824458221666666,-1.6985610176666668
123,0.34165300000010274,18.324622476666665,25.34282048333333,-145.70726773333334,-3.3237097263333335,0.6036720873333333,12.983192763333335,-4.922616799666667,6.376289050666667,-4.552516778333334
124,0.34443066666669137,18.282636643333333,25.37405205,-145.72168986666665,-0.7034588416666666,-0.503873703,8.516611733666666,-4.713655551333333,2.443670908333333,-2.9799729586666666
125,0.34720833333343165,18.239679340000002,25.416341783333333,-145.73497516666666,-3.675693750333334,1.0137001673333332,12.283083596666666,-4.221251567,4.325680841,-3.140774885666667
126,0.34998600000002017,18.212475456666667,25.446940740000002,-145.7544352333333,-0.8335672613333333,-0.494886597,7.371369362,-2.669976592333333,2.2060004076666666,-3.466143925666666
127,0.3527636666667604,18.190292996666667,25.478574749999996,-145.75568646666667,-3.1959088046666664,0.86701562,12.774757066666666,-2.3505930003333333,3.525577624666667,-1.4991328716666665
128,0.35554133333334903,18.165267306666667,25.492788953333335,-145.7827911,-1.2125065626666667,-0.6517752656666667,8.435496488,-1.7807956783333336,0.34417029233333335,-3.5998673439999997
129,0.35831900000008915,18.14958191,25.496964773333332,-145.78254703333334,-2.9844167930000007,0.7864384256666668,11.391767502999999,-1.8717430733333333,0.1949458523333334,-0.35335691999999996
130,0.3610966666666779,18.14527384333333,25.517247516666668,-145.80557506666665,-1.753471434,0.0003529386666666727,8.276251156333332,0.2865335793333333,0.9171102046666668,-3.432350556333333
131,0.3638743333334182,18.143431983333333,25.511913933333332,-145.8078995,-2.259028573666667,0.37033065633333334,11.772991496666668,0.1254242716666667,-0.7151278653333328,-0.2371664646666667
132,0.36665200000000664,18.156866073333333,25.526314420000002,-145.82783253333332,-2.574681282,0.18789594033333334,10.782372951999998,2.277186830666667,0.35382684200000014,-2.884094715
133,0.3694296666667469,18.13923518,25.50696246,-145.85313416666668,-1.7535088633333331,0.441095531,8.361274719333332,-0.584649394,-3.083719570333333,-2.0809177753333334
134,0.3722073333333356,18.15973091333333,25.521785733333335,-145.87652590000002,-3.1682631573333335,-0.257537647,11.08270677,3.538064718333333,0.5558708506666665,-3.220383882666667
135,0.3749850000000758,18.162653606666666,25.498731616666664,-145.90484616666666,-1.3699587930000001,0.73414923,9.892477989333335,1.8006892653333335,-3.8772907253333333,-2.2886531900000002
136,0.3777626666666644,18.193155923333332,25.5001812,-145.91238913333333,-3.822405735666667,-0.12074590233333334,12.258533159999999,3.696087519666667,-0.7035468426666664,-1.1218736913333334
137,0.3805403333334046,18.178195953333333,25.483208336666667,-145.9589615,-0.4370077206666667,-0.15644703300000004,7.497627894,0.8398139973333333,-3.523797671,-4.354445696
138,0.38331799999999316,18.214886346666667,25.478621163333333,-145.9572983,-4.756169637,0.6065093476666666,12.59723409,3.936792770666667,-1.0846690733333333,0.03756757566666676
139,0.38609566666673345,18.214870456666667,25.47626877,-145.9978994,-0.07551772366666669,-0.1899388436666667,8.272901375,2.349956592,-1.6526220043333335,-4.275758862333333
140,0.3888733333333221,18.24557812666667,25.451084776666665,-145.99187213333332,-4.931735197999999,-0.2975766636666667,13.513446806666666,3.220277111,-3.005339722,1.2914271353333335
141,0.3916510000000623,18.24108378,25.47068914,-146.03912863333332,0.25199573233333333,0.4242853976666667,7.362615743999999,1.9487526116666665,0.35248581566666637,-5.810299078666667
142,0.3944286666668025,18.26973915,25.441158933333337,-146.03996276666666,-4.812894026666666,0.42197438100000007,11.917718253333334,3.046074907,-4.0192707379999995,0.6956911683333334
143,0.3972063333333911,18.287372586666667,25.461324689999998,-146.07692720000003,-0.3642137776666667,-0.7275161966666667,8.708240987333333,4.340994199,1.0474688213333334,-4.725972016666667
144,0.39998400000013135,18.317085903333332,25.430877683333335,-146.07525636666665,-4.5725841523333335,0.37263280233333335,12.435097696666666,3.0402007500000003,-4.038430056333333,0.9891108773333334
145,0.40276166666672,18.322732923333334,25.45526822333333,-146.10714719999999,0.14485968633333332,-0.21352039366666664,8.402094681,2.6648542880000003,1.7067998263333333,-4.3535879453333335
146,0.4055393333334602,18.335873923333335,25.434765496666667,-146.11216483333334,-4.3754514853333335,-0.23706850766666665,11.276601473333335,1.6262394786666665,-2.8472741443333334,-0.04441080499999998
147,0.40831700000004884,18.34988276333333,25.457916893333334,-146.1170502,-1.688305855,-0.1423540143333333,9.551839988,2.0273797510000002,2.1976162593333335,-1.568880558
148,0.411094666666789,18.346597033333335,25.460202536666667,-146.12850696666666,-3.419580499,0.014353782000000037,10.876718044999999,-0.25334621466666657,-0.7581001916666669,-1.597628037
149,0.41387233333337764,18.329962409999997,25.480616253333334,-146.13825226666668,-1.076352862,-0.6776757590000001,9.242809296666666,-1.1472060086666667,2.0105980236666663,-1.9283166726666667
150,0.41665000000011787,18.3230381,25.5101827,-146.15128326666664,-3.781710446,0.5059862283333333,10.459606804666668,-0.6071256796666668,2.2962607146666665,-2.7886090083333333
151,0.4194276666667065,18.314034143333334,25.525768283333335,-146.14102933333334,-2.2926542956666665,-0.01626893366666667,10.191586017333334,-1.268314441,2.143228332,0.3114519513333333
152,0.4222053333334466,18.29201444,25.57646815,-146.154658,-2.7714786529999995,-0.27193299800000004,10.312606810666667,-2.096000194333333,4.984953085333333,-3.5899120970000005
153,0.42498300000003536,18.28071467,25.600940069999996,-146.1410853,-1.7133233546666666,0.20363377766666668,9.816056888333334,-1.9963906606666668,2.9715161126666665,0.266349646
154,0.42776066666677565,18.264249803333332,25.652568183333333,-146.14861043333332,-3.127494772,0.6409745163333334,9.697038333,-2.011165698333334,5.003079652666667,-3.039112170333333
155,0.43053833333336416,18.24631055,25.667808533333332,-146.13288876666667,-2.4409280223333334,-0.8188995866666667,10.246449153666667,-2.642052849,2.2917483843333333,0.8806601563333333
156,0.4333160000001044,18.221022923333333,25.723060606666664,-146.1348928,-2.3035862446666666,0.29047412866666666,9.105769793,-3.3406216306666665,5.607831478333334,-2.5977188746666666
157,0.436093666666693,18.192490896666666,25.743403116666666,-146.12730153333334,-2.158021688333333,0.46222085766666665,11.437821386666664,-3.493773142666667,2.59999009,-0.14375138300000004
158,0.43887133333343314,18.15376727,25.777905146666665,-146.1244405,-2.8032382726666665,-0.30858099966666663,8.918062051333333,-4.931790332,3.7159636023333333,-1.2675374646666666
159,0.4416490000000219,18.12311999,25.811776480000002,-146.11840056666665,-2.755685945333333,0.1410852373333333,11.548568086666668,-3.9459500313333336,3.7873334983333335,-0.8558783133333333
160,0.44442666666676206,18.066977186666666,25.854198456666666,-146.10681663333332,-2.483620802666667,0.06416132033333334,7.609723887333332,-7.7501928803333335,4.606092453,-0.7085067776666666
161,0.44720433333335063,18.015021003333334,25.91254234666667,-146.11121623333332,-2.6213074423333333,-0.292193908,12.376504261999997,-5.669535954666667,6.544539530666667,-2.771549840666667
162,0.4499820000000909,17.94323794,25.941073096666667,-146.09029386666666,-2.4111008543333337,-0.109506879,8.253127258333334,-10.130908967333333,3.329628547,0.766053597
163,0.45275966666667955,17.872732796666668,26.017166136666663,-146.10406493333332,-2.9878892899999996,0.9968490796666667,11.521760305,-7.387351036333333,8.272481403333334,-4.362753788666667
164,0.4555373333334198,17.786446253333335,26.037537256666667,-146.08473713333333,-1.5464526216666667,-0.8295247753333334,8.004069329333333,-11.516276992333331,2.6551938453333332,0.9601369103333334
165,0.4583150000000084,17.72760455,26.123796459999998,-146.0972214,-3.4175650379999998,1.2682709693333332,13.504255770999999,-6.326888084,9.173493563,-4.628535986
166,0.4610926666667486,17.62587484,26.12517293333333,-146.08494823333334,-1.162789325,-0.4444574913333333,7.853868543,-13.30270481,-0.06745473533333346,0.8723526996666666
167,0.4638703333333372,17.546699523333334,26.217244466666667,-146.10011543333334,-4.500632872333333,1.0811636843333334,11.015300116666666,-8.316005229333333,10.091221711000001,-5.015294075
168,0.46664800000007745,17.443958283333334,26.236923853333334,-146.0950521,-0.22971598299999987,-0.6110726293333334,9.216419536666667,-13.054954846666666,1.787071228333333,-0.5329725543333333
169,0.4694256666666661,17.368705746666667,26.323614120000002,-146.09820046666667,-4.773422758,1.5450928210000001,12.486846607333334,-8.488464673333334,9.877793788333333,-3.558005492
170,0.4722033333334063,17.259877523333333,26.353368123333336,-146.09895833333334,0.48712650933333324,-0.6599052103333334,9.474698623,-13.152784986666667,3.0858330526666666,-1.4077244996666665
171,0.47498099999999494,17.164063136666666,26.417070386666666,-146.10936990000002,-4.110137224,1.4064681926666667,8.341390927666666,-10.886999765666665,6.698383808,-3.5269782543333332
172,0.4777586666667351,17.077262243333333,26.467707316666665,-146.10976409999998,-0.655273224,0.07824650433333331,11.615524607,-10.812290193333334,5.171774884,-2.149222453333333
173,0.48053633333332374,16.978960036666663,26.49431801,-146.11833190000002,-3.0282963913333334,0.19840989999999994,8.551660060333335,-11.011843206333333,2.8345906116666666,-1.9585071803333332
174,0.48331400000006397,16.884506223333332,26.534584043333336,-146.12049353333333,-1.6554663740000002,0.29936410966666666,11.77650706,-11.606060026666668,3.936114947,-1.9323382773333335
175,0.4860916666666526,16.768227893333336,26.559321083333334,-146.15129853333335,-2.644655863666667,0.6991644003333333,5.303171117,-11.972479818333333,1.937862078666667,-4.164849678666666
176,0.48886933333339283,16.669334413333335,26.573197683333333,-146.1698532,-2.314739266666667,1.2276958226666665,13.317680519666666,-10.988533338000002,0.7280419669999999,-2.6366270383333332
177,0.491647000000133,16.584660213333336,26.620405833333336,-146.1927236,-3.56256787,-0.6767627003333333,9.021972339333333,-8.866445541333333,4.455041566666666,-4.158539931
178,0.49442466666672163,16.485563276666664,26.605320613333333,-146.20781196666667,-1.651343792666667,1.6328030826666666,11.504986127,-11.539335252,-2.8244094843333336,-1.3770385979999997
179,0.49720233333346187,16.41465187,26.667755760000002,-146.22919720000002,-4.081252415999999,0.41808348866666667,10.167997040000001,-6.938889821333333,6.606579143333332,-4.409192800666667
180,0.49998000000005055,16.331874213333332,26.638199486666664,-146.25470223333332,-0.5742526053333333,0.724041628,9.300078393,-9.047452925,-4.805739403333334,-1.9792122243333334
181,0.5027576666667907,16.289310456666666,26.667547863333336,-146.25725046666668,-5.064942360000001,1.3913964716666667,13.365823427,-4.557741920000001,3.378633178666666,-1.3397655486666666
182,0.5055353333333793,16.225493746666668,26.6541659,-146.2807414,-0.20247326300000004,-0.2949953476666667,6.981880505333333,-6.538063844,-2.531139056,-2.238005439333333
183,0.5083130000001196,16.18005816,26.64742597,-146.2913615,-4.3837699096666665,0.828552266,13.442408564333332,-4.839434027666667,-1.3656102566666668,-1.0620857476666667
184,0.5110906666667081,16.151632943333336,26.680200576666667,-146.2915624,-1.9525155526666669,0.5630138613333333,6.565354744666666,-3.7864628633333335,3.1535264643333334,-1.423626423
185,0.5138683333334484,16.09846147,26.658674243333333,-146.3133799,-2.5195262433333334,0.34701576333333334,11.24155903,-4.908593177666667,-3.0656188333333336,-1.6742576359999999
186,0.516646000000037,16.096175513333332,26.722690580000002,-146.29474133333332,-3.0466617743333337,1.0121216376666666,9.952904066,-1.6407756406666667,7.318662963333331,-0.5070424226666667
187,0.5194236666667772,16.052406943333335,26.720034916666666,-146.31123096666667,-1.3305114163333334,0.16944988066666666,8.367258706,-4.084190130333334,-0.7290182113333318,-1.7673056126666669
188,0.5222013333333658,16.044171966666667,26.752506893333333,-146.28648376666666,-3.4265962443333335,0.27870738266666667,12.004857379999999,-2.3624909323333334,4.212919233333333,1.2568010093333333
189,0.5249790000001061,16.000535646666666,26.77706209666667,-146.3046773,-1.2915836023333334,0.03054570666666666,3.010906179666667,-4.2461998460000006,2.0195074876666665,-2.896517594666667
190,0.5277566666666947,15.986962953333332,26.791744233333333,-146.29924013333334,-3.017189622,1.5117429493333334,14.817951837666664,-2.344530702,1.2301791856666666,-0.246985272
191,0.5305343333334349,15.958184556666666,26.841496786666667,-146.30288696666668,-2.188067118333333,-0.028036932000000014,8.225129445666665,-2.8933416603333337,5.709344783,-2.1372178
192,0.5333120000000235,15.923759460000001,26.82634926,-146.30298103333334,-2.7886942226666664,0.6159079296666667,10.206378936999998,-4.565874497,-2.3752206173333335,0.16329926233333336
193,0.5360896666667637,15.89280256,26.90494092333333,-146.30903876666667,-2.8838787873333334,1.0017279486666666,9.485613983333332,-2.991051594666667,8.981736817000002,-3.3104356126666663
194,0.5388673333333523,15.846657753333332,26.887369153333335,-146.32367453333333,-2.2229431073333337,0.6220898566666667,7.007848898333333,-4.898390372666667,-2.7311477650000007,-1.1976620306666665
195,0.5416450000000926,15.856540359999999,26.964344023333336,-146.30915326666664,-4.041234533,0.6436369223333333,12.787370046666666,0.4827643383333333,9.044217586666667,-1.203348319
196,0.5444226666666813,15.831239063333333,26.969211579999996,-146.31761423333333,-0.7677352430000001,0.8214857493333333,7.985617797333333,-3.033716003,-0.31308690700000036,-1.3678941133333336
197,0.5472003333334214,15.824121793333333,27.02566465,-146.30482483333333,-4.850930214000001,0.6806239586666667,13.66614914,-1.172240138,6.982710519666665,-0.6367954906666666
198,0.5499780000000101,15.811436016666667,27.058931349999998,-146.2931849,-0.744257907,0.6857838336666666,6.930493353666667,-2.5736541799999997,3.5585130453333336,-0.2159194746666667
199,0.5527556666667502,15.77337106,27.093245826666664,-146.29368589999999,-4.077856699666667,0.605265163,11.344881852,-4.213303089,4.035822312333333,-1.2951327563333332
200,0.5555333333333389,15.768276213333335,27.159264246666666,-146.2699585,-1.6007806660000001,0.5542301660000001,9.035900275333333,-1.9651241053333333,8.061329840333332,0.05479740566666667
201,0.5583110000000792,15.736086526666668,27.178384783333332,-146.27352143333334,-2.1308947403333334,0.798038031,10.530793509333334,-3.701039552666666,1.8272686020000002,-1.2069257693333333
202,0.5610886666666678,15.726478896666668,27.22429974666667,-146.2549184,-2.4702755213333334,0.3656825123333334,11.158283233,-2.5301704063333332,5.22746531,0.12161644300000003
203,0.563866333333408,15.686801593333334,27.223966596666667,-146.26551056666668,-1.1069693846666666,0.532036662,5.907589117333333,-3.872984091666666,-0.2483002359999998,-1.2108960546666667
204,0.5666439999999966,15.6727225,27.234288533333338,-146.2683207,-3.124495983333333,1.3415353296666668,13.345398265,-1.941349963333333,0.4897441866666667,-0.9386935233333332
205,0.5694216666667368,15.659565290000002,27.234751383333332,-146.2622096,-1.6418065816666667,0.016793555000000016,7.116628251000001,-1.5609315399999997,0.3317727046666666,0.49276239699999996
206,0.5721993333333254,15.62959353,27.19540596,-146.27543893333333,-2.6022467613333333,0.93785133,12.01194223,-2.9890962243333337,-5.180441857000001,-0.33052178233333335
207,0.5749770000000657,15.626317659999998,27.22262764,-146.26369733333334,-3.0577017466666665,1.3797340393333333,7.990339438,-0.9705960750000001,3.226565362666666,0.142547493
208,0.5777546666666543,15.598434446666667,27.182007470000002,-146.29337816666666,-0.9763291276666667,0.678505967,7.6797515543333335,-2.1939535736666667,-6.176563263333333,-2.0854175093333334
209,0.5805323333333946,15.613653820000001,27.17170842333333,-146.28764086666666,-3.9742657046666667,0.6138790746666666,11.885479131333334,1.9037996826666668,-0.9104075420000003,0.8218925793333334
210,0.5833100000001347,15.60700957,27.13171068666667,-146.31035613333333,-1.6755824486666666,1.0546884333333335,6.442720650666668,0.019360090666666663,-5.8975802276666665,-1.3697255083333335
211,0.5860876666667233,15.58742873,27.071669259999997,-146.33917493333334,-2.7638526359999998,1.09638981,12.314362526666665,-0.4466141463333333,-7.653738021666666,-1.157152931
212,0.5888653333334636,15.583838463333334,27.04653867,-146.3527425,-3.5347335340000003,0.549073165,10.222842215,0.265406221,-3.5321223346666666,-0.809815495
213,0.5916430000000521,15.53976059,26.94477653333333,-146.39281463333333,-2.523472329,0.534266934,7.755131484333333,-3.1324597196666666,-13.181456034333332,-1.0732452273333333
214,0.5944206666667924,15.531946496666668,26.925264993333332,-146.40688326666665,-3.799052517,1.2927867173333334,12.704374152999998,-0.5385817686666666,-3.2725908940000004,-1.1150860786666668
215,0.597198333333381,15.490581513333332,26.84529813,-146.4512151,-2.101851195,0.32775170366666667,7.799787679333334,-2.2567040523333333,-10.408145904666666,-2.1563047566666667
216,0.5999760000001212,15.485616683333333,26.81153043,-146.46314746666667,-3.1919202999999996,0.810937365,11.396244050333332,-0.3454718193333333,-4.865116477,-0.45495575666666666
217,0.6027536666667098,15.452566463333334,26.751404443333332,-146.4942932,-2.440075735,0.7303576069999999,8.374889533,-1.9286581673333334,-7.7259109829999995,-1.4209753273333334
218,0.6055313333334501,15.430907566666667,26.710203809999996,-146.5148341,-1.4634197553333335,0.018779261666666658,5.9514753019999995,-1.5835234619999998,-5.591976881333333,-1.0475965936666667
219,0.6083090000000387,15.407199226666668,26.66621526,-146.55679066666667,-3.22072947,1.5109604796666665,13.592483200333334,-0.5744461413333334,-6.547425268333334,-3.1426790153333335
220,0.6110866666667789,15.39506181,26.65283839,-146.556015,-2.072397371,0.15669896966666666,7.866614816999999,-1.9099040230000002,-2.1474847,0.180648654
221,0.6138643333333674,15.337565736666667,26.581391016666668,-146.60359193333332,-2.922804911666667,0.5683513633333334,9.517238617666667,-4.002224922333333,-9.490247347666665,-2.7719642716666666
222,0.6166420000001079,15.32527288,26.608133316666667,-146.59200036666667,-3.4362199306666668,1.1342908936666667,8.233999253333332,-2.4699467619999997,2.8060401279999994,0.03889521633333333
223,0.6194196666666962,15.244089446666665,26.526612600000004,-146.6505839,-1.3418189886666667,1.153353085,8.701663812,-6.307302475,-10.974394002333332,-3.6322619913333334
224,0.6221973333334365,15.238137880000002,26.53260358,-146.63839466666667,-4.962015310999999,0.3938846586666666,12.427226701,-1.3911391496666667,0.8079010666666662,0.8475581209999999
225,0.6249750000000253,15.161423683333332,26.45741526333333,-146.69669343333334,-1.1839378076666665,0.45585896600000003,8.775860945666667,-6.108206113333334,-10.612499636,-3.8924549420000005
226,0.6277526666667654,15.110615416666667,26.445040383333332,-146.70165253333332,-4.666490554666667,0.625597308,12.505586941999999,-6.224353392666667,-2.1913024483333334,-0.4352798066666666
227,0.6305303333333542,15.01875623,26.418502176666667,-146.7582118,-1.181456208,0.6480400463333333,9.939881007666669,-7.646805604333333,-4.5258307460000005,-5.174460093
228,0.6333080000000942,14.914726576666666,26.36131668,-146.79024253333333,-4.25547417,-0.45426211766666663,9.929732479666667,-11.228173572333333,-8.145632105999999,-1.8807257813333333
229,0.6360856666666829,14.814166069999999,26.374588646666666,-146.84113566666667,-2.010129412,1.913517952,9.671450615,-8.939608573666666,0.2809697783333333,-5.802538871666667
230,0.638863333333423,14.688130376666669,26.327673593333333,-146.8836314,-2.304583092666667,-0.9076973,8.274096011333334,-13.012854576666667,-6.8465801866666665,-3.250754674333333
231,0.6416410000000118,14.58420658,26.347816469999998,-146.91678363333332,-2.790941658,1.5441709756666668,11.983946322333333,-10.623787404,1.192931810666666,-4.237474520666667
232,0.6444186666667521,14.452199299999998,26.332279203333332,-146.95293173333332,-2.2808478173333335,-0.31236662433333334,6.608210685666666,-14.377803483333333,-3.407910902,-3.642293850333333
233,0.6471963333333405,14.311131476666667,26.306802113333333,-146.98790483333332,-2.425076643666667,1.1049275796666667,10.576114259,-14.681416829999998,-3.7462829749999997,-2.9812412263333337
234,0.6499740000000808,14.166440326666665,26.311739606666666,-147.0246455,-3.0953024229999997,-0.06141080966666664,8.294267655,-15.835976916666667,-1.0222771563333335,-4.311448653666667
235,0.6527516666666694,13.990212756666665,26.263780593333333,-147.06081393333332,-1.487417797,0.668727408,10.791843413,-18.879415833333333,-6.387250701333333,-2.4913866519999996
236,0.6555293333334097,13.79469935,26.246239980000002,-147.1041031,-4.318930149,0.11616546033333335,10.030176480666666,-21.21954155,-3.3857594533333333,-4.246398052
237,0.6583069999999983,13.572969120000002,26.19506708666667,-147.15705616666665,-1.6251976886666666,0.19029021000000002,7.2129802703333326,-23.790121080000002,-7.566090900333333,-4.284299056
238,0.6610846666667386,13.336675009999999,26.153926216666665,-147.21482086666666,-3.5179075006666665,0.8557447393333333,11.653773309333333,-25.722087226666662,-6.871919314,-5.220594088333333
239,0.663862333333327,13.093432106666667,26.12122663,-147.27821346666667,-2.3923698266666666,0.725913723,9.816000937666667,-25.46663793,-5.236312904666666,-5.856400012999999
240,0.6666400000000673,12.809939066666667,26.029057820000002,-147.3530324333333,-2.9910467463333337,-0.17799164633333334,10.276524226333335,-30.525267283333335,-13.211846590666667,-5.706293900666666
241,0.6694176666666559,12.533930463333334,26.01679039,-147.42807516666667,-3.336245219,0.8698490856666666,9.457410336,-28.754224143333335,-3.0556294119999996,-7.654129823333332
242,0.6721953333333962,12.191025096666666,25.915156683333333,-147.52874246666667,-1.3309833206666666,0.0018358353333333133,7.804314932333334,-36.00178528,-14.468367813333336,-8.245354493333332
243,0.6749729999999848,11.898249943333333,25.912783306666668,-147.60076650000002,-4.605935097,0.781528711,12.673494101000001,-31.286573413333333,-2.1439326616666663,-7.709593931666667
244,0.677750666666725,11.514881136666666,25.815339406666666,-147.70833083333332,-0.9286481740000001,-0.5899226366666667,7.186981697666667,-40.85441081,-14.434796812666667,-9.348978837999999
245,0.6805283333334654,11.14926815,25.807697293333334,-147.79522196666667,-5.055572291333333,0.5643006463333333,12.247651098666667,-38.91370519,-2.582593101666667,-9.082223573333334
246,0.6833060000000538,10.70536232,25.734144849999996,-147.93720499999998,0.23291254033333342,-0.5110005736666667,5.585533836333333,-46.33970515000001,-12.201848110999999,-13.741974829999998
247,0.6860836666667941,10.28638903,25.708318073333334,-148.03603363333335,-5.1959069940000004,1.2679592769999999,13.694363750666668,-44.734106700000005,-4.836185614333334,-9.990816435000001
248,0.6888613333333827,9.783597628,25.660741169999998,-148.1880239,-0.21297796566666674,-1.3838205733333335,4.718587954,-52.54749934333333,-8.707352875666666,-15.432559650000002
249,0.6916390000001229,9.300819715000001,25.62292671333334,-148.27512866666666,-5.056360562666667,0.905246178,14.036835035666664,-53.35494868000001,-6.280926266333332,-8.685740787333332
250,0.6944166666667115,8.748092651,25.59273084,-148.44693246666665,0.2721047003333332,0.24416817266666666,5.268897295333333,-57.865041096666666,-7.1190724366666664,-18.137214343333333
251,0.6971943333334517,8.214241981666667,25.519091923333335,-148.53285470000003,-5.051059484666667,0.9749630493333332,12.925053913999998,-59.24795151,-9.954169276,-7.930167040000001
252,0.6999720000000403,7.628788788999999,25.502595266666663,-148.7025884,-0.6811213493333333,-0.6899664896666667,6.645846922,-61.92296091666666,-5.119068065333333,-18.275324823333335
253,0.7027496666667806,7.041909218,25.396206539999998,-148.7696533,-4.538348277333333,1.477946390666667,11.513210296666665,-66.60095723666666,-13.434681573333334,-5.594201881
254,0.7055273333333694,6.393102328,25.362673443333335,-148.97531890000002,0.17077996333333326,-0.26072376966666666,9.10429732,-67.37605031666668,-6.829004606000001,-21.892044706666667
255,0.7083050000001094,5.740295091999999,25.20388094333333,-149.0590032,-4.142169118000001,-0.23237922800000002,9.934295655,-74.03470611666667,-20.154327707666663,-7.161274590666667
256,0.7110826666666981,5.026724020666666,25.138160066666668,-149.29402666666667,-1.2182503540000003,0.933936139,11.906892618666667,-74.08178456666667,-10.87129028666667,-25.002816516666666
257,0.7138603333334382,4.268667538666667,24.942562103333334,-149.40680440000003,-3.412256996,-1.2413563726666668,6.017091334,-84.88098653,-24.237875142000004,-10.323719501666666
258,0.7166380000000269,3.450071732,24.800372443333334,-149.68219503333333,-0.9641999403333331,0.5680758756666666,15.706527551333332,-84.77357229,-19.663207056333334,-29.07786242333333
259,0.7194156666667672,2.586259524,24.56304232333333,-149.84671526666668,-2.9353772153333337,-1.3292423486666667,4.522924477666667,-95.07390086,-29.236409503333334,-16.42760722
260,0.7221933333333558,1.6370419266666667,24.29183197,-150.15305583333335,-1.5758012136666668,0.05932628133333332,17.03776073666667,-98.81683095333334,-33.97893969333333,-32.406901043333335
261,0.724971000000096,0.6888886093333334,24.048034666666666,-150.34083046666666,-4.192164659333334,-0.6330843866666667,7.461707274000001,-104.55251823333333,-29.91354942,-20.104213716666667
262,0.7277486666666846,-0.37742516899999995,23.679978690000002,-150.66266886666668,-0.38509947066666655,0.26004864499999997,10.732388020666667,-112.75190226666666,-44.882221859999994,-35.49944432666667
263,0.7305263333334248,-1.4259834686666668,23.35892296,-30.875061000000002,-5.544712980333333,-0.32434415833333335,16.173905688999998,-115.34389753333333,-38.000823976666666,-23.947264353333335
264,0.7333040000000134,-2.5653272470000004,22.963422773333335,-31.17726136666667,0.3994807403333332,-0.0006742526666666712,4.520032853666667,-122.87201436666668,-46.889766693333335,-35.28633499
265,0.7360816666667537,-3.749227047,22.522848766666666,-31.39598846666666,-3.774697833,-0.12286142500000001,14.313195226666666,-131.61239113333332,-51.29980723,-27.028437933333333
266,0.7388593333333423,-4.951721509333334,22.08069547,-31.6623179,-0.7205911230000001,-0.009051531666666687,8.001035690333334,-132.59085083333332,-51.28201039666667,-33.81725375
267,0.7416370000000825,-6.182473182666667,21.54512278333333,-31.840527866666662,-3.4729221663333334,0.46036552233333333,9.804979801,-139.34258523333335,-61.869434356666666,-26.210747403333333
268,0.7444146666666711,-7.434553464,21.018596013333333,-32.0611623,-1.6430582999999999,0.9398342173333333,16.168757757333335,-140.72014873333333,-60.03992207666667,-32.08866564666667
269,0.7471923333334113,-8.719300588333333,20.468811033333335,-32.23119353333333,-2.462823232,-0.3401518886666666,6.5382081266666665,-146.8685303,-62.844460803333334,-28.645308176666664
270,0.7499699999999999,-10.020872752666667,19.8675855,-32.40795133333334,-2.3200193443333332,1.13435632,14.812831880333334,-149.25584920000003,-68.56432597000001,-31.664836246666663
271,0.7527476666667402,-11.328030586666666,19.29590161333333,-32.56569926666667,-4.310459375333333,0.11394520633333328,8.710367996,-150.16807556666666,-63.912681580000005,-30.55166117666667
272,0.7555253333333288,-12.63177554,18.677398683333333,-32.694323233333336,-2.5258461633333336,1.5098513563333331,13.359424272,-151.77066546666666,-70.19811757666668,-29.94366773
273,0.758303000000069,-13.950073243333334,18.079881033333333,-32.85669963333333,-2.8887470166666667,1.1777187583333333,14.485843976666667,-151.72110999999998,-65.31772359333333,-34.81458409666667
274,0.7610806666666576,-15.240571976666667,17.45982552,-32.9448217,-2.866806825,1.4522863626666667,9.778596560999999,-151.72083540000003,-69.70889536333334,-28.572416306666668
275,0.7638583333333977,-16.529963813333335,16.852181753333337,-33.07402039999999,-4.170313358333333,1.5323791900000001,14.721429823333333,-150.1139679,-66.24565379,-34.675098420000005
276,0.7666359999999864,-17.78497314666667,16.248701096666668,-33.13656613333334,-2.026832024,2.158233722,10.170558769666666,-148.8564097,-67.69467163333333,-28.54233678
277,0.7694136666667267,-19.013352076666667,15.659108796666667,-33.23544566666667,-4.582441528666666,2.1113225223333334,9.460502306333334,-143.89678953333336,-63.348302206666666,-33.30931727
278,0.7721913333334669,-20.151011146666665,15.096141496666666,-33.25528463333334,-3.270231048333333,2.0530767046666667,13.853494006666667,-136.26045733333333,-63.50114059333333,-25.103042603333336
279,0.7749690000000555,-21.26538404,14.539833386666666,-33.30443826666667,-3.3326022626666667,3.6961285270000004,15.562177336666666,-131.99701436666666,-60.305035909999994,-28.932643253333328
280,0.7777466666667957,-22.306402206666665,14.0259339,-33.26906076666667,-3.917752464666666,2.392451445333333,7.839871406333334,-126.38322703333334,-59.40887069666667,-19.379807786666664
281,0.7805243333333843,-23.296698250000002,13.523493449999998,-33.278175366666666,-3.2268727619999997,2.7079741160000004,7.9620161063333335,-118.42403666666667,-55.14517085,-24.12634341
282,0.7833020000001246,-24.16780662333333,13.05609099,-33.21014403333334,-3.3198631603333335,3.114742199666667,10.271648407333334,-106.84632110000001,-55.16284052666666,-15.62279765
283,0.7860796666667134,-24.97629356666667,12.610944746666666,-33.19163513333334,-3.7237949369999996,3.092381318333333,15.265251793333334,-97.41154225333332,-49.55797449666667,-19.83665339
284,0.7888573333334534,-25.701704026666665,12.204344113333335,-33.121137,-3.790641466666667,2.871465603666667,11.906297047333334,-89.33100637,-48.25696309333333,-13.747765856666666
285,0.791635000000042,-26.357879640000004,11.835096996666666,-33.0886968,-4.481511672333333,3.882986784,11.894025486666665,-79.47874959333333,-41.59000651333333,-15.614619573333334
286,0.7944126666667822,-26.932076773333335,11.489565213333334,-33.03292593333334,-3.3280225993333334,2.979340791333333,8.220749219333333,-70.72650400666666,-40.62409083,-13.066449484000001
287,0.7971903333333709,-27.41027514,11.173352556666666,-32.98292796666667,-3.0924836,3.149051110333333,11.48397287,-58.526373543333335,-36.61036682333333,-11.615352311333334
288,0.7999680000001111,-27.829037350000004,10.878879546,-32.945426966666666,-3.4081213076666663,3.5213099323333332,9.644299824333332,-51.59985606,-33.98490969333333,-12.805459023666666
289,0.8027456666666998,-28.151161193333333,10.630830446666666,-32.89939116666667,-5.625420332,2.3536779086666666,12.81154569,-39.67277654,-29.034416836666665,-8.664303301
290,0.80552333333344,-28.408873243333332,10.402690569333332,-32.88563283333333,-2.627367258,2.992880344333333,10.931152660999999,-31.689985913333334,-25.506186803333332,-11.86559518
291,0.8083010000000286,-28.593555449999997,10.208376249333332,-32.85047913333333,-4.698560794,3.2515784896666666,9.297176043333334,-22.932264963333335,-22.683721540000004,-6.993781725000001
292,0.8110786666667688,-28.71991475333333,10.030558586666666,-32.86927286666666,-0.0823277633333334,2.2712351876666665,13.27535947,-15.268650373333331,-18.29032103,-12.53339831
293,0.8138563333333574,-28.809315366666667,9.913143159333334,-32.853904699999994,-7.649625937333333,1.9198156696666668,8.974144617666667,-11.081165313333335,-13.466415086333333,-4.663960258333334
294,0.8166340000000977,-28.822031023333334,9.769548098333333,-32.88974,0.7130830486666667,2.7100055216666665,10.826534589666666,-1.2668976583333336,-13.68353812,-12.365779558333335
295,0.8194116666666863,-28.789924620000004,9.697757719666667,-32.89229836666667,-6.1302927333333335,2.0971372526666667,10.325174011666666,3.8366754056666665,-7.6044747033333335,-4.005067686
296,0.8221893333334265,-28.732585906666667,9.585271836666665,-32.9272003,1.7258066340000002,1.1040294953333334,7.634469985999999,7.089659054666666,-10.478820641,-10.462170285666668
297,0.8249670000000151,-28.639152526666663,9.545976001666666,-32.9628474,-6.554017544,1.2584552863333334,11.384269080000001,11.810213406666668,-2.362110972666667,-5.486574173000001
298,0.8277446666667553,-28.520020799999998,9.460410118666667,-33.01079813333333,0.09267025200000001,0.858825584,14.420080503333333,14.790043513333336,-6.939320882,-10.218046345666666
299,0.8305223333333439,-28.409091950000004,9.473574638333332,-33.07612100000001,-7.741139412,1.037119468,10.327406247,14.457586923333333,4.854312658333334,-5.633963507
300,0.8333000000000842,-28.285884220000003,9.391558010666666,-33.128387466666666,2.179403861,1.3521880706666665,8.439242363,15.345797223333335,-6.359530131,-10.445155782333334
301,0.8360776666666728,-28.14414533,9.409640947666666,-33.20248923333333,-7.281307061666666,0.2851098676666666,11.906302451666667,18.271364846666668,5.817028840666667,-6.277499835
302,0.838855333333413,-27.994897206666668,9.370323498333333,-33.266126,1.08713905,0.4313373263333333,14.115051586666667,18.675935109999998,-1.247614662,-9.234170598333334
303,0.8416330000000016,-27.87318102333333,9.405304272666667,-33.3371811,-7.783281803,0.7086617746666666,9.004116694,15.815333686666667,7.426644802333333,-5.066083510666667
304,0.8444106666667417,-27.751160940000002,9.355988503,-33.38866423333334,2.8632760843333336,-0.2652050853333334,3.1653193633333334,15.18315792,-3.0259000556666664,-8.496333599000002
305,0.8471883333333304,-27.624780653333335,9.357837359666666,-33.411638866666664,-4.261355002333333,0.34562058066666673,11.287215233333333,15.4360129,1.235853076,-1.9093966136666667
306,0.8499660000000707,-27.521262489999998,9.312950135666666,-33.47451276666667,0.5149396953333333,0.46044849333333326,14.055644353333333,13.139918329666665,-1.9614842136666668,-9.439816792666667
307,0.8527436666666594,-27.441308336666665,9.365529378666666,-33.480242399999995,-7.506405035666667,-0.7348764836666667,12.095059077666669,9.481738409666667,5.727057774666666,2.590513070333333
308,0.8555213333333995,-27.38554636666667,9.322333337,-33.55917356666667,0.563117241,0.878818055,10.442486762,7.775000890333334,-0.9244175353333333,-11.019570350333334
309,0.8582989999999882,-27.33152071666667,9.349337259333334,-33.5277888,-5.674515088333333,-0.42128143700000004,9.994983991333333,5.623691082,0.9853154219999999,5.028057813666667
310,0.8610766666667283,-27.328067779999998,9.292271933333334,-33.590021766666666,2.5747509303333334,-0.26134241599999997,7.133547147000001,1.22698166,-3.316287994333333,-9.994551022333335
311,0.8638543333334686,-27.33834648,9.284731548333333,-33.55265043333333,-5.5798512696666664,-0.5341168046666666,9.679210500666667,-2.3021092513333334,-3.052354574,3.7692759036666668
312,0.8666320000000574,-27.359596253333333,9.230487822333334,-33.57884466666667,-0.0061542589999998105,-0.3160124423333333,13.369492846666667,-2.429548661,-4.963061412000001,-6.051009019000001
313,0.8694096666667974,-27.390570323333332,9.241910618,-33.56689453333333,-5.025832991000001,0.2946721566666667,14.85796801,-4.365054209999999,0.3011766276666667,2.1883308510000004
314,0.872187333333386,-27.458771386666665,9.177015305333333,-33.56174976666666,-0.049401839666666746,0.5334672333333333,9.087531885999999,-8.646670957000001,-7.799103895666668,-3.355742504333333
315,0.8749650000001262,-27.55644798333333,9.144549370666667,-33.5522461,-4.571588635333334,-0.39154549433333335,3.982498407333333,-12.299560866666665,-4.273547927666667,-0.4085814156666667
316,0.8777426666667149,-27.644279479999998,9.057713507333332,-33.51982116666666,0.8039286136666667,-0.3134366583333334,10.241974829,-11.525396663333334,-11.621859866666668,-1.728073388333333
317,0.8805203333334551,-27.738994596666668,8.979665438,-33.5061722,-4.624810953666667,-0.06009656200000002,15.313191733333333,-12.033163073333334,-9.320205371333333,-2.5963100793333336
318,0.8832980000000438,-27.846515656666668,8.924462636333333,-33.47491966666667,-1.7191313306666665,0.775387883,13.708751676666667,-13.905506449999999,-8.193436703333333,-0.14579192799999996
319,0.886075666666784,-27.979144413333334,8.834943612333333,-33.455088333333336,-3.081736961666666,0.7325446706666666,10.216558773,-16.729256949999996,-10.873370803666667,-2.645115127
320,0.8888533333333726,-28.115758896666666,8.772579352,-33.41967776666667,-2.5006531676666666,0.397684356,8.193921089333333,-17.433630623333332,-9.191291491333333,-0.12991112466666652
321,0.8916310000001128,-28.2530276,8.694087505333334,-33.400265999999995,-2.1641952989999997,-0.15388678533333336,8.250546613333333,-17.28270594,-9.689637187,-2.094942013333333
322,0.8944086666667013,-28.397677740000002,8.611478487666666,-33.35379283333334,-2.3782630363333332,-0.15685137366666668,9.641740642666667,-18.559752783333334,-11.955982845000001,-0.13809907433333324
323,0.8971863333334417,-28.523541133333335,8.525350093999998,-33.347068799999995,-2.37721016,0.3099264133333333,12.1632719,-15.720420836666667,-9.789238931,-3.8864575030000004
324,0.8999640000000303,-28.651854196666665,8.457786401,-33.28550466666667,-2.3972252610000004,1.1638605443333332,14.91760985,-16.86682288,-11.221271833333333,2.232106566666667
325,0.9027416666667705,-28.81119410333333,8.388908227333333,-33.32040150000001,-3.1968405940000006,0.7887539713333332,11.761896770666667,-19.04436016,-5.581450305000001,-7.284901698333333
326,0.9055193333333591,-28.95202064333333,8.357928911666667,-33.25683086666667,-4.322263479333333,-0.2631404796666667,6.646309057666667,-18.413988749999998,-7.516828060333334,4.493318875333333
327,0.9082970000000993,-29.07057953,8.303649743333333,-33.29563906666667,-2.2618259193333334,0.8533929386666667,10.516761462666667,-14.049637160000001,-3.798656145666667,-6.835173289
328,0.9110746666666879,-29.15804227,8.283314228,-33.24405413333334,-3.176915804666667,0.4348615943333333,11.003972691666666,-11.822452544999999,-5.735552946666666,3.8279027143333333
329,0.9138523333334282,-29.266586306666664,8.237011591333333,-33.25720973333333,-1.7847381036666665,0.7955569353333333,9.686159453,-13.288032055666667,-4.4375263946666665,-3.7059407233333332
330,0.9166300000000168,-29.368146260000003,8.210995833,-33.2267634,-1.441725671333333,0.6024553826666667,7.648456255666666,-13.145961127,-5.1165552136666665,1.3016258676666668
331,0.919407666666757,-29.464993796666665,8.174405575,-33.23666893333333,-1.5226837396666666,0.06990345299999996,11.899196623333333,-11.977492968333332,-3.593140284,-2.8533152736666665
332,0.9221853333333456,-29.574062983333334,8.179881254666666,-33.23453013333333,-4.023621082333333,0.16809704400000003,9.867138386999999,-13.566650706666666,-0.17374986433333328,0.21949261933333333
333,0.9249630000000857,-29.652498246666667,8.139548460666667,-33.25659433333333,-2.3869579633333333,0.27979655066666664,11.534098624333334,-9.587234019999999,-3.2888382476666664,-4.304596106
334,0.9277406666666744,-29.70496305,8.144646008666667,-33.24511716666667,-4.887372970333334,0.6682203213333332,17.41363144,-6.904987414,-0.7638036906666666,1.1714158853333334
335,0.9305183333334147,-29.786427816666663,8.126552263666667,-33.27557883333334,-1.2945004293333333,1.1490985553333333,11.322936056666668,-9.844948292,-0.4565096693333333,-3.901368618
336,0.9332960000000033,-29.871023179999998,8.116050243333333,-33.254412333333335,-3.2155439456666666,0.27129141500000004,6.127259095333334,-10.948098182666667,-2.9709695976666666,1.235575176
337,0.9360736666667435,-29.929873783333335,8.105159123666667,-33.273201,-0.7662320733333333,0.13560492800000004,7.207683722000001,-7.350611845666667,-0.3744631209999998,-2.3104812006666666
338,0.9388513333333321,-29.977088293333335,8.082330862666666,-33.2647349,-2.662661036,0.42894245966666666,12.514240899999999,-6.236495017999999,-3.5077757836666668,-0.8109170596666669
339,0.9416290000000723,-30.021250406666667,8.044888337333333,-33.2460912,-1.627993504,0.6836843689999998,12.906989732,-6.2032601036666675,-5.379660129666667,0.0003417333333333161
340,0.944406666666661,-30.074982963333337,8.011112372,-33.242245966666665,-3.086215695,0.17371543233333334,10.020990053,-6.940813621,-4.370126187666666,-1.944598794
341,0.9471843333334014,-30.1138827,7.978392601,-33.20385743333333,-1.4930641253333334,0.3749786013333334,9.333610534,-5.9509175616666665,-6.061903715333333,2.265856743
342,0.9499619999999896,-30.146151223333334,7.912019888666667,-33.187329600000005,-2.7520948646666668,-0.21589411300000003,10.114693322333332,-4.5646450519999995,-8.503696442,-2.5966219603333336
343,0.95273966666673,-30.15873718333333,7.873771190333334,-33.144627899999996,-1.9037298360000001,0.649028947,14.055906296666668,-2.8677443663333335,-6.8932943343333335,2.3414700326666664
344,0.9555173333333187,-30.184398016666666,7.818521817333334,-33.1365026,-2.963826497333333,0.7446248433333333,11.527260463333334,-3.678776502666666,-6.84196774,-2.8365929523333335
345,0.9582950000000588,-30.2073644,7.7909016609999995,-33.1090622,-3.469566583666667,-0.15303621666666664,8.657904625,-3.8968947726666663,-4.937122265666667,1.4938521189999998
346,0.9610726666667991,-30.211196263333335,7.734127521666667,-33.1238327,-2.490041137,0.35043088566666664,11.429338139999999,-0.6592293583333332,-5.630457560333333,-5.2668716909999995
347,0.9638503333333878,-30.192643486666668,7.710921287999999,-33.0824127,-3.7322882813333336,0.7032340366666666,16.549226763333333,0.8730826776666666,-5.286722819,3.116428698
348,0.9666280000001279,-30.220322290000002,7.658522288,-33.11122133333334,-2.144493977333333,0.24103440866666662,6.728105783333333,-3.2894144056666668,-4.330996433666667,-6.453331788333333
349,0.9694056666667166,-30.21079317666667,7.647468726,-33.078959133333335,-3.0918025970000005,-0.19072384766666664,5.855866313,-0.1176163353333332,-3.536169210666667,2.9722716016666664
350,0.9721833333334567,-30.187487283333336,7.59753259,-33.086240133333334,-0.8620234626666669,0.377168735,13.691983856666667,2.5205260913333336,-5.353635788000001,-4.085227330333334
351,0.9749610000000453,-30.198211670000003,7.576535542999999,-33.0716375,-2.817356348,0.7689105829999999,8.196584224333334,-2.271444797333333,-3.5209627149999996,0.5547359686666667
352,0.9777386666667857,-30.192759196666668,7.554457823333333,-33.07605236666668,-1.1717511813333334,-0.8779643776666667,7.147522765999999,0.28626893466666664,-2.6418349873333336,-2.1218618153333333
353,0.9805163333333743,-30.18126996333333,7.541198889333334,-33.06220756666667,-2.6643705366666666,-0.36417819066666673,13.805512746666667,0.4197704096666666,-2.6713256039999997,0.9275170763333334
354,0.9832940000001145,-30.18344052666667,7.514181773,-33.07115173333333,-1.7865484953333333,1.025907602,12.846890766666666,-0.5268292826666667,-2.8850850263333334,-2.8597526546666665
355,0.9860716666667031,-30.18660990666667,7.505846182333333,-33.05136363333333,-3.6830577850000004,-1.2788344623333334,9.646900177000001,-1.4920248586666667,-2.5238730513333336,1.7812097073333335
356,0.9888493333334433,-30.19129562666667,7.492548624666667,-33.062085466666666,-2.429049333,0.8288761336666667,14.431034089999999,-0.7916164643333333,-1.3485253750000001,-2.209270547
357,0.9916270000000319,-30.19842593,7.474034627000001,-33.06003823333334,-3.699431737,-0.25420915066666666,12.564860663333333,-1.682846705,-2.514677485,-0.682692011
358,0.9944046666667722,-30.217840193333334,7.4599871633333334,-33.042627966666664,-3.1291518213333336,-0.134770999,10.828762533333334,-2.9995333953333336,-3.1162189643333336,0.627079159
359,0.9971823333333608,-30.228298186666667,7.454174677666667,-33.05059813333333,-1.937653462,0.553077951,9.466698646666666,-1.9762749473333334,-0.6345329286666667,-0.9245116313333334
360,0.999960000000101,-30.25412877333333,7.416679700333333,-33.04350026666666,-2.413482507,-0.47933765766666675,11.605692543333333,-3.6071421306666664,-4.935650507666666,-1.8342271250000002
361,1.0027376666666896,-30.275285086666667,7.3789048196666664,-33.017173766666666,-2.5888117156666666,0.016665638666666666,10.427812736666667,-3.76856731,-6.008510907333334,0.6501107016666666
362,1.0055153333334297,-30.30104383,7.351611295999999,-33.02807616666667,-0.9285326499999998,0.4136385443333333,9.141652107666665,-3.3513668180000002,-2.785134533666666,-3.1122152406666665
363,1.0082930000000185,-30.326923373333333,7.2967667579999995,-33.01861316666667,-2.6124426919999997,-0.193439931,10.473745030000002,-4.086811383666666,-6.779960791000001,-2.1200520396666667
364,1.0110706666667586,-30.34690094,7.253426551666666,-33.005190500000005,-2.4302854936666667,-0.19102197900000004,11.232786812666667,-2.993492961,-5.909221172333333,-1.5626988683333334
365,1.0138483333333472,-30.369671506666666,7.223697980333334,-33.021018966666674,-1.9266813196666668,-0.011847938333333327,11.956336656666666,-3.3560538789999996,-2.6718124050000003,-3.2195172309999998
366,1.0166260000000875,-30.394342419999997,7.193892161000001,-33.02081806666666,-2.771380742333333,0.18564178533333334,8.653796514,-3.3740566570000006,-3.7179022629999996,-2.098706603
367,1.0194036666666761,-30.400354386666667,7.1582592326666665,-33.02141063333333,-2.743722836,-0.5671769329999999,12.755946159999999,-1.5305102763333334,-4.214921067333333,-1.99410669
368,1.0221813333334164,-30.40830739333333,7.163197517333333,-33.02575936666666,-2.508068323,0.3645342376666667,13.76168537333333,-1.3175365126666667,0.15885535899999978,-0.484343797
369,1.024959000000005,-30.42124112,7.128926595,-33.03047943333333,-2.796313524,-0.188825965,7.995801289666666,-2.326041579,-3.8492260623333334,-2.3290384310000003
370,1.0277366666667453,-30.409607566666665,7.131368319,-33.01426440000001,-2.814964771333333,-0.24423762899999998,13.469118116666666,0.7529049716666666,-1.342510382333333,1.4950218646666666
371,1.0305143333333338,-30.405321123333334,7.121133963333333,-33.03180186666667,-2.533726215333333,0.6948566286666665,11.934657093333334,-0.07536582166666654,-0.5848113246666667,-2.2359136740000003
372,1.033292000000074,-30.404071173333335,7.126248518666666,-33.030202233333334,-3.4556824366666663,-0.179629912,7.800940513333334,-0.3122075793333335,-0.1906553509999999,0.15216139966666664
373,1.0360696666666627,-30.376588186666666,7.132460911999999,-33.037078833333325,-2.307880799,-0.6715932786666666,11.304076831666668,2.565555890333333,0.45652247966666665,-0.1370446883333333
374,1.038847333333403,-30.35485776333333,7.157086054666666,-33.05239613333334,-2.8879182340000003,0.7179213363333333,12.527352966666667,2.4160715736666667,2.8533276320000005,-0.3996418316666667
375,1.0416249999999916,-30.337497709999997,7.181947072333333,-33.0691045,-2.4242407483333333,0.059820046000000016,7.091954390333332,1.4569974343333334,2.989441673,-0.10115917533333336
376,1.0444026666667316,-30.30917549333333,7.211068630333333,-33.08358256666667,-2.3699152466666664,-0.9281301496666666,9.584516841666666,3.2154018979999996,3.267868042,-0.02845312633333333
377,1.0471803333333203,-30.27849197,7.2474031446666665,-33.11610413333334,-1.8286757470000001,0.2862630286666667,12.125089326666666,3.3199334740000004,5.112178643666667,-1.0241339406666665
378,1.0499580000000606,-30.263051986666667,7.2700144453333335,-33.12569936666667,-1.8099198736666668,-0.343195001,6.733346939333333,1.5695469376666666,2.2958893776666667,0.057102759666666746
379,1.0527356666668009,-30.23087438,7.298804759666666,-33.15243783333333,-2.5408377649999996,-1.229569018,10.695126533666667,3.441724837,3.9807677266666666,-0.8869568606666668
380,1.0555133333333895,-30.199949266666664,7.325828075333334,-33.16837056666666,-2.2900313933333334,0.36824756866666664,13.20451832,3.547426641,3.135020176333333,-0.321036001
381,1.0582910000001295,-30.173695246666664,7.334738731333334,-33.18981170000001,-2.562265237,-0.44296095766666665,10.367245991666666,2.618090888,1.5580840880000002,-1.526621262
382,1.0610686666667182,-30.14446703666667,7.360479037,-33.20685323333333,-3.626765092333333,-0.5118382103333333,13.792813303333332,3.360869368,3.070002675,-0.5093604026666666
383,1.0638463333334585,-30.128199260000002,7.372604688,-33.22927853333334,-2.741391579666667,-0.4289908713333334,12.126919746666667,1.462585678,1.9575081266666665,-1.4636017283333331
384,1.066624000000047,-30.106595356666663,7.383536339,-33.24133050000001,-3.3567883173333333,-0.41548470666666654,10.217187884,2.3349809253333333,1.2316007613333333,-0.9147057336666667
385,1.0694016666667874,-30.079835253333332,7.3936225570000005,-33.25453950000001,-2.7966664236666667,-0.2219149273333334,13.496914863333332,2.581692695666667,1.1670187710000002,-0.6183532823333334
386,1.072179333333376,-30.07440948333333,7.403933207333334,-33.26580046666666,-3.079850991666667,-0.39647343733333323,10.201684313333333,0.4169227283333334,1.1252076626666667,-0.862734407
387,1.074957000000116,-30.059748333333335,7.407617410333333,-33.28040823333333,-1.5326117676666666,-0.35983633233333334,7.692070007333334,1.1142277716666669,0.5900881293333331,-1.2074337403333333
388,1.0777346666667047,-30.038347880000003,7.399007002333334,-33.267873133333346,-3.2040402096666667,0.36081081600000003,13.624897956666667,1.9991656146666668,-2.2614552973333333,0.4741323393333334
389,1.080512333333445,-30.032874423333336,7.408171177,-33.278668700000004,-1.3696877160000003,-1.2426463463333333,6.448143164333334,-0.036013682666666526,0.9199566843333334,-0.48728946866666667
390,1.0832900000000336,-30.007757823333332,7.386913776333334,-33.25561526666666,-2.0606725613333334,-0.08738810833333337,9.467625299666667,2.242607504,-4.204448859,0.788589696
391,1.0860676666667737,-29.970740636666665,7.379104296666667,-33.23447673333334,-2.851196607,-0.22215363233333332,15.781434056666667,3.319318811,-2.729922559,1.7700589283333334
392,1.0888453333333625,-29.965239206666666,7.372751712666667,-33.22396343333333,-2.9526248773333332,-1.292675192,6.6712814966666665,0.05500221233333343,-1.9085678893333335,0.377024412
393,1.0916230000001026,-29.928992589999996,7.369999091,-33.20855713333333,-1.9586813453333332,0.37995344633333333,13.43610128,3.290836135333334,-1.8881278036666667,1.4926397203333333
394,1.0944006666666912,-29.9026858,7.357909361666667,-33.20147956666667,-3.9691793123333334,-0.5508378046666667,13.569529218333335,2.630351444,-2.298698346,-0.31129406899999995
395,1.0971783333334315,-29.88279279,7.381623268333333,-33.19153593333334,-2.797372460333333,-0.4474816126666667,5.495942275,1.3833565366666667,1.1618148483333333,2.5283384323333333
396,1.0999560000000201,-29.838958106666666,7.369386673,-33.199020366666666,-1.7501887483333334,-0.2568132776666667,13.444714546666667,4.963295896999999,-1.4458339013333334,-1.8243014413333334
397,1.1027336666667604,-29.800855,7.386017958333333,-33.182449366666674,-4.323590596333333,-0.5045683216666667,11.354521115666666,3.4938547410000003,0.05375573033333336,2.731288671666667
398,1.105511333333349,-29.785147983333335,7.4099450110000005,-33.2008947,-2.049147725,-0.930783371,5.531693617666666,1.7506134510000002,2.9694030356666663,-0.8079241813333334
399,1.1082890000000893,-29.753333406666666,7.422792116666667,-33.19571683333333,-2.156273723,-0.6134663523333334,12.012268066666666,2.9353359539999997,0.3292111926666667,1.330527147
400,1.1110666666666777,-29.740238823333332,7.458100001000001,-33.21991473333333,-2.841421683666667,-0.9163778746666665,9.930451074666665,1.520918091333333,4.487507581666667,-0.7265222570000001
401,1.113844333333418,-29.735363006666663,7.497231642666667,-33.22156016666667,-2.7941787243333334,-0.4073334983333334,7.675729592666666,-0.18855920699999998,3.4582291840000003,2.2075885533333337
402,1.1166220000000067,-29.72407214,7.527813911333333,-33.25997926666666,-1.642073552,-0.5938034453333333,13.668213526666667,1.5635613600000002,4.838529427666667,-2.4650586843333335
403,1.119399666666747,-29.707332613333335,7.580365499,-33.26939389999999,-4.122835318333333,-0.6807249583333334,11.439720471333333,1.306642135,5.295341968333333,2.1898294286666666
404,1.1221773333333356,-29.691527683333334,7.635810534,-33.30315906666666,-2.844392299666667,-0.3513586719999999,10.261094412,2.057164564666667,7.157433033666667,-0.4914092123333333
405,1.1249550000000756,-29.65829340666667,7.678892135333332,-33.32899726666667,-2.203022162,0.14877648133333332,14.107298850000001,3.5722170273333336,5.284537395,-0.11517449233333332
406,1.1277326666666643,-29.62536430333333,7.736339886666667,-33.35900876666667,-3.792117198333333,-0.8435048066666666,9.357760270666667,4.0131872096666665,7.139951706000001,-0.01054875033333332
407,1.1305103333334046,-29.595436733333333,7.7619013783333335,-33.3716863,-1.3893689713333333,-0.42544941599999997,10.006754078666667,3.0070257979999995,2.6678165993333334,0.23575344666666667
408,1.1332879999999934,-29.54917399,7.794742107333332,-33.392074599999994,-2.4947324196666667,-0.33898648133333337,8.948874314333333,5.463674386000001,4.013887762666666,-0.4941669153333333
409,1.1360656666667335,-29.511935553333334,7.791428248,-33.405362466666666,-1.3900071683333335,-0.893806931,9.549895920333332,3.8918824193333332,-0.30114233500000004,-1.5751091240000001
410,1.138843333333322,-29.469655353333334,7.783205509000001,-33.37986503333334,-2.3315806486666664,-1.5790768863333333,10.030896822333334,4.281351089666667,-2.965095406666667,1.8438364863333334
411,1.1416210000000622,-29.429917650000004,7.776254336,-33.388615933333334,-1.4248463906666666,-0.131901582,12.171608925,4.10099713,-0.9392824970000001,-1.3517273466666666
412,1.1443986666668027,-29.407781603333333,7.741814454666667,-33.35340883333334,-3.4297035536666667,-0.9960178733333334,10.907181741666667,1.7098440873333332,-6.276738433666668,1.3329178393333334
413,1.147176333333391,-29.36569086333333,7.727853934,-33.354565900000004,-3.2763664723333332,-1.0877313020000001,11.612902006666667,4.252087434333333,-2.1217985946666666,-1.0014012653333333
414,1.1499540000001314,-29.326810203333334,7.7323039373333335,-33.331985499999995,-3.9370651243333334,-0.028266427666666687,12.564594906666665,3.900744994666667,-1.4603229960000002,2.292209327333333
415,1.15273166666672,-29.302144366666667,7.688963572333333,-33.345184333333336,-1.4118544063333331,-0.7189326893333333,9.542651972333333,2.3952168819999997,-4.529672623,-3.9092531203333336
416,1.15550933333346,-29.251956303333333,7.710284233,-33.31546783333334,-4.609970093,-0.8610131343333333,7.439017931666666,5.1231331823333335,-0.11385508366666681,4.003398418333333
417,1.1582870000000487,-29.21245002666667,7.6794592543333335,-33.329811133333344,-0.008384416333333347,-0.08876438433333333,11.736123403333332,4.217951774666666,-3.1630251803333334,-3.2620581783333336
418,1.161064666666789,-29.16791025666667,7.683176517666666,-33.28856913333333,-3.980223019666667,-1.0553311706666666,7.885867118666666,4.284673096,-2.622919261333333,4.181174039666667
419,1.1638423333333776,-29.114567436666665,7.663767973666666,-33.30586243333334,-1.412425955,-0.7369944853333333,9.354845364666668,5.914100805666666,-1.783280174,-2.949069341
420,1.1666200000001177,-29.06314087,7.687881152,-33.26634216666667,-4.064726829333334,-0.6391967483333333,15.883481026666667,5.150472244,-0.3733743826666667,5.208070039666667
421,1.1693976666667065,-29.024440763333335,7.686198711333333,-33.3035151,-2.7858269213333333,-0.596004809,10.835027055666666,4.4727667460000005,1.2160739103333336,-3.9910948276666667
422,1.1721753333334466,-28.972405749999997,7.756076654,-33.29505666666667,-5.0845636526666675,-0.964483122,9.170869507666666,5.683611551666666,6.2254807156666665,4.624591032666667
423,1.1749530000000352,-28.908065793333336,7.770373662333333,-33.3238856,-0.4865526756666667,-0.4049172996666666,14.441024143333332,7.463360786333333,2.4021329479999998,-2.1859104833333336
424,1.1777306666667755,-28.852553049999997,7.8492897353333335,-33.323170966666666,-4.254100402333333,-0.5749592183333333,8.044750372333333,6.2165370793333325,7.629042785999999,4.311324278666667
425,1.1805083333333641,-28.81446520333333,7.872858206666666,-33.342592866666664,0.33291367666666666,-1.29119577,6.950797557666667,4.180298408,2.8500317333333336,-0.7010616116666668
426,1.1832860000001044,-28.768349963333335,7.9125275613333335,-33.3263677,-3.438403924333333,-1.233939866,13.785031003333332,4.856425205666667,2.6210025150000003,3.6647397676666666
427,1.186063666666693,-28.745069503333337,7.9471894899999995,-33.351506533333335,-2.075659156,-1.099587967,11.602911950000001,2.479317625333333,4.335098028333333,-0.6666916113333334
428,1.1888413333334333,-28.74050522,8.010637124666665,-33.35504913333334,-4.704421282,-1.2021862663333334,10.358146034,0.185549557,6.2571098009999995,2.9792388279999997
429,1.1916190000000217,-28.72292455,8.059969902,-33.38218943333334,-2.3424987296666666,-0.36335326966666665,9.586177666333334,1.837659120666667,5.9964846026666665,-0.06434722766666667
430,1.194396666666762,-28.70160866,8.149280230333334,-33.395131433333326,-3.320546667,-1.4926496546666665,7.7411023776666665,2.362132330666667,9.516795157333334,3.479741096666667
431,1.1971743333333507,-28.684608456666666,8.192154566666666,-33.40696460000001,-0.007409493000000082,-0.394170556,10.129587015666665,1.5698197683333335,4.439933697333333,1.1860586603333336
432,1.199952000000091,-28.67110443333333,8.250622589999999,-33.403905233333326,-3.6558670203333334,-0.9746815016666667,9.268432298999999,1.136798183,5.3559751513333325,3.3675079343333336
433,1.2027296666666798,-28.665646236666664,8.303147315999999,-33.403900166666666,-2.456581672,-1.2358104189999999,11.742271423333333,-0.01619671766666671,4.7882096370000005,2.9696333409999998
434,1.2055073333334196,-28.667629876666666,8.372448762333333,-33.41891986666667,-3.5479450226666667,-1.1134185243333334,14.642932573333335,-0.40948647266666666,7.531772532666666,2.0899764696666665
435,1.2082850000000083,-28.66948382,8.441782156666667,-33.437947599999994,-3.5798094273333336,-0.8595063186666666,8.142897129,-0.602327426,7.629055500000001,1.9369742473333336
436,1.2110626666667486,-28.694536843333335,8.503525257,-33.449824,-1.9251133603333335,-1.0443299113333333,7.286585648333333,-3.1878499193333334,6.552608330999999,2.015567104
437,1.2138403333333374,-28.700003306666662,8.547180811666665,-33.46800233333334,-0.7550512553333334,-1.520665288,8.403949420666667,-1.0155445336666666,4.878180027,0.5465265913333334
438,1.2166180000000775,-28.70921771,8.574644088666666,-33.47851816666667,-2.5183034143333334,-0.316594283,11.387821834999999,-1.3365294736666666,2.8612209209999997,0.18848649633333325
439,1.219395666666666,-28.72786013,8.619174480333333,-33.4775594,-3.5684897899999997,-1.363837441,12.88724772,-2.913708846,3.9058463179999996,2.552513947
440,1.2221733333334062,-28.73639234,8.64974308,-33.490028366666664,-1.8302973166666667,-0.499017528,8.409769058333334,-1.254397452,3.305508653,0.13073935099999998
441,1.2249509999999948,-28.755559286666667,8.668741226333333,-33.48542533333334,-3.045060674333333,-1.0639019410000001,10.596081097333334,-3.019273837666667,0.9932345549999999,1.4916834979999998
442,1.2277286666667349,-28.78422292,8.703937212666668,-33.50004576666667,-1.6266023716666667,-1.3835653066666669,5.6720368070000005,-3.6319620609999994,3.914526065333334,0.16558748466666665
443,1.2305063333333237,-28.813122429999996,8.695588747666667,-33.48172253333333,-1.5515886646666666,-1.278924187,7.330812771999999,-4.416620254666667,-2.6942973136666666,1.4052824753333333
444,1.233284000000064,-28.833555856666667,8.706380685333334,-33.498705533333336,-2.2060973250000004,-0.362318019,12.97813543,-2.579404712,1.4841570856666666,-1.467986025
445,1.2360616666666526,-28.84068044,8.729701519,-33.48769636666666,-3.6500674883333333,-1.0507277053333335,11.089162667666665,-1.7209906179999999,1.0638232916666668,2.4295146069999998
446,1.2388393333333925,-28.84955469666667,8.736844857333333,-33.5006358,-2.2821424406666666,-1.3700003326666668,12.305408157,-1.2453938623333334,0.8727409989999999,-1.2568521303333335
447,1.241617000000133,-28.827748616666668,8.759521166333334,-33.482058233333326,-3.2499748866666667,0.375651419,9.193353969333334,1.6068407893333332,0.5623562336666666,3.1588585373333338
448,1.2443946666667216,-28.8388443,8.753565311333332,-33.49295556666666,-1.2862656913333332,-1.7066866556666664,10.353862445333334,-1.529822876,-0.6228229203333333,-1.7887102366666667
449,1.247172333333462,-28.81841787,8.756231943666668,-33.46635693333333,-2.3746880293333334,-1.142773867,6.749003569333333,1.285489281,-1.9992254226666664,2.8117048743333335
450,1.2499500000000505,-28.821353913333336,8.730781078333333,-33.455637599999996,-2.0654793579999997,-1.3432651563333333,11.366801260333334,-0.9164986810000001,-3.909770170666666,-0.6389129656666667
451,1.2527276666667906,-28.821186703333336,8.742187977,-33.456881233333334,-2.4351799486666668,-1.3345037700000002,9.607115744666666,-0.6480229696666667,0.5154730479999999,0.40885442499999997
452,1.2555053333333792,-28.810165403333333,8.721534411333334,-33.44655356666667,-3.1802821159999994,-0.848513792,11.033855436666665,0.7444393283333334,-3.384789149,-0.4098747523333333
453,1.2582830000001197,-28.788560866666668,8.740929285333333,-33.455866500000006,-3.551219384,-1.5386778713333333,12.473042487333336,2.079692403333333,1.8133516310000004,0.03215012199999998
454,1.2610606666667084,-28.76927566333333,8.748003006,-33.45248923333333,-3.1579306126666666,-0.13804930433333332,9.123079140666666,1.8613950016666667,-0.06434285633333332,0.4609410166666666
455,1.2638383333334484,-28.75761159,8.745574792,-33.4657593,-1.5878195763333334,-1.789872527,8.407625358666666,0.9829677343333333,-0.26615333566666655,-1.618046959333333
456,1.266616000000037,-28.72114944333333,8.738191127666667,-33.45259349999999,-3.1164676346666664,-1.0784693953333333,9.205163159333333,3.7241005900000004,-2.147335310666666,0.6331710816666667
457,1.2693936666667773,-28.723677316666667,8.728343009666666,-33.453900633333326,-1.4730393586666668,-1.788352569,10.691136043333332,-0.8866964183333336,-1.7243246236666667,-0.7833558963333332
458,1.2721713333333657,-28.71137555333333,8.711231549666666,-33.452481600000006,-2.9078795910000004,-1.1338676213333334,6.947667519333334,1.014148732,-2.501272857,-1.157165752
459,1.274949000000106,-28.701086676666666,8.712896824,-33.44665016666667,-2.8949640593333332,-0.9862401086666667,13.572687783333334,0.5416087083333333,-0.936601241333333,0.6675539216666667
460,1.2777266666666947,-28.66958936,8.740250428333333,-33.45472466666667,-3.8042522670000003,-1.7811456123333336,12.832120419666667,3.449572006666667,2.7207647960000005,0.38995973766666664
461,1.280504333333435,-28.659186046666665,8.750262578666666,-33.44714606666667,-2.809871554333333,-1.1749157263333334,9.769855339666668,0.5266329446666665,-0.159166892,1.3317055403333333
462,1.2832820000000238,-28.637311300000004,8.791873296,-33.4661204,-3.5152860483333335,-0.7423300446666666,10.886261305,2.499846975,4.842426775333333,0.07123317333333334
463,1.2860596666667636,-28.631799060000002,8.806893189666667,-33.47168476666666,-1.6615156733333334,-2.195637623666667,8.689701876333332,0.18187391766666672,1.1403458316666668,0.20011121000000007
464,1.2888373333333523,-28.626332603333335,8.839651266666666,-33.4978663,-2.7589557966666667,-0.1546915766666667,7.138423760666666,0.684130748,4.315644264,-1.1798342466666665
465,1.2916150000000926,-28.630387626666664,8.858638762333333,-33.504575100000004,-2.131375591333333,-2.8916933536666662,9.570837974666667,-0.9364565413333334,1.6199560569999998,0.3303382346666667
466,1.2943926666666814,-28.618986766666666,8.908086617666667,-33.542709333333335,-1.9112024706666666,-1.4746032453333333,11.553762436666666,1.6299235423333334,6.761599459999999,-1.4773224793333333
467,1.2971703333334215,-28.626077653333336,8.924181938333334,-33.54638163333333,-3.441569408,-0.2047250743333333,11.063133875,-1.383719424,1.1503908786666666,0.4494658113333334
468,1.29994800000001,-28.63326899333333,8.986619631333333,-33.58187356666667,-3.5233174166666665,-3.0074750583333327,11.029919303666667,-0.6461276906666668,7.976445120666667,-0.4557071486666666
469,1.3027256666667502,-28.631284713333333,9.035061517666668,-33.59438576666667,-2.712296605,0.20177754266666667,8.928457578333333,-0.1317169566666667,5.061035951,1.3827888373333332
470,1.3055033333333388,-28.648347853333334,9.081572533333334,-33.623560600000005,-1.3377713906666668,-1.983539859333333,5.367598971666666,-1.9102842806666667,5.936125278333333,-0.694722116
471,1.3082810000000789,-28.635945636666666,9.124139784333332,-33.63655850000001,-2.0055849056666664,-1.3180161416666667,10.238764442999999,1.13374567,4.467130939333334,0.9989807383333332
472,1.3110586666666677,-28.643095653333333,9.178571064333333,-33.63810473333333,-1.7456678300000001,-1.1297489803333332,10.092270376,-1.2267427443333334,5.205316623333333,2.645609081
473,1.313836333333408,-28.647821426666667,9.203618048333334,-33.6525065,-2.9323536653333337,-1.8205146293333334,11.111016751333333,-0.8913155793333333,2.72179844,-0.18697539966666663
474,1.3166139999999966,-28.669034956666668,9.271687824,-33.672597233333335,-3.5097434523333333,-2.2879798013333335,11.403397401333335,-2.573974569666667,7.68967978,1.497275948333333
475,1.3193916666667365,-28.66288948,9.351278942,-33.698595700000006,-4.0110266606666665,-0.352413997,13.531021912666667,0.6180885136666666,9.119141898666667,1.738468051
476,1.3221693333333253,-28.6923364,9.403480846333332,-33.72466790000001,-0.929363956,-1.780011813,6.565474193,-3.4142624633333334,6.357206662666667,-0.02532819933333332
477,1.3249470000000656,-28.685600283333333,9.46242555,-33.74247233333333,-2.7660469563333336,-0.9048026203333333,10.213090261,0.5505908780000001,6.484047651,1.4027124643333335
478,1.327724666666654,-28.729667663333334,9.496624946333332,-33.75564573333333,-0.40570886933333333,-2.206837535,7.237095910666667,-5.411417245666667,3.7275630436666667,0.2902349036666667
479,1.3305023333333945,-28.74572563,9.512300810333334,-33.7680715,-3.2566980920000006,-1.4535166026666666,12.737502731333334,-2.293737603,1.613167525666667,-0.508600513
480,1.3332800000001346,-28.783799490000003,9.560498874333332,-33.779835999999996,-3.4470205306666664,-1.7348101536666667,10.581269899333334,-4.732029438333334,5.121421496,1.2421324003333334
481,1.3360576666667232,-28.793481189999998,9.614501318,-33.7919642,-4.145950317333333,-1.0483810503333333,10.795251608666666,-1.5324699083333335,5.6301547303333335,1.7267239493333333
482,1.3388353333334637,-28.822831473333334,9.654399553666666,-33.81377156666667,-1.5105106433333333,-1.4224691790000001,7.936968325,-3.4902810256666665,4.821081161666666,-0.291195425
483,1.3416130000000521,-28.823322293333334,9.689991315333335,-33.82420346666666,-3.4745376106666668,-0.645567283,12.005876061666667,-0.4439715246666666,3.6023603676666665,0.8351735973333333
484,1.3443906666667924,-28.86807123666667,9.740538913666667,-33.829266833333335,-1.8251030046666668,-2.9578693709999997,4.671293955,-5.658573786333332,4.986742019666667,2.071764951
485,1.347168333333381,-28.866580326666668,9.747431121,-33.8394038,-1.5853066446666666,0.07701036833333334,10.114180561666666,-0.190552826,0.5843246379999999,-0.81182605
486,1.3499460000001215,-28.87963231333333,9.793982189333333,-33.831909166666655,-3.032459537333333,-1.695110320666667,10.921112061666667,-2.1084914603333336,3.845742543666667,3.153731545
487,1.3527236666667097,-28.85228920333333,9.818893115666667,-33.83633423333333,-2.5769601859999995,-1.374518474,11.746107261,2.7729331653333333,2.129332781,0.8504566549999999
488,1.35550133333345,-28.834991456666668,9.871207873000001,-33.819252033333335,-3.103141308,-0.9392719863333333,11.968721706333334,1.3147402579999998,3.9099533956666668,4.458789507666666
489,1.3582790000000386,-28.803895949999998,9.895120622,-33.83206433333333,-3.0616608063333337,-1.2687246203333333,10.510955334,3.413681666,2.5195659,-0.09411954666666665
490,1.361056666666779,-28.775131860000002,9.954549788000001,-33.81011710000001,-2.553781549,-2.671421687,8.926474252666667,2.586495638,4.3801243303333335,5.372547944666667
491,1.3638343333333678,-28.71333313,10.001202265000002,-33.82719673333333,-1.848968188,1.126083682,11.972272556,7.1726222019999994,5.164871773666667,0.7334167286666666
492,1.3666120000001076,-28.679045993333332,10.032264074666665,-33.79196676666667,-2.3114529453333335,-2.4306596516666668,5.707343639333334,2.997425258333333,0.6439037920000003,5.133208433666667
493,1.3693896666666963,-28.595783866666665,10.081761997333333,-33.8067449,-1.83705612,-1.0191616813333333,10.329730985333333,9.710695583666668,5.337760408,1.1277096866666667
494,1.3721673333334365,-28.528424579999996,10.125524204333333,-33.777992233333336,-2.1072260936666667,-0.3294533143333333,7.472517808,7.080709616333333,2.3618971510000004,5.177358468333334
495,1.3749450000000254,-28.410049436666668,10.173101425333334,-33.78843943333333,-2.7000024320000002,-2.002518713,11.860156694666665,13.85493088,4.913089047,1.4229649503333333
496,1.3777226666667655,-28.289743426666664,10.267411866333333,-33.775151599999994,-4.395164251333334,-0.7104175186666667,12.277359327333334,13.750784553333332,8.588746230666667,6.445004622333333
497,1.380500333333354,-28.154717763333338,10.380016010666667,-33.79861960000001,-3.231098334,0.05334353466666667,7.638385613666667,16.134214086666667,12.519062199000002,3.7317185006666667
498,1.3832780000000942,-27.981332143333333,10.517790792333333,-33.813517233333336,-2.8699373403333333,-0.9613921940000001,12.202523549333334,20.72388712333333,14.790858266666666,5.918313185
499,1.3860556666666828,-27.76420466,10.676242513666667,-33.82373556666666,-4.540731588666667,-0.168421815,9.425733725666667,25.71408780333333,16.685239793333334,7.570951938333333
500,1.388833333333423,-27.51832644,10.871604919666666,-33.835858633333324,-2.6167650223333334,-0.535070136,6.013450781333333,29.371925353333335,20.810323713333332,9.297385533666667
501,1.3916110000000117,-27.216687520000004,11.062742549999998,-33.839492799999995,-2.8228129546666665,-0.7001818366666667,12.377270063333333,35.755060830000005,19.916627246666664,9.855280874666667
502,1.394388666666752,-26.874436696666667,11.28813489333333,-33.84265393333334,-3.1820708910000004,-0.048268844666666665,7.144426504999999,40.71007410666667,23.632919310000002,11.63501676
503,1.3971663333333406,-26.48038037666667,11.51532618,-33.81718443333333,-2.9725822606666665,-0.1894471446666667,11.271635374333334,46.19890848666666,22.39685631,14.569108643333335
504,1.3999440000000807,-26.064226783333336,11.803658486666668,-33.825874299999995,-3.004926999333333,-1.0914849439999998,5.399439573333333,49.71065521333333,30.85424041666667,14.054681780000001
505,1.4027216666666693,-25.562505086666665,12.077551206666667,-33.791399633333334,-2.6893832683333336,0.3879918256666666,11.002396266333333,58.85823440666667,27.208047233333332,17.591520310000003
506,1.4054993333334096,-25.044438680000003,12.396415390000001,-33.793546033333335,-3.757131894333334,0.228227496,7.549776713333333,61.81086349333333,34.073898953333334,15.812709490000001
507,1.4082769999999982,-24.438077293333333,12.754902203333335,-33.7576472,-2.771624485666667,-1.1528519590000001,7.947707493666667,71.32874298,36.72743225,21.35342470666667
508,1.4110546666667385,-23.815692263333332,13.130832673333336,-33.7628784,-3.5903091430000003,0.3804733706666667,10.087725957666665,74.43303171666666,40.791357676666664,17.593795776666667
509,1.4138323333333271,-23.107472103333336,13.559136706666665,-33.7222875,-3.1366727353333332,-0.5139772396666666,8.882232666,83.36788431666666,44.682328543333334,24.302187603333333
510,1.4166100000000672,-22.38147481333333,14.007744153333334,-33.72998046666667,-3.4013746183333335,0.052017853,10.459700267666667,86.93758392333332,49.36708959,19.69438108
511,1.4193876666666558,-21.591679893333335,14.491710663333334,-33.68362426666666,-3.2965716519999995,-0.766461293,7.505807560000001,92.96010081000001,51.27910741333333,26.18883768666667
512,1.4221653333333961,-20.759038926666666,15.006967859999998,-33.68541463333333,-3.0770314533333334,0.25284636,10.393766401333332,99.53549701666667,57.10581334333333,21.80012766333333
513,1.4249429999999847,-19.881013233333334,15.530239739999999,-33.621233600000004,-2.7292041776666665,-0.9766047596666665,9.290628908666667,102.93851216666667,55.77354812666667,28.182462053333335
514,1.427720666666725,-18.971888223333334,16.060742696666665,-33.6133906,-2.0413320660000003,-0.057587643333333306,10.49930938,108.37015276666666,59.10851160666666,21.659835816666668
515,1.4304983333334655,-18.006556826666667,16.610964140000004,-33.51365916666666,-3.9129593373333336,-1.3509981036666667,9.602703730333333,112.1019923,58.43261845666666,31.238030749999997
516,1.4332760000000537,-17.01060295,17.146368663333334,-33.460484799999996,-1.3415125606666667,0.06066224933333331,12.969951946666667,117.2546463,58.81943639,24.808567683333333
517,1.436053666666794,-15.976662636666667,17.688129426666666,-33.32592773333333,-3.315968752,-1.3266669313333335,5.610057036000001,118.82604473333333,57.406764983333325,32.60682360333333
518,1.4388313333333826,-14.891459146666667,18.192923866666664,-33.22798156666667,-1.0144315563333333,0.051267286,14.050491016666667,126.20525103333334,54.79784012,26.577692033333335
519,1.441609000000123,-13.762821196666666,18.70996157333333,-33.04156236666666,-4.185123284666667,-1.0154749563333334,6.9041152,127.9350637,54.28564580333333,35.30394744666666
520,1.4443866666667118,-12.592024486666666,19.18929863,-32.8991877,-0.9957523146666668,-0.0844669343333333,12.738906223333332,134.53447976666666,51.7129453,28.520385106666666
521,1.4471643333334516,-11.37597402,19.662986753333332,-32.68340553333333,-2.8733347256666666,-0.945316424,7.215710559999999,136.92711893333333,49.945321400000005,35.10916900666667
522,1.4499420000000403,-10.105239868333333,20.096480686666666,-32.4926809,-1.6506525673333332,0.0314715503333333,14.00785764,144.31117756666666,46.48194376666667,30.53217125
523,1.4527196666667805,-8.797369639333333,20.52831332,-32.22982786666666,-3.332622687,-1.2159691256666665,7.360753217999999,145.57225543333334,45.653054553333334,37.12798436333333
524,1.4554973333333694,-7.442933877333334,20.91655032,-31.992245999999994,-0.5532828966666666,-0.6053353846666667,11.641842365333334,152.06329346666666,41.74975840333333,32.67466036333334
525,1.4582750000001095,-6.057129541666666,21.276367186666665,-31.710032166666664,-1.9632905723333334,-0.8365888396666668,6.655553896333333,153.60275776666666,38.52523040666667,36.06034088333334
526,1.461052666666698,-4.608824650333333,21.587008156666666,-31.428578700000003,-0.9782216496666667,-0.891214669,13.585321268333333,161.04226176666666,33.58008003333333,34.46874364333333
527,1.4638303333334381,-3.141026258666667,21.895490013333333,-151.11688233333334,-3.3679053783333335,-2.0156463783333334,10.923032441000002,161.79951476666668,33.94632339666666,36.75565338
528,1.4666080000000268,-1.6570426626666663,22.14407285,-150.81105806666667,-0.397841216,0.29245383033333333,12.624691647333334,163.94210816666666,27.773351666666667,34.96715164333334
529,1.469385666666767,-0.165037036,22.37691243333333,-150.5075455,-2.4086085156666663,-3.287830591,8.827388762666667,164.74005636666666,26.761371613333335,33.710032143333336
530,1.4721633333333557,1.3596137959999999,22.54333051,-150.19174706666666,-1.4320476450000001,-0.1414724686666667,14.959881463333332,168.08476766666666,19.720803576666665,34.536004383333335
531,1.474941000000096,2.8533315656666667,22.71586926666667,-149.8915405333333,-3.391372958666667,-2.499934753,9.079861163666667,164.88978066666667,21.27463022666667,32.03462728
532,1.4777186666666846,4.360367536666667,22.80349096,-149.57953896666666,-0.37496344266666676,-2.0301574466666668,13.356056850000002,165.95577496666667,12.064084686666666,33.49639384
533,1.4804963333334247,5.8147826196666665,22.897157033333333,-149.30049386666667,-2.221929053333333,-2.23542881,10.981032054333333,161.05263773333334,13.293639820666668,29.33959007333333
534,1.4832740000000133,7.235749880666667,22.86870002666667,-149.00846353333333,-0.18390051533333343,-3.2390906016666663,8.599577905333334,156.47930906666667,-0.3361552543333328,32.18589464666666
535,1.4860516666667536,8.621234258,22.87728627333333,-148.75928496666668,-2.5537439186666666,-2.8713699976666667,18.936704316666667,154.12161763333333,4.199522176333335,26.820438386666666
536,1.4888293333333422,9.942214013666666,22.786919276666666,-148.50088243333332,-2.1784094966666667,-2.5077349346666664,12.761280059999999,146.07412209999998,-6.7090126193333335,29.63948249666667
537,1.4916070000000825,11.196677526666667,22.690848666666668,-148.28161623333332,-1.9161306223333334,-3.2695575556666667,12.784070653333336,139.89550783333334,-7.501544634666668,25.614074706666667
538,1.4943846666666711,12.407449086666666,22.513219196666665,-148.07120260000002,1.0526386896666666,-3.7685832186666666,12.367895763333335,135.1630554333333,-16.711012204333333,26.80758413
539,1.4971623333334112,13.476768493333333,22.291858676666664,-147.9416224,-3.1770196556666668,-3.9635727406666668,16.73724143,121.9016393,-23.29808616566667,19.6570371
540,1.4999399999999998,14.501522383333333,22.106321973333333,-147.76689403333333,-2.9535343646666665,-3.565726280333333,12.949507394333333,114.69032033333333,-17.525386334333334,23.84006945333333
541,1.5027176666667401,15.403792379999999,21.890000663333335,-147.69359076666666,-1.4665190083333333,-3.3039491176666664,4.271139553333334,104.4777298,-23.59598096666667,14.219245593333333
542,1.5054953333333287,16.22370338,21.638020196666663,-147.58537546666668,-3.7028282086666664,-4.659467538,12.384444552666665,93.13823954000001,-26.431537629999998,19.549570720000002
543,1.508273000000069,16.984225589999998,21.473842623333336,-147.56589003333332,-2.4366518256666665,-4.362463871666667,18.497682253333334,89.99143219,-18.863972027333332,7.343285878333333
544,1.5110506666666577,17.62451744,21.2716643,-147.48242696666668,-3.8404534656666662,-3.4264757636666663,12.997025807333335,72.7244339,-21.01146857,15.785279273333336
545,1.5138283333333977,18.14403025333333,21.090825396666663,-147.50563556666665,-0.20038883866666665,-4.422317346,13.931961693333333,62.90892791666666,-22.06099319333333,3.8743430773333336
546,1.5166059999999864,18.586951573333334,20.946116763333336,-147.41751353333333,-6.338089307,-4.973952055,15.497387093999999,48.94347763,-13.998301507333332,14.495078083333333
547,1.5193836666667266,18.886297226666667,20.81911087,-147.40662129999998,-1.8649672073333334,-3.538431167666667,8.925987561666666,35.03956858,-14.638160390000001,5.739272833
548,1.522161333333467,19.115802763333335,20.729238506666665,-147.30639393333334,-2.7168826263333337,-4.839767694333333,1.5354918043333334,22.83726311,-7.163111847,13.79450957
549,1.5249390000000556,19.27305031,20.66116651,-147.2780711,-4.216718038,-3.1931002933333335,16.380542279333337,17.25061639,-7.272046328000001,5.390214284
550,1.5277166666667956,19.407276789999997,20.63658015,-147.1586176666667,-0.8131997186666666,-2.1597939729999998,10.479218958666667,10.665658316666667,1.0452903126666666,13.263043723333332
551,1.5304943333333842,19.418040593333334,20.560880663333332,-147.1385498,-1.6283995063333334,-4.315533082000001,13.798653600000002,-0.03882761833333337,-8.435229300000001,4.849872906666667
552,1.5332720000001245,19.399436316666666,20.59905815,-147.00687663333335,-4.9671607810000005,-3.631906668333333,19.354475976666667,-8.139951706,8.620245616666667,12.101557730000001
553,1.5360496666667134,19.270334876666666,20.609745659999998,-146.9202423,0.4081989923333336,-2.420745174,2.665478983666666,-19.701063790000003,3.8920282013333325,8.614503542666666
554,1.5388273333334535,19.09382248,20.655153273333333,-146.80879976666665,-5.590719888333333,-3.602278073666667,6.416317264333333,-26.303723650000006,8.636158306333334,9.736324311666666
555,1.541605000000042,18.94427872,20.746561686666666,-146.6878077,-1.0541383423333333,-0.5484365023333334,11.062170664666667,-23.48902257333333,14.245636940666666,9.06756131
556,1.5443826666667821,18.78705279,20.789585113333334,-146.570549,-3.4296528496666667,-1.3331120016666669,9.947847843666667,-24.341208140000003,8.507036051333333,10.441884042333333
557,1.5471603333333708,18.61289533,20.856669743333335,-146.45107776666666,0.4206436473333333,-1.3731878596666667,14.65603892,-26.43753751,11.390873588666665,10.013979435333333
558,1.549938000000111,18.426941553333332,20.969745,-146.3219808,-4.376443227333334,-0.8603827059999999,10.251179057333333,-28.26350085,16.837446690666667,9.074632804333334
559,1.5527156666666997,18.2534256,20.988708493333334,-146.21215056666665,2.216747761,-1.3731373213333333,6.8422827716666665,-26.039108913333333,5.48397696,10.797957259333332
560,1.55549333333344,18.093822480000004,21.088145573333332,-146.10483553333333,-6.3265988926666665,-0.306470285,11.344029106999999,-24.20780945,14.460556663333334,7.3889137903333335
561,1.5582710000000286,17.989112216666665,21.15819168333333,-145.97779846666666,-0.809827437,-0.7829107743333333,11.145862897,-18.484898886666667,11.862929183666667,10.794045607666666
562,1.5610486666667687,17.896193823333334,21.265082676666665,-145.8642171,-2.260387539666667,-0.44726896766666663,8.858414171333335,-16.553199133333333,15.48570442,7.791721980999999
563,1.5638263333333573,17.81970342,21.280228933333333,-145.77149963333332,-0.38687785466666674,-0.13903670999999998,8.549502849333335,-13.691682496666667,4.378634831666667,9.215923152666667
564,1.5666040000000976,17.779558180000002,21.385658266666667,-145.66184743333335,-5.130024591666667,-0.927095607,11.316246509666668,-10.032799719,15.164653142333334,7.479807216333334
565,1.5693816666666862,17.780694326666666,21.425371803333334,-145.5517807,-0.5529774029999999,-1.0957705143333334,5.715911865333333,-5.117127418666667,7.774054764,10.156460604333333
566,1.5721593333334265,17.822351456666667,21.494955700000002,-145.46163176666667,-2.757161667,0.9403284126666667,7.368135213666666,0.553079764,10.390002567333333,6.691297848666667
567,1.5749370000000151,17.897701899999998,21.487417856666667,-145.37573753333334,-1.1980997816666668,-0.3408179356666667,10.839778264333333,4.81094718,1.5559284986666666,9.312256337333332
568,1.5777146666667552,18.006540936666667,21.56200790666667,-145.27493030000002,-3.667245865,-1.7102783916666668,10.515110334333334,8.18100516,11.351518633666666,7.6191134436666665
569,1.5804923333333438,18.14834276666667,21.553014123333337,-145.20104469999998,-1.4370486736666666,0.8932440680000001,14.220089596666668,13.305253663333334,1.0126843849999998,8.078787724333333
570,1.583270000000084,18.33651479,21.610086443333334,-145.1118037,-3.709193627,-0.7317433156666667,6.854226430333333,18.191162746666667,8.986146927333333,6.970323563
571,1.5860476666666727,18.52424558,21.54046503666667,-145.06332650000002,3.5220135053333337,-1.0090007533333332,5.512086312,19.92233912,-6.7272155279999994,7.690477292333333
572,1.588825333333413,18.720450083333333,21.51664288666667,-145.05534106666667,-4.413377742000001,-0.6248985566666666,14.968482020000001,22.701637270000003,-3.066319704,1.4220395086666666
573,1.5916030000000017,18.969583510000003,21.43025207333333,-145.0001297,-2.020935058666667,-0.548485145,12.391220093333333,27.072650273333334,-8.323762972333334,9.099878549
574,1.5943806666667417,19.19093323,21.378691356666668,-145.02972413333333,-2.748404860666667,-1.237290620666667,8.533630212,27.385713576666664,-7.563589414,-1.4384836353333332
575,1.5971583333333303,19.44037755333333,21.24735705,-144.97887676666667,0.6888526279999997,-1.2392084996666668,4.895386219,27.285279590000002,-13.491474466999998,10.491688889
576,1.5999360000000706,19.65830739333333,21.14780044666667,-145.0677261333333,-2.2942926486666666,-1.006567816,10.172627449666667,29.505491890000002,-15.224367139666667,-5.705590764666667
577,1.6027136666666593,19.93898964,20.97181638,-145.00818379999998,-3.5849170286666663,-0.8554632066666666,16.10470549,30.72763061666667,-18.1398379,13.277870495666667
578,1.6054913333333996,20.165959676666663,20.88435491,-145.11291503333334,-2.4898982839999997,-0.9931295616666667,11.792344569666668,31.28836187,-14.509656586666665,-7.756626446666668
579,1.6082689999999882,20.421877543333334,20.711778643333336,-145.05597176666666,-2.904784163,-2.389919916666667,9.854474545333332,27.84417979,-17.71774864,13.074458440333332
580,1.6110466666667282,20.628532406666668,20.605695086666667,-145.18253326666664,-0.262111038,-0.7139661113333333,9.033881187666667,29.70626640333333,-17.529942513333335,-9.187306564666669
581,1.6138243333334685,20.842231116666667,20.405702593333334,-145.1484197,-3.4492485523333336,-2.369981050333333,10.793638866,23.739533106666666,-21.599748293333334,11.987640696666666
582,1.6166020000000574,20.99594943,20.284802753333334,-145.30820210000002,-1.4529408416666667,-2.247857829,13.921123186666668,24.689846673333335,-20.58686447,-11.934597653333334
583,1.6193796666667974,21.18148358666667,20.13074112,-145.2711461333333,-6.619015852333334,-0.5501097143333333,11.488875072333334,20.27791214,-16.26591333,10.443174680666667
584,1.622157333333386,21.293316523333335,20.03624916,-145.41840616666667,-1.4540984826666665,-2.635972142,10.946694376333333,19.08944448,-17.188247043333334,-11.679373422333335
585,1.6249350000001261,21.460510253333336,19.94435247,-145.3646952,-4.480704893666667,-1.976488965,5.260244369333333,17.407621066666668,-8.573700268666668,9.555762132666667
586,1.6277126666667148,21.536460876666666,19.854297003333333,-145.5043971,1.1892143883333333,-1.3699950676666666,8.69089349,14.380047796666666,-16.442573228666667,-11.017482121
587,1.630490333333455,21.66123835666667,19.791835146666667,-145.4593353,-5.33284682,-2.040373246,11.495375316666667,12.654047012,-5.608375470666666,7.398055712000001
588,1.6332680000000437,21.728012086666666,19.755653383333335,-145.5612818333333,-2.422111928,-1.244614919,15.177588783333334,11.764360426666665,-8.891155084666666,-9.383119743
589,1.636045666666784,21.818461736666666,19.75991758,-145.52249906666665,-5.545626004333332,-1.3588569860000002,12.719173749000001,8.815375010333334,1.573951562333333,3.7520165543333337
590,1.6388233333333726,21.879845936666666,19.778397876666666,-145.58586373333333,-2.357415199666667,-1.6886648610000001,8.340813319,9.568083764333332,-1.2033483759999999,-7.770796459666666
591,1.6416010000001127,21.928838096666667,19.774360660000003,-145.56731416666665,-0.5461682480000002,-1.633140529,7.283986807999999,4.6052730083333335,-0.1999829609999999,1.9895220200000001
592,1.6443786666667013,21.931889220000002,19.780768076666668,-145.6319758,-1.5946697793333335,-1.931390859333333,8.690089861666666,2.6196882726666666,-2.614124879333333,-7.354616722666667
593,1.6471563333334416,21.953395846666666,19.792130153333332,-145.62221273333333,-2.1229427656666666,-1.412022531,13.924663860333334,1.696614305,1.1512055396666663,0.4003640809999999
594,1.6499340000000302,21.941190716666668,19.815673829999998,-145.65892536666667,-4.647265277,-1.4446866013333333,13.736861863333331,-0.3228034126666666,0.47684744033333337,-5.192292452666667
595,1.6527116666667705,21.938796996666667,19.847331996666668,-145.64784493333332,-0.4995423950000002,-1.5851727923333334,6.227653662333334,-1.1771920519999999,3.4363379486666665,-0.47342348066666684
596,1.6554893333333591,21.91025098,19.8385423,-145.69016266666665,-2.851871897666667,-1.1150656143333333,8.057510536,-2.111791412,-3.3685922623333346,-4.334860345
597,1.6582670000000992,21.89598719,19.815265656666668,-145.69026440000002,-1.3505773146666666,-0.9878187280000001,12.613536836666668,-2.179259260333333,-3.137381077,0.8648132880000002
598,1.6610446666666878,21.867862063333334,19.827389399999998,-145.71443433333334,-4.955924590333333,-1.5614817143333333,10.982116698666667,-2.7505802986666663,-0.26938064899999997,-3.361283784333333
599,1.663822333333428,21.838404336666667,19.836453753333334,-145.71717326666666,-2.237644513333333,-1.029262324,14.715424220000001,-3.8571712176666666,0.34043018033333344,-0.8843443393333333
600,1.6666000000000167,21.815333683333336,19.859588623333334,-145.7215576,-3.6518814563333337,-0.24814679233333334,9.356937568666666,-2.955058972,1.788019021333333,-1.796471203
601,1.669377666666757,21.77513122666667,19.894922253333334,-145.72835543333335,-0.9916387400000003,-2.181887865,6.0904852546666675,-4.975744486,3.097085456,-2.4957271416666664
602,1.6721553333333457,21.72991561666667,19.89301554333333,-145.75128936666667,-1.5129353006666666,-1.0983451803333333,9.216977915,-4.902427832333333,-1.7838223776666666,-2.6271712333333332
603,1.6749330000000857,21.692608516666667,19.930376053333333,-145.76428986666664,-3.5008871953333336,-1.257178694,12.541744233333333,-4.400223086666666,3.0957709946666667,-3.1573003926666665
604,1.6777106666666743,21.65596771,19.960171380000002,-145.75851436666667,-3.4104833603333327,-1.056049883,12.898348810000002,-5.008863846666666,2.9569497903333333,-1.0033951600000002
605,1.6804883333334146,21.618565876666665,20.037714003333335,-145.77540586666666,-5.028131206666667,-0.9548746343333333,14.449302356666669,-4.257607062666667,7.4295080103333335,-5.315155784333334
606,1.6832660000000033,21.603655496666665,20.105457943333334,-145.72365063333334,-1.885499219,-0.41680081199999996,6.041300773666666,-4.275751034333333,9.103108803333333,2.1224984326666667
607,1.6860436666667435,21.55551592666667,20.17522621,-145.76945496666667,-2.069290086666667,-1.4109698386666667,8.105871359333333,-4.37094148,5.359407663666666,-8.004158814
608,1.6888213333333322,21.534270603333336,20.23089281333333,-145.71400703333333,-1.4394205213333333,-0.74453184,6.032841284,-5.229270697,7.896899382333333,3.0444063346666663
609,1.6915990000000722,21.483311336666663,20.30125745333333,-145.78317516666667,-1.4358121556666668,-0.9769076106666666,9.956648827333334,-3.7125790120000004,4.474239349333334,-10.459591547333334
610,1.6943766666666609,21.48646863333333,20.341985703333332,-145.7110977,-4.2001588346666665,-1.3320428206666668,15.267026586666667,-3.0132845639999997,6.907310725333335,5.459636410333334
611,1.6971543333334014,21.44809214333333,20.424504596666665,-145.79535676666666,-0.4157569906666667,-0.7155347316666666,12.331553460333334,-1.505063017333333,5.219773053999999,-12.585138958000002
612,1.6999319999999898,21.465618133333333,20.47814751,-145.7310842,-5.212888558666666,-0.7027810413333334,13.31763331,-0.990412886,8.01901865,4.063993215666666
613,1.70270966666673,21.433526356666665,20.545146943333336,-145.79098513333332,-0.029550691333333285,-0.18948195166666668,10.627415976333333,-1.7229803403333337,4.469577889000001,-9.427568117
614,1.7054873333333187,21.425064723333332,20.599706013333332,-145.75344846666667,-4.496940771666666,-1.749643743,5.348156054666667,-3.0020954673333335,7.017340023999999,1.2226230003333334
615,1.7082650000000588,21.380713146666665,20.639978406666668,-145.81420390000002,0.15795427566666662,-1.4843165276666668,10.249938327666667,-3.1741331023333337,1.4531336226666667,-8.329536914666667
616,1.711042666666799,21.37274487666667,20.661376316666665,-145.8003972333333,-4.565259138666668,-1.4234822593333334,12.224014603333332,-1.9554078199999998,2.3353224596666666,0.19150058333333334
617,1.7138203333333877,21.337631223333332,20.705827076666665,-145.84516906666667,-2.192535201333333,-0.5038595236666666,13.141908963333334,-2.709790110666667,2.594256997,-6.806206703333333
618,1.716598000000128,21.315258663333335,20.75364876,-145.81685893333335,-4.394423405333334,-0.993298302,12.468262673333333,-4.280642469666667,5.884644508666667,0.554590921
619,1.7193756666667166,21.275461196666665,20.840552650000003,-145.84294893333333,-3.1123714843333334,-0.8797454723333332,8.822091737000001,-4.024245123,8.099808218,-6.7303983370000005
620,1.7221533333334567,21.22694778,20.905006410000002,-145.79889933333334,-4.685776233666666,-1.617819945,10.072206815333333,-8.138565381333335,8.375219821333333,1.481420795
621,1.7249310000000453,21.158856073333336,21.001740773333335,-145.8292618,0.3442376850000001,-1.1776356946666666,5.441189686333334,-7.2378233273333334,9.057386795666668,-7.5547574363333325
622,1.7277086666667856,21.11115709666667,21.072928743333332,-145.79925536666667,-3.907108664666666,-1.0938466293333333,9.965023038,-7.485154788,8.545683066666667,-0.26921844466666656
623,1.7304863333333742,21.04381561,21.16104062333333,-145.81225836666667,-0.23075517033333348,-0.643731867,12.434945424,-7.879767695666668,8.817441462333333,-5.320640880666667
624,1.7332640000001145,20.97606150333333,21.254053116666668,-145.80094403333334,-4.730166246333334,-1.0634171566666666,9.215725423,-9.049127103333333,10.253683725,-3.1249758403333328
625,1.7360416666667031,20.90335719,21.338232680000004,-145.79591623333332,-1.3007282316666666,-1.1555520546666667,11.994862240000002,-9.275001843,9.047730762666667,-3.3732077730000003
626,1.7388193333334432,20.853756586666666,21.4097112,-145.80422463333332,-3.0518958566666665,-0.40159283066666657,13.514656066666667,-6.027560631666667,7.053410782,-4.254419127999999
627,1.7415970000000318,20.79342015666667,21.478017806666667,-145.79203796666667,-2.6515457433333336,-1.4059757193333333,11.180307705333334,-8.151714007333334,7.6397751173333335,-1.736730963
628,1.744374666666772,20.715634663333333,21.544462199999998,-145.80754343333334,-2.1129415533333336,0.23729697833333332,8.783740361333335,-9.094549497000001,6.211551727,-4.781081227
629,1.7471523333333607,20.645661673333333,21.594390236666666,-145.8154119,-2.238899946333333,-1.3819668493333335,7.989141306333333,-8.429910341666668,4.784351031,-3.041852633
630,1.749930000000101,20.55203247,21.616318386666666,-145.85987599999999,-2.462371031333334,-1.1773532033333334,12.414501191333335,-9.748660088000001,0.0843008756666667,-5.908590078666666
631,1.7527076666666896,20.467458726666667,21.675827026666667,-145.8584187666667,-2.0387901266666666,-0.9209611713333334,9.678528624333333,-10.553075154666667,6.231329916666667,-2.4712228279999997
632,1.7554853333334297,20.340908053333333,21.708629610000003,-145.91807046666668,-2.446633021,-0.7858415493333334,9.780967395666666,-13.021955173333334,0.7376771770000001,-7.939474982
633,1.7582630000000183,20.248844146666666,21.763464613333337,-145.89894866666666,-4.919336319,-1.9705328146666667,11.257607776666667,-12.23914782,6.370657603000001,-0.46156835533333346
634,1.7610406666667586,20.14084498,21.842784246666668,-145.94944253333333,-2.04097416,0.35921713499999997,12.787151973333332,-11.144610402333333,6.367422580666667,-8.884427389
635,1.7638183333333473,20.045969009999997,21.922524133333336,-145.93233743333334,-4.962593237666667,-0.8107788363333333,12.915994008666667,-12.535651523666667,9.106319109333333,-1.6527588166666665
636,1.7665960000000875,19.9470857,22.057905833333333,-145.94305926666667,-4.076569159999999,-1.0282109179999999,7.603021542333334,-11.782058079999999,14.239135422333334,-6.988813241
637,1.7693736666666762,19.85364278,22.167160033333335,-145.9403585,-2.773825725,0.2563107806666667,10.124642691333333,-11.746726670666666,11.895149072333334,-4.323658784333333
638,1.7721513333334162,19.797467549999997,22.317595803333337,-145.9521103,-3.876529931666667,-0.520121177,10.583473523333334,-6.621495565,15.918310167333336,-7.677024523333333
639,1.7749290000000049,19.745915096666668,22.480427426666665,-145.93082683333333,-3.044560234,-0.3447154736666666,9.273609638333333,-7.540970166666667,18.64855671,-4.549157778333334
640,1.7777066666667451,19.673315683333332,22.602223076666665,-145.95998383333333,-2.146969537,-0.358728151,8.674143870666667,-7.817645708333334,12.045212110333333,-8.291347185666668
641,1.7804843333333338,19.65558688,22.77511088,-145.93897756666667,-2.4772674243333332,-1.3884287873333332,5.576123476,-3.483298142666667,19.792608896666668,-4.9256529806666665
642,1.783262000000074,19.613682429999997,22.89197095333333,-145.9773,-1.4784622143333335,0.028578341000000007,11.0897061,-3.6980814140000002,11.157712617,-9.022744019666666
643,1.7860396666666627,19.60123125666667,23.028949100000002,-145.97152713333335,-2.764399051666667,-0.5667595663333334,9.482559363666667,-2.153359731,15.165675479999999,-5.06089592
644,1.7888173333334028,19.593862533333333,23.13943036666667,-145.99757386666667,-2.170051813,-0.950737218,10.305685998,-0.09654428066666661,10.901390394666668,-7.472834269333333
645,1.7915949999999914,19.59501012,23.259207410000002,-145.99503073333332,-2.639724016,-0.525846394,12.661963779999999,-0.360268513,13.099586806666666,-4.707513014333333
646,1.7943726666667317,19.599862416666667,23.353799183333333,-146.02394103333333,-2.9000142216666664,-0.6225598653333332,10.172136623,1.5246489543333333,8.999661445666666,-7.132011970000001
647,1.7971503333333203,19.620045346666668,23.43636322,-146.00982409999997,-3.1115060650000004,-1.5153242153333333,12.756900786666668,1.3538447223333332,9.332176526666666,-1.981995821
648,1.7999280000000606,19.622308096666668,23.540395736666667,-146.03068286666667,-3.3289934396666667,-0.1738535563333333,8.269720076,0.8571504750000001,10.365446644666667,-6.672628243666666
649,1.8027056666668007,19.62970797,23.597456613333332,-146.01662953333332,-2.1061873436666665,-1.6077414753333332,12.737186113333332,-0.18853362399999996,6.4354190036666665,-0.9928888726666667
650,1.8054833333333893,19.631726583333332,23.695021946666667,-146.0282669,-4.392478863333333,-0.608715832,9.027451517,0.3951121966666668,9.976690607666667,-5.455824375
651,1.8082610000001296,19.616261163333334,23.750010810000003,-146.00555163333334,-1.673282623333333,-1.4651725093333334,8.243222713666666,-3.311280489,6.465293964,-0.16079766566666664
652,1.8110386666667182,19.606448490000002,23.863547643333334,-146.01097106666666,-3.1532958349999998,-1.6076265573333333,10.02074178,-1.2969218096666666,12.020647996,-5.449147224333333
