,time,Euler_X,Euler_Y,Euler_Z,Acc_X,Acc_Y,Acc_Z,Gyr_X,Gyr_Y,Gyr_Z
0,0.0,-20.049980165,27.044875145,-131.02340700000002,-2.2820855975,0.319779009,12.4338669795,46.85497856,44.010316849999995,16.448794839999998
1,0.0041665,-19.576522830000002,27.38263321,-130.93154145,-3.4804909229999996,1.5437340735,6.1449916365,51.624305725,34.327867505,22.54203606
2,0.008333,-19.114543915,27.838502884999997,-130.92564395,-2.914616227,-0.2165228555,10.4014337055,54.956029895,50.94209671,18.300186155
3,0.0124995,-18.525517465,28.222109795,-130.8020401,-3.004323993,2.5634418725000003,11.1522212015,63.480342865,38.9631567,26.799818035
4,0.016666,-17.919953345000003,28.66306114,-130.74593355,-3.104546249,-0.53435199,10.075976372,69.39150237999999,47.84506035,21.768245694999997
5,0.0208325,-17.21134567,29.08437634,-130.5962448,-3.063671792,1.2205425504999998,10.371503828,76.207698825,42.9744606,29.826664925
6,0.024999,-16.49258614,29.560074805,-130.50383,-2.5888586045,0.472524241,10.1231012325,80.669548035,51.358848574999996,25.376209255
7,0.0291655,-15.64476013,29.951823235,-130.3010559,-1.7060825524999998,0.635535389,10.836871145,89.513225555,38.846700670000004,32.88302231
8,0.033332,-14.783120155,30.408283235,-130.1465454,-2.3364391625,0.6030537785000001,10.412849903000001,93.926921845,48.1765728,29.407821655
9,0.0374985,-13.828538895000001,30.784790989999998,-129.89969635,-1.7455618385,1.4136132595,8.8923177715,99.244407645,37.09369087,35.42277908
10,0.041665,-12.8551836,31.197973255,-129.7073364,-2.633363217,-0.4655878095,10.4429838645,104.84696195000001,43.11569023,30.282187465
11,0.0458315,-11.780829905000001,31.508476254999998,-129.4263916,-0.4251872299999999,0.6716202720000001,11.856763360999999,111.2360687,29.77952862,35.65345001
12,0.049998,-10.69487095,31.820496555,-129.17765045,-2.96421057,-0.6037122605,6.329644441499999,114.50048444999999,31.303759575,31.768200875
13,0.0541645,-9.543210029499999,32.093740464999996,-128.8825073,-1.5616947414999998,0.6422356295,15.041022305,119.3116455,26.516924855,34.919448855
14,0.058331,-8.359044552,32.321382525000004,-128.59210965,-1.413262248,-0.8967680485,6.8032236095,123.38503270000001,21.92949009,32.933467865
15,0.0624975,-7.1469233034999995,32.53458786,-128.286911,-2.2715856509999997,-0.9804643390000001,12.78635168,125.60575485000001,20.78615284,33.615211485
16,0.066664,-5.907767056999999,32.6661396,-127.96377565,-0.672095895,-0.6411576455,8.769371272999999,127.73935315,11.414043426500001,33.858748435
17,0.0708305,-4.667138576499999,32.74560547,-127.64180375000001,-2.162955165,-1.2419245540000001,9.611190079,127.86233905,6.0093461275,32.801007275
18,0.074997,-3.422471523,32.840488435,-127.3132172,-2.1933931710000003,-0.7642118929999999,11.906452654999999,127.87253955,8.553216932,33.433452605
19,0.0791635,-2.178364277,32.818470000000005,-126.99382019999999,-1.2464265675,-1.284080356,10.525727748000001,128.38164525,-4.6998057365,31.60564041
20,0.08333,-0.928223759,32.77932167,-126.6544609,-1.6318172065,-1.2892932595,10.027645112,127.83112715,-6.094226122,33.652264595000005
21,0.0874965,0.2842108905,32.680690764999994,-126.35378265,-2.86095047,-2.4436475035000003,10.7266922,125.57287975,-12.40618849,30.15572262
22,0.091663,1.4845404625,32.5794754,-126.0310402,-1.4488952755,-1.210864037,10.4560308465,123.09071349999999,-12.200467105,32.398314479999996
23,0.0958295,2.6367191075000003,32.390233995,-125.7557373,-1.148745358,-2.4453043935,9.822847364,120.16986465,-22.167201995,28.581450465
24,0.099996,3.7727848295,32.17393303,-125.4515114,-1.8286328015,-1.47002393,8.0770888325,116.71210479999999,-24.66797924,31.820619585000003
25,0.1041625,4.84156847,31.965190885,-125.19957355,-2.7807371319999996,-2.336356342,11.9063973425,111.8729782,-23.51503754,27.32042503
26,0.108329,5.895993471500001,31.723884585,-124.918972,-1.0167403225,-2.1199566125000002,11.927515503999999,108.64826205,-26.636789325000002,30.75395489
27,0.1124955,6.863526344,31.43647385,-124.71271895000001,-4.0906982425,-3.283340216,10.133878229499999,102.7777786,-32.29414654,24.65610504
28,0.116662,7.8028402325,31.1912117,-124.46494675,-2.0266548395,-2.826772332,11.741981984999999,97.19362258999999,-26.517149925,28.54298878
29,0.1208285,8.6575841905,30.870590210000003,-124.3051071,-4.5113339425,-2.958710194,9.4388079645,92.36621857,-36.16189766,21.68404961
30,0.124995,9.467474460999998,30.61359978,-124.1090393,-1.487390697,-2.181077838,11.63424921,85.05176544,-27.75995827,24.377059935
31,0.1291615,10.21681118,30.299198150000002,-123.99486544999999,-2.0734431745,-2.162587047,11.321349861,82.682518005,-35.58103466,17.98604822
32,0.133328,10.90902996,30.00187683,-123.86389159999999,-1.5396066234999999,-2.462221265,6.517033576999999,75.07112502999999,-33.07631397,19.45334721
33,0.1374945,11.55654144,29.734539035,-123.7697411,-4.31067729,-3.0388036965,12.766578675,71.76857376000001,-29.901557920000002,15.71749401
34,0.141661,12.159886835,29.465088845,-123.66145705,-2.0112030505,-2.3415840865,9.485806463,65.91043472,-29.895915985000002,17.28720808
35,0.1458275,12.69658947,29.184123035,-123.58525465,-4.5284661055,-3.0707083939999995,11.629128455,59.646154405000004,-31.626099585,14.94624567
36,0.149994,13.202582355,28.913690565,-123.48783495,-2.5121733545,-2.3280183675,8.836041927499998,54.952232359999996,-29.829122544999997,16.791980265
37,0.1541605,13.655534745,28.694764135,-123.41383745,-4.8520560265,-2.1348228455,11.441559315,49.80898857,-24.16113949,13.56277084
38,0.158327,14.071897985,28.460051535,-123.33079525,-0.39055898,-1.9253697399999998,8.740615608,45.104894634999994,-25.74255943,14.812268735
39,0.1624935,14.43962431,28.245456695,-123.26844785,-4.3315166235,-1.673319578,7.509477853,40.31525612,-23.677981375,12.580142975
40,0.16666,14.792332645,28.092106819999998,-123.1873474,-1.59757638,-2.0644571185,12.31322145,37.65583229,-16.210179805000003,12.534045695
41,0.1708265,15.092180729999999,27.88600636,-123.13035585,-2.8136454825,-2.022557199,8.640609980499999,32.51685429,-22.752285004999997,12.105748174999999
42,0.174993,15.341545105000002,27.699754714999997,-123.0812187,-2.4452309015,-2.414692402,8.2065001705,27.101087569999997,-20.692862990000002,10.470400332
43,0.1791595,15.57034969,27.572434424999997,-123.0162163,-5.2422599795,-1.9573043585,14.43941593,23.593680385,-13.297620298000002,10.6133875825
44,0.183326,15.75712347,27.3655653,-122.97964859999999,0.23566168549999994,-2.1925054790000003,7.9867333185,20.310860635,-23.350336075,10.020778178
45,0.1874925,15.91248131,27.23045921,-122.92772675,-6.510296106,-2.1607405545,8.447954058,15.570664405,-14.435902358,9.59722948
46,0.191659,16.043346405,27.09247303,-122.8866539,-0.45992648599999986,-1.707775593,14.127366065,13.37401152,-15.2789957505,8.359869003
47,0.1958255,16.153286935,26.88738823,-122.8573532,-3.447589755,-2.1444076295,7.0547027589999995,11.3851127645,-23.198174475000002,9.695903776
48,0.199992,16.227209090000002,26.80219364,-122.81912614999999,-3.3008353115,-1.905881107,11.85636568,6.736025572,-9.17555213,6.36105895
49,0.2041585,16.277344705,26.615806579999997,-122.796093,-1.4403787555,-1.2168735860000002,9.256390808499999,4.5769274235,-21.214191915,8.4443063735
50,0.208325,16.296618465,26.492321015,-122.78181459999999,-4.5452963115,-2.1698932644999998,6.5091930614999995,1.4883600325,-14.294176103,5.214361548499999
51,0.2124915,16.308179855,26.413882255,-122.7471199,-1.4630966184999998,-1.290549606,14.92089176,-0.671246633,-8.344273916499999,6.072706699499999
52,0.216658,16.287055015,26.229249955,-122.7613258,-3.045630455,-0.843361169,2.6823868749999997,-1.848906994,-22.262823105,4.3505476715
53,0.2208245,16.267334935,26.22445774,-122.71958925,-2.5444708245000003,-1.5733337105,13.945408345,-4.781940937,0.283357501,4.3333456515
54,0.224991,16.212470055,26.03733635,-122.7631607,-0.9208269714999999,-1.2541936635,6.9119906425,-4.3423894645,-23.378057005000002,1.3465221225000001
55,0.2291575,16.16600132,25.980547905,-122.74962615000001,-4.2253153325,-0.8156960605000001,10.5055146195,-6.486761808000001,-6.560320375499999,3.1789131165
56,0.233324,16.10265541,25.8575573,-122.78816225,-1.147277117,-0.9277343455,11.9297792915,-5.6417096255,-15.83998728,-0.330743432
57,0.2374905,16.009238245,25.760366435,-122.81742474999999,-3.7948102355,-2.6537201405,5.172039266500001,-9.862592697,-12.4400759915,0.08592328450000003
58,0.241657,15.925302984999998,25.696878435000002,-122.845047,-2.6810508145,-0.40178135049999997,16.58967161,-8.712474346,-8.713227033,-1.2036581935
59,0.2458235,15.814335345,25.58168602,-122.8893051,-3.1120908555,-1.5276364089999999,3.1824268105,-11.204408165,-15.033881186,-0.9388642160000001
60,0.24999,15.726827625,25.562156675,-122.90191265,-4.3777056335,-0.9843093454999999,14.741600515,-9.9000895015,-3.135887145,-1.1077647210000001
61,0.2541565,15.604239465,25.496170045,-122.95432665,-1.7239932119999999,-1.9353461859999999,4.002132892500001,-12.197776795,-9.582179545499999,-3.4343250395
62,0.258323,15.486288550000001,25.51799965,-122.96265410000001,-4.2251908775,-0.670908123,12.678934094999999,-13.77110529,1.770866156,-1.9894196984999999
63,0.2624895,15.34680176,25.48737621,-123.01903915,-1.4237009285000002,-1.5224481225000002,5.6043519975,-14.021408555,-5.52219376,-4.979927182
64,0.266656,15.192509655,25.523195270000002,-123.04088595,-4.1486780645,-0.45997628599999996,11.71935034,-17.4569726,2.952402115,-3.834177673
65,0.2708225,14.96780729,25.54387951,-123.1284828,-2.125175923,-3.8559461830000004,6.237967491,-22.649804115000002,-0.4881169795,-9.856638907
66,0.274989,14.69320154,25.595638275,-123.1866646,-2.9891382455,-2.65662086,13.763153554999999,-29.99145317,3.882538557,-8.1089491845
67,0.2791555,14.322036740000001,25.600669865,-123.31746290000001,-1.7132498545,-4.3923015595,4.4407613875,-37.92116928,-3.4094319335,-13.9982996
68,0.283322,13.88001919,25.697508810000002,-123.42490384999999,-4.622319758,-2.6446334719999998,12.73681736,-47.50952911,7.929879068,-14.53194809
69,0.2874885,13.33594751,25.67973423,-123.607029,-0.298287034,-3.9523786305,3.259672046,-55.952903750000004,-7.104111076000001,-18.776976585
70,0.291655,12.710260869999999,25.80939865,-123.75850675,-6.465861559,-3.8792703150000003,12.847908975500001,-67.25998306,10.9048557275,-19.858428
71,0.2958215,11.956683635000001,25.780424115,-124.00370405,2.2268985509999997,-3.9319018125,10.9658656125,-77.83388518999999,-9.4956439745,-25.27042103
72,0.299988,11.100554944999999,25.781204225,-124.23517225,-4.8444803955,-3.514013171,1.0920283794999999,-90.69532776,-5.417171001,-24.869027135
73,0.3041545,10.171198366999999,25.880404475,-124.50909045,-1.7517436145,-3.0436730384999997,12.805509090000001,-97.41283416499999,5.792748896,-31.36055088
74,0.308321,9.1310954095,25.86499977,-124.7771759,-0.7094856205,-3.7112318275,9.912375389000001,-110.8192139,-7.180068658500001,-28.66617584
75,0.3124875,7.947212458,25.804011345,-125.1218796,-3.196094632,-4.580818653,2.4443134365,-124.2070732,-13.1824848665,-35.743181225
76,0.316654,6.697514056999999,25.89596081,-125.40132525,-4.3756872415,-2.7850989100000003,10.117652418,-135.42026520000002,6.5478595495,-31.72580147
77,0.3208205,5.344111443,25.844083785,-125.7591095,-1.580781102,-3.8697210550000003,14.27354193,-143.88778685,-10.7365744125,-37.884946825
78,0.324987,3.8888437750000002,25.756352425,-126.0651512,-2.5551226735,-5.138863325,2.2217639685000004,-158.69370270000002,-13.643794057500001,-32.450787545
79,0.3291535,2.356565416,25.772211075,-126.42266465,-6.064633727,-1.3918115795000001,12.119346380500001,-165.4334412,-0.7217244504999999,-38.698459625
80,0.33332,0.768784702,25.69039154,-126.73052215000001,1.8522021174999999,-4.1329632995,11.7444562915,-174.5430527,-11.1999480735,-33.498789790000004
81,0.3374865,-0.93722187,25.50737953,-127.07389069999999,-4.03621459,-3.1670949454999997,1.6990699169999999,-187.0721893,-22.409860135,-37.123165130000004
82,0.341653,-2.6828192475,25.49531555,-127.39879225,-1.8088542225,-1.540028572,12.934283735,-192.7698059,-0.8540839625,-35.63442707
83,0.3458195,-4.4522479775,25.253511430000003,-127.70137405,-0.3929711725,-1.4444866925,9.2665418395,-196.96583555,-27.495451449999997,-34.68345261
84,0.349986,-6.3259384635,25.081778525,-128.0484276,-4.0566595795,-4.315963149,5.4384177345,-207.1844864,-17.444622995,-39.75039482
85,0.3541525,-8.1510801315,24.90323734,-128.32891080000002,-2.289751172,0.7594240085,16.152821065,-204.99720765,-18.016275167,-33.09365368
86,0.358319,-9.977348327,24.629076955000002,-128.633049,-2.619032741,-1.0462439805000001,1.2457127575,-203.91420745,-27.752264975,-38.165628435
87,0.3624855,-11.80027866,24.463844299999998,-128.88404845,-3.2210046049999996,-0.7992974820000001,20.935771945,-206.231308,-14.794464887,-31.151903155
88,0.366652,-13.579732895,24.075174330000003,-129.13235475,-0.7359254359999996,-0.629663378,3.711700678,-201.37880704999998,-40.06431198,-37.084795
89,0.3708185,-15.29795742,23.86244583,-129.33172605,-5.065833479,1.3281947375,18.58432388,-196.49882509999998,-19.81908464,-27.95954895
90,0.374985,-16.907608035000003,23.452327725,-129.49971770000002,-1.442319989,1.237846851,2.6807106134999996,-185.12047575,-42.672872545000004,-31.73604393
91,0.3791515,-18.43365002,23.15666485,-129.6269989,-2.9237014649999997,3.37525928,15.676905155,-177.12322235,-30.07555008,-24.5516119
92,0.383318,-19.8414402,22.755566594999998,-129.73106380000002,-2.729321897,1.282820463,9.798303604,-164.11587525,-42.221549984999996,-27.01130962
93,0.3874845,-21.127712250000002,22.372873305,-129.786911,-0.9033704595,3.569629431,10.53075123,-151.8042984,-41.340000155,-22.23044682
94,0.391651,-22.33315563,21.937710765,-129.84001160000003,-3.5852702855,2.4229694605,12.022774694999999,-142.3182144,-46.895477295000006,-25.261880875
95,0.3958175,-23.394672395,21.49903488,-129.84794614999998,-1.3182297945,2.731909871,10.54280615,-127.0965881,-48.679969785,-21.596087455000003
96,0.399984,-24.34937763,21.022589680000003,-129.86653135,-3.949567556,2.621079743,14.08182144,-113.79761504999999,-51.970243455,-25.479398725
97,0.4041505,-25.205626485,20.565431595,-129.85080720000002,-1.997979462,2.3630515335,9.8502986445,-103.49203109999999,-51.073055265,-21.73519516
98,0.408317,-25.928383825,20.096030235,-129.85165405,-4.874505281499999,3.1822246315,13.494804859999999,-86.749881745,-51.3019886,-24.795179365000003
99,0.4124835,-26.520490645,19.63652992,-129.8024902,-0.4460222425,3.7691539525,13.64265347,-73.10894393999999,-52.40513611,-19.765942575
100,0.41665,-27.04314995,19.184804915,-129.79652405000002,-6.2387413975,1.9338225725,8.6315493585,-63.03294182,-49.2716732,-24.209245680000002
101,0.4208165,-27.44544029,18.758664135,-129.7476959,-0.7796659770000001,4.2165865895,10.458726883,-50.248809815,-48.521966935,-18.88424015
102,0.424983,-27.76003361,18.30786896,-129.70903015,-6.4113123415,1.971226275,13.42650032,-39.282161715,-50.52158165,-21.55748844
103,0.4291495,-27.991819385,17.928995135,-129.66199495,-2.5678890945,1.8448003530000001,11.037483219999999,-29.65642166,-43.220142365,-16.88274574
104,0.433316,-28.134448055,17.52690792,-129.608284,-4.860636711,2.1912707090000003,11.877058505,-19.1412735,-46.004772185,-17.686726569999998
105,0.4374825,-28.228163719999998,17.16912365,-129.5468216,-1.7729297875,1.109787136,12.00194883,-13.540075305,-41.659601210000005,-14.430912970000001
106,0.441649,-28.26718521,16.847987175,-129.51628110000001,-5.572875023,1.423327729,10.926085470499999,-5.818722606,-36.185489655,-15.557908059999999
107,0.4458155,-28.245426175,16.510428429999997,-129.45777895,-1.661365956,1.332542896,9.7238054285,0.5093342064999999,-39.38766098,-13.649527549999998
108,0.449982,-28.20326233,16.255484585,-129.4224854,-5.988651037,0.29581356049999996,12.734061239999999,3.783673942,-29.417963980000003,-11.267456533
109,0.4541485,-28.117025375,15.98140001,-129.3926697,-2.1778681874999997,1.209996402,8.536575319499999,9.269712209,-31.149825094999997,-12.893233775
110,0.458315,-28.030999180000002,15.760370735,-129.3579178,-5.358441353,0.37527692300000004,9.6490020745,9.0941219335,-25.826711655,-9.32513857
111,0.4624815,-27.917556765,15.557910920000001,-129.36782075,-3.4386646745,-0.229336247,15.004119395,13.83121824,-21.419569015,-12.79806709
112,0.466648,-27.79959488,15.391559125,-129.35858155,-5.1705605985,0.1258962155,5.871743202499999,13.783608914999999,-18.71875858,-8.7791879175
113,0.4708145,-27.694830895000003,15.249747275,-129.3919373,-3.3168568609999998,-0.42056261,11.684607985,13.538915635,-13.796735765000001,-11.74011707
114,0.474981,-27.5708189,15.146246435,-129.41122435,-4.8687605860000005,-0.1795352285,11.60947466,15.397222045,-10.5060658455,-8.1308693885
115,0.4791475,-27.445726395,15.03579712,-129.4572449,-3.8137782810000003,-0.7579452695,8.598712683,16.35206938,-9.830644128500001,-11.243206025
116,0.483314,-27.34545517,14.991756915,-129.5075836,-3.7837159635,0.04882578,11.0213279725,13.506134034999999,-2.5424127575,-8.02131772
117,0.4874805,-27.235390664999997,14.92801714,-129.56204225,-3.3389849665,-1.128519028,10.50429392,14.793237685,-4.4423235640000005,-9.50070715
118,0.491647,-27.128601075,14.884935855,-129.6111679,-3.60349226,-0.945636213,8.932917834,14.265371325,-2.4908322095000006,-7.9273445605
119,0.4958135,-27.067146299999997,14.863593105,-129.68250275,-3.3687757255,-1.206698954,10.5837089995,9.474098205499999,0.9467854205,-8.930821179999999
120,0.49998,-26.990634915,14.830791475,-129.73400114999998,-2.3370732665,-0.48363290350000004,10.6372079855,10.693426131999999,-1.2732453344999999,-7.6011087895
121,0.5041465,-26.944780350000002,14.797177315,-129.7909851,-3.732234955,-1.515979886,9.2778789985,7.158981084500001,-1.1436507704999999,-8.1422340895
122,0.508313,-26.935907365,14.78545761,-129.85762785,-2.9088809490000003,-2.0063290595,8.953407524,3.0106397864999996,1.7376568314999998,-7.962332964
123,0.5124795,-26.921095845,14.760950565,-129.90631105,-3.1815050840000003,-0.140573472,8.462258339000002,3.1710871455000005,-0.6109377145000001,-6.7776229385
124,0.516646,-26.926295279999998,14.752635479999999,-129.9713974,-2.209719181,-0.4572584775,10.7917881,1.2935830355,2.048998028,-7.6975266935
125,0.5208125,-26.92318821,14.74291754,-130.01488495,-3.990810871,-0.958348438,7.684951067,1.5978990794999999,0.6978149715,-5.425478816
126,0.524979,-26.95426273,14.725797655000001,-130.0687485,-0.8151805995,-1.0929109605,8.3766150475,-2.154233992,0.524451494,-7.031959057
127,0.5291455,-26.991403579999997,14.703863145,-130.0952301,-4.2424438,-0.8322061599999999,12.01297331,-3.7537853119999998,-1.4978755115,-4.3333326575
128,0.533312,-27.031698225,14.654139515,-130.1252136,-2.021453619,-1.310648531,9.3086953175,-3.9946938755,-4.209622979,-6.3383712765
129,0.5374785,-27.108343125,14.62443733,-130.14920805,-3.3629618885,-1.503997505,8.20112896,-8.5737509725,-2.4537669715,-4.512063384
130,0.541645,-27.179594995,14.579188349999999,-130.18646239999998,-2.6338068245,-0.6876846105000001,8.9893145575,-7.507263662,-3.342087984,-6.8216090204999995
131,0.5458115,-27.250655175,14.547351840000001,-130.1963654,-2.6385151145,0.1376422515,8.9779691695,-8.33315778,-3.4175096154999998,-3.1872826815
132,0.549978,-27.332541465,14.522269725000001,-130.2335892,-3.401361108,-1.419163972,8.3018550875,-8.785471201,-1.1847864405000001,-5.7202029225
133,0.5541445,-27.411107065,14.47537565,-130.23371885,-1.7536955475,-0.0891025475,11.317814350999999,-9.5348482135,-5.533840537,-3.011580944
134,0.558311,-27.511174205,14.420699595,-130.24298095,-3.5993112325000003,-1.9102098939999999,10.9039731,-11.82930851,-5.8540316825000005,-4.4212608335
135,0.5624775,-27.609209059999998,14.367818355,-130.2361221,-2.6577382084999996,-1.093687803,7.4265227320000005,-12.123135564999998,-6.517985105499999,-2.634981632
136,0.566644,-27.739501,14.307152275,-130.2504425,-3.234253287,-1.2385833265000001,9.699449063,-15.280893330000001,-6.241639614,-5.2645332815
137,0.5708105,-27.851011274999998,14.257866855,-130.24629975,-2.571239054,0.09735766050000003,10.721673965,-13.622025015,-5.99583292,-2.7364591954999997
138,0.574977,-27.9522562,14.196323395,-130.25611115,-3.1286503669999997,-0.618699372,6.998562336,-11.96851063,-6.543478012,-4.878821610999999
139,0.5791435,-28.075378415,14.141911505,-130.24305725,-1.9913302515,-0.6563529375,10.806766033,-15.276941775,-7.021073818,-2.130982995
140,0.58331,-28.168639185,14.05012846,-130.23111725,-3.161746681,-0.7974862155,9.8572783455,-11.653781415000001,-10.916898250500001,-4.3767884965
141,0.5874765,-28.27759838,13.970484254999999,-130.2010803,-2.2401952595,-1.174898237,11.319531914999999,-14.112338545,-10.594799043,-1.854887128
142,0.591643,-28.390830995,13.880177499999999,-130.1912079,-3.685041368,-0.970479235,8.2039129735,-13.94612122,-10.658367397,-4.5254217385
143,0.5958095,-28.4892292,13.782495019999999,-130.16593935,-2.9101468325,-0.4326911865,9.9546999925,-12.654435635,-12.2484231,-3.4096909765
144,0.599976,-28.597298625,13.721488,-130.1617966,-2.74830544,-0.6693083870000001,10.724066735000001,-13.190327645,-7.1828284265,-3.531761885
145,0.6041425,-28.673095699999998,13.635610580000002,-130.13469700000002,-3.612175465,-0.2961903475,6.9989480969999995,-9.9883568285,-11.104778289999999,-2.572470188
146,0.608309,-28.775751115,13.570720195,-130.14166260000002,-2.2045369150000003,0.056523093999999996,9.613480808,-12.2158980385,-6.938313961,-4.960421324
147,0.6124755,-28.83506298,13.498316764999998,-130.10546875,-3.5910547975,-0.8013929575,12.25782776,-8.262750389,-10.191591262,-0.8920415495
148,0.616642,-28.88602829,13.41511488,-130.09233855,-1.802164376,-0.11192688149999999,8.658482791,-6.5740289695000005,-9.9874854075,-3.9823546409999997
149,0.6208085,-28.967905045000002,13.34745121,-130.06822970000002,-4.242196202,-1.5260357265,10.4762423015,-10.622602939,-9.015552997499999,-1.875019848
150,0.624975,-29.011361125,13.24013519,-130.0407257,-1.221874401,-0.6117117855,10.6296944625,-6.065350056,-13.298721315,-3.965724826
151,0.6291415,-29.060461045,13.17408228,-130.01081084999998,-4.761362553,-0.778035052,11.246952535,-6.835608243,-9.175275804,-1.2178801895
152,0.633308,-29.117570875,13.089981555,-129.99718475,-1.948580086,-0.9180608690000001,8.0858192445,-7.340343237,-10.108731272,-3.9686254265
153,0.6374745,-29.147419929999998,13.015420915,-129.97636415,-4.2272446155,-0.373260081,9.3827931905,-4.2718980385,-9.547380924999999,-2.6616587640000002
154,0.641641,-29.18106842,12.961130145,-129.9686432,-1.5903004410000001,-0.11801843350000002,9.965130328,-4.36356461,-6.647816658,-2.8468945025
155,0.6458075,-29.183276175,12.90198517,-129.9457169,-5.023316145000001,-0.536117265,10.0088648795,-1.0110388399999999,-8.0569581985,-1.534011111
156,0.649974,-29.199289325,12.843069555,-129.93880465,-0.3401001695,-0.5955279019999999,8.3858516215,-2.2111871245,-7.061019182000001,-3.2541286945
157,0.6541405,-29.216459275,12.799720765,-129.91964719999999,-5.3092656135,-0.8973270655,10.094433785,-2.707738608,-6.1822199819999994,-0.9890744985000001
158,0.658307,-29.211485865,12.746087075,-129.89533995,-1.1089946925,-1.3160379825,11.0085263245,-0.1439902785,-7.487022401499999,-1.208601311
159,0.6624735,-29.232425685000003,12.712678435,-129.8983231,-4.8316464425,-1.1976604165,9.6661276795,-2.5714002700000003,-3.878379464,-2.6761497260000002
160,0.66664,-29.237842559999997,12.670903684999999,-129.88083645,-1.939071417,-0.7968402649999999,9.250455142,-1.227043688,-5.8683236835,-1.160516832
161,0.6708065,-29.242247585,12.653794765,-129.8830414,-3.7844405175,-0.8802207115,10.369349004499998,-0.6017810104999999,-2.2214459184999997,-1.6546092625
162,0.674973,-29.241836550000002,12.62051773,-129.87550355,-2.4383770825,-0.521695912,6.3742687700000005,-0.2723690565,-4.4254104755000006,-1.6524832245
163,0.6791395,-29.24587822,12.604552745,-129.88066865,-3.3137711285,-1.06139493,11.3112385275,-0.4876309635000001,-1.9281241894999999,-1.890375376
164,0.683306,-29.239068985000003,12.5902133,-129.8746567,-2.027363986,-0.8544030785000001,10.446333886,0.5328977555,-2.364309236,-0.69327496
165,0.6874725,-29.244791985,12.564753535000001,-129.8815308,-4.126970291,-1.162668579,7.2112236020000005,-0.6457605359999998,-2.826818943,-2.6187673805
166,0.691639,-29.273238184999997,12.548757555,-129.8789139,-2.447340965,-1.8248734475,12.9278235445,-3.608770251,-2.347045392,-1.142119467
167,0.6958055,-29.283198355000003,12.53830004,-129.88539885,-3.3641809225,-0.8292569515,9.249948739,-1.175507605,-1.2741863725,-1.6846865415
168,0.699972,-29.305233,12.515388484999999,-129.8703308,-3.1887315515,-1.199660063,8.962198256,-3.1553850170000004,-3.7890822885,-0.29074066899999995
169,0.7041385,-29.338822365,12.505266665,-129.88917544999998,-2.688418746,-1.1120727060000002,8.8494770525,-3.694674373,-0.5290039775000002,-2.9247614745000003
170,0.708305,-29.35432148,12.481242654999999,-129.87849425000002,-2.9521700145,-0.6213296465,8.6491680145,-2.2628257124999998,-3.64719823,-0.8098644915
171,0.7124715,-29.390304565,12.471246245,-129.89395144999997,-2.1843290925,-1.266141295,10.62280798,-4.070293546,-0.7108014819999999,-2.578892231
172,0.716638,-29.422207835000002,12.437469005,-129.89465330000002,-4.0203734635,-1.5676128865,9.048501015,-3.9319643969999998,-4.001955986,-2.566034198
173,0.7208045,-29.463717459999998,12.425083635,-129.90026089999998,-1.8408837315,-1.0152253805,11.8737330425,-4.9847545625,-1.5269991455,-1.7238189579999998
174,0.724971,-29.49569607,12.37220001,-129.8934021,-3.4917089939999997,-1.658147931,7.0848221774999995,-4.1354374885,-6.4052942994999995,-2.9533020260000002
175,0.7291375,-29.525663375,12.3367877,-129.8711014,-2.248979032,-1.2282743605,11.834526063999999,-4.3160564305,-5.543900788,-0.2485093625
176,0.733304,-29.556306839999998,12.29336357,-129.87070465,-3.5814889670000003,-0.507152572,7.116691351,-3.825319886,-5.076408624499999,-2.9998881815000003
177,0.7374705,-29.58592987,12.24658871,-129.84828945,-1.877758384,-1.556988239,8.557373285,-4.277353853,-6.734994888000001,-0.910855085
178,0.741637,-29.622394565,12.20801783,-129.84240725,-4.224299073,-1.217998028,11.8676834085,-4.659677744,-4.878423214,-2.179592013
179,0.7458035,-29.64207363,12.154611585,-129.82450104999998,-1.8412605525,-0.7445157135,8.9750430605,-2.9689014780000003,-7.166339159,-1.7696748975
180,0.74997,-29.695814135,12.12974405,-129.8222504,-4.940596819,-2.195356965,11.324254989,-6.6370844845,-3.2447600365,-1.736978367
181,0.7541365,-29.707520485,12.077728745,-129.7935791,-1.692238927,-0.960290104,8.7070155145,-2.2897461055,-7.6415588855,-0.5841646194999999
182,0.758303,-29.733897204999998,12.08940554,-129.77744289999998,-5.801860571000001,-0.695712477,12.527510165,-3.6972224715000004,-0.2451665399999996,1.8323655725
183,0.7624695,-29.75036621,12.09958601,-129.7637863,-2.426067829,-1.4841120835,7.369575262,-2.487680316,-0.2903954984999997,1.596894026
184,0.766636,-29.75553894,12.165764334999999,-129.75912475,-5.921278237999999,-0.6112531275,7.9963209625,-0.8691616059999999,6.112709522499999,3.8968342545
185,0.7708025,-29.756443025000003,12.28181839,-129.75544735,-2.5492023825,0.3664655165,11.512678144999999,-0.3635365255,11.318380835,6.86781764
186,0.774969,-29.731748585,12.458658695,-129.77097325,-6.0877172945,-0.6161327215,8.890073300000001,3.2408936025,18.831992149999998,8.409387828
187,0.7791355,-29.697249409999998,12.670770165,-129.79466250000002,-1.6513312459999998,-0.577954138,6.57358408,4.5416701454999995,22.8115921,9.986599922
188,0.783302,-29.662620545,12.97204542,-129.81704715,-5.8533182145,0.1559259205,9.644518137999999,4.621094227,32.193256375000004,15.106265545
189,0.7874685,-29.607637405,13.311174395,-129.88188935,-3.7772692439999997,-1.2461153565,11.873475075,8.2049553375,38.555568695000005,13.13346291
190,0.791635,-29.501863479999997,13.717965125,-129.93191530000001,-5.4722342489999996,0.5763413605000001,9.7593371855,13.969944953999999,44.85324097,18.453548429999998
191,0.7958015,-29.380190849999998,14.16774082,-130.00294495,-3.4057582615,0.31333795200000003,7.690643072,16.494437220000002,50.505970000000005,18.89455891
192,0.799968,-29.19684887,14.661283014999999,-130.0834274,-4.935758352000001,0.13012552250000003,12.198361395,24.2932539,55.755573275,20.22887516
193,0.8041345,-28.92091656,15.14989519,-130.1542892,-2.0288972259999998,1.9302735325,10.1671142595,35.139268875,54.685171125,20.87344456
194,0.808301,-28.561514850000002,15.652153015,-130.20938875000002,-3.3735877275,1.5745187994999998,8.649637461,44.77305031,55.43289757,22.79878044
195,0.8124675,-28.131457325,16.153408055,-130.26802064999998,-1.5145582555,0.9902385625000001,9.347581864,53.373888015000006,55.589571,22.173714635000003
196,0.816634,-27.574501035,16.64350605,-130.29438019999998,-2.6304470305,1.9773527385,13.460396764999999,67.609775545,52.92449379,24.227407454999998
197,0.8208005,-26.938785555000003,17.093865395,-130.30908205,-2.5797957185000002,0.2216627895,5.5625681875,76.635299685,48.252351759999996,22.822147365
198,0.824967,-26.207540514999998,17.592419624999998,-130.31391144999998,-2.9263509515,2.467038393,14.113752365,87.76031112999999,53.197650905,25.829786300000002
199,0.8291335,-25.354335785,17.98242378,-130.25148775,-2.3542262915,1.1753810045,10.140327452000001,99.93374633,38.47954941,26.340101240000003
200,0.8333,-24.416581155,18.482935904999998,-130.22325135,-4.9547173975,0.7980532199999999,12.391869069,111.30772400000001,52.5731411,27.756250379999997
201,0.8374665,-23.335382459999998,18.89020634,-130.11183169999998,-0.8485118749999999,1.353574514,10.599532125,125.204422,39.01146984,30.899589534999997
202,0.841633,-22.14665413,19.299124720000002,-129.9824066,-2.5802597405,2.4952651264999997,10.9547066705,137.49704739999999,39.018459320000005,32.09622288
203,0.8457995,-20.864694595,19.716900825,-129.85115815,-3.1335355044999997,0.7988812104999999,9.2357773805,148.41265105,40.647735595,31.751631735
204,0.849966,-19.46612263,20.09019089,-129.67632294999999,-0.43771195399999996,0.924667869,10.53102493,160.52487945000001,34.68828964,33.53137207
205,0.8541325,-17.99980545,20.40843201,-129.47892,-3.715530038,0.4756544455,10.641823767,167.5975952,28.478528025000003,32.86471176
206,0.858299,-16.478521344999997,20.757905960000002,-129.28973385,-2.6558362245000002,-1.636374593,10.349966526500001,174.41226195000002,33.195174214999994,32.281599045
207,0.8624655,-14.870290279999999,21.037909505000002,-129.04584499999999,-2.8389440775,0.5828539805,13.09935093,182.2973404,24.41661453,34.94572067
208,0.866632,-13.211765289999999,21.278119089999997,-128.808609,-2.068121195,-1.0514963865,12.70366049,188.681015,20.960268974999998,32.345324515
209,0.8707985,-11.523457050000001,21.504642484999998,-128.55096435000002,-4.2700830695,-1.8632371425,10.3718953135,191.16135405,19.837003705,33.49287319
210,0.874965,-9.787037847499999,21.68947792,-128.28237915,0.006074995,-1.058237106,13.18179035,196.35232545,15.700389385000001,33.143012999999996
211,0.8791315,-8.0203311445,21.770431520000002,-127.9765434,-3.6690711975,-1.185315311,8.1788289545,198.26193999999998,3.764097333,34.722484585000004
212,0.883298,-6.248594761,21.921566965,-127.6853752,-2.1219836030000003,-1.7873849270000002,15.705779075,199.4542389,13.417926787999999,34.01792145
213,0.8874645,-4.4505467415,21.91073799,-127.3600426,-1.7307840285,-2.7803046699999996,7.586237430500001,200.81629945,-5.246942519999999,35.825468064999995
214,0.891631,-2.68468225,21.97698879,-127.04912185,-3.080839932,-1.6007254125,14.070958135000001,197.89414979999998,5.216032028,34.622716905000004
215,0.8957975,-0.9198512135,21.914051055,-126.71413805,-1.4806396965,-3.5885043144999997,9.479711532500001,196.43988035,-9.289053084499999,37.029790875
216,0.899964,0.7984705865,21.905729295,-126.39675145000001,-3.8528237345,-3.081763029,12.526791095,191.84171295,-1.592919469,34.896039959999996
217,0.9041305,2.475741267,21.81642151,-126.079113,-1.659863472,-2.738149524,9.277039051500001,186.77320095,-10.241057875,35.6376667
218,0.908297,4.093066573,21.732132915,-125.80373764999999,-3.609909296,-3.4197129015,12.598502635,181.67792515000002,-8.902564524999999,30.79111099
219,0.9124635,5.6862618925,21.620933535,-125.51245879999999,-1.1982913615000002,-3.356043577,12.416044714,177.9966812,-11.058761115,33.407583235
220,0.91663,7.1664681434999995,21.466234210000003,-125.28194049999999,-3.7832114695000003,-3.9094783064999996,8.7742476455,167.33372495,-16.12032652,27.214956285
221,0.9207965,8.577404976,21.285069465,-125.0549812,-1.1563449504999999,-4.613726735,11.3174521925,159.051918,-18.570165635000002,27.971370695
222,0.924963,9.895807741999999,21.119524,-124.8804703,-3.4578852655,-4.2034084795,11.66792083,150.56735225,-17.039354324999998,22.068343159999998
223,0.9291295,11.121442795,20.905632975000003,-124.7091522,-1.6977484375,-3.8857574465000004,8.451618433,139.4654999,-22.24621868,23.39688206
224,0.933296,12.235087395,20.738508225,-124.56417465000001,-4.6068050860000005,-5.2952141765,13.603715896999999,127.32603455,-16.908341885,19.563978195
225,0.9374625,13.25622034,20.48276043,-124.4301758,-0.7641401514999999,-3.8774923085,7.9984972475,116.65787505,-27.11038017,21.278017995
226,0.941629,14.175773620000001,20.33434963,-124.32477184999999,-5.93928051,-4.128960729,10.4248359225,105.69893265,-14.97852087,15.605754375
227,0.9457955,15.015429495,20.106553075,-124.20657349999999,0.860187747,-4.127280474,12.7886583805,95.629669185,-23.581796644999997,19.640562055
228,0.949962,15.744580745,19.89664078,-124.14284515,-5.6222754715,-4.6462850575,6.879053354,84.64874649000001,-22.860907555,13.48476505
229,0.9541285,16.37848282,19.70484543,-124.0292549,-0.39406329400000006,-2.7487727404999998,9.29655838,71.2396431,-19.04978371,18.5406208
230,0.958295,16.932196615000002,19.524283410000002,-123.96799089999999,-6.0052301880000005,-4.6715385915,9.294551847,63.75023650999999,-19.238423349999998,12.737748625
231,0.9624615,17.393182754999998,19.32994175,-123.8613701,0.82422775,-2.8959720134999998,12.401941775000001,50.847852705,-19.194242475,18.280783655
232,0.966628,17.77228832,19.14666176,-123.8193703,-6.723835706500001,-3.5630376339999996,4.9163217545,43.64537239,-20.017344955,10.98636007
233,0.9707945,18.120575905,19.0216198,-123.69934845,0.7857809070000001,-2.6939358715,14.60624695,36.89376068,-10.562809942000001,17.392611504999998
234,0.974961,18.35142994,18.85101032,-123.6729393,-5.7744827270000005,-3.85702455,6.9232140205,26.48589516,-18.988933565,9.072628975
235,0.9791275,18.535541535,18.701499939999998,-123.5681076,0.6992694135,-2.0589079855000003,6.4122967719999995,17.85169315,-13.7218561185,16.8318367
236,0.983294,18.676982879999997,18.637069699999998,-123.49895095,-6.3568007945,-2.336146593,12.6219182,14.10571766,-5.2704443635,9.8167033185
237,0.9874605,18.77053642,18.473405839999998,-123.40738295,0.702271968,-2.7918851375,5.462030768,7.559308767499999,-15.742138865000001,15.97508621
238,0.991627,18.788399695,18.417190555,-123.33846285,-6.803723573499999,-2.8676753045,9.0483046775,-0.6787514689999999,-4.31147179,9.501107694
239,0.9957935,18.830854415,18.322530745,-123.21210479999999,0.7058641315,-0.293013148,10.245655536,0.19626951199999998,-6.6395900535,16.970824715
240,0.99996,18.820373535,18.274700165,-123.13771055000001,-6.156948209,-2.7224906685,12.890078065,-4.2236917015,-3.1897664075,9.645881176
241,1.0041265,18.765757559999997,18.15887928,-123.0472641,0.2898427244999999,-3.217049599,10.6997385025,-9.964178086499999,-10.456176279,13.650323395000001
242,1.008293,18.717069625,18.132014275,-122.9734535,-5.543856144,-0.6034010350000001,5.652568817000001,-8.7467689525,-0.8471269605,8.77014184
243,1.0124595,18.67273903,18.023518565,-122.8909302,1.5985418555000002,0.3727010025,10.3157320035,-8.48392415,-9.8648519525,12.70869875
244,1.016626,18.614243504999997,17.97877312,-122.83974455,-5.420224905,-2.655372262,9.439398288500001,-9.0765457155,-3.7073149085,7.049293994999999
245,1.0207925,18.55986309,17.84026909,-122.7892761,0.4327898025000001,-0.2668768035,10.3237490675,-8.408843040499999,-14.527023320000001,10.204081535
246,1.024959,18.514954565,17.80843067,-122.7558594,-6.150340079999999,-1.2522476315,11.6164021495,-6.774998902,-2.891449809,4.6365675925000005
247,1.0291255,18.50663948,17.701894760000002,-122.70352555,1.0540521145000001,0.681741029,8.633053303,-3.0413389205,-10.726418018,9.4995217305
248,1.033292,18.49972534,17.618187905,-122.7031326,-4.2914791480000005,-1.6444132329999999,9.1513996145,-0.9676162005,-10.024829862,2.9375880955
249,1.0374585,18.51308918,17.46857262,-122.6571388,0.08674502350000002,-0.14917033899999999,13.43697453,-0.19475150099999994,-15.850105760000002,10.476544855499998
250,1.041625,18.514154429999998,17.401285174999998,-122.69381335,-6.187146187000001,-1.352393508,11.065734384999999,1.263985902,-9.4380469345,-1.504266679
251,1.0457915,18.557196615,17.23150539,-122.6529465,1.1524526475,-0.397181094,5.5681040285,3.5636333825000004,-18.31250191,10.732388975
252,1.049958,18.60092926,17.144836425,-122.6977463,-4.7300810815,0.3719776495,11.38339615,6.6634230615,-11.9492938515,-1.661896795
253,1.0541245,18.6941576,16.98436451,-122.6551437,-0.18174689999999993,-0.495785326,10.3746070865,9.548868656,-17.16544342,10.605110646
254,1.058291,18.753931045,16.85300827,-122.7253723,-4.9746767285,-1.6381839514999998,10.094904899,9.4807932395,-17.99660826,-2.7591279745
255,1.0624575,18.831373215,16.69286728,-122.69693375,-0.9960352185000001,-1.0507223085000001,14.21328163,8.163061856999999,-17.618369575000003,9.1049363595
256,1.066624,18.911690710000002,16.564819335,-122.7685013,-4.582124114,-0.427604929,7.2876079085,11.946413515,-17.660210605,-2.9234690965
257,1.0707905,19.024802205,16.412195205000003,-122.75912855,-0.06110423799999998,-0.5094473365,7.419977188000001,13.112465856500002,-17.45001936,6.782837631
258,1.074957,19.11507988,16.284043314999998,-122.81002045,-3.6250649690000003,-0.567138791,11.5767822255,12.40515089,-16.90654898,-0.6277921200000001
259,1.0791235,19.216792105,16.15229797,-122.8351479,-2.4318521619999998,-1.834964335,13.985219480000001,12.92548084,-16.38132858,2.2100743055
260,1.08329,19.2948513,15.99806547,-122.89005660000001,-3.7028900385,-1.7182502745,8.230964184,11.069268227,-20.04033852,-0.05104851750000039
261,1.0874565,19.368495940000003,15.882086750000001,-122.93652725000001,-1.747412145,-1.0262358785,10.642839908500001,10.2458960995,-15.39992952,-0.6793928144999999
262,1.091623,19.452973370000002,15.749307155,-122.9596634,-3.1872897745,0.486594766,6.2559254165,10.77025843,-16.38058424,2.637843609
263,1.0957895,19.533256530000003,15.66150713,-123.02560805,-2.2735451010000003,-1.764558375,10.2345809935,11.654550075,-12.96624184,-3.8913930655
264,1.099956,19.603554725000002,15.53474808,-123.0178909,-3.2052280305,-1.1146377324999999,11.646600249999999,8.0776109695,-14.521808625000002,5.7304753825
265,1.1041225,19.6250267,15.486176969999999,-123.1060066,-4.542295933,-2.9894493815,11.142816065,5.3074436185,-9.420795202,-7.9218891854999995
266,1.108289,19.682105065000002,15.396513465,-123.06577684999999,-2.140398011,0.9278856215,7.3523144725,5.4380817415,-9.032258512,7.866657733
267,1.1124555,19.72028446,15.383082864999999,-123.14807124999999,-3.9343138934999997,-1.285092533,9.937530756,7.089669822,-5.214438231,-8.633247852
268,1.116622,19.783130645,15.313951015,-123.09259415,0.26464629149999996,-0.3904104975,11.064308641,5.660843134,-6.113728523,8.667698145
269,1.1207885,19.79239082,15.275664330000001,-123.19216155000001,-4.7443828585,-2.0284718274999998,9.372353792,4.2198562625000005,-8.787540912499999,-9.7043514245
270,1.124955,19.825133325000003,15.192863939999999,-123.13885880000001,-1.33164189,-0.5659980739999999,8.6368784905,2.1167604925,-7.712696790999999,9.050285339
271,1.1291215,19.821604725,15.191116335,-123.2407455,-5.0200487375,-1.54070732,8.8034861075,2.6969484689999996,-4.709722161,-11.296693323500001
272,1.133288,19.863287925,15.130726339999999,-123.1716385,0.110910654,0.5819149465,13.293065075000001,2.743726492,-4.6097234485000005,9.707315681
273,1.1374545,19.86315918,15.085317135,-123.28553009999999,-5.1684162615,-2.251345396,9.0378379805,3.4840040209999996,-10.1402242185,-10.8697421545
274,1.141621,19.898127555000002,14.988818645,-123.2415924,0.654705938,-0.14711588600000003,7.3709287645,2.7045817075,-9.6243777285,8.550270228
275,1.1457875,19.907035825,14.951114180000001,-123.32645035,-6.2579073905,-0.5423231945,10.347274303999999,3.6119472685000003,-8.092697383,-7.9024289229999995
276,1.149954,19.943975445,14.917298315,-123.29559705,-0.16179093699999997,-1.1994461570000001,10.84783316,3.341191769,-3.0519174935,4.601239921
277,1.1541205,19.95583439,14.886118414999999,-123.3492508,-5.6049273015,-0.8447459935,12.024325368500001,3.0699816945,-6.2246952055,-5.0134434715000005
278,1.158287,19.971734044999998,14.82152605,-123.35758974999999,-0.4436098595,-1.8271677794999999,10.014677522500001,2.0557478665,-8.103802442500001,1.4918503750000003
279,1.1624535,19.96954632,14.786375045,-123.392128,-4.363298893,0.1771473435,8.7849140165,0.7552610634999999,-5.868817568,-2.638844488
280,1.16662,19.984430315,14.734149930000001,-123.426033,0.07718908800000002,-0.9063898920000001,7.657986879499999,2.687490821,-7.682856559999999,-1.6760296830000003
281,1.1707865,20.01227665,14.725793840000001,-123.41010664999999,-5.526182413,0.2857918735,10.544705392000001,2.7987457515000003,-0.8849654200000001,1.6775670064999995
282,1.174953,20.01513863,14.69079542,-123.48348235,0.032396674499999945,-2.261214465,9.9613995535,2.4591596425,-7.2741179465,-6.609999417500001
283,1.1791195,20.022038459999997,14.662065980000001,-123.44438550000001,-5.8196194175,0.05752891299999996,10.6989114295,-0.40585726499999986,-2.2200692295,5.130481006
284,1.183286,20.00580883,14.678434849999999,-123.53996275,-1.7369083165,-2.170894861,11.496506451,0.8592679350000001,-2.4395320415,-11.3231008075
285,1.1874525,20.056216239999998,14.678127765,-123.47226334999999,-3.6430618765,1.3487909435,9.068192722,3.976418376,2.0804394485,6.966534498
286,1.191619,20.063295365000002,14.701506134999999,-123.57105255,-1.0123932359999999,-1.161053747,10.051635266,3.7794514895,-1.8100425600000003,-12.015851022
287,1.1957855,20.080784795,14.66536808,-123.5200043,-2.481213331,-0.4897580965,9.3534131045,0.543764889,-2.6373698709999998,6.550117731
288,1.199952,20.049705505,14.657469275,-123.62475205,-2.447482944,-1.7756341695,10.773657325,-0.6435769275,-5.534955532,-11.254889965
289,1.2041185,20.067437175000002,14.630725385,-123.5694809,-3.0244973899999996,-0.033243805000000015,8.559690954499999,0.449536167,-1.4069516359999998,6.63608551
290,1.208285,20.028580665,14.63748932,-123.66062165,-2.4766632614999997,-2.3446305389999997,7.415453434,-1.9286176565000002,-3.4250974655,-10.612913134
291,1.2124515,19.979373934999998,14.576478484999999,-123.63874050000001,-1.9578076899999999,-1.224995911,13.873110295,-6.534096003,-6.6555714175,4.2441190485
292,1.216618,19.85184193,14.54295683,-123.76459885,-2.9803150295,-2.5570043325,8.265362501,-11.56003523,-9.283595323,-12.652368546999998
293,1.2207845,19.732959745000002,14.499729155,-123.7872543,-1.8125343919999999,-0.61722175,7.3878757975000005,-13.55899334,-6.398763895,-1.3186206820000002
294,1.224951,19.53500557,14.46632528,-123.90740585,-1.8533304335,-2.7976323365,13.099173545,-20.204524995,-8.9916315085,-12.1001777665
295,1.2291175,19.26868057,14.37304163,-123.99796295,-1.12619859,-2.692339301,7.8263096815,-29.23385811,-14.668192865,-6.7795126429999994
296,1.233284,18.923612595,14.304226875,-124.15031815,-3.3736982345,-2.4735342265,5.7601957915,-36.976222995,-14.067353725,-14.14861393
297,1.2374505,18.51504707,14.245273115,-124.25491715,-0.18440127399999984,-2.43014431,14.91212702,-46.00776863,-11.1007034785,-9.497223138999999
298,1.241617,17.98053265,14.116949555,-124.45204925,-4.2258940935,-4.6728956695,3.056235671,-58.417505265,-22.31136894,-17.167422289999998
299,1.2457835,17.37886238,14.05306196,-124.57746125,-1.284077555,-1.928976655,10.7983047985,-68.56579971,-12.2821769725,-11.9422464395
300,1.24995,16.6929245,13.993650435,-124.75922395,-3.8427832129999997,-3.468868494,13.7655506125,-77.12046051,-13.499318359,-18.30613041
301,1.2541165,15.915548325,13.845223425,-124.9206276,-0.930684775,-2.397402406,3.8315812350000003,-88.682079315,-22.882082935,-13.268497465
302,1.258283,15.046282770000001,13.86275816,-125.08138655,-5.2254528995000005,-3.8555600644999997,13.163144585000001,-99.772567775,-3.4671294689999996,-18.773643489999998
303,1.2624495,14.080684184999999,13.718898294999999,-125.2498169,0.8720303174999999,-4.270721197,5.364429474,-111.1068535,-22.165098190000002,-14.94205427
304,1.266616,13.010317324999999,13.66551685,-125.4184265,-7.062986851,-1.5980423685,7.9481541535,-123.7506485,-11.321246148,-17.650027275
305,1.2707825,11.87475967,13.625298025,-125.56819535,0.9906316994999997,-4.7493202685,17.39761162,-132.08998105,-8.992784142,-16.29907894
306,1.274949,10.615116595,13.47483587,-125.7487831,-3.8745914995,-3.098957896,-1.7041477635,-146.18369295000002,-22.2979846,-17.13220882
307,1.2791155,9.3033447265,13.485005855,-125.88435745000001,-1.9872341154999997,-2.288558364,21.656003955000003,-153.68956755,-2.0589888114999995,-16.018876075
308,1.283282,7.852771520999999,13.29102707,-126.0684204,-3.215758085,-4.5026664735,-2.3419273495,-169.05956270000001,-26.72744942,-17.820159914999998
309,1.2874485,6.402048349499999,13.306226729999999,-126.2154503,-3.2290486695,-0.5717322825,17.685797694999998,-170.0876541,-0.8401212689999995,-17.39781761
310,1.291615,4.8439736364999995,13.123740195,-126.3738098,0.010812997499999977,-3.7598475215000002,4.1203076855,-182.7232437,-24.1371235865,-16.436264039999998
311,1.2957815,3.2438360455,13.103901865000001,-126.53384015,-5.452333927,-2.3279886845,10.9186687445,-187.7055588,-4.23244858,-18.63094139
312,1.299948,1.581802666,12.976159095,-126.6899643,0.315570116,-2.2766847015,8.73841524,-195.32369995,-16.617847115,-17.74362373
313,1.3041145,-0.111899406,12.879598145,-126.8721161,-6.8848507405,-2.1561981439999998,7.5066843085,-198.37634275,-12.4244866375,-21.32714176
314,1.308281,-1.8373232485,12.833026884999999,-127.03301625,0.9544089735,-1.8996940850000001,16.752053735,-202.86305240000002,-5.806726455,-19.12527037
315,1.3124475,-3.6210751534999996,12.6751523,-127.21987150000001,-5.7668766975,-1.857845485,3.291748643,-209.09716795000003,-18.450753298000002,-23.05362797
316,1.316614,-5.347012758,12.71366024,-127.36962890000001,-0.2584818005,-1.0121793155,19.372710705,-203.2586594,5.409056425499999,-17.277469635
317,1.3207805,-7.1445286275,12.41349888,-127.52804180000001,-3.5237742064999997,-0.051404834000000066,-2.9092350005,-211.5516815,-34.34726143,-22.840139389999997
318,1.324947,-8.862700939,12.44321871,-127.66217805,-1.0963540675,1.196177423,16.87434149,-202.7894669,5.154495716,-15.237174510000001
319,1.3291135,-10.583950994999999,12.193360805000001,-127.80912015000001,-3.043123007,-2.865856051,11.907639264,-202.827919,-27.24631119,-22.412762645
320,1.33328,-12.254281044999999,12.098611355,-127.92313765,-2.016654253,2.2514151335,8.8919308185,-197.63480375,-9.0410933495,-15.429189203
321,1.3374465,-13.85452366,11.940043925000001,-128.06201555,-4.916767001,1.7651789785000003,12.7419404965,-188.63191225,-15.533176901000001,-20.38449907
322,1.341613,-15.394868375000001,11.717267034999999,-128.15167235,3.013461441,-0.5914015769999998,7.9101994035,-182.71605685,-23.773465155,-17.12913036
323,1.3457795,-16.899744035,11.49865961,-128.23458095,-7.395079851,1.343625903,11.865113855,-178.6397629,-23.148114205,-16.88811493
324,1.349946,-18.32138157,11.298687935,-128.3313599,1.5465055104999998,1.2280039784999999,11.419219972499999,-168.3623581,-19.97649813,-18.371052265
325,1.3541125,-19.62606144,11.097391605,-128.3709717,-6.7662950755,2.260979861,14.327908514499999,-155.7001953,-21.99443436,-12.5116739285
326,1.358279,-20.860695835,10.850417140000001,-128.42536925000002,2.0901176035,2.1237617135,10.067124368,-146.97626495,-26.163825035000002,-16.5528574
327,1.3624455,-21.995720865,10.592129705,-128.39842225,-5.132638693,2.4470015765,10.781373976,-136.86583325,-30.656968114999998,-8.6140809045
328,1.366612,-23.035391805,10.333216669999999,-128.4127884,-0.4912630915,0.976797283,12.2921800625,-124.50167085,-28.620227815,-13.796587465
329,1.3707785,-23.96272469,10.1108613,-128.38251495,-5.699639082,3.7429426905,11.468150617500001,-111.99529265000001,-26.54023075,-7.5941724775
330,1.374945,-24.777775765,9.8617153165,-128.35150145,0.55145672,1.8465921875,8.369432449000001,-98.482784255,-29.284848214999997,-9.4527010915
331,1.3791115,-25.50505638,9.6325736045,-128.2967377,-4.8825535774999995,2.6190438865,8.8182394515,-88.46783447,-28.30975723,-6.020517826
332,1.383278,-26.121608735000002,9.4011797905,-128.24829865,-0.8131265639999999,2.6288941505,15.290688515,-75.008548735,-28.09011173,-7.258359671
333,1.3874445,-26.65277386,9.184323311,-128.18958285,-5.3352177145,1.6994798185,11.689932347,-64.949964525,-27.05012703,-5.610240698
334,1.391611,-27.097454069999998,8.943908214499999,-128.11975095,0.7423594445,2.9630410675,10.7699975985,-54.737121585,-30.030927660000003,-6.0566346645
335,1.3957775,-27.452981945,8.7139058115,-128.04494095,-5.5183312895,1.4048771855,10.321531772,-44.115507125,-29.245651245,-5.0367838145
336,1.399944,-27.742484095000002,8.495247364,-127.9796906,-0.398521617,1.5175936075,10.509798524499999,-35.972852704999994,-27.377212525,-5.715723634
337,1.4041105,-27.96519852,8.300935745,-127.91249465,-5.9879057410000005,1.27930063,13.009418485,-27.97522259,-24.986692429999998,-4.1362938285
338,1.408277,-28.132335665,8.0946674345,-127.8793831,-0.7758668065000001,1.0249035955,12.166612149999999,-20.671795845,-24.212722775000003,-8.6528937815
339,1.4124435,-28.2288332,7.913261890499999,-127.81268695,-4.2158455845,1.5671406985,10.7814378755,-12.7810821545,-23.574440955,-3.5630509855000003
340,1.41661,-28.290081975,7.7142689230000006,-127.77973175,-1.7071609200000002,0.8281048985,9.077538252,-7.942371489,-23.436035155,-8.3048889635
341,1.4207765,-28.29619503,7.5483005045,-127.72312545,-3.633745074,0.9515725915,10.8298451915,-1.7210468054999999,-21.364362715,-3.799265027
342,1.424943,-28.2772007,7.3805475235,-127.69459535,-2.495689988,0.2577929195,12.92322683,1.7687019705,-19.900795934999998,-6.9679834844999995
343,1.4291095,-28.223838809999997,7.2517576219999995,-127.66744994999999,-4.2839096785,0.13540637499999986,11.766094683999999,5.8938879965,-15.775873659999998,-4.7502125505
344,1.433276,-28.154603005,7.104900837000001,-127.64582060000001,-2.9045649769999997,-0.2883204145,9.244191169499999,7.92191553,-17.296165465,-6.5118253235
345,1.4374425,-28.084711075,6.999083281000001,-127.63985825,-3.4731031655,-0.7484121619999999,11.9574632655,8.205836533,-12.1698064825,-5.6500983235
346,1.441609,-28.017258645,6.8992192745,-127.64667890000001,-3.783964276,0.2522809505,11.810650825,8.1309716705,-10.734646798,-6.8245687485
347,1.4457755,-27.931527135,6.8119220735,-127.6592331,-2.7101609115,-1.020284891,8.6484355925,10.36829853,-9.1738805775,-6.532091856
348,1.449942,-27.85159874,6.7292461395,-127.6728439,-3.0963411335,0.240867041,10.86671114,9.7112617485,-8.5819427955,-6.497622013
349,1.4541085,-27.79869747,6.676286459,-127.71928405,-2.5969749689999997,-1.0955729485,10.481662274000001,6.9056239129999994,-3.6557793614999996,-8.1886031625
350,1.458275,-27.736662865,6.600643635,-127.74604795,-2.6412500144999997,-0.7948684534999999,10.1003231995,7.7382931725,-7.093057992,-7.4953160285
351,1.4624415,-27.696602820000003,6.536694288,-127.77925110000001,-2.556306243,-0.765341848,10.848786352000001,5.1672827009999995,-5.5733578205,-7.4028160575
352,1.466608,-27.68668079,6.4611206055,-127.82059860000001,-2.7159520390000003,-1.466083169,10.3798851985,1.6807935905,-6.293681502,-9.042037011
353,1.4707745,-27.685329435,6.4067246915,-127.85490035,-2.053867221,-0.7961805909999999,8.2513051035,0.5187590124999999,-4.4851298335,-6.979367257
354,1.474941,-27.712817190000003,6.35009861,-127.8828354,-3.2831270695,-0.574329436,8.5507166405,-3.0038008095,-5.036341667,-6.5484910020000004
355,1.4791075,-27.756848335,6.328532696,-127.94089124999999,-2.2384103535,-1.3094237145,10.361755372000001,-4.614224911,0.3258835674999999,-7.676458119
356,1.483274,-27.820456505,6.312698602999999,-127.9580307,-3.2463903425,-0.9867137074999999,11.104859115,-7.478710651,-1.252683416,-3.206626922
357,1.4874405,-27.912047385,6.2670133114999995,-127.9953003,-3.2638839485,-1.7205074725,8.012166977,-10.603046894,-3.3878353835,-6.820667982
358,1.491607,-28.025954245,6.2867126465,-128.01860045,-3.1733276845000002,-0.689099342,9.421955703,-13.445293425,2.823912833,-1.783897489
359,1.4957735,-28.141259195,6.2885096075,-128.06328580000002,-2.2383995655,-0.5722234625,12.88295269,-13.3516716945,2.0962375925,-4.9514436725
360,1.49994,-28.259305,6.3108403685,-128.08924865,-3.8313513995,-1.142323628,9.740065811000001,-13.901742935,3.303699017,-1.9733464125
361,1.5041065,-28.410595895,6.297154188,-128.12400055,-1.9068174955000001,-1.961451888,8.377410412,-17.801911835,-0.09863376650000011,-4.76080358
362,1.508273,-28.587212565,6.2987029555,-128.1530151,-3.945100784,-0.4636347595,11.454725979500001,-20.899839399999998,1.2626028655,-3.4130722285
363,1.5124395,-28.74615097,6.330783606,-128.21694945000002,-3.086824417,-0.9249758425,10.4753632545,-18.33593845,6.422944784,-5.177273035
364,1.516606,-28.90443516,6.3632321355000006,-128.25098415000002,-2.3189465405,0.538654655,6.9969780445000005,-18.626542569999998,4.8330423835000005,-2.1662284730000003
365,1.5207725,-29.070744515,6.3653051855000005,-128.28224945,-1.9960262775,-0.8166916965,12.1997814155,-19.65065956,1.3797816035,-3.4516348839999997
366,1.524939,-29.228290559999998,6.386453152,-128.2960968,-2.5513920785,-1.2685322165000001,11.467927454,-18.80397892,2.4921378284999998,-0.7193823905000001
367,1.5291055,-29.384688375,6.366740465,-128.3080444,-2.277167797,0.11307275300000008,6.1482483145,-18.72336006,-1.9894015195,-2.715391457
368,1.533272,-29.537576675,6.392098665,-128.30861665,-2.629644394,0.10679128749999998,10.4314892305,-18.419098855,2.1682137845000002,0.8966199754999999
369,1.5374385,-29.668414115,6.4045813085,-128.3345108,-2.3663257365,-0.790880233,10.7688508025,-15.47039366,2.1847731175,-2.2526252270000002
370,1.541605,-29.78859997,6.416429758,-128.3312073,-2.0954583885,0.12654924349999996,9.7566864515,-14.558149815,0.516414881,0.556130074
371,1.5457715,-29.908023835,6.405265808,-128.3350677,-4.144252062,-0.8623406365,11.223822595,-14.390784265,-1.5628970865,-1.4072462915
372,1.549938,-30.01598549,6.4298877715,-128.34932709999998,-1.65216136,-0.883441836,10.8314209,-12.84601593,2.924480438,-0.570557222
373,1.5541045,-30.09216213,6.4208073615,-128.352478,-4.0096012355,0.7057108435,9.245065212,-9.2224066255,-1.4052419365,-1.1532042625
374,1.558271,-30.14850235,6.442664623000001,-128.3568573,-2.279381812,0.108412152,10.2056417465,-6.787286639,2.0311065915,0.3105021415
375,1.5624375,-30.20184708,6.440420151,-128.36494445,-2.8639050125,-0.9496959745,9.942550657,-6.4167630675,-0.40797674650000015,-1.2604637145
376,1.566604,-30.24111271,6.4345085619999995,-128.36285405,-2.2646297215,-0.44336569300000006,13.237805365,-4.833508849,-1.2495329380000002,-0.6657268405
377,1.5707705,-30.28472519,6.401209593,-128.3497696,-3.6574202775,-1.542214587,9.703107834,-5.5311001225,-4.886120442,-0.9797189835
378,1.574937,-30.353163719999998,6.390918255,-128.3483887,-1.721574962,-0.993124694,10.262640477,-8.3276109695,-1.671495363,-0.9934032465
379,1.5791035,-30.39463234,6.361705064500001,-128.34232329999998,-4.6022113565,-0.7759933175,9.709410904,-5.191089868500001,-4.0571604965,-1.4112740160000001
380,1.58327,-30.428346635,6.3758270745,-128.33865355,-1.2246791049999999,0.110857297,8.878243922,-4.1901050805,0.7058387995000002,0.7311198675
381,1.5874365,-30.47196865,6.375259161,-128.35021975,-3.9850058555,-0.45633301550000005,11.477910045,-5.215704918,-0.04282707000000008,-1.4746435880000002
382,1.591603,-30.493104934999998,6.382056952,-128.3411331,-1.4562371895,-0.9789301830000001,9.502831457500001,-2.760017276,-0.36305606349999997,0.8401533065
383,1.5957695,-30.52275944,6.384300709,-128.32065585,-3.7833772894999997,-0.885713026,11.435838225,-3.9681386275,-1.7130994795000003,2.010999501
384,1.599936,-30.555065155,6.393817425,-128.31964875,-1.5270487365,-0.989299446,10.5042912935,-4.001744151,0.3617755174999999,0.2396724375
385,1.6041025,-30.581596374999997,6.3946416379999995,-128.29404449999998,-4.0566883085,-0.9582930205,6.991108776,-3.6736578305,-2.1640121935,2.4647105635
386,1.608269,-30.62250805,6.4307837485,-128.28942869999997,-1.279928684,-0.39847180249999997,11.381549835000001,-5.0746092795,2.9076321125,2.1952488569999997
387,1.6124355,-30.636774064999997,6.467585802,-128.29889680000002,-4.9624819755,-0.6566372255,9.1911773675,-1.7405576704999999,3.6422352790000003,1.118029356
388,1.616602,-30.669057845,6.512501240000001,-128.29924775,-0.5474003255000001,-0.582076043,7.8374068725,-3.9755089879999996,4.126165390000001,2.2149335150000002
389,1.6207685,-30.715833664999998,6.5733289720000005,-128.3173294,-4.894687414,-1.0555220245,13.828171255,-5.516083717,6.6350545885,1.707285024
390,1.624935,-30.73538971,6.602822542,-128.32601165,-1.1338100210000002,-1.303280443,9.476058243,-2.3312541245,3.0630016025,0.3891762715
391,1.6291015,-30.774108885,6.6661274435,-128.3356781,-4.482811928,-0.7547332495,9.143085003,-4.656803131,6.412499040999999,2.660614729
392,1.633268,-30.818936344999997,6.717416525,-128.3585434,-0.735667862,-0.872959882,10.2226362235,-5.161493182,6.1943365345,0.2519992795
393,1.6374345,-30.8376503,6.7747125624999995,-128.37083435,-5.260076046,-0.9326121810000001,9.217446327,-2.2259926005,5.9271730185,2.0729089975
394,1.641601,-30.872462275,6.8528511524999995,-128.4010315,-0.504343584,-0.333098084,8.992851257,-3.85005039,9.3879637715,1.178229302
395,1.6457675,-30.899955745,6.919234513999999,-128.42923739999998,-4.3574694395,-0.96196273,9.767203332,-3.051327765,7.847759485499999,1.0028933735
396,1.649934,-30.928067210000002,6.982798815,-128.4437332,-1.270009145,-0.9480898385,12.977370740000001,-3.262882233,6.923233509,1.888358295
397,1.6541005,-30.962223055000003,7.06952858,-128.49256895,-4.05120039,-1.2948151669999999,8.988742113999999,-3.541399121,11.2090089305,0.157995045
398,1.658267,-30.97916317,7.1120808125,-128.49023435,-1.407512143,-1.084690809,8.568971157,-2.1686105729999996,3.7360288795,2.306331396
399,1.6624335,-31.010334970000002,7.205583572,-128.54106905,-3.431955099,-0.8768259435,11.084140779999998,-3.1475028395,11.99243212,0.431939289
400,1.6666,-31.018159865,7.264736891,-128.53475955,-2.7546037434999997,-0.15837442899999998,6.4844608305,-1.143054247,5.177366972,3.7784843445
401,1.6707665,-31.041007995,7.367861747499999,-128.59519955,-3.2379317285,-1.3984408975,11.373579500000002,-1.984539985,13.57498312,0.0405025215
402,1.674933,-31.031638145000002,7.4805803300000004,-128.59516904999998,-3.454097271,-0.564750135,9.8475828185,1.014650397,11.06614542,6.461896181
403,1.6790995,-31.017142295,7.611069441,-128.63038635,-3.182938993,0.12725916499999998,9.476797106,2.133890152,14.856976035,4.2672684195
404,1.683266,-30.970222475,7.773433685500001,-128.64636995,-3.6065740585,-0.2086747065,12.844144345,5.781769037,17.175739285,7.8574066165000005
405,1.6874325,-30.85695076,7.9507610799999995,-128.6649475,-2.990375757,0.9493840115,9.1374373445,13.735454557,18.704402925,8.7923526765
406,1.691599,-30.689715385,8.1404309275,-128.65592955,-3.5652953390000004,1.141297154,10.797998905,19.8279109,18.53207302,11.950246808500001
407,1.6957655,-30.439414980000002,8.3583312035,-128.6790848,-2.3872104885,1.36473465,13.004871845,30.263301849999998,23.200410845,10.718053345000001
408,1.699932,-30.099419595,8.5704140665,-128.65249635,-3.9292485709999996,0.8859758230000001,9.669557572,40.226705550000005,19.886579515,15.005444050000001
409,1.7040985,-29.66866589,8.798377991,-128.6397018,-2.1616303325,1.953042388,10.448633195,51.288278575,22.256675719999997,14.718183995
410,1.708265,-29.16142368,9.011854172,-128.6198044,-3.2281033995,1.4896632429999999,11.8424181915,60.392940519999996,20.641533850000002,14.0936265
411,1.7124315,-28.529606819999998,9.215182781,-128.58164215,-0.5525230615,1.5157067175,11.640179156999999,74.92583847,18.52265072,15.453678135
412,1.716598,-27.80481529,9.392689228,-128.5317764,-3.8493026495,2.194140732,6.5632343295,85.909496305,15.495183945,14.674446105000001
413,1.7207645,-26.98300743,9.5909848215,-128.48417665,-1.362579167,1.9077290295,13.096877575,97.501590705,17.85466671,15.70660305
414,1.724931,-26.07413578,9.764482498,-128.42046355000002,-4.721476078,0.685382873,11.3498973845,107.6844711,14.77225161,15.432067870000001
415,1.7290975,-25.055065155,9.963900565500001,-128.37551115,-2.2851803895000002,1.3165025715,15.309918880000001,121.20106125000001,18.656229975,14.807309625
416,1.733264,-23.96323967,10.112287519999999,-128.29997255,-2.9886112215000002,1.1209495065,7.5959160325,129.34671020000002,12.00309515,14.89497328
417,1.7374305,-22.755784985,10.302134039999999,-128.2043457,-1.4550139755,1.3213123384999998,12.262969015,142.7064743,15.827266215000002,19.04442978
418,1.741597,-21.464674000000002,10.44800711,-128.1098709,-4.2892567515,1.002419166,8.4437263015,152.7931137,11.508481503,16.328874114999998
419,1.7457635,-20.057186129999998,10.639602660000001,-127.9984131,-2.077338308,2.187217474,16.9715209,166.29652405000002,16.22868252,20.066329005
420,1.74993,-18.564490315,10.774780275000001,-127.8758087,-3.798349023,0.974761948,10.490548608000001,176.29280849999998,10.010415075000001,18.43628931
421,1.7540965,-16.953048705,10.93501139,-127.73746489999999,-0.794831842,0.2951126545,10.923417569,190.10390475,12.7576766,20.943728445
422,1.758263,-15.283904075,11.042958259999999,-127.58231355,-3.258535743,1.0180847945,7.597796677,196.62101745,6.807700156999999,20.697434425
423,1.7624295,-13.528910634999999,11.17688036,-127.43694685,-2.461643517,0.4997038545,18.879286765,207.1125412,10.746520044,20.064544679999997
424,1.766596,-11.74290991,11.27852583,-127.28281025,-3.109992623,-2.346138835,10.4265131965,210.6076584,7.377746105,19.86330986
425,1.7707625,-9.9084758745,11.34441948,-127.09552765000001,-0.7002498804999999,-0.10723143800000001,10.472392554999999,215.59253695,3.0599831345000004,22.642071719999997
426,1.774929,-8.056415319500001,11.38826466,-126.92560195,-2.7409820555,-0.9196242689999999,10.6586926,218.1169357,1.5172483325,20.082118985
427,1.7790955,-6.2153298855,11.42846155,-126.7413559,-2.1993910075,-3.029999018,12.003283978999999,216.42630765,1.5118226895,21.587898255
428,1.783262,-4.385468960000001,11.454782009999999,-126.5597458,-2.8614423275,-2.016849577,14.296506885,215.1367798,0.5994944685,21.12705898
429,1.7874285,-2.5730808975,11.43926048,-126.40480045000001,-2.8093845845,-2.5143903495,11.386030676499999,213.70452115,-3.5308417079999996,17.4170475
430,1.791595,-0.7860156444999999,11.436366085,-126.24652485,-1.454698324,-3.097163558,9.439268589000001,210.57470704999997,-1.4758453519999999,18.095581055
431,1.7957615,0.958683133,11.391609665,-126.10131075,-1.5377872735,-1.8293269875,9.5847203745,205.83386230000002,-5.9210577015000005,16.4091115
432,1.799928,2.652923703,11.363721850000001,-125.9786148,-2.7763404845,-3.1450822355000003,13.311406135,200.28131865,-3.4778128864999998,14.10946846
433,1.8040945,4.279378176,11.317510129999999,-125.85775375,-2.7887666225,-4.431824922500001,10.5834317225,192.264122,-5.2742035385,13.728544235000001
434,1.808261,5.838271141,11.290926935,-125.75788115,-2.9975250955,-3.811910391,10.8860316265,184.5772934,-2.7219780685,11.659743785
435,1.8124275,7.312720776,11.244171145,-125.63198475,-2.3252916935,-3.236986756,10.9238820085,173.9418564,-4.502777099499999,14.530596254999999
436,1.816594,8.692615032500001,11.200653075,-125.5682144,-3.151407957,-4.957853794,9.8347666255,163.9517746,-4.688267063,7.908807039499999
437,1.8207605,10.0046181685,11.16675377,-125.44681165,-0.6208385825,-2.3613984585,8.84695673,154.53298949999999,-2.3130280375,14.126467705
438,1.824927,11.21292257,11.125288485,-125.39517215000001,-3.2638661865,-4.2803554535,10.400979757,143.64714815000002,-4.316664814,6.690950632
439,1.8290935,12.325148585,11.073894975,-125.27807615,-0.8207827285,-4.2693827155,5.8542060854999995,130.68641665,-3.8520288455,14.115394590000001
440,1.83326,13.325820445000002,11.072859285,-125.2227211,-4.815884351499999,-4.5304516555,11.170925140000001,118.63129805,0.8143017290000001,6.292016745
441,1.8374265,14.220315455,10.97973633,-125.12392045,0.23675274850000005,-3.524776578,7.3941133035,104.97888565,-8.694987535500001,13.44032526
442,1.841593,15.03307629,11.011159894999999,-125.06533435,-5.1607482430000005,-3.4445029495,13.5060844405,96.034122465,4.8803772930000004,5.5806889535
443,1.8457595,15.73919201,10.89587784,-125.00297545000001,1.7742170545,-4.207157135,9.6200823775,83.20573043499999,-11.9915299425,10.308815478
444,1.849926,16.363089565000003,10.896689415,-124.94569395,-4.376105666,-2.859114528,8.389349459,73.417892455,1.4534106255,6.3065435885
445,1.8540925,16.892539975,10.812660215000001,-124.8854561,0.008800506499999972,-3.6744223835,6.431702672,62.071998595,-8.2367247355,9.228246212
446,1.858259,17.31179619,10.788235185000001,-124.85797500000001,-3.7535104155,-2.9667565825,4.3610861895,49.56534386,-2.3639812499999993,3.748530507
447,1.8624255,17.69394398,10.76068735,-124.79309845,-0.2842836380000002,-3.1507611275,17.57403326,44.363521575,-1.5492639540000002,7.535805941
448,1.866592,18.001358985000003,10.65100479,-124.79720305000001,-2.626828574,-1.633399427,3.519982338,36.88768578,-13.2473542705,3.2030002775
449,1.8707585,18.292100904999998,10.64095402,-124.73349,-0.8591525554999999,-1.323053837,14.595301630000002,33.44220352,0.5011434554999998,6.781267165999999
450,1.874925,18.51214886,10.50451279,-124.72892379999999,-2.3586027025,-3.1579221485,4.921340346,26.19480991,-15.910942075,5.380908608
451,1.8790915,18.726210594999998,10.531370160000002,-124.64979935,-3.059142709,-1.3777621985,14.17270899,23.94171047,5.319965841,7.0327830315
452,1.883258,18.908862114999998,10.423187259999999,-124.6395607,-0.705558628,-1.7425600289999998,9.146078468499999,21.565249440000002,-12.4174261105,5.0979337695
453,1.8874245,19.04298401,10.296695235000001,-124.60274885,-0.8841826915,-0.7898602335,2.770628512,15.2928214075,-13.656083344999999,8.26368165
454,1.891591,19.203463555,10.25362301,-124.57886884999999,-3.385146141,-1.1568031755,15.154485699999999,18.618247035,-4.461771488,4.1735148429999995
455,1.8957575,19.331605915,10.101161481,-124.56098560000001,0.3005309405,-1.4244410995,8.730655193499999,14.95094156,-17.234144215,7.4101183415
456,1.899924,19.46494198,10.0125350935,-124.564003,-4.8272488115,-0.587591872,9.136575701,15.968477725,-10.69368458,2.8938140275000004
457,1.9040905,19.62104416,9.872137069499999,-124.54615785,2.2718786595,0.175068304,10.143030168,18.29249859,-15.78678417,7.133190632
458,1.908257,19.752999305,9.7223000525,-124.56723020000001,-5.5568742755,-3.0786153075,10.88946724,16.158947465,-18.290616035,3.4692388775
459,1.9124235,19.890316005000003,9.6115660665,-124.5450592,0.5258536935,1.1846310495,10.155390265000001,15.963060380000002,-12.209638116499999,6.5282707215
460,1.91659,20.053819654999998,9.4712581635,-124.56169890000001,-4.0038300755,-0.853567332,9.4829437725,19.83587551,-16.99690819,3.712267041
461,1.9207565,20.203184125,9.2890520095,-124.54755019999999,1.1916184425,-1.469319075,8.332944393,17.581663130000003,-20.554146765,8.6490757465
462,1.924923,20.3509922,9.1568422315,-124.58818439999999,-6.086845636,-0.4868136645,10.7210655215,18.422158715,-17.08165026,0.7046414120000001
463,1.9290895,20.530023575,9.0142641065,-124.55111690000001,1.8100434239999998,-0.1764647365,12.569485189000002,20.714162825000002,-15.090502265,9.663252351
464,1.933256,20.701306345,8.882000446500001,-124.60605240000001,-5.4124245645,-0.9970976564999999,10.8686523455,21.476621629999997,-17.6627125745,-0.741084084
465,1.9374225,20.8791523,8.6860547065,-124.58184815,2.5729963775,-0.21611966200000002,9.727705478,20.831341745,-21.547928810000002,10.627466676000001
466,1.941589,21.053266524999998,8.572003841499999,-124.6390495,-7.774792671,-2.0313747525,9.6582870465,21.832481385,-15.724903585,-1.683470368
467,1.9457555,21.247549059999997,8.432144642,-124.61260985,2.8991693554999998,1.3482689854999999,9.5794663425,22.775572775,-15.102727415,8.5834579475
468,1.949922,21.42597389,8.307267189000001,-124.66899105,-6.1493206019999995,-2.0961905720000003,10.9300665835,22.307548519999997,-16.909801485,-1.0239350795
469,1.9540885,21.58890057,8.142391682,-124.6646881,2.0772081614999998,-1.0531630515,8.509755373499999,19.416941645,-18.812408925,7.304794788
470,1.958255,21.76700211,8.0737125875,-124.70581435,-8.556920767,-0.23132094749999998,11.476706506500001,21.995831485,-10.0066230295,-1.8152753685
471,1.9624215,21.953284265,7.9832713605,-124.67581559999999,2.9789461495,-0.9732364715,11.2649965285,21.796105384999997,-9.349655151,6.8954000475
472,1.966588,22.113118175,7.945150851999999,-124.7094498,-7.672531127999999,-1.6585397720000001,11.031333925,19.66954613,-6.292680622,-2.3266950105
473,1.9707545,22.266896244999998,7.8499445915,-124.69309235,4.286212921000001,0.1434732675,9.5902369,18.11832142,-10.4098808785,5.7545292375
474,1.974921,22.41054535,7.845424175,-124.71541595,-9.091678141,-1.071857825,7.2380774025,17.539915085,-2.0509451035,-2.556832701
475,1.9790875,22.555272105,7.824050188,-124.6902199,3.67121768,-1.6378424465,9.3873000155,16.91377163,-1.8496305965000004,3.246182702
476,1.983254,22.68105888,7.848807335,-124.69685745,-8.027433157,-0.47855442750000005,12.57978344,15.139420985000001,1.8868992325000002,-2.2105606499999997
477,1.9874205,22.77177143,7.827562809,-124.71603775,3.301754594,-1.42165016,10.308987139,11.147322655,-3.8204981685000003,-1.5311614274999998
478,1.991587,22.8709774,7.86706543,-124.70269780000001,-6.612236261,-0.920430437,9.184514522499999,11.62383604,4.4343046845,-0.709655255
479,1.9957535,22.95957947,7.894269942999999,-124.70111465,1.522880718,-1.0303443075,10.052755595,10.5780458465,2.442561045,-1.623603225
480,1.99992,23.01210785,7.9697356225,-124.6723175,-4.89225179,-2.028564036,10.866208074,5.7805382025,9.079754828999999,-0.8295554519999999
481,2.0040865,23.027602195,7.9800009725,-124.68808365000001,-0.585136533,-1.098510921,10.0242619495,2.0945535900000003,-0.23451109250000002,-2.7331222295
482,2.008253,23.047644615,8.059717655,-124.65130995000001,-2.2179072795,0.2816883565,6.5861635204999995,1.7471596805,9.927764414999999,-0.1386242805
483,2.0124195,23.069755555,8.0841584205,-124.6521454,-0.7992546554999999,-1.0267696845,10.325110911500001,2.640245199,2.0261051055,-1.761881411
484,2.016586,23.06983948,8.1250844,-124.6230545,-2.1796694695000003,-1.249710813,10.4386267685,-0.522133395,5.2802271845,0.8210451304999999
485,2.0207525,23.04600048,8.153736591,-124.6454277,-3.212707102,-0.8509991465,9.902471302999999,-2.503862411,1.4882000089999998,-4.317855835
486,2.024919,23.048503875,8.19880867,-124.60489655,0.762373239,0.579723418,9.0984339695,-0.4289616195,6.275801897,1.8937182424999999
487,2.0290855,23.046872139999998,8.2172317505,-124.625473,-3.650716424,-1.0712079855,10.9087398045,0.1359857915,0.4447653294999998,-3.636343837
488,2.033252,23.035772325,8.208609104,-124.60824965,1.545380861,-0.726266611,9.556792738,-1.672020406,-0.7213416100000001,1.9038225409999998
489,2.0374185,23.01748371,8.207370281,-124.63270184999999,-6.3735573290000005,-1.3829637915000002,11.8879160905,-1.7957954405,-1.9048599005,-3.1349651515
490,2.041585,23.011232375,8.2236227985,-124.6220131,2.1995149855,0.6260292679999999,9.863923552,-0.9693452120000001,1.7135282754999999,0.0023694035000000335
491,2.0457515,23.005724909999998,8.21837759,-124.6459274,-5.4026747945,-0.574823171,10.969850059999999,-0.27356000599999997,-2.3116204740000006,-2.8676226735
492,2.049918,23.008034705,8.207056522,-124.6491852,3.0855073930000003,-0.4497856945,9.765617845,0.29474309100000007,-1.9648300404999999,-0.19296485200000002
493,2.0540845,23.00401592,8.1769557,-124.6999741,-6.49796319,-0.8681778609999999,10.1547889695,0.34358948450000015,-6.2516216015,-4.520112037500001
494,2.058251,23.00490284,8.176198959499999,-124.69258115,0.3647521885,-0.9721482995,11.3432524205,-0.06352317350000014,-0.2820509675,0.528940373
495,2.0624175,23.016620635,8.206623554,-124.73247144999999,-5.966125727,0.5965079215,11.0596284885,2.04487437,0.9470288755,-6.1482238765
496,2.066584,23.046234130000002,8.213417053,-124.7044754,2.556960285,0.4978878645,9.998660324,3.035696745,1.5097606185000005,2.431892395
497,2.0707505,23.074750899999998,8.2210178375,-124.7517471,-5.4449203015,-1.5432422159999999,10.3305859575,4.1936846975,-1.9325940609999996,-5.9087371829999995
498,2.074917,23.11087036,8.2108988765,-124.7247734,1.9303046465000002,-0.192510605,9.442247869000001,3.839029521,-0.42252016049999996,3.0569373965
499,2.0790835,23.14195919,8.240412235,-124.76268005,-7.0749344825,-0.7395089415,11.490168097,4.3527874650000005,0.9014415740000001,-5.947401404000001
500,2.08325,23.178699495,8.2753014565,-124.7172966,1.5449602605,-0.3794745055,10.244642735,3.5917371515,5.4191400705,2.9718470575
501,2.0874165,23.22651577,8.3355183605,-124.7433739,-6.328263998000001,-0.6946011744999999,10.622970581499999,6.170860052,4.814740181,-6.155568123
502,2.091583,23.26279736,8.3612241745,-124.69800945,3.120471239,-0.04002231350000002,9.969013215499999,3.533208907,4.3973691465,3.3636036215000003
503,2.0957495,23.27065468,8.396637916500001,-124.75370785000001,-5.8608000275,-1.5852955579999999,9.943142891,1.9057762065000001,0.6640369895,-8.2645568845
504,2.099916,23.27040863,8.426736355,-124.7217026,2.135188341,-0.4072872695,9.1450302595,-0.6092667205,4.2300509515,1.6327922344999999
505,2.1040825,23.244304659999997,8.5127396585,-124.7750816,-7.681465626,-1.494330216,11.048426150000001,-2.1890504655000003,6.3352023365,-10.4398720275
506,2.108249,23.206477165000003,8.5764169695,-124.757061,3.960242987,-1.6872588995,9.3126444825,-4.884538293,7.2954022865,-1.4426579474999999
507,2.1124155,23.103831295,8.638382912,-124.82601165,-8.082645416,-1.8790940045,11.91828394,-11.0747470875,2.9674110395,-11.014016389999998
508,2.116582,22.95108986,8.7015590665,-124.84687805,3.5353546145,-2.109579265,8.938559532500001,-17.96793842,5.4274029115,-5.659436016
509,2.1207485,22.782446865,8.7845458985,-124.90145495,-7.5532627105,-0.933475196,7.9763178845,-19.232515335,6.005522847,-10.4042968765
510,2.124915,22.561394695,8.869589805499999,-124.91386795,4.485463977,-1.3666995765,10.535568478,-26.309762955,8.2592077255,-5.734434962
511,2.1290815,22.249052045,8.926022053,-124.98866655,-8.019016743,-3.768305302,8.5344135765,-36.079610825,2.217556,-11.374536752
512,2.133248,21.888770100000002,9.0111427305,-125.0104332,4.002641082,-1.4870529769999998,4.508653343,-42.842653275,7.9325358884999995,-6.6056176429999995
513,2.1374145,21.436611175,9.1240320205,-125.07083515,-7.067918539,-2.767484009,13.67205715,-53.101846695000006,9.2798467275,-12.276674985500001
514,2.141581,20.872829435,9.1717734335,-125.1497688,3.818586588,-4.7502890825,8.38384795,-66.17258644,1.4225609305,-11.117067337
515,2.1457475,20.254689215,9.2915802,-125.2132225,-7.8796584605,-0.784227997,5.5975753070000005,-72.931388855,10.1473901255,-12.707648755000001
516,2.149914,19.536006925000002,9.366935253,-125.2862358,4.6344304085,-3.0981972215,15.31761312,-84.84989929,5.030218123,-11.530047895
517,2.1540805,18.698592185000003,9.409687996,-125.38339615,-7.499492407,-4.6833090785,4.0231830475,-98.57492063000001,0.4376759525,-13.094154835000001
518,2.158247,17.81289196,9.525091648,-125.46675495,1.9913859370000002,-1.613631189,13.97844696,-104.6932068,9.583411934,-13.869023325
519,2.1624135,16.689037325,9.556064129,-125.56518940000001,-2.6696189045,-8.4186959265,5.682554542999999,-132.91244505,-0.5099544504999995,-12.76247549
520,2.16658,15.45394945,9.590410709499999,-125.6851616,-0.716731392,-5.0033481124999994,9.297430991999999,-145.8146973,-0.5493221285000001,-15.154430869999999
521,2.1707465,14.02167654,9.567993164,-125.7998886,0.5501256290000001,-2.6258865594999996,5.588901043,-169.57938385,-6.665381849499999,-13.00222063
522,2.174913,12.519438265,9.427471638,-125.9534645,-0.20804113150000003,-4.6575167175,10.909874676,-177.27760315,-21.091260910000003,-13.95668888
523,2.1790795,10.91536236,9.294486523,-126.07418824999999,-0.22122240050000003,-2.8018793465,10.393301488,-190.0941925,-19.164278985000003,-11.39851904
524,2.183246,9.295671463,9.0280394555,-126.2386665,-1.572237432,-0.8715065120000001,11.050506116,-191.2833862,-35.409977915,-13.791677475
525,2.1874125,7.579496860499999,8.785033226,-126.38558574999999,-1.1522536965,-2.6074851155000003,7.685784593999999,-203.1818161,-32.010002135,-13.521974085
526,2.191579,5.922778845,8.517614365,-126.54282764999999,-2.1997796895,-1.6295182110000002,20.807137015,-196.0354538,-34.576093674999996,-14.870123385
527,2.1957455,4.20986557,8.1368751525,-126.66717915,-0.4871493575000001,0.08282816400000004,-0.03162240949999995,-203.33869935,-47.424274444999995,-11.4169693
528,2.199912,2.5200225114999997,7.907840252,-126.81420514999999,-3.303581238,-1.3921095505,18.94998932,-200.38718415,-29.007716175,-15.835237504999998
529,2.2040785,0.8186456259999999,7.44654274,-126.9073486,1.2245458365,-0.623721331,3.9200207885,-202.63871765,-56.236282349999996,-10.2225613615
530,2.208245,-0.85439235,7.1660313605,-127.04291914999999,-6.2589356899999995,-0.11159241200000003,10.557780624500001,-198.73366545,-34.23420334,-16.213778495
531,2.2124115,-2.5179526809999997,6.859550476,-127.1014595,1.429639697,-0.5713637245,12.741364,-198.75579835,-37.106244085,-8.812573668999999
532,2.216578,-4.200568676,6.5176410675,-127.22121045,-6.567878008,-2.5885928865,14.602630615,-200.28485110000003,-40.72524071,-16.68280983
533,2.2207445,-5.843989849,6.2836625575,-127.2661667,-1.090081669,0.19835823749999998,8.283086298,-196.6257782,-28.04519749,-8.2247388385
534,2.224911,-7.461580037999999,6.0506932735,-127.3708153,-5.73835206,0.7881002424999999,9.434378385999999,-192.79318999999998,-26.947423935000003,-15.799442764999998
535,2.2290775,-9.045012951,5.863247156,-127.39369959999999,1.1917408555,-0.7471919950000001,13.313035965000001,-189.76416015,-22.419198989999998,-6.293005944
536,2.233244,-10.620167729999999,5.624377727500001,-127.4734192,-5.097598791499999,-0.645798359,9.955296754999999,-188.08300020000001,-27.257965085,-14.504778860000002
537,2.2374105,-12.13225126,5.4842147825000005,-127.5009003,-1.336794555,0.5762808025,9.3929348015,-181.1789627,-16.394279955,-6.7805564679999994
538,2.241577,-13.58826065,5.375123738999999,-127.56592945,-5.1687452795,1.513593331,10.210233687999999,-173.99492645,-11.66792345,-10.851488829
539,2.2457435,-14.967774864999999,5.301311493,-127.59770965,-0.9610976579999999,1.3163480760000001,13.902068135,-165.24583435,-8.226805925499999,-6.051295904000001
540,2.24991,-16.298574925,5.264602184499999,-127.64390185,-5.8209555145,1.3219490944999999,13.923251154999999,-159.2058182,-3.4060080944999997,-6.810813069
541,2.2540765,-17.573668480000002,5.207713842,-127.67347715,0.538984761,0.4921019675,8.9379706375,-152.74214935,-6.0631830695,-5.668854238
542,2.258243,-18.766174319999998,5.226181030499999,-127.70575715000001,-6.0502388475,2.6724460125,10.103922845,-142.77372745000002,2.6724894045,-3.2863862514999997
543,2.2624095,-19.868345259999998,5.264558315,-127.76181030000001,0.1403802565,1.9529326559999998,9.221373797,-131.6990814,5.978273034,-5.0668961405
544,2.266576,-20.899259569999998,5.3618631365,-127.80172350000001,-6.722374916,2.1505099535,10.6173982635,-123.29234695000001,11.988799095000001,-0.7977221010000002
545,2.2707425,-21.84603977,5.4568834305,-127.87866975,0.895760983,2.011173904,13.09182167,-112.80453109999999,13.370058539999999,-4.6536552905
546,2.274909,-22.708952905,5.5601780415,-127.8957367,-4.722838044,3.097037077,10.3392214795,-103.37547685,11.650715829500001,2.3379726410000004
547,2.2790755,-23.478523250000002,5.631389618,-127.9839134,0.11603271950000016,0.142903924,10.181470395000002,-91.38036728,11.394917490000001,-6.6156984285
548,2.283242,-24.154507635,5.7802011965,-127.98942565000002,-5.5795803070000005,3.0648071765,12.49465752,-81.07968521,16.018949035,6.142404913
549,2.2874085,-24.76575279,5.872476816500001,-128.1149025,0.16161680199999995,0.6872848125000001,9.2896563985,-71.88262558,15.68999672,-9.379143955
550,2.291575,-25.278466225,5.9931845665,-128.09783175,-3.121598154,3.23848927,9.873904228499999,-61.772575375,11.680167196,7.518476248000001
551,2.2957415,-25.721987724999998,6.074928522,-128.21670534999998,-0.7448629145000001,0.9488115644999999,10.3875141135,-51.794986725,14.32826376,-8.853705405
552,2.299908,-26.101840969999998,6.188912392000001,-128.21034244999998,-2.74757573,1.4857875405,11.615748406,-45.70255661,11.43599272,6.167068958
553,2.3040745,-26.449823379999998,6.217987299000001,-128.3003006,-0.6924362035,0.21032327399999995,10.5519816875,-40.66322136,7.222643852,-8.351708889
554,2.308241,-26.732801440000003,6.269341707500001,-128.28620915,-2.0734415349999997,1.4877444505000001,12.519073485,-34.17959595,4.2550283669999995,3.7063708904999997
555,2.3124075,-26.963032724999998,6.257861376,-128.33888245,-0.5392668844999999,0.2661305665000001,9.821817873,-27.00901222,0.9826200600000001,-6.552317381
556,2.316574,-27.146205899999998,6.2638423445,-128.30322265,-3.0776690245,1.0812253955,8.490898609,-22.49084854,-1.8053239435,3.575199068
557,2.3207405,-27.29959488,6.225525856,-128.3487854,-1.47245954,0.737058036,13.255601885,-17.885017395,-2.2408105435,-7.253274917500001
558,2.324907,-27.402917865,6.2177028655,-128.31466675000001,-2.8380510805,0.636137381,11.829137325,-12.900476935,-3.2346365455,2.702686012
559,2.3290735,-27.472425459999997,6.1576015945,-128.32868955,-2.37581563,0.750964008,7.5882530215,-8.235964536000001,-6.2775894405,-5.113249719
560,2.33324,-27.5166893,6.114807605999999,-128.30669405,-1.458176538,0.9125665205,11.66014528,-5.65664804,-6.310759743999999,-0.511612892
561,2.3374065,-27.532477375,6.074239492,-128.2959366,-2.2043302655,0.942237139,11.17012501,-2.1117659215,-5.551681638,-1.420367479
562,2.341573,-27.53205681,5.9991998675,-128.27516175,-1.970991254,0.015075802499999985,8.90638113,-0.2759551404999999,-9.667972089,-2.447094321
563,2.3457395,-27.52561951,5.9503827094999995,-128.25927735,-2.314048171,0.31355157450000004,12.321763995,0.49869641649999996,-6.696182251,-1.3799412249999998
564,2.349906,-27.50948906,5.8810582165,-128.25071715,-1.88204664,-1.045615967,10.44627285,1.7569703460000001,-8.380632164,-3.4176887275
565,2.3540725,-27.500110624999998,5.8214936260000005,-128.20935055,-3.1024035215,-0.0569229725,10.6695179955,0.5386995075000001,-9.2667453285,0.7616460325000003
566,2.358239,-27.493102075,5.751087904,-128.23783875,-2.3542665245,-1.199330151,11.637051105,1.1106013655,-6.465526819500001,-7.389829515
567,2.3624055,-27.481268880000002,5.7094635965,-128.19574734999998,-3.0755267145,-0.2909021375,8.018737078000001,0.824304223,-7.3876132965,1.8391596264999999
568,2.366572,-27.495840075,5.647831202000001,-128.2245941,-2.1072547435,-0.8535375895,12.30480099,-1.4754695,-5.506010293999999,-6.970683098
569,2.3707385,-27.500291824999998,5.6379361150000005,-128.198761,-3.6493736510000003,-0.46638694399999997,8.7766201485,-0.9371671675,-3.114972651,1.8835684659999998
570,2.374905,-27.53269386,5.6003396510000005,-128.2324066,-1.7305490075,-1.2030969265,9.096850872000001,-3.5625633000000003,-2.675355524,-6.1603517530000005
571,2.3790715,-27.59141827,5.622567415000001,-128.20791630000002,-3.13585037,-1.0678524375,13.0165844,-7.433935881,0.36967750650000003,3.5258059500000005
572,2.383238,-27.66022873,5.616174221,-128.2540512,-3.298759818,-1.3446753325,10.065691233,-7.7873239519999995,1.34855118,-5.7541553975
573,2.3874045,-27.748586654999997,5.675676107499999,-128.2365494,-2.3350720405,-1.5929260255,9.29306507,-10.906966211,4.728939533,4.825556755
574,2.391571,-27.861549375000003,5.707759857,-128.299408,-3.354211211,-0.75893721,11.077037809,-12.884487625,6.371926188,-5.3421959875
575,2.3957375,-27.96242523,5.800956487500001,-128.29148105000002,-2.833563089,-0.09027749299999999,9.7454705245,-12.306279182,8.7954757215,5.775121212
576,2.399904,-28.083395005,5.887117386,-128.3694458,-2.8545308115,-0.9090258179999999,8.288064003,-13.639865875,12.95936012,-3.867571801
577,2.4040705,-28.18321705,5.9986720085,-128.3628235,-2.1701591015,-0.10940794649999999,10.5223808275,-12.17310333,10.7933545135,6.721778871
578,2.408237,-28.294606205,6.097471713999999,-128.4263229,-2.876172781,-0.433901906,11.89198923,-12.640141966,13.479444026,-1.5705823895
579,2.4124035,-28.42362118,6.229724168500001,-128.44615935000002,-2.369663596,-1.204235494,9.6234817485,-15.3394351,14.46354389,5.1390490535
580,2.41657,-28.54139042,6.3086328510000005,-128.49303435000002,-2.858458638,-0.729408614,9.570133211,-13.59434843,10.4614710785,-0.9351568224999999
581,2.4207365,-28.66991615,6.4482398035,-128.52831270000001,-2.2497922480000003,-0.7744854094999999,12.579200265,-15.067670825,16.08587551,4.0124210714999995
582,2.424903,-28.787731174999998,6.5654587745,-128.5887756,-3.31060791,-0.3052511515,8.529511213,-13.392882345,15.27601576,-0.090961933
583,2.4290695,-28.887567519999998,6.685207843500001,-128.63996125,-1.3592259885,-0.11587014400000001,8.834821701,-11.389078141999999,14.897487165000001,1.2645694019999998
584,2.433236,-28.988393785,6.8184602265,-128.68533324999999,-2.845874369,-0.41162089300000004,11.83797455,-11.535425185000001,16.099166395,2.448061861
585,2.4374025,-29.07777691,6.912858963,-128.7277069,-1.2474757285,-0.9571169915,9.0696110725,-10.2362630355,11.725193025,0.751150608
586,2.441569,-29.185043335000003,7.013763666,-128.7544479,-2.7316870095,-1.0515338185,11.731687065,-12.557734015,11.6243381495,2.5324990005
587,2.4457355,-29.271633145000003,7.088698387,-128.79200745,-1.6599809380000001,-1.0419198275000001,9.707147597999999,-9.9619097725,9.399511097000001,0.17590558499999998
588,2.449902,-29.368766785,7.184006214,-128.80559540000002,-2.9603566825,-0.5296173695,11.01383638,-11.525525334,10.273385046000001,3.587164983
589,2.4540685,-29.46104622,7.2614564895,-128.8572464,-2.290184379,-0.619324207,7.108206749,-10.428696630000001,10.447151424000001,-1.042186081
590,2.458235,-29.54371357,7.363772153999999,-128.8729019,-1.5869910715000002,-0.18069954949999997,10.950489999999999,-9.760717153,11.102838992,3.8412646055
591,2.4624015,-29.625196455,7.455028057,-128.91362,-3.2340328695,-0.7185908255,9.876979353,-9.275710822999999,11.281805517999999,0.8756803575
592,2.466568,-29.69696331,7.5243439675,-128.9285965,-0.29388502250000004,-0.212516196,11.0035724665,-8.44801235,7.634915319,1.9328760354999999
593,2.4707345,-29.78962994,7.592704296,-128.9677658,-3.6927006245000005,-2.5633091925,10.278452872,-10.640384675,8.7759640225,-0.25344663850000004
594,2.474901,-29.867664335,7.6266779895,-128.9630585,0.1234851475,0.33769814649999996,10.4119782445,-9.515305043,2.7800222039999998,1.899923265
595,2.4790675,-29.964624405000002,7.6654236314999995,-128.9998856,-4.282760739,-1.1183689535,9.723713876000001,-11.183003425,5.567248583,-1.775611013
596,2.483234,-30.02464962,7.7030460835,-128.99025725,-0.9852650615,-0.8190637829999999,9.854461667999999,-7.438317476,2.8450506924999996,2.6525529025
597,2.4874005,-30.116250989999998,7.756188869000001,-129.03312684999997,-4.3864958285,0.0480498375,8.400895597,-10.4446859345,7.403981505,-1.4736958740000001
598,2.491567,-30.17179203,7.790308952,-129.03022005000003,0.157018724,-0.836184636,11.502969265,-6.8000228405,2.8550653440000002,1.7949367165
599,2.4957335,-30.231479645,7.854751348500001,-129.0618591,-4.654674053000001,-0.5467294305,9.723601341,-6.799011469,7.8916904905,0.4089312255
600,2.4999,-30.2866745,7.8860588074999995,-129.06354525,0.3647037445,-0.23305167999999998,10.830335616,-6.682184697,2.838864088,1.1467621474999998
601,2.5040665,-30.352656365,7.927837133500001,-129.09150695,-4.460795045,-2.4678348305,9.4218616475,-7.6128773685,5.316951692,-0.563045768
602,2.508233,-30.396824835,7.945705890499999,-129.08237459999998,0.5530351105,0.21470010300000003,12.249366760000001,-5.544150472,0.8006429669999999,1.4444637
603,2.5123995,-30.46584511,7.9683892725,-129.1054077,-4.7301523685,-1.8641471865,7.978981018000001,-8.050926447,3.0658659944999997,-1.242380321
604,2.516566,-30.51144886,7.986848116,-129.1066971,-0.507092178,-0.9439863709999999,12.28405571,-5.540909546,1.4895513054999996,0.402918298
605,2.5207325,-30.58410358,8.008518934,-129.1353226,-4.580016732,-0.5176373125,6.813832283,-8.395214080999999,3.3030199984999995,-1.867527664
606,2.524899,-30.64402294,8.0432891845,-129.15623475,-0.08964979650000005,-1.360356182,12.353692056,-6.9244574295,4.384069921,-0.6473487615
607,2.5290655,-30.70443821,8.066321850000001,-129.1698303,-4.6035300495,-0.6805448085,6.3226172925,-7.18866086,2.4952170825,-0.17295363549999998
608,2.533232,-30.75538254,8.113378048,-129.2014694,0.31164979950000005,0.5037935005,15.544096945,-5.662027359,6.311073424,-0.9934226869999999
609,2.5373985,-30.79854584,8.1195015905,-129.19384000000002,-4.430819988,-2.4934051034999998,4.2127709385,-5.4727888105,-0.5241121055,0.9165413680000001
610,2.541565,-30.85343647,8.182882309,-129.2310028,-0.6273552179999999,-0.12779256700000002,15.869182585,-6.052003622,8.2977447485,-0.4650071560000001
611,2.5457315,-30.881697655,8.16728735,-129.21799470000002,-3.0668348,-0.72694397,5.9648317099999995,-3.771030307,-3.069353819,0.08649277649999998
612,2.549898,-30.923032765000002,8.2579374315,-129.25935365,-2.5470814705000002,-1.6330625115,15.07680273,-4.3438675105,11.387732504999999,0.7580982449999999
613,2.5540645,-30.94673157,8.264411449499999,-129.25344845,-1.996368706,-0.297551714,4.2073459625,-3.101506114,-0.3576003314999998,0.7005942089999999
614,2.558231,-30.989621165,8.355195522,-129.30936435,-2.7973703445,-1.1909730285,14.15685749,-4.2668387889999995,12.306174753499999,-0.725228578
615,2.5623975,-30.993093494999997,8.3866343495,-129.3056488,-1.9843488035,-0.933267042,6.300828457,-0.6448767185,2.3198046685,2.055113554
616,2.566564,-31.00122166,8.4826831815,-129.34513855,-2.337510645,0.4177274295,12.23059988,-0.377886966,11.829290626,1.31404905
617,2.5707305,-30.989883419999998,8.5271463395,-129.36206055,-2.042534232,-0.9791906175,9.1705594085,1.4999949934999997,4.926156044499999,0.737248182
618,2.574897,-30.981349944999998,8.601377487499999,-129.38144685,-3.2942061425,-1.5724434255,9.3058831705,1.2679176929999998,8.353937744,2.0243575575
619,2.5790635,-30.95697689,8.6737360955,-129.42790985,-0.9761227075,-0.04482007000000002,13.2717638015,3.605030358,9.6131379625,-0.5729837415
620,2.58323,-30.939012525,8.722360611,-129.44218445,-3.9364709854999997,-2.097578287,6.9644284249999995,2.3146054745,5.416676759500001,0.9402796625
621,2.5873965,-30.90377712,8.828274727,-129.51445005,-2.0347675085,-0.907281693,17.235417365,5.382729888,14.616233707,-1.091774404
622,2.591563,-30.8628912,8.8496694565,-129.51036835,-2.0664896629999996,-1.2681396005,3.356651068,4.7208321095,1.4616074559999994,1.172818601
623,2.5957295,-30.836289405,8.9782395365,-129.59430695,-3.7704214455000002,-1.907136679,15.77850914,4.5747483970000005,17.63542509,-0.8542797565
624,2.599896,-30.77525425,8.9819102285,-129.56526185,-0.9064484835,-0.6477480529999999,6.350245476,6.680403471,-1.8482526540000002,2.5591757895000002
625,2.6040625,-30.743151665,9.121939182,-129.65886684999998,-4.8207142355000006,-1.365304053,13.546253205,5.4445512295,19.437472345,-1.197235562
626,2.608229,-30.68641186,9.1781396865,-129.65553285,-0.14705267500000002,-1.141981691,6.029226422,6.649572133,5.126158952999999,3.146658361
627,2.6123955,-30.658387185000002,9.311155796,-129.73865510000002,-4.819645882,-0.9438607394999999,8.923074723,4.8049509530000005,18.123316052,-0.6520876735
628,2.616562,-30.5988121,9.4304776195,-129.77376555,0.51720202,-0.6350765525,14.3034107665,7.741137504500001,13.982022404,3.0468529465
629,2.6207285,-30.56680584,9.555647373,-129.82442475,-5.239064454999999,-2.5853158235,4.889791965500001,4.678935646999999,15.3463379145,2.164960921
630,2.624895,-30.537919045000002,9.777641773500001,-129.88052365,-1.8388930265,-0.651894197,16.57865906,4.4992079735,25.85754204,7.1664958
631,2.6290615,-30.50386238,9.930518627,-129.9330673,-4.131410122,-2.0214081999999998,3.6883368489999997,5.0036666395000005,18.33025932,3.6283988955
632,2.633228,-30.483561514999998,10.243545534999999,-129.9991379,-4.126200557,-1.3077531455,15.480245109999998,3.7218165995,35.85451889,11.719372275
633,2.6373945,-30.44007492,10.474343300000001,-130.0496521,-3.6073207855,-1.358677879,5.4352971315,6.1515563725,26.275652885,8.538447857
634,2.641561,-30.409213065,10.85695982,-130.1391907,-4.4180197715,-1.10828045,12.24893427,5.5915723145000005,44.47620964,13.51295805
635,2.6457275,-30.367568015,11.21725512,-130.2180634,-3.6201473475,-1.003005922,6.740242242500001,6.65665102,41.38764,13.46787262
636,2.649894,-30.313598634999998,11.675962925,-130.3200989,-2.1172647475,0.712516084,9.465944288,8.821406365,53.136816025,16.759446145
637,2.6540605,-30.249924659999998,12.162320135,-130.42468259999998,-3.823487401,-0.649761021,8.934906722000001,10.0671887385,55.95240593,18.490174295
638,2.658227,-30.132823945,12.68344927,-130.53889470000001,-2.4015793800000003,-0.9511612650000001,11.566211699,16.911100864999998,60.33181381,19.225496295
639,2.6623935,-30.010751720000002,13.270792485000001,-130.665657,-3.4969145060000004,0.36098551749999996,8.802473545,17.920700075,67.83810806,22.056995389999997
640,2.66656,-29.84339714,13.8575902,-130.80201720000002,-2.764315337,-0.21156266350000003,8.7427062965,23.844693184999997,68.526161195,20.668152810000002
641,2.6707265,-29.62001038,14.491695400000001,-130.92168425,-2.7858598235,0.6420482995,11.86519909,30.175043105,72.397323605,25.208080289999998
642,2.674893,-29.340003965,15.12719154,-131.0804291,-2.9771929385,0.20054918500000007,9.094283819000001,38.41309166,75.03045653999999,20.779262539999998
643,2.6790595,-28.97106266,15.768727305,-131.17507935,-1.4144931735000001,2.04433167,9.100810527,47.079010010000005,71.969772335,27.47685719
644,2.683226,-28.523672105,16.440755844999998,-131.32250215,-2.8029619455,1.3318428990000002,13.295926094999999,58.51778984,78.31554031499999,23.474629399999998
645,2.6873925,-27.96773052,17.062448500000002,-131.3872757,-2.222034097,0.640716493,7.5648658275,68.811832425,68.66284752,28.315095905
646,2.691559,-27.32886887,17.74816322,-131.4961548,-2.450968862,1.9772763845,12.102690695,80.510391235,78.23897171,26.437315939999998
647,2.6957255,-26.55714798,18.376092915,-131.522583,-1.5418980715000001,1.708363026,11.13081932,93.4449234,67.962490085,31.015268325
648,2.699892,-25.689858440000002,18.991682055,-131.5606613,-3.1646127105,0.4968619795,10.653612135,105.38372422,67.658519745,28.19902897
649,2.7040585,-24.730416294999998,19.633134845,-131.55558775,-1.6912401915,1.1488564315,12.801492692,114.7044449,68.810676575,32.82827759
650,2.708225,-23.643239975,20.20393562,-131.5070038,-1.085178524,1.806766808,11.06719446,128.4004936,59.6799984,32.66367817
651,2.7123915,-22.42774677,20.75270939,-131.40102385,-1.186887741,1.2368915975,14.361899855,141.26099395,55.367357255,36.297149655
652,2.716558,-21.100652695,21.238831519999998,-131.26582335,-1.9069811700000001,0.9481494724999999,7.9443473815,153.28276825,47.997707365,35.258659359999996
653,2.7207245,-19.694294929999998,21.706309315,-131.0897064,-0.6818023919999999,0.710686624,13.203786370500001,160.8805313,45.150060655000004,37.545507435000005
654,2.724891,-18.175639155,22.11540127,-130.87911985,-0.5932977125,0.292029604,11.670758725,172.6546631,38.265768050000005,37.675167085
655,2.7290575,-16.58477688,22.457449914999998,-130.6364212,-0.326520219,-0.4162760675,11.215074538500001,179.6288605,30.543725970000004,37.510765075
656,2.733224,-14.926860335,22.731300355000002,-130.36608884999998,-1.4036575705,-0.2961286455,10.984796525,186.41687009999998,22.946070669999997,37.361455915
657,2.7373905,-13.241249085,22.975543025,-130.0876694,-1.721319944,-1.2926490304999998,11.931253431,189.1528015,20.362179755,36.53978157
658,2.741557,-11.49168873,23.184832575,-129.77811430000003,-0.9063949585,0.0319598615,12.95006037,195.23587035,16.65503502,38.34852219
659,2.7457235,-9.7059006665,23.29096508,-129.47026065,-1.659658849,-2.013633907,10.585256575999999,199.57333375,5.7035365105,35.26521301
660,2.74989,-7.925694227500001,23.420639035,-129.14116669999999,-2.7542821164999998,-2.1660083535,12.39159012,197.82160184999998,9.26987839,37.77809906
661,2.7540565,-6.1297256945,23.478637695,-128.81720735,-0.900050193,-2.1521877645,11.33774662,199.82755279999998,1.9791333675000002,35.790761950000004
662,2.758223,-4.346413612,23.495945929999998,-128.4781418,-2.2268189190000003,-1.9408558605000001,12.5796113,197.7153015,-1.8983257409999998,36.946149829999996
663,2.7623895,-2.587617874,23.49595261,-128.1493454,-1.7753110529999998,-3.0527830125,11.891103744999999,195.05921934999998,-2.771108389,35.975940705
664,2.766556,-0.8404020075,23.440428735,-127.80453874999999,-1.3980023265,-2.4879893065,11.879384994999999,193.04795835,-8.35579014,37.319164279999995
665,2.7707225,0.8462994994999999,23.3500061,-127.48310855,-2.0837870835,-3.381078005,9.8391096615,186.81572720000003,-11.405254842,35.27099609
666,2.774889,2.502724886,23.22738266,-127.1577301,-1.187983632,-3.1870149375,12.681697845,183.19659425,-14.22636795,35.87106514
667,2.7790555,4.085221052,23.054545405,-126.8631134,-1.0011895,-3.264739275,11.857779025,175.66407775,-19.376693725000003,33.537836075
668,2.783222,5.581930637499999,22.85147953,-126.58486934999999,-2.095823139,-3.9382324215,8.835230111,166.5160065,-22.2575655,32.28265667
669,2.7873885,7.0189812185000005,22.61576939,-126.3418274,-1.0574839415,-3.739275813,13.792699814999999,160.90190884999998,-25.686252595,29.77336216
670,2.791555,8.3818130495,22.369748115,-126.11608885,-1.7119303345,-3.142374873,10.218361854000001,153.04829405,-26.469559670000002,28.34231853
671,2.7957215,9.629318237,22.104685785,-125.93310550000001,-2.1712957025,-4.7256548405,10.967990874,141.13959505000003,-28.742141725,24.923947335
672,2.799888,10.79495096,21.82274914,-125.78720855,-1.5715501305,-3.5322370525,13.91282463,133.20057680000002,-30.985186575,21.563985825
673,2.8040545,11.889300825,21.555991175000003,-125.6475792,-3.4607833625,-3.5666210650000005,6.222560644,124.87517545,-28.826387405,21.317855835
674,2.808221,12.88169718,21.34004879,-125.54074095,-2.005157143,-4.733137130499999,12.850741385,114.32829665,-23.32392883,16.829686165000002
675,2.8123875,13.768332959999999,21.042134285000003,-125.43546675,-2.6005629900000002,-3.8455947635,7.32871747,101.65787125,-32.590602875,19.435880660000002
676,2.816554,14.55855942,20.884929655,-125.35597229999999,-3.9034730195000003,-3.8238490819999997,14.3596401195,91.30266571,-16.6727705,12.8154006
677,2.8207205,15.28886366,20.694340705000002,-125.2468529,-1.8800479175,-4.0849425795,10.412414076000001,82.803840635,-19.45167065,17.51405525
678,2.824887,15.883172515,20.529158595,-125.1851654,-3.7337373495,-4.9648811815,9.0070958135,68.60601616,-17.7922425295,11.560622689999999
679,2.8290535,16.414320945,20.391256329999997,-125.06409070000001,-2.201344669,-2.519456744,10.346578123,58.457408904999994,-12.608236073499999,17.437047005
680,2.83322,16.845835685,20.295567509999998,-124.9938545,-4.2956773045,-4.4417467120000005,8.9540266995,48.783939365,-9.3061547275,10.4396238315
681,2.8373865,17.208026885,20.185292245,-124.8656464,0.839215204,-2.66166693,9.238333225,37.937606810000005,-8.9098522665,17.53625822
682,2.841553,17.45089626,20.116101265,-124.8111954,-5.6556787495,-3.7781482935,8.75100994,26.681571005000002,-6.5593891165,8.211642979
683,2.8457195,17.706884385000002,20.111707690000003,-124.6645584,-0.2828550635,-2.4640058280000003,12.117759702499999,24.452897075,4.0236669769999995,15.806588649999998
684,2.849886,17.812058450000002,20.051351545,-124.61098865,-4.0563297275,-3.0769848824999997,6.3825434445,10.2167444225,-5.5242290495,7.822286845499999
685,2.8540525,17.92599106,20.075802799999998,-124.4621506,0.024809219000000007,-1.2703650595,6.514816284,7.5370361805,7.314480901,14.439510819999999
686,2.858219,17.97809887,20.11169529,-124.36278915,-4.438380718,-2.780412674,11.951478479999999,1.967384994,7.080263497500001,9.1818017985
687,2.8623855,17.97069359,20.090801239999998,-124.23693850000001,0.6957148165,-2.8131229875,5.583426714,-6.15371287,1.4257662295000002,13.827919484999999
688,2.866552,17.975043295,20.18804169,-124.10559845,-6.5859556195,-0.11955982449999997,9.831938984,-5.033960581,15.149909019999999,10.1801438315
689,2.8707185,17.961457255,20.223401064999997,-123.94611355,2.242563133,-2.188219488,13.07422113,-8.2950124745,8.9965746425,15.29327202
690,2.874885,17.8876791,20.30328274,-123.83121875,-6.2801034455,-2.454065323,10.76129961,-13.78549099,12.607414725,9.138631343
691,2.8790515,17.834522245000002,20.338025095,-123.6997719,0.9632216095,-0.704964444,7.68032527,-11.932792665000001,7.948457956,12.39172268
692,2.883218,17.79314327,20.45617771,-123.5483284,-3.5783951279999995,0.577402219,9.6615462305,-11.475830555,18.235713005,11.716897965000001
693,2.8873845,17.736330035,20.454257015,-123.45399094999999,0.4888770130000001,-2.619276643,7.5656065945,-10.8729696295,2.4819680155,9.8268456465
694,2.891551,17.69970417,20.547509195,-123.32443620000001,-4.69194448,0.06868955499999999,8.902111292,-9.994532107,14.60253286,10.260803700499999
695,2.8957175,17.682300565,20.59453106,-123.23640825000001,-0.11555814749999982,0.46746148200000004,13.777111529999999,-5.869303942,7.8253610135,7.291227102500001
696,2.899884,17.721846579999998,20.67801952,-123.1210251,-2.53255111,-1.2742978335,8.113766434,-0.30530881899999995,13.008493425000001,9.132841586
697,2.9040505,17.735797885,20.65966797,-123.0638237,-0.14174258699999998,-0.0551534225,10.36363983,-0.8111070395,-0.6989165540000001,6.3659706115
698,2.908217,17.788087845,20.733436580000003,-122.9762802,-3.547041029,-1.051689476,11.8767333,2.429164827,10.922961711500001,6.400101902
699,2.9123835,17.871623035,20.72620964,-122.91811375,-1.3493909240000002,0.009668961000000004,8.0381314755,7.4519125815,0.6553469300000001,6.169509946
700,2.91655,17.9723711,20.791308405000002,-122.86221315,-1.3923527745000002,0.12544807799999996,10.202531813499998,9.5782456405,8.858856918499999,3.317415178
701,2.9207165,18.10388088,20.745006564999997,-122.80389405,-0.9906247260000001,-0.26283967499999994,8.9242761155,13.24693632,-3.8108997345000004,7.5143917805
702,2.924883,18.242414475,20.76324081,-122.78791805,-2.1461315005,-2.2121666970000002,13.223897935,15.78708649,2.1583838465000005,0.8357539174999999
703,2.9290495,18.380740165,20.71608734,-122.73920444999999,-2.3218198720000003,1.0212690235,8.374048947,14.405762195000001,-4.147060484000001,6.7251663184999995
704,2.933216,18.546868325,20.716300009999998,-122.75787735,-1.4461145400000002,-1.0035659670000001,10.186509134,20.58561325,-1.126221895,-2.203261405
705,2.9373825,18.757048605,20.66235733,-122.693634,-0.8348066804999998,0.3731446045,11.5816020975,22.383874894999998,-4.3245105745,8.639666798
706,2.941549,18.942059515,20.61305523,-122.73968885,-1.481171489,-1.421345502,8.140101672,24.046011925000002,-7.782986878,-3.2841374875
707,2.9457155,19.129421235000002,20.531962395,-122.69664765,-2.6396488175,-2.155911207,13.270358085,20.540966035,-8.109847545500001,7.5156867505000005
708,2.949882,19.30156994,20.46240425,-122.74369815,-1.928499579,-0.78505978,9.671288489,22.505080225,-10.104173658,-2.4698730705000003
709,2.9540485,19.481651305,20.389849660000003,-122.72078705000001,-1.6067214014999998,-1.1576681435,11.350187779999999,20.536817550000002,-7.8522968295,5.0654280185000005
710,2.958215,19.64572048,20.318878175000002,-122.7605629,-2.129931569,-1.4220945685000002,6.2671756745,21.232419965,-10.0091900815,-1.609336615
711,2.9623815,19.78674984,20.232261655,-122.77521135,-0.9846420285,-0.5726777925000001,14.12663364,17.444882395,-10.861367938499999,1.6302949189999998
712,2.966548,19.908597944999997,20.114038465,-122.8177185,-1.7330724,-2.0021332505,6.1677241325,16.274160385000002,-15.461508275,0.05530083150000009
713,2.9707145,20.018138885,20.021187779999998,-122.8582802,-3.0300100445,-1.5669276415,13.71981573,14.714781285,-12.533754348,-0.7701758145000002
714,2.974881,20.145217895000002,19.935221675,-122.86337285,-2.0496477410000002,0.025954186999999962,6.9845650195,15.348080634999999,-10.368056297999999,2.7667735665
715,2.9790475,20.2255888,19.85709572,-122.92173385000001,-2.334523141,-1.9662786725,11.888706209999999,11.952297213000001,-11.591637611500001,-3.280902743
716,2.983214,20.308468814999998,19.764989855,-122.92265705,-1.9669460055,-2.488066733,10.76661015,9.8711647995,-10.884925367,3.497393727
717,2.9873805,20.349347115,19.661174775,-122.99557495,-2.8284359575,-0.9127053915,11.328707219999998,7.7802891745,-15.054196835,-3.7082635164999997
718,2.991547,20.39682579,19.6027832,-122.98106385,-1.9333281519999999,-1.0307628215,7.0849740505,5.014460087,-6.487234323,3.7189179655
719,2.9957135,20.424769400000002,19.52593231,-123.0470276,-1.5715578235,-1.0769105255,9.398938656,5.93236053,-11.7550277725,-4.088967323
720,2.99988,20.45791817,19.480964659999998,-123.0199661,-2.2585309745,-1.1007209125,11.383919715000001,2.794897109,-4.4786874055000006,4.4940555695
721,3.0040465,20.44565773,19.383530620000002,-123.08839035,-1.737573087,-1.5763179065,10.1363406185,1.1897752879999999,-14.1666455265,-3.4717721939999997
722,3.008213,20.422068595,19.34755707,-123.0797844,-3.136362791,-2.7512680290000002,9.7438151815,-3.2589956520000003,-4.2052234415,2.1289150715
723,3.0123795,20.401657104999998,19.282097815,-123.11692049999999,-2.3205651045,0.0827264265,8.4797985545,-1.042339362,-9.3320803665,-1.4974980355000003
724,3.016546,20.372214319999998,19.271907810000002,-123.10351560000001,-1.6822083,-1.1335543095,13.513695715,-4.1619863509999995,-1.103256345,1.5944474935000001
725,3.0207125,20.31800461,19.205275535,-123.1325569,-3.0717828275,-2.3802611235,10.199950218,-5.4173543455,-9.14777398,-0.6035997870000003
726,3.024879,20.241419790000002,19.176918985,-123.14363474999999,-1.6796247960000001,-1.8668248355000001,10.1341009115,-8.8392629605,-4.125172496,-0.2868914604999997
727,3.0290455,20.156684875,19.122463224999997,-123.14932255,-2.8767945765,0.347117096,7.605496883500001,-9.985359190499999,-6.8758619425,1.3088361025
728,3.033212,20.078987125,19.115719795,-123.17155455,-1.4850342275,-1.9517162145,9.5787386895,-8.5327104325,-2.1227800845,-2.362964928
729,3.0373785,20.007591245,19.10049343,-123.12696075,-2.734701216,0.51913695,8.876088142499999,-10.3523840895,-0.5106195210000002,5.0119062065
730,3.041545,19.892002105000003,19.078118325,-123.1827927,-1.1507962645,-2.043005407,9.57390642,-11.730316635,-5.2100583315,-5.394481422
731,3.0457115,19.79855347,19.06938076,-123.11873625000001,-3.244278073,-1.213736713,13.40935898,-13.754291535,0.948757976,6.8151367910000005
732,3.049878,19.674648285,19.05719757,-123.18710325,-2.9164172710000003,-0.8729455325000001,7.268709659500001,-12.246007445,-4.5082279445,-7.126655817
733,3.0540445,19.58003044,19.09478283,-123.11755755,-2.5006521045,0.19514135249999998,11.581067085,-14.149698255,6.403028488,5.642772436
734,3.058211,19.482726095,19.118328095000003,-123.16628265,-2.7670888305,-1.4917414185,9.282330515,-9.821375846999999,0.3066151145,-6.455587864
735,3.0623775,19.41464901,19.140032769999998,-123.1084633,-0.400294006,1.199480712,11.0403881075,-10.4741630575,4.1104137304999995,4.9444965125
736,3.066544,19.297263145000002,19.162031175,-123.16410830000001,-2.9369506235,-2.662457943,9.729252812999999,-11.96106243,-0.09828162200000001,-7.098006486000001
737,3.0707105,19.225966455,19.14223576,-123.14427570000001,-0.2944834385,-0.13277888299999996,9.431022167,-9.386663200000001,-2.0126515625,2.583938539
738,3.074877,19.118471145,19.175393104999998,-123.18144609999999,-3.5849124195,-0.5007536415,10.2558293325,-11.517423155,1.8920848370000003,-5.5116279125
739,3.0790435,19.0589838,19.169721605,-123.180748,-2.2695263625,-1.282761991,8.513089657,-7.2052402485,-1.134710729,-0.03562927249999981
740,3.08321,18.9775877,19.232772830000002,-123.1991768,-2.6973829265,0.0583969875,10.450077532000002,-9.1170940385,5.988212346999999,-4.6827570795
741,3.0873765,18.912182805,19.238176345,-123.21720125,-2.1485859155,-1.190832913,10.6298284505,-7.112432718,-0.6251922845,-2.6399124115
742,3.091543,18.840332985000003,19.277736665,-123.22908785,-2.1069359185,-0.543301735,12.890264035,-8.224078417,3.5663404465000004,-3.0661010445
743,3.0957095,18.756727214999998,19.29811764,-123.27579879999999,-1.5332636385,-1.040658675,7.666092873,-8.1658136845,0.04757833450000004,-6.2607417105
744,3.099876,18.65419674,19.323246955000002,-123.3124733,-2.279744446,-1.774916917,9.821813108499999,-10.928936480499999,1.0448305605000003,-5.1305257085
745,3.1040425,18.546359064999997,19.3629837,-123.36449435,-2.0685777665,-0.933409691,7.468231201,-10.9233322135,2.1386032105,-7.3881709575
746,3.108209,18.407884600000003,19.4050684,-123.42591475,-2.7966846225,-0.9869691435000001,10.900734425,-14.227276325,2.0851213934999997,-8.4813618665
747,3.1123755,18.244291305,19.48044586,-123.48282624999999,-1.9173009395,-2.67601943,7.4921011925,-17.325213435000002,5.9875234965,-9.4556462785
748,3.116542,18.021327975,19.534637449999998,-123.5684128,-2.114623636,-0.7849261165000001,12.81572247,-23.414198875,2.6923911594999996,-11.43764067
749,3.1207085,17.740434645,19.60852432,-123.67071155,-2.4298412500000004,-4.3922674655,7.6915335655,-29.662126540000003,4.4037208545,-13.95427227
750,3.124875,17.41846752,19.67823124,-123.7670746,-2.8659440095,-1.9335843325000002,12.11831665,-34.826485635,4.2012298105,-13.143035415
751,3.1290415,17.021792415,19.775808335,-123.90491865000001,-2.012428284,-1.4959414899999999,3.3850236985,-42.064580915,6.074377775,-18.604161740000002
752,3.133208,16.58130741,19.918665885,-124.01522059999999,-1.6986824275,-2.401889682,15.625278949999998,-48.44174576,12.3274909255,-17.09966564
753,3.1373745,16.05277729,19.959620475,-124.21197889999999,-2.099300146,-4.4656519889999995,3.4076334835,-55.338407515,-2.08236593,-23.1696682
754,3.141541,15.44809961,20.14128113,-124.33561325,-3.3815143855,-1.70546931,15.68452263,-67.54501723999999,16.70641613,-19.560967445000003
755,3.1457075,14.771323205,20.20556259,-124.5551529,-1.3523330690000002,-3.51635766,1.8414631485,-72.208122255,0.5200312140000003,-26.094073295
756,3.149874,14.05316496,20.444131849999998,-124.66469574999999,-3.523553193,-1.8573307395,12.370667695000002,-81.71272659499999,24.184589385,-19.172923089999998
757,3.1540405,13.223944185,20.533855435,-124.9040947,-1.3543444274999998,-3.7780129909999998,13.454522846500002,-89.46598816,3.5963401800000003,-29.11923504
758,3.158207,12.339331625,20.6650095,-125.05579374999999,-2.8605384825,-3.1443469520000003,1.8390582205000001,-99.867523205,11.107910635,-20.115968705
759,3.1623735,11.383801935000001,20.907443045,-125.26657105000001,-4.1945812105,-2.3996106385,16.220314504999997,-105.76638030000001,23.119873999,-29.374881745
760,3.16654,10.389695165,20.97194767,-125.42262645,0.101172924,-3.022159457,3.0427236554999997,-112.6601143,3.7869577414999993,-18.826919555
761,3.1707065,9.281523705000001,21.228994370000002,-125.63902285,-6.2713377475000005,-4.119402170000001,18.361934660000003,-123.75720595,25.777786255000002,-29.2530365
762,3.174873,8.1454894545,21.25450802,-125.80339814999999,2.1623092295,-1.4951270525,-0.9839369299999999,-129.25232699999998,-0.2667012215,-18.806388855
763,3.1790395,6.9306812285,21.561046599999997,-126.03178405,-8.004525899499999,-3.6693643335,17.34528875,-135.93501279999998,32.651046754999996,-30.095482824999998
764,3.183206,5.6621513365,21.570767404999998,-126.2278671,4.9088120459999995,-3.0460869075,10.3597044525,-143.66893005,-1.7531466449999993,-22.10541916
765,3.1873725,4.259074211,21.732821465,-126.5191078,-8.6610870365,-3.5994626285000004,2.617937088,-155.64163969999998,16.077504159500002,-33.88799572
766,3.191539,2.85152328,21.854208945,-126.7280769,4.2877718805,-1.8932429554999999,16.29914093,-159.71492005,12.576607463999999,-24.341146469999998
767,3.1957055,1.3333618045,21.834412569999998,-127.0463829,-6.1161196695,-4.807835579,2.9051427545,-168.1717453,-4.1780846135,-35.183578495000006
768,3.199872,-0.23511149700000003,21.968993185000002,-127.279129,0.1553225519999999,-0.1406776535,14.217838765,-177.79850770000002,15.374981405,-26.427661895
769,3.2040385,-1.827738464,21.920013425,-127.5985909,-3.462744221,-3.4155641795,5.0188817975,-177.0077972,-5.786668776000001,-35.580472945
770,3.208205,-3.482702255,21.956899645,-127.83119965,-0.4507470130000002,-2.2605980635,13.005666256,-188.17047885,5.110894203999999,-25.94915581
771,3.2123715,-5.1656253334999995,21.87566662,-128.1486969,-2.637333214,-0.2741257545,10.549254894999999,-187.86486815,-7.618713855000001,-35.947172165
772,3.216538,-6.812699795,21.83977222,-128.37084959999999,-1.4567540289999998,-1.810726464,4.073572874,-187.80505375,-2.2333602900000002,-25.30219555
773,3.2207045,-8.494008064500001,21.796113015,-128.66638945,-1.9545761945000002,0.7115834059999999,19.64579439,-188.79512025,-1.4480934150000007,-33.359724045
774,3.224871,-10.142361641,21.535282135,-128.8767319,0.41701829449999983,-1.6719194055,-2.1374354365,-188.4968414,-27.58778143,-28.468573569999997
775,3.2290375,-11.81160736,21.528354645,-129.17201995,-5.6474082469999995,0.24465298649999995,18.187517165,-187.31111905,4.899566176,-32.966757775000005
776,3.233204,-13.40805864,21.23254585,-129.36818695,2.8751499354999996,-1.0245841145,2.5270102025,-183.0067215,-30.366579055,-29.49386692
777,3.2373705,-15.011802195000001,21.14829731,-129.6275711,-6.809978247,1.1220667955,21.31678867,-181.14647675,-3.200888276,-30.94624615
778,3.241537,-16.527916910000002,20.79547119,-129.7809982,2.447487891,-0.239932388,4.81182915,-175.42385105,-36.61077309,-28.514180185
779,3.2457035,-18.043356895,20.620833395,-130.0014267,-6.513630151999999,0.5296972245,15.495109559,-172.51665500000001,-13.224726916,-30.165606500000003
780,3.24987,-19.39685154,20.263788225,-130.11473085,1.6107140185,2.089763641,8.5181879995,-157.68894195000001,-37.00118637,-26.253351215000002
781,3.2540365,-20.70385933,20.00794697,-130.26174924999998,-3.3178697825,2.6873592139999998,12.599457265,-150.79148865000002,-23.719131465,-26.429991719999997
782,3.258203,-21.8754282,19.63187027,-130.33892825,-1.063135862,1.5675034525,7.0965850355,-137.47019195000001,-39.415077205,-24.906666755
783,3.2623695,-22.999056815,19.290606500000003,-130.42397305,-1.7504243255,2.442547321,13.500656605,-131.41620634999998,-34.700122835,-24.871904370000003
784,3.266536,-23.9825449,18.884140965,-130.4745178,-2.5093308095,2.265057683,11.94292545,-116.11436845,-43.00974083,-25.092802045
785,3.2707025,-24.875024795,18.485821725,-130.51190185000002,-1.5127784905000001,2.515811205,13.431459905,-105.693512,-42.302513125,-24.046047209999998
786,3.274869,-25.68406868,18.074415205,-130.54016875000002,-4.4071884155,1.8098207714999999,10.359782696,-96.05950165,-43.81108284,-24.342370029999998
787,3.2790355,-26.371771815000002,17.66234779,-130.5436478,-0.37088365850000005,2.1416871545,13.155904295,-82.43540573,-44.79505539,-22.46796799
788,3.283202,-26.9896698,17.26139355,-130.53838345000003,-5.024071932,2.6638373135,11.272027017500001,-74.37810516,-43.808662415,-21.43401146
789,3.2873685,-27.50222206,16.8716383,-130.52855685,-1.1436361074999999,1.765457392,11.0393314375,-61.872556689999996,-42.610940935,-20.771346095
790,3.291535,-27.943086625,16.47741318,-130.5090637,-3.9127235415,2.05291754,12.58204603,-53.64463615,-43.491004945,-20.43991947
791,3.2957015,-28.30895519,16.124581335000002,-130.48297885,-1.115197465,1.9312148690000002,8.899531841,-44.845825195,-39.294475555000005,-17.677441595
792,3.299868,-28.59364128,15.747234344999999,-130.43740079999998,-4.447026491,2.190697074,13.470778945,-35.702428819999994,-42.86949539,-17.356573105
793,3.3040345,-28.82498741,15.42823553,-130.41455075,-1.724062443,1.5796856285,11.59030533,-28.569446565,-35.381956100000004,-16.43685579
794,3.308201,-28.974822045,15.105421065000002,-130.36418915000002,-4.6095416545,2.356522441,9.657637835,-19.615389345,-37.261091235,-14.045498845000001
795,3.3123675,-29.09030533,14.81145382,-130.33010865,-1.6376928685,0.5344575045,11.349038363,-14.981029985000001,-33.30563259,-14.04712057
796,3.316534,-29.14140892,14.557321550000001,-130.30038455,-5.4064011569999995,1.7336953875,11.526972295,-7.0828032494999995,-28.831728935,-12.270574095
797,3.3207005,-29.163891794999998,14.29812908,-130.28040314999998,-1.1650281325,0.6455611735,9.3431954385,-3.3637787105,-28.839598655,-13.520966529999999
798,3.324867,-29.161245344999998,14.1094532,-130.2653656,-5.050822139,0.34010511649999997,13.510590075,-0.1655321125,-21.1112709,-9.9868612275
799,3.3290335,-29.116518974999998,13.8904891,-130.25671385,-1.735640347,0.33949456,10.292594912,5.044049442,-23.986788750000002,-12.31506443
800,3.3332,-29.087225915,13.75366545,-130.26268765,-4.6520593165,0.06845366200000001,9.736984255,3.644638002,-14.48535347,-9.1016368865
801,3.3373665,-29.0284071,13.58882761,-130.28108215,-2.494569242,-0.22469955699999997,11.520888325,7.5008888245000005,-16.79464531,-11.875903605000001
802,3.341533,-28.95841408,13.471214295,-130.28977965,-3.1493812205,-0.04240992650000003,13.291197780000001,8.5992450735,-12.33554268,-8.2390699385
803,3.3456995,-28.877898215000002,13.343444345,-130.33736420000002,-3.9650785925000003,-0.6597575845,8.675298691,10.9029784215,-11.282581329,-12.668363095
804,3.349866,-28.790444375,13.251968865,-130.357811,-2.4390076995000003,0.1442779005,11.8839416485,11.008520603000001,-8.9376862065,-7.9096581935
805,3.3540325,-28.689524655,13.172693255,-130.4027863,-4.342229843,-0.625577621,11.890003205,13.259027955,-6.366605997000001,-9.574738739
806,3.358199,-28.574091915,13.100309375,-130.42578125,-2.35248518,-0.875034839,9.4843001355,14.4284977895,-6.8103859425,-7.049136162
807,3.3623655,-28.489382745,13.067435265,-130.46923065,-3.6697586775,-0.9764781895,11.189971925999998,11.257591725,-1.5919635075,-6.7425448894999995
808,3.366532,-28.378113745,13.015655039999999,-130.48725124999999,-1.660578251,-0.7116368710000001,9.1962761885,13.779949665,-4.9428701405,-5.321013212
809,3.3706985,-28.323377605,13.011670590000001,-130.52651975,-3.434157729,-1.6272088885,10.3778853415,7.539345503,1.206110388,-4.665799379
810,3.374865,-28.25991917,12.962319855,-130.54917145000002,-2.032343209,-1.2329072355,8.632358074,8.168598652,-4.4343113894999995,-5.669327736
811,3.3790315,-28.2301054,12.991852285,-130.6042099,-3.205335021,-0.3650584,11.204318045,4.9683681725,5.6167411805,-4.395672083
812,3.383198,-28.2070694,12.970549105,-130.6352844,-2.091454089,-1.0917212965,6.4953551295,3.5399707555,-1.0157455210000002,-4.9223455195
813,3.3873645,-28.186148645000003,13.00297594,-130.68032075,-2.8917911055,-0.236164771,11.715291979,3.6307795045,5.3634291869999995,-3.213241994
814,3.391531,-28.19492435,13.003536704999998,-130.7250824,-2.4396504165,-1.760705233,8.086130619,0.08207443349999999,2.032086432,-5.063371539
815,3.3956975,-28.214028355,13.032299515,-130.7610092,-2.1895151135,-0.939525787,10.704345230000001,-1.4198611975,4.4754602315000005,-2.479970455
816,3.399864,-28.244811055,13.041160585,-130.80416105,-3.313548982,-1.4799335005,12.672081949999999,-2.5917506215,2.8359185455,-4.457696437999999
817,3.4040305,-28.279439925,13.04923248,-130.82598875000002,-2.2628067735,-0.8351867495,6.3594424725,-3.6800867320000004,1.481597785,-2.1441419125
818,3.408197,-28.341001509999998,13.070539475,-130.8742752,-3.5242547985,-1.5553228855,13.90457058,-6.1428704265,4.4473809005,-4.291178942
819,3.4123635,-28.371831895,13.078619960000001,-130.89311214999998,-2.012162119,-0.715140611,6.4695153235,-3.29564929,1.3509074449999998,-1.8754679485
820,3.41653,-28.431554795,13.099408149999999,-130.93138125000002,-3.609210968,-0.599535376,11.1408391005,-6.202955246,3.81545192,-3.2460860015
821,3.4206965,-28.476632119999998,13.142035485000001,-130.96342464999998,-2.5137376785,-1.356812656,9.489595891,-4.6554129125,5.710668087,-1.2164327505
