,time,Euler_X,Euler_Y,Euler_Z,Acc_X,Acc_Y,Acc_Z,Gyr_X,Gyr_Y,Gyr_Z
0,0.0,-20.140640259999998,25.84285736,-146.61869815,-2.5830491185,0.797896579,9.7508515135,46.39529419,42.273733140000004,17.62407446
1,0.008333,-19.659811975,26.157787319999997,-146.5277939,-1.7379211780000001,1.300936818,6.8886835575,53.12159538,31.423770905,21.65696526
2,0.016666,-19.194815634999998,26.65090561,-146.52114104999998,-4.4638020990000005,-0.506087495,9.7466533205,55.682647705,54.936733245,19.99662876
3,0.024999,-18.60754967,26.991885185,-146.39060975,-0.6293259,2.470849395,9.5872559535,63.549009319999996,33.497490885,26.047808645
4,0.033332,-18.011612890000002,27.45698452,-146.33457184999997,-4.290021658000001,-0.2794628445,10.89272642,68.71033478000001,50.3897686,22.835858345
5,0.041665,-17.294665334999998,27.87376595,-146.18852235,-2.3013052585,1.7095213535,11.200869560000001,78.14947509999999,42.170484540000004,29.550316809999998
6,0.049998,-16.554470065,28.34048748,-146.08223725,-2.5537082255,0.653827891,9.387479303,82.99053573500001,49.68098831499999,26.659153935
7,0.058331,-15.720467565,28.709169385,-145.87801359999997,-0.7570511400000001,0.6119095084999999,9.9446878425,88.66471100000001,35.727241515,32.58310318
8,0.066664,-14.864778995,29.189293865,-145.72530365,-2.7197130915,0.3394950925,9.300823927,93.97681808499999,50.723205565,30.239177705000003
9,0.074997,-13.896935465,29.54858875,-145.4749069,-0.848611474,1.4097760915,8.8509130465,101.595817555,34.569711685,35.65236282
10,0.08333,-12.925872325,29.977321625000002,-145.27787015,-3.2260706425,-0.17187556599999998,10.3431670645,105.0275688,44.573028565,31.48333836
11,0.091663,-11.853997230000001,30.26083469,-144.9905319,-0.05620694149999994,1.0754206475,10.4448485355,111.64619060000001,26.03162384,36.06055832
12,0.099996,-10.767599585,30.590766905000002,-144.7459488,-3.2807306275,-0.19874182350000003,8.983484746999999,115.6337013,33.247932430000006,32.10978699
13,0.108329,-9.619512558,30.852858545,-144.44372555,-0.7818784715,0.771299437,11.8598842645,119.57108305,24.63765144,35.886074065
14,0.116662,-8.4351181985,31.066956519999998,-144.14978025,-1.9116181135,-0.43030485500000004,7.9791653154999995,124.0945015,20.020596505,33.41056156
15,0.124995,-7.2205910685,31.28957844,-143.8384399,-1.984723993,-0.620988071,11.1007561675,126.69764710000001,21.393590924999998,34.92733955
16,0.133328,-5.987041473,31.37067413,-143.50969695,0.48283505449999997,-1.15159893,8.2123322505,127.69444655000001,5.094974637,34.12805462
17,0.141661,-4.7542004585,31.49133587,-143.18661500000002,-3.8352640865,-0.9078013600000001,11.270835159,128.10713195,10.506412506499998,33.95188618
18,0.149994,-3.5142867564999998,31.56667042,-142.8586388,0.10894799249999987,-0.818719685,9.4087443365,128.32387925,5.9909615515,33.614998815
19,0.158327,-2.2737333775,31.533692360000003,-142.5304222,-2.496412739,-0.6669858989999999,10.204784393,128.6276169,-6.4548816680000005,32.97518349
20,0.16666,-1.0392231645,31.489364625,-142.19692990000001,0.011089563500000121,-1.023168579,9.884343148,127.35317230000001,-6.914252042999999,33.45104599
21,0.174993,0.16860346099999998,31.398185729999998,-141.88495635,-3.7323002815,-2.1548194885000003,11.180003645,125.7140045,-11.9013886465,31.47068882
22,0.183326,1.3741016385,31.28655815,-141.56290055,-0.28030449150000003,-1.096891135,11.310488225,124.76927950000001,-13.655220504999999,32.733137135
23,0.191659,2.5367417335,31.081967354999996,-141.2751503,-2.4635167715,-2.3866692780000003,11.659955974999999,121.99829485000001,-24.3331995,30.016067505
24,0.199992,3.663835764,30.865098,-140.97482680000002,-1.312161952,-1.6735316514999998,10.6333904245,116.88720699999999,-24.938630105,31.78123188
25,0.208325,4.731357813000001,30.6679554,-140.70851520000002,-3.7163955865,-1.970627964,10.6222105025,112.10303880000001,-22.383760455,28.761053085
26,0.216658,5.773505688,30.387845040000002,-140.4354782,0.5164102315000001,-1.8266958595,11.649221894499998,108.63520815,-31.520013810000002,30.724516870000002
27,0.224991,6.7376050945,30.1045475,-140.21930695,-5.011180401000001,-3.264081955,11.7209272395,102.89382169999999,-32.06051922,25.55717373
28,0.233324,7.6871278284999995,29.85183334,-139.97093965,-0.869306594,-2.2151746155,12.319641115,99.34395981,-27.56467533,29.01315117
29,0.241657,8.53895998,29.52146244,-139.80510329999998,-4.627194405,-3.3004473450000003,10.338847162499999,92.66104125999999,-37.60141754,22.320437435
30,0.24999,9.351359367499999,29.286908150000002,-139.60240555000001,-1.0060456695,-1.9031873945,11.08417177,85.845767975,-25.15037346,24.89014339
31,0.258323,10.088831423999999,28.928729055,-139.4886551,-2.158812046,-2.435075045,11.1047053355,82.13159943,-41.14087486,18.616301534999998
32,0.266656,10.794909475,28.651477815,-139.34622955,-3.5779211525,-1.9431976674999998,11.0055646915,76.80096054,-30.64916515,20.337488175
33,0.274989,11.437062265,28.368631365,-139.24946595,-3.2514946460000003,-3.418540597,11.96884537,71.78077697500001,-32.050787925,16.1377635
34,0.283322,12.048059460000001,28.092514989999998,-139.1386566,-2.0579847695,-1.9859765765000001,10.21462297,67.36366272000001,-30.78048897,17.817864895
35,0.291655,12.582393645,27.786953925,-139.06703570000002,-3.1587101225,-3.4402929545,11.521577834999999,60.343172075,-34.997629165,14.829390049999999
36,0.299988,13.092841624999998,27.52667713,-138.96248245,-3.235188961,-2.0970979334999997,11.556027413999999,55.742031095,-28.627779005,17.35287714
37,0.308321,13.54137278,27.31402683,-138.88212965,-3.9699676034999998,-1.8264597655,10.468534471,49.666484835,-23.655194285,13.816010949999999
38,0.316654,13.965874675,27.04655552,-138.8046951,-0.5970834195,-2.3391741515,9.7886295335,47.022109985,-29.856963155000003,15.256011485000002
39,0.324987,14.335327625,26.85776901,-138.73018645000002,-5.385729313000001,-1.5313639045,11.194945573,40.534376144999996,-20.739476205,12.83777666
40,0.33332,14.671601295,26.692546845000003,-138.64785,-1.5785568955,-2.091726124,8.864254949,36.26776123,-17.707749365,13.13296318
41,0.341653,14.986846445000001,26.461595539999998,-138.59666825,-1.761915863,-2.1791388395,10.543446065,35.35814667,-26.1800251,12.0118947
42,0.349986,15.238468650000002,26.299595834999998,-138.5337944,-4.029513359,-2.496181846,10.2400676005,27.150681495,-17.66062403,11.171864987
43,0.358319,15.45241499,26.155055044999997,-138.47169879999998,-3.090461016,-1.9520911575,11.628767014000001,22.6800251,-15.751971245,10.656054494500001
44,0.366652,15.643726345000001,25.9182024,-138.43962475,-0.719188809,-1.8966566325,8.8938541425,21.60941124,-27.111751560000002,10.547481538
45,0.374985,15.807785514999999,25.835663795000002,-138.37291335,-5.4529068469999995,-2.0415199995,9.242720483,16.45822716,-8.3083512785,9.1972680085
46,0.383318,15.92417288,25.641680715,-138.3451004,0.28487187650000007,-2.4795087574999997,9.401584504999999,12.877001765,-22.294734,8.8860707275
47,0.391651,16.02760601,25.451796535,-138.31335065,-3.756471336,-1.6501711305,10.8519792535,11.0414071105,-21.75661564,9.181492326499999
48,0.399984,16.11264801,25.39769554,-138.26081084999998,-3.2762221695000004,-1.99310863,10.753859519999999,7.8337945940000004,-5.323740482,6.861810684
49,0.408317,16.156987190000002,25.153313635,-138.25548555,-1.1119466725,-1.6453629135,9.6415629375,5.3545193675,-28.803602220000002,8.330319643
50,0.41665,16.1897583,25.092326165000003,-138.21881105,-6.0453095435,-1.4298509955,11.8775783765,2.415243149,-6.583319663999999,5.4683448075
51,0.424983,16.19213867,24.97360325,-138.19322585,0.6327710599999999,-1.431289762,9.5267724375,-0.6992238609999999,-13.63563776,6.256021499499999
52,0.433316,16.179909705,24.81509304,-138.1967506,-5.696014165499999,-1.4496939775,8.993770003,-0.9705621005,-19.1077013,4.541021228
53,0.441649,16.17097664,24.823337555000002,-138.1504669,-0.672478415,-1.6844962239999999,13.524927139999999,-3.0805987119999996,1.562090814,4.1961240765
54,0.449982,16.10592175,24.58403969,-138.2046356,-2.4913412335,-1.1048824785,8.145066738,-4.7498561145,-29.895051005,1.9163048865
55,0.458315,16.06364632,24.609286305,-138.1653442,-3.7896893025,-1.1376954910000001,10.9365549095,-6.7081770894999995,3.305286944,2.9074463845
56,0.466648,15.993871689999999,24.389132500000002,-138.232296,0.5828772784999999,-1.156896502,8.4991804815,-4.692709744,-28.07883358,-0.11665356199999999
57,0.474981,15.91172743,24.36864376,-138.23488235,-5.629717827,-2.167512834,9.2803623615,-9.427947998,-3.176440835,0.0034643710000000216
58,0.483314,15.803850650000001,24.240830425,-138.2792206,-0.9094525944999999,-1.0753262934999999,9.908850190999999,-10.380927563,-16.809350015,-0.8317842485
59,0.491647,15.704640385000001,24.16239357,-138.3133049,-4.2258424755,-1.187837951,9.2002894875,-9.9625315645,-10.870532036,-1.432399541
60,0.49998,15.62024069,24.118191715000002,-138.3326988,-2.411221087,-1.2445379795,11.973254204500002,-8.8220050315,-6.3561415665,-0.9953117369999999
61,0.508313,15.49629021,24.071497915000002,-138.37218475,-4.176858783,-1.2681429685,6.614258289,-12.596865654999998,-7.3489565855,-3.0256881715
62,0.516646,15.37898827,24.087142945,-138.38495255,-2.7717125415,-1.0361879765,12.015285015,-13.141027925,0.7527194025000001,-2.2530095575
63,0.524979,15.243077755,24.0622015,-138.4312782,-3.1807902455,-1.772992909,8.304380416999999,-13.648804185,-4.956266254,-4.45536679
64,0.533312,15.0912838,24.09092045,-138.4598732,-2.0144756435,-0.5084655585,10.63262892,-16.501476765,1.7630097864999998,-4.312965095
65,0.541645,14.86715698,24.1277895,-138.53131485,-4.265182018,-3.786006808,6.126848459,-23.077569959999998,1.459263563,-9.071876286
66,0.549978,14.583846565,24.142544745000002,-138.60321045,-1.3452285825,-2.844730496,11.4717240355,-30.077924725000003,-0.970607877,-8.4298186305
67,0.558311,14.22886896,24.164889334999998,-138.7278366,-3.199502349,-3.3424935935,9.6764016165,-36.19156456,-1.5921759605,-14.256107329999999
68,0.566644,13.82039404,24.25969696,-138.8355751,-2.5767489075,-2.9529879689999996,12.817109105,-43.29802513,7.501077533,-14.554739954999999
69,0.574977,13.28156948,24.24621582,-139.0112648,-2.7898679975,-4.0196883675,7.613945605,-55.654356005,-6.8118442295,-18.66642952
70,0.58331,12.662274835,24.42501831,-139.1552696,-3.8206213714999997,-3.5598139765,11.5044407855,-66.837377545,16.633717535,-20.528432844999998
71,0.591643,11.895709515,24.305169104999997,-139.4158096,1.6749574244999998,-4.592530608500001,6.9842792755000005,-78.75315857,-20.894804,-25.126008034999998
72,0.599976,11.065930365,24.40816307,-139.62644195000001,-6.972768068500001,-3.05399549,10.832615139,-88.767795565,6.8418314460000005,-25.37528038
73,0.608309,10.139728067,24.49685669,-139.89382935,-1.3906062245,-3.425246954,10.04858446,-97.51727676499999,4.303940743,-31.03625202
74,0.616642,9.092672825000001,24.42617798,-140.178894,0.2114250660000001,-3.5420691965,8.093829690000002,-111.07799915,-14.248292450000001,-29.617526055
75,0.624975,7.9449670315,24.417042735,-140.5098648,-5.955256462,-3.2165174485000003,10.0213226395,-120.98659895,-7.1863536835,-35.962839125
76,0.633308,6.7233958245,24.550037385,-140.7865715,-2.7588750125,-3.172572255,11.702515603,-132.4289856,11.2434744835,-32.344305039999995
77,0.641641,5.355802298,24.430717469999998,-141.15074155,-0.09276551,-4.005594373,9.0475341995,-145.7475281,-19.236312865000002,-38.46245003
78,0.649974,3.906003952,24.405162815,-141.45737075,-4.1455460785,-4.141820073,7.307392715000001,-158.3125534,-6.431549549,-33.445794105
79,0.658307,2.38713187,24.475292205000002,-141.81028750000002,-4.8054341075,-1.747294903,12.870634795500001,-164.51102450000002,5.465067088500001,-39.388916015
80,0.66664,0.7792743445,24.31361103,-142.1248741,2.492502153,-3.8485565184999997,6.520626067999999,-176.87615205,-21.004545215,-34.144927025
81,0.674973,-0.9032129645,24.20664501,-142.47682575,-5.770540714,-2.0559647974999997,10.364678083,-184.3254623,-13.585546019999999,-38.895462035
82,0.683306,-2.6207196715,24.23567581,-142.79853055,-1.7775491474999998,-1.5120052099999999,13.983552934999999,-189.8070297,3.8700757025,-35.429591175
83,0.691639,-4.4041910175000005,23.919028285000003,-143.10937885,1.263161242,-1.0658622085,7.3924758675,-198.63090515,-36.68921661,-36.76948357
84,0.699972,-6.271758318,23.846621515000002,-143.46347809999997,-6.640689373000001,-2.887647629,8.9038265345,-206.4116745,-5.683988809500001,-39.767944334999996
85,0.708305,-8.104348421000001,23.62981224,-143.7483444,0.840507526,0.7409379035,11.352535249999999,-205.98474125,-22.742075445,-34.812113765
86,0.716638,-9.9371452325,23.42188549,-144.0604553,-6.9870078565,-1.018135771,7.9268931145,-204.51270295,-19.92771244,-38.043155670000004
87,0.724971,-11.75845623,23.220108035000003,-144.32343294999998,2.5690778495,-0.030113161,13.225826026,-205.85653689999998,-19.113674879999998,-33.53282738
88,0.733304,-13.562182905,22.844587325,-144.57217405,-4.8557024005,0.449075222,6.2021059990000005,-204.1623535,-38.57496643,-37.345317845
89,0.741637,-15.270163535,22.658947945,-144.7962799,-0.683904022,2.2528361085,16.18670702,-194.38503265,-16.226469038,-30.074564934999998
90,0.74997,-16.877292635,22.25343609,-144.9655075,-4.868371724999999,1.736780703,7.315896807,-184.72317505,-42.306705475,-31.797011374999997
91,0.758303,-18.408845905,21.98023987,-145.1081009,-0.7472115605,4.036569356999999,13.199973585,-176.8647461,-27.030555725,-26.002474785
92,0.766636,-19.84556389,21.591362,-145.21685025,-3.544776857,1.3975301980000001,7.946637392,-166.9752655,-40.641620634999995,-27.596853255
93,0.774969,-21.12980175,21.207458494999997,-145.28335570000002,-0.18178927899999997,4.0551364425,12.611431125,-150.89897155,-41.311922075,-23.4529295
94,0.783302,-22.351324079999998,20.782324795,-145.34424595000002,-3.629098058,2.699118495,8.7207832345,-143.720932,-45.652620315,-25.678333285
95,0.791635,-23.43724823,20.36384678,-145.36598205,-1.8579989970000002,2.750349164,11.71386719,-128.8104553,-45.835710524999996,-22.63973713
96,0.799968,-24.4012804,19.867749215,-145.3729324,-3.1158715485,3.2421158555,9.4129983775,-114.92605209999999,-54.602985385,-25.702111244999998
97,0.808301,-25.273005485,19.434820175,-145.3800812,-1.782150447,2.4073438645,8.9598205095,-104.00558855,-47.606069565,-22.910817145000003
98,0.816634,-26.016098975,18.95452595,-145.37187195,-4.575198412,3.1075865030000003,11.193127154999999,-89.02294922,-52.876558305,-24.86356926
99,0.824967,-26.639300345000002,18.481093405,-145.32251735,0.3990240095,3.9908322094999997,7.837589609000001,-76.38451004,-54.161066055,-20.533018114999997
100,0.8333,-27.171950345,18.058680535,-145.32881165,-6.647104263,1.9319280985,9.4339180005,-63.28616905,-45.49769592,-24.211953165
101,0.841633,-27.572092055,17.606680869999998,-145.26899715,-0.5037584905,3.4594682455,11.438824178,-49.881629945,-52.10220146,-19.238990785
102,0.849966,-27.913760185,17.169919970000002,-145.2406311,-6.1067476275,1.954045713,12.133196354999999,-41.75732422,-48.579933170000004,-21.957016945
103,0.858299,-28.148512845,16.80935383,-145.20374299999997,-2.9454135895,2.121535182,11.75603533,-29.11175728,-40.978771210000005,-16.957580565
104,0.866632,-28.28833771,16.376626015,-145.13598635,-4.000839233500001,2.2390652895,12.088216305,-18.80065155,-50.10871315,-18.13715172
105,0.874965,-28.403715135,16.035377025,-145.0865631,-1.885593295,1.604990542,9.816012381,-15.172356605000001,-39.50492096,-14.782019615
106,0.883298,-28.440484044999998,15.71072912,-145.05608365,-4.3929965495,0.8453275410000001,10.400752065999999,-5.143236518,-36.671613695000005,-15.862360955
107,0.891631,-28.424715040000002,15.350331305,-144.9794693,-2.6381249430000002,1.20213747,10.096839903500001,-0.1963081360000003,-43.050222399999996,-13.164914605
108,0.899964,-28.398856164999998,15.123478890000001,-144.9658661,-4.6547467705,0.9506854714999999,10.980239390000001,2.896549612,-25.43922615,-11.876952173
109,0.908297,-28.307143215,14.818870545,-144.9138489,-2.5618572234999997,0.481844619,8.829333545999999,9.7465171805,-35.832769395,-12.421094895
110,0.91663,-28.220070835,14.621418955,-144.89608765,-5.071053505,0.6674147245,11.497158049500001,10.155530453,-22.592106819999998,-9.72135639
111,0.924963,-28.12790394,14.400518895000001,-144.8884354,-3.3944358825,-0.4272387475,10.645406841,11.1448588355,-24.55233288,-12.091714855
112,0.933296,-27.996141435,14.24330616,-144.89071654999998,-4.67777884,0.675215751,9.795130013,16.152018545,-17.322834015,-9.411988021500001
113,0.941629,-27.89007092,14.088398455,-144.9101868,-3.4487543105,-0.6568072735,10.485241415,13.632946495,-16.158535954999998,-11.0833940495
114,0.949962,-27.777323725,13.985749720000001,-144.93751525,-3.427614033,-0.1327041495,11.380822184,14.540687085,-10.2119817755,-8.7901740085
115,0.958295,-27.64913368,13.878254415,-144.97947695,-4.903938651,-0.7958256605,9.42812109,16.92954874,-9.9448776235,-10.69673252
116,0.966628,-27.53443241,13.81620312,-145.0238037,-2.0853284595,-0.363049375,10.1402072925,15.248792174999998,-5.0051318405,-8.2695903775
117,0.974961,-27.447234154999997,13.766290665,-145.0860672,-3.782073498,-1.147628903,10.443288805,12.57882738,-2.760063291,-9.57535362
118,0.983294,-27.3286314,13.707139015,-145.1272659,-2.718819022,-0.7385468485,8.513006688,15.645300865,-4.828035235500001,-7.900309324
119,0.991627,-27.264345165,13.690358165,-145.20024105,-3.1531894205,-1.185463011,10.4934580345,10.083576204,1.3193957805,-8.8615205285
120,0.99996,-27.20473766,13.654041289999999,-145.25022884999998,-2.3218967915,-1.0274024605,9.979379893,8.912865162,-1.8937249184999998,-7.6504034999999995
121,1.008293,-27.136852265,13.606481550000002,-145.30097195,-2.7421593665,-1.385001719,10.310812472,9.8118858335,-3.160195172,-8.2619039995
122,1.016626,-27.13247013,13.61765623,-145.3765335,-3.9053282735000003,-1.551780522,10.071642159,2.9641495945000003,4.472469568,-7.605538845
123,1.024959,-27.120321275000002,13.57561731,-145.4189758,-2.514979482,-0.4354293495,8.903605461000001,2.9251392480000002,-3.0223964455,-7.0912439825
124,1.033292,-27.120214465,13.583957195,-145.48786925000002,-2.9186736345,-0.369583532,11.599021915,2.2349510195,3.8516701760000003,-7.1460199355
125,1.041625,-27.1238699,13.577505115000001,-145.53732300000001,-3.4635962245,-1.306832373,8.9683701995,1.2334533335,1.1489840895,-5.8682273625
126,1.049958,-27.141624450000002,13.54491186,-145.57674409999998,-1.275517553,-0.842613712,7.043468714,-0.7149445415,-2.0755149724999997,-6.3528745175
127,1.058291,-27.195295334999997,13.528016565,-145.61427305,-2.4699229000000003,-1.510493994,10.154013634,-5.115271568,-0.5943398249999999,-5.205330968
128,1.066624,-27.239498134999998,13.4667449,-145.63504024999997,-3.017883897,-1.1437099875,9.182503463,-4.4185653925,-6.1363196375,-5.9690077304999996
129,1.074957,-27.296265599999998,13.43248558,-145.6608429,-2.1343680025,-0.8902757055,9.536705494,-5.823070049,-3.064992964,-4.9445399045
130,1.08329,-27.359215735,13.409294605,-145.70365905,-4.2609710695,-0.6351908595,13.2904515275,-6.0711438655,-0.922586322,-6.0973091125
131,1.091623,-27.429263114999998,13.372823239999999,-145.71480559999998,-1.6912072894999999,-0.30620498949999997,8.04287076,-7.839308025,-4.0745276509999995,-3.5576959844999996
132,1.099956,-27.509197235000002,13.356134895,-145.7567673,-3.1591697935000003,-1.300539255,9.668474672,-8.183549165999999,-0.2560655195,-5.665170431
133,1.108289,-27.59302044,13.29612732,-145.75056460000002,-1.3232013585,-0.6827655285,10.024361136,-9.9201951035,-7.513468981,-3.065274954
134,1.116622,-27.71057415,13.24396944,-145.7635956,-3.1136341095000004,-1.7849950195000002,7.660771368,-13.544471265,-5.596986771,-4.612900734
135,1.124955,-27.79848671,13.183534625,-145.75693510000002,-1.8245764819999999,-0.9240269665,9.9276514045,-10.468327519999999,-7.5512628555,-3.064954996
136,1.133288,-27.921343805,13.130988599999998,-145.76968384999998,-4.518217921,-0.9672937395000001,10.935359478,-14.136466980000002,-5.6535298825,-4.6398208145
137,1.141621,-28.05021191,13.092692849999999,-145.77412415,-2.0168560145,-0.5579587515,10.092163084,-15.027291775,-4.6098265650000005,-2.9897645114999998
138,1.149954,-28.139261245,13.022301195,-145.77831270000001,-3.2746869325,-0.2103237435,9.922897339,-10.389411925000001,-7.99492836,-4.750884771
139,1.158287,-28.26969814,12.977359295,-145.77067565,-1.699123368,-1.0772687795,6.880317688,-15.540587899999998,-5.9693918225,-2.137527466
140,1.16662,-28.37544346,12.865321635,-145.7503586,-2.5314636009999996,-1.2061691765,10.230751990000002,-13.023836615,-13.739127635,-4.6248499155000005
141,1.174953,-28.481781005000002,12.79538631,-145.72521970000003,-1.8491709085,-0.499749333,8.902532337,-13.174242495000001,-9.5530419365,-1.7886614650000001
142,1.183286,-28.59818459,12.69401646,-145.7145462,-3.4410095215,-1.2462969795,9.8439130775,-14.011456970000001,-12.115260362,-4.991492152
143,1.191619,-28.681032180000003,12.603746415,-145.68831634999998,-3.6697582005000005,-0.4019767045,12.4389533975,-10.307497025,-11.773400305,-2.8724386099999997
144,1.199952,-28.795594219999998,12.55164957,-145.6921463,-2.4719303850000003,-0.406674199,9.980238917000001,-13.477541445,-6.0714907645,-3.6928625109999995
145,1.208285,-28.862658500000002,12.466825960000001,-145.66749575,-3.5115853550000002,-0.4440727385,10.209547522000001,-8.3749916535,-11.104022024999999,-2.7529224155
146,1.216618,-28.95304394,12.403265955,-145.67183684999998,-2.4479982854999998,0.018782965,9.384731053,-10.5569014535,-7.2060468195,-4.483099699
147,1.224951,-29.05482292,12.336368085,-145.6446838,-2.5321807865,-1.0407589675,9.3942391895,-12.59536076,-9.358821392,-1.484722972
148,1.233284,-29.084822655,12.239635945,-145.62314605,-1.6127154235,-0.3783347885,10.112977029,-3.969111681,-12.13495731,-3.810918331
149,1.241617,-29.17062855,12.181732655000001,-145.604805,-3.7225114105,-1.398146689,8.9372465615,-10.4584918015,-7.909875393,-1.8811929225
150,1.24995,-29.231260300000002,12.05666399,-145.56851195000002,-1.347043015,-1.07290715,10.55504036,-7.963218450499999,-15.947010995,-3.973876357
151,1.258283,-29.272820475,11.99864912,-145.54463195,-3.99212122,-0.08305632299999999,11.191873075,-5.3295342925,-8.231615068,-1.3424099685
152,1.266616,-29.332749364999998,11.921420574999999,-145.5352936,-2.842229962,-1.2056117655,9.1078248015,-7.220519304,-9.445192812,-3.8483918905000003
153,1.274949,-29.35439205,11.83976269,-145.5078888,-4.2509031295,-0.479342848,11.2654321205,-2.9914164614999996,-10.909853220999999,-2.37887758
154,1.283282,-29.403690339999997,11.799505235000002,-145.51000975,-1.6377674345000002,0.23653520249999999,8.575035095499999,-5.7144527435,-4.947139978499999,-2.80221653
155,1.291615,-29.41642666,11.736085415,-145.4867859,-4.330739498,-1.0347908435000002,10.555019855000001,-1.8088387849999998,-8.761201382,-1.739725098
156,1.299948,-29.40991211,11.670183184999999,-145.47166445,-1.2166960835,-0.42421652349999994,8.6423852445,0.5923805535,-8.58329916,-2.6212780474999997
157,1.308281,-29.45193386,11.639410975,-145.46334835,-4.299232602,-1.1237873139999999,8.518813135,-4.931925058,-4.491116762,-1.3406426905000002
158,1.316614,-29.448422434999998,11.55227232,-145.4240036,-0.7193341215,-1.526798069,9.975661277,-0.3531945944999999,-12.160263539999999,-1.4741570505
159,1.324947,-29.45664215,11.531552795,-145.4306183,-4.7946279050000005,-0.855591774,10.1268782595,-0.523971215,-2.576158047,-2.2772527934999998
160,1.33328,-29.464975355,11.48820782,-145.4146118,-2.711333394,-0.514056131,10.655188797,-1.1677913065,-6.255143046500001,-1.2531186790000002
161,1.341613,-29.461061479999998,11.463412765000001,-145.41387939999998,-2.8608471155000004,-0.6792422235,10.368700506,0.709488869,-3.4206852615,-1.77202481
162,1.349946,-29.448705675,11.452883244999999,-145.41941070000001,-3.059271276,-0.782625422,9.9746511005,1.7848958074999999,-1.622930732,-1.4485810995000001
163,1.358279,-29.461704255,11.431510450000001,-145.41794585,-3.3839355705000003,-1.4397020939999998,10.177833317500001,-1.3001015185,-3.1115339695,-1.4897046685
164,1.366612,-29.462327005,11.418478969999999,-145.41970064999998,-1.422754377,-0.731318951,9.782300473,0.09365847699999999,-2.145582959,-1.1345890315
165,1.374945,-29.45293236,11.38469553,-145.42047885,-3.38874197,-1.203749867,8.358597757,1.444200993,-4.2775709630000005,-2.4519162175
166,1.383278,-29.494000435,11.362188815,-145.41513824999998,-2.3273822065,-2.3222098349999998,9.9569234845,-4.941171527,-3.5331829790000002,-0.99191764
167,1.391611,-29.51952934,11.356079105,-145.42688750000002,-2.821020365,-0.7685565350000001,9.5793488015,-2.4514549370000003,-0.754697561,-1.9376845955
168,1.399944,-29.521165845,11.323504445000001,-145.4080353,-2.9778667690000002,-0.28277666100000004,10.553719996,-0.5727852579999999,-5.3624878525,-0.2171189189999999
169,1.408277,-29.569600105,11.341192724999999,-145.4379349,-3.6646112200000003,-1.896517813,8.323116064,-4.767738103999999,2.7832237485,-2.3851272465
170,1.41661,-29.576823235,11.29345131,-145.4187088,-2.364173293,-0.809920132,11.132367608500001,-1.216855511,-6.9781310555000005,-1.070502132
171,1.424943,-29.61209774,11.302540780000001,-145.44316865,-2.3369943495000003,-0.8982015250000001,9.368375303,-3.345378995,1.5757812265000002,-2.3405067920000002
172,1.433276,-29.65431595,11.24703741,-145.43544005,-3.2593791485,-1.692430675,7.0107936859999995,-5.1277842520000005,-7.0967388155,-2.7551506755
173,1.441609,-29.690844535,11.227853295,-145.43775175,-1.198021233,-0.962474793,10.794209479500001,-4.019891739,-2.6596862075,-1.752583623
174,1.449942,-29.71925831,11.18444204,-145.4384613,-3.9139437674999997,-1.469764948,9.4706964485,-3.2346100805,-5.313794494,-2.9591162205000003
175,1.458275,-29.7495718,11.14946556,-145.41625215,-1.7781218884999999,-1.1176034365,11.223400594000001,-3.8834065795,-5.7309871915,-0.1933874935
176,1.466608,-29.7751894,11.119832035000002,-145.42445370000002,-4.0033334495,-0.6634223295,10.516948221,-2.7640001775,-3.4854507445,-2.8274468180000003
177,1.474941,-29.791692734999998,11.06833649,-145.39837645,-1.808733702,-1.5533012745,9.047626255,-2.2799998225,-7.6814341545,-0.781893745
178,1.483274,-29.849691395,11.039816382,-145.4011383,-3.3744096755,-1.6759505275,8.651946067999999,-6.7943484785,-3.6620478629999997,-2.2499735355
179,1.491607,-29.868305205,10.9644060125,-145.37288665,-1.41564399,-0.6865821715,9.569049122,-2.567340933,-10.2990951525,-1.9959704280000001
180,1.49994,-29.921334270000003,10.9489860525,-145.37801365,-4.0051401855,-2.101035118,9.207822799999999,-6.1788253785,-2.1746547670000003,-1.679403618
181,1.508273,-29.946022035,10.892618177,-145.34752655,-2.263135433,-1.6719906925,9.688138005999999,-3.2946119305,-8.4554316995,-0.6320568619999999
182,1.516606,-29.961892125,10.8987412465,-145.33491515,-3.8143951890000003,-0.216850549,12.399809835,-2.179041386,-0.9965859649999997,1.4507519005
183,1.524939,-29.99149418,10.9225239775,-145.32781215,-3.9436312915,-1.3665401335,7.935198784,-3.346313834,1.254969597,1.778249085
184,1.533272,-29.9881134,10.9822068225,-145.32274625000002,-5.041810035499999,-0.9777265935,8.397315262500001,0.33611005549999995,5.0041439535,3.9019250870000004
185,1.541605,-29.999599455000002,11.101646424999998,-145.32351684999998,-2.2170888785000002,0.13970916,10.609466075,-1.039790958,11.66247702,6.7119233605
186,1.549938,-29.982743265,11.281431675,-145.34534455,-5.519852519,-0.4631696575,9.9421610835,2.6272595525,19.1590147,8.199497939
187,1.558271,-29.92866802,11.484159470000002,-145.35461425,-3.3907992245,-0.6073434594999999,7.9942569735,7.085177423499999,20.81984615,10.835935591999998
188,1.566604,-29.891410829999998,11.778995515,-145.38455205,-3.8181003335,0.0654937925,8.502371072999999,5.2345626355,31.578077315,14.286694050000001
189,1.574937,-29.853969575,12.124453545,-145.44770815,-4.979502677999999,-1.548018396,10.777050018,6.430405378,38.838537215,13.85024643
190,1.58327,-29.732625005,12.505290030000001,-145.4891968,-4.1017986535,0.5782678720000001,10.678417681500001,15.78361988,41.287418365,18.07278156
191,1.591603,-29.589880945,12.955057620000002,-145.56095885000002,-3.0662224289999997,0.7446193845,7.349835634,19.316782955,50.26478386,19.031041145
192,1.599936,-29.413941379999997,13.440852164999999,-145.63652035,-3.765036106,-0.5241001175,10.225883007,23.33715153,54.38541031,20.447690010000002
193,1.608269,-29.13193703,13.938138485,-145.71050259999998,-2.718634665,2.8463374375,11.82273531,36.297891615,55.469608305,21.28848362
194,1.616602,-28.76961517,14.42441511,-145.75884250000001,-2.6558441520000002,1.1584747135,6.4822425845,45.046424865,53.142017365,22.642495155
195,1.624935,-28.33281612,14.948386195000001,-145.8230362,-2.448242843,1.299913526,8.077141284,54.68858528,57.992996215000005,23.136754035000003
196,1.633268,-27.79634094,15.41158867,-145.83728789999998,-1.0097639565,1.218282044,11.6849620345,65.021564485,49.23969841,23.895280839999998
197,1.641601,-27.153361325,15.894958975000002,-145.863739,-4.410899997,0.5095442830000001,7.878954649500001,78.335338595,52.07913399,23.66861343
198,1.649934,-26.41173363,16.364153385,-145.8484116,-0.6098942159999999,2.180117011,9.105581046,88.67613602,48.813472745,26.25669384
199,1.658267,-25.57967377,16.759818555000003,-145.7922821,-2.4959899785,1.336029589,9.2777166365,98.21411895,39.065387724999994,26.22047138
200,1.6666,-24.632682799999998,17.278595924999998,-145.76272584999998,-3.8450679775000003,1.438021317,11.317030909,112.84040834999999,54.31304741,28.69626808
201,1.674933,-23.54936218,17.631217005,-145.62329865,-0.2049639825,1.5692273970000001,8.0563750245,125.1853714,31.33633423,31.420542715
202,1.683266,-22.379238129999997,18.06098652,-145.4951477,-3.301458478,2.737462163,9.9403150095,136.05582429999998,41.14605904,32.807010649999995
203,1.691599,-21.08235264,18.479474064999998,-145.35694124999998,-3.089532256,1.0060757175,10.12939358,150.7027664,40.04328728,32.829631805
204,1.699932,-19.67676163,18.820120815,-145.15860750000002,-0.5985019505,1.3564904334999999,9.1865925775,161.38680265,29.828484535,34.496469495
205,1.708265,-18.230409620000003,19.157480239999998,-144.96907045,-3.6286822555,0.521591805,9.671745537,166.41422269999998,30.539852145,33.08407879
206,1.716598,-16.699046135,19.513633730000002,-144.76587675,-2.826859415,-1.3585608415,9.6952748315,176.02908325,33.197631834999996,33.894458775000004
207,1.724931,-15.09094715,19.77010536,-144.51445769999998,-1.314446509,1.064178288,12.116716385,183.01325989999998,21.047987935000002,35.337348935
208,1.733264,-13.446222785,20.002471925000002,-144.2639389,-2.168641448,-0.34501624100000006,10.9565758725,187.53715515,19.366250035,33.439344405
209,1.741597,-11.751760485,20.244526864999997,-144.00382995,-4.1812912225000005,-0.960252404,10.5130147935,192.87651065,21.179336544999998,34.53710556
210,1.74993,-10.0097851775,20.37552071,-143.71038055,0.43321734700000003,-0.6123305265000001,11.551815031,197.09561155,8.473329067,34.617780685
211,1.758263,-8.2553422455,20.480968474999997,-143.40699385,-4.498524904,-0.33791625500000005,10.597819568,198.14299775,6.290615201,35.284965514999996
212,1.766596,-6.4621384145,20.614793775000003,-143.1017723,-0.3930035384999999,-0.9771714805,13.852355005,202.55904385,10.794157028,35.339429855
213,1.774929,-4.6829712390000005,20.565785405,-142.7659798,-2.5873901245,-2.6683205364999996,9.087296486,199.54277804999998,-10.2881307585,36.513055800000004
214,1.783262,-2.9016443489999997,20.658205985000002,-142.44529725,-3.3271699550000005,-0.34776219750000004,15.05273914,200.4691086,7.881295919499999,36.277917865000006
215,1.791595,-1.158404499,20.543385505,-142.10382845,-0.7335944925,-3.567843318,7.5802781580000005,195.06672665,-15.914468764999999,37.43616104
216,1.799928,0.5785108840000001,20.556178090000003,-141.77629855,-3.9376626015,-2.1926831005,15.830393315,194.81016540000002,0.557193339,36.38714218
217,1.808261,2.238787472,20.44313717,-141.4512253,-1.6657281515000002,-2.3499934675,8.337180137499999,185.85186765,-13.44311571,36.427780150000004
218,1.816594,3.862990141,20.34590912,-141.1625977,-4.401134729500001,-3.4304496049999997,13.89393759,183.0594635,-10.7277922625,32.625292775
219,1.824927,5.4495332245,20.223286629999997,-140.86948395000002,-0.2782479825,-1.9740965364999998,12.699859144000001,178.50664519999998,-12.784110065,33.676740644999995
220,1.83326,6.940871477,20.055461885,-140.63017655,-3.9763383865,-3.3689428565,8.0114393235,169.23878475,-17.893849375000002,28.525778770000002
221,1.841593,8.3545980455,19.868703840000002,-140.39733125,-1.361429155,-4.6133089065,14.039042712499999,160.37890625,-19.510328295,28.58516693
222,1.849926,9.690145491500001,19.685111045,-140.21346665,-3.583696008,-3.8012168405,15.02612257,153.0731964,-19.297705649999997,23.575412749999998
223,1.858259,10.92454958,19.47475815,-140.0375633,-1.7317735105,-3.06265533,10.853210685,141.37625885,-22.074295999999997,23.69712925
224,1.866592,12.030096055,19.303289415000002,-139.8866425,-3.1526753899999997,-5.501911402,10.197435377,126.8856201,-17.550736905,20.440783500000002
225,1.874925,13.042276385000001,19.02981186,-139.7507744,-1.475084841,-3.9420889614999997,9.6799023155,116.37110135,-29.481518745000002,21.73292732
226,1.883258,13.963157175,18.902861594999997,-139.6274147,-6.675011158,-4.0932997465,12.542084457500001,105.84584425,-12.26085377,17.07119608
227,1.891591,14.785661695,18.612384795,-139.5240593,2.1278425455,-4.257973671,10.5663537385,94.978645325,-31.641940115,19.619992255
228,1.899924,15.536402705,18.43609524,-139.44281005,-6.99265337,-3.8407826425000002,12.085773946500002,87.14907836500001,-18.70606899,14.35996914
229,1.908257,16.20074463,18.221883775000002,-139.33582685,0.987154156,-2.6472949985,12.069510458,75.94445038,-22.183837895,18.35004234
230,1.91659,16.749406815,18.054803845000002,-139.26230619999998,-6.5909657475,-4.6721043585,9.905858992,63.229476930000004,-17.53489685,13.642888070000001
231,1.924923,17.20085621,17.823941230000003,-139.16701510000001,1.954210639,-3.287767768,9.538266183000001,50.955158235,-24.114609715,18.111855505
232,1.933256,17.584044455,17.671216010000002,-139.10630035,-8.350587368,-3.277558446,10.3762900845,43.946689605,-16.124976635,11.927140235
233,1.941589,17.926875115,17.529090885000002,-138.99136735000002,2.65755564,-3.0587984324999997,11.28311658,37.277959824999996,-13.02684593,17.345054625
234,1.949922,18.152935030000002,17.33014917,-138.9704285,-6.7118906974999994,-3.1667422055,8.436745646,26.540899279999998,-22.659301759999998,9.507361888999998
235,1.958255,18.37301922,17.20468855,-138.85749815,0.019957184499999947,-1.8614171744999999,12.523956773,22.686647415,-11.0402178785,16.612215045
236,1.966588,18.51319027,17.139628885,-138.7827072,-5.548509597500001,-3.2205678225,11.521283625,14.344589235,-5.361355662,10.540618895
237,1.974921,18.60359478,16.94889355,-138.7081375,1.057519525,-2.820297837,7.73887825,8.4691095355,-19.77381897,14.98456621
238,1.983254,18.63912964,16.909502985,-138.6252861,-6.983597755,-2.9786411525,10.107501147499999,1.5636724825,-2.1082373855,10.468244555
239,1.991587,18.65987587,16.8358407,-138.49617385,0.748745203,-1.4213002025,10.026741506,-1.7132469415,-4.433428556,16.480344295000002
240,1.99992,18.6192255,16.746348855,-138.4349899,-4.617042661,-2.4546957015,8.7133455265,-6.7611477375,-8.638491393,9.9125189785
241,2.008253,18.570383075,16.640106199999998,-138.347641,0.09241938599999999,-2.061866701,10.459689379,-8.5965750215,-9.678391934,13.18612099
242,2.016586,18.543438915,16.626794335,-138.26364895,-6.33568573,-0.9372992515,11.252100942999999,-5.852097273,0.8383155165,9.4554951175
243,2.024919,18.504956245,16.506962775,-138.18862915,1.6802092195,0.031063987,10.602687837000001,-6.9090955255,-11.68740702,12.365236759999998
244,2.033252,18.438920975000002,16.466462615,-138.13388825,-4.6890571115,-2.997465968,6.6955548525,-9.514113426,-3.3201300799999998,7.3595085145
245,2.041585,18.37470055,16.33322573,-138.08861539999998,-0.05075812299999982,-0.09716173999999997,11.8510751725,-8.980674267,-14.322319985,9.592661858
246,2.049918,18.32923126,16.3073945,-138.0453186,-5.801553726,-0.8511259554999999,10.0288491245,-6.606617212,-2.0694949630000004,5.582700490500001
247,2.058251,18.314411165000003,16.210324285,-137.99103545,0.4744635820000003,0.12385761750000002,9.0373559,-3.3560416699999998,-9.888799667999999,9.195614812999999
248,2.066584,18.300995825,16.107355595,-137.98888395,-4.809879482,-1.5716718434999999,8.670525553,-1.3415778875,-12.387519354999998,3.883746266
249,2.074917,18.29311371,15.958989145,-137.95365139999998,1.86238423,0.012782976000000001,9.92663646,-1.8779910800000001,-16.422095775,9.0493831615
250,2.08325,18.304051395000002,15.901946545,-137.97359849999998,-7.425272226500001,-1.6073302630000001,11.580806735,2.2400547265,-7.8901581765,-0.07677268950000005
251,2.091583,18.364248275,15.722326275,-137.94454960000002,1.7810195979999999,0.33613428450000005,10.199495555,6.509810209,-20.20252228,9.554063797000001
252,2.099916,18.407883645,15.64386082,-137.97060015,-6.149912834,-0.6302158834999999,11.083175185,6.3829915525,-10.552389144500001,0.08523753299999998
253,2.108249,18.487903595,15.486409665,-137.93959045,2.037258208,-0.28886270550000004,9.7359769345,8.856701374,-17.58622742,8.9731817245
254,2.116582,18.555722235,15.334003449999999,-138.0059776,-5.6647994520000005,-2.052556932,9.642498014000001,10.5225248355,-20.477155685,-1.611174524
255,2.124915,18.62326431,15.17602396,-137.9834366,1.2582616580000001,-0.7120685649999999,10.879664420000001,7.7287147045,-17.930599685,8.1514394285
256,2.133248,18.7099905,15.055559155000001,-138.04060745,-6.4607384205,-0.3173282595,11.3928239355,12.375241275,-16.487956044999997,-1.7414808575
257,2.141581,18.834344865,14.905308245,-138.0259552,-0.804184496,-0.13967364499999999,9.504193782,14.896145820000001,-17.32097006,7.065792321
258,2.149914,18.9087677,14.779244900000002,-138.0769577,-2.6382881405000003,-1.8286517560000002,8.416551828,10.6457538585,-16.8967824,-0.805112839
259,2.158247,18.983697890000002,14.64061403,-138.10126879999999,-2.056082666,-1.6722639794999998,10.001461625500001,10.149760244,-17.451587675,2.376714349
260,2.16658,19.078342435,14.46644449,-138.16879269999998,-2.496143252,-0.6373031135,10.453444003,13.521929740000001,-23.00651455,-0.7859537605
261,2.174913,19.17216587,14.36392784,-138.19528195,-3.8571063875,-0.5653429625,12.1239991185,12.522163865,-13.431174755,0.7928562165000002
262,2.183246,19.262244225,14.243619445,-138.223835,-1.7041137815,-0.2196492255,10.0941672305,11.730440139999999,-15.40336752,1.4542546275000001
263,2.191579,19.34248829,14.14890194,-138.2719383,-4.7555215355,-1.892807424,9.933462142500002,11.542840956500001,-13.37810135,-1.8541960715
264,2.199912,19.39382553,14.008321285000001,-138.2919426,1.3283486965000002,-1.0540812609999999,8.0271552815,6.846277237000001,-17.384604455,3.1854698674999997
265,2.208245,19.423864365,13.96428347,-138.35544205,-7.9125154019999995,-3.6154408455000002,10.757853985,5.8963727949999996,-8.240382433,-5.5619342025
266,2.216578,19.486257555,13.883389000000001,-138.3328667,1.316610351,1.305244535,10.3833217625,6.9589276315,-8.961808207,5.5600573115
267,2.224911,19.52578926,13.85853672,-138.39192194999998,-7.544943570999999,-1.5603286625,10.260294201,6.8705595715,-5.900842191,-5.8264337775
268,2.233244,19.563555715,13.778603555,-138.35808185,3.117797494,-0.4838686285,7.399288324,3.7802523375,-8.415955543499999,6.762377262499999
269,2.241577,19.57440853,13.737335680000001,-138.44361114999998,-7.4196770195,-2.4029257299999998,9.860604286000001,4.091285229,-8.8010258675,-8.1030509465
270,2.24991,19.61741638,13.670419214999999,-138.4051361,1.6955358015,-0.06250625849999991,11.7929763795,4.291191578,-6.741551637500001,6.806509733
271,2.258243,19.63123798,13.667636394999999,-138.48486705,-7.621724844,-1.935726613,9.3451492775,4.2458544375,-4.227924466,-9.008821964
272,2.266576,19.654725075,13.60597563,-138.4319458,3.506595969,0.731903002,10.3996889605,1.6901681425000001,-5.6316099165,8.0621192455
273,2.274909,19.659437179999998,13.535006525,-138.54237365,-6.570157051,-2.9742337465000004,10.052313326,3.8732446434999996,-13.143064975,-9.6619093395
274,2.283242,19.706512449999998,13.452435495,-138.50090405,0.82870321,0.692685876,11.169524668,4.9514114854999995,-8.399510383500001,7.785870703
275,2.291575,19.71158123,13.41311455,-138.5807838,-6.118342876,-0.852406114,9.655196669,2.9592195455000003,-8.3720657835,-7.591683688000001
276,2.299908,19.737825389999998,13.399813175,-138.5380859,-0.9256511034999999,-1.2003201995000001,8.715629818,2.501435399,-0.512515323,5.175799606
277,2.308241,19.742962835,13.34464455,-138.6112518,-2.504206896,-1.771788567,10.214021442,2.670758486,-9.9062566735,-6.2511644365
278,2.316574,19.768723485000002,13.27401161,-138.61050035,-2.669342812,-0.2044007185,10.597938535,3.686606765,-8.674084425,2.8103885650000002
279,2.324907,19.779964444999997,13.23928833,-138.6547966,-2.264589662,0.3081593365,10.384245872000001,2.5635368825000002,-6.4559147359999995,-3.9077401180000004
280,2.33324,19.80330181,13.21738243,-138.6573219,-4.643744228999999,-1.431386888,10.276963947,3.4964081050000004,-3.2558005005000004,0.6123671499999999
281,2.341573,19.820788385,13.200282575,-138.669239,-0.24391531950000012,-0.6905903225000001,11.1415057195,2.380472064,-3.192328334,-1.0767388350000004
282,2.349906,19.823158265,13.149572370000001,-138.7219963,-4.721562862,-2.1307601629999997,8.867882727,2.380338192,-8.5252132415,-3.819142341000001
283,2.358239,19.81993103,13.12349796,-138.71317670000002,0.9698767660000001,0.256299049,8.002362489500001,-0.623559296,-3.37987566,1.5868725799999996
284,2.366572,19.805808065,13.14638233,-138.77199935000002,-7.5002639905,-2.1325116155,11.291563271,0.5121757835,-0.465468526,-7.5168124455
285,2.374905,19.84824085,13.144991395000002,-138.73109820000002,1.4204285145,1.311363399,11.239601615000002,4.0937060115,0.67116341,4.1291238095
286,2.383238,19.863294605,13.150532720000001,-138.80934905,-5.660883725,-1.6652621925000002,9.87354827,4.4420341255,-3.2189536690000002,-9.029390813
287,2.391571,19.875050545,13.1013546,-138.78601075,1.743996501,0.275070347,7.5147778985,1.012191534,-5.413991450999999,4.1807688175
288,2.399904,19.848934175,13.118450164999999,-138.86396025,-6.3560113915,-2.1448850635,11.54192734,-0.673577592,-1.8618028459999998,-9.391703131
289,2.408237,19.87183762,13.11273003,-138.8181839,0.14214205750000009,-0.03410729750000002,11.72786713,1.7965568305000001,0.37839272599999996,4.884890556
290,2.41657,19.852898595,13.100096704999999,-138.90179825,-4.619493245999999,-2.698773503,8.820218565,0.35580092650000006,-5.5290510655,-9.047755718
291,2.424903,19.789054874999998,13.03256035,-138.89739989999998,1.5624550285,-1.231433153,9.266772985500001,-7.397532463499999,-8.2404843585,2.8815249205
292,2.433236,19.671373369999998,12.997075555,-139.01474385,-4.8794522285,-2.313063979,11.3561251155,-10.665335657,-9.380218268,-11.737663747
293,2.441569,19.56158161,12.97295904,-139.0313568,-2.064736903,-0.523461677,10.4634416125,-12.293629645,-4.1691013575,-1.2047078610000002
294,2.449902,19.349143984999998,12.914494515000001,-139.1583519,-1.3402296905000002,-3.335563421,8.935599921,-21.755835535000003,-12.303664208,-11.9167881015
295,2.458235,19.09240913,12.825770855,-139.25149535,-1.3672926429999999,-1.7595375180000001,10.222199440499999,-27.9354887,-14.43029213,-7.141768454499999
296,2.466568,18.779047965,12.78498745,-139.38975905,-4.906544447,-3.068242073,12.058957638499999,-33.642009735,-10.56836939,-13.80393791
297,2.474901,18.3621397,12.72059298,-139.4970398,0.957615748,-2.4848737715,11.370152237500001,-46.783836365,-12.109079838500001,-9.7929723265
298,2.483234,17.846734050000002,12.575995445,-139.7036438,-4.16160512,-4.6059520245,6.7549453975,-56.1445961,-24.737099645,-17.77632999
299,2.491567,17.265756605,12.555893900000001,-139.8102188,-2.279142529,-1.748547077,14.917900323500001,-66.54131317,-6.848454714000001,-11.5287833235
300,2.4999,16.54751301,12.46517229,-140.00473025,-2.572817922,-4.3871159555000006,7.2676334375,-80.79739380000001,-17.745515345,-18.729322435
301,2.508233,15.79281998,12.324175830000001,-140.16885754999998,-1.9123833175,-1.0252337455,10.380951883,-86.044914245,-22.39795208,-14.12729883
302,2.516566,14.94547129,12.377072335000001,-140.31584544999998,-4.6877088545,-3.9023867845,13.298706055,-97.520942715,0.8396594525000003,-18.415243144999998
303,2.524899,13.971879959999999,12.184407709999999,-140.50878525,1.7245224714999998,-4.61924839,4.929560542,-111.62770459999999,-28.830327985,-16.49717331
304,2.533232,12.939387799999999,12.211792945,-140.65459445,-8.4915342335,-1.336175084,16.6450244785,-119.8577385,-1.4915038945,-17.43977833
305,2.541565,11.76366758,12.11666441,-140.8219032,3.1341536045,-4.6636015175,7.4263210295,-136.53829954999998,-16.140843869999998,-17.114364625
306,2.549898,10.531041145,12.00740385,-140.99816895,-7.1477062700000005,-2.1860444545,9.511967539999999,-143.1380081,-17.571462155,-17.737086294999997
307,2.558231,9.202779769500001,12.040052415000002,-141.13446045,1.4173099400000002,-2.340833187,13.389669897500001,-155.6730957,0.3195037800000007,-16.854672435
308,2.566564,7.7722394470000005,11.81869507,-141.32811354999998,-4.6352204085,-3.3609507085,1.567925513,-166.52718355000002,-30.363621715,-18.54131794
309,2.574897,6.318727731999999,11.92960787,-141.4642067,-3.3033265469999997,-2.0863922835,19.64383221,-170.7140503,10.4701223395,-17.8696146
310,2.58323,4.774144411,11.634966850000001,-141.64412685,0.6455144879999999,-1.0172311065000001,3.6946232334999998,-180.62060545,-38.000089645,-17.640975955000002
311,2.591563,3.1913523675,11.771143434999999,-141.79221339999998,-7.2813215265,-2.8571491245000002,15.0064187045,-185.9881363,14.312490465,-18.87960434
312,2.599896,1.5207430720000001,11.520579815000001,-141.97081375,4.465519964499999,-2.183167577,4.45108497,-195.81777195,-31.684194565,-19.72305393
313,2.608229,-0.149419792,11.592902185,-142.1501694,-10.9695725465,-1.712082386,17.883650308500002,-195.81693265,7.631589889500001,-21.547120095
314,2.616562,-1.910893083,11.39754057,-142.31500245,5.070753753,-0.6610355975,1.4140396099999997,-206.95300295,-23.864584925,-20.24730301
315,2.624895,-3.6743044854999996,11.368317605,-142.514122,-9.738462927,-1.331619501,14.570675014,-206.6318741,-3.167131033,-23.91853905
316,2.633228,-5.4146921635,11.347095965000001,-142.6680107,4.747963369,-0.8981271390000001,13.806806922,-204.7531281,-1.8786452415,-18.79690552
317,2.641561,-7.1630873685,11.077121734,-142.83385465,-8.116227387,1.314394176,6.146957394999999,-205.66358185,-30.86704445,-23.314780235
318,2.649894,-8.9194340705,11.1582465175,-142.9795418,1.161391258,1.2255653145,9.6662163735,-206.8985825,11.29632759,-16.247076035
319,2.658227,-10.678791045,10.834527017,-143.1236038,-2.956601739,-2.425682008,4.7507276525,-207.6049805,-36.206949234999996,-23.745652200000002
320,2.66656,-12.325277325,10.855323314,-143.2641754,-3.0121930839999997,2.6089452504999997,17.233249427,-193.85168455000002,5.018489659,-16.18155813
321,2.674893,-13.901007655,10.653788565500001,-143.4024582,-2.282466769,2.1368120315,14.32014179,-185.86053465,-20.696102145,-21.80886316
322,2.683226,-15.443124775000001,10.424513338,-143.49169920000003,0.9328105150000001,0.9980816695000001,6.5333514215,-182.56152344999998,-24.70630169,-17.47055292
323,2.691559,-16.9801445,10.238552571,-143.59735869999997,-4.9888584615,2.0240470765,5.570568204,-182.05518339999998,-18.7717642795,-18.67683697
324,2.699892,-18.43713284,10.0723562265,-143.6967087,-2.1597146395,0.22879672049999994,9.9526867875,-172.23153685,-16.230231765,-17.44056654
325,2.708225,-19.755560875,9.861875536,-143.7518692,-2.3510716855,1.6495679315,13.4455237375,-156.91498565,-22.558011055,-14.8665328035
326,2.716558,-20.97394466,9.593190672,-143.79561615,-0.07982692100000002,3.326982796,12.481308700000001,-144.88312535,-29.295176505,-16.14601946
327,2.724891,-22.10995865,9.3509702675,-143.7933807,-2.9081256389999997,3.1810644865,10.702357770999999,-136.16947555,-27.94286728,-10.8395824445
328,2.733224,-23.16608238,9.100917579,-143.81205749999998,-2.0053964255,1.976431251,9.13933897,-125.98064425,-27.731595040000002,-13.69443321
329,2.741557,-24.112082485000002,8.900210857000001,-143.7999115,-4.1503908635,3.724833965,8.494628905999999,-113.5063324,-23.438432695000003,-8.7346434605
330,2.74989,-24.92137718,8.643417358,-143.7650299,-1.015409797,1.6173117160000001,10.5564622875,-97.393730155,-30.629252434999998,-9.209496975
331,2.758223,-25.651478769999997,8.4436714645,-143.7271805,-4.388488412,2.6255099175,10.2061111915,-88.03984069500001,-24.383577345,-6.5751388075
332,2.766556,-26.30043602,8.2064204215,-143.68034365,-0.5662991405,1.6744596365,11.799085378000001,-78.36261748999999,-28.970359799999997,-7.5400383474999995
333,2.774889,-26.83482361,7.9821343425,-143.62295534999998,-3.334849715,2.5135335325,9.754473925,-64.847841265,-27.915149685,-6.3318355085
334,2.783222,-27.285086630000002,7.741932392,-143.55402375,-0.5477368235,2.862070084,10.919801237,-54.792749404999995,-30.2947731,-5.9823336605
335,2.791555,-27.64558315,7.512830973,-143.48409270000002,-4.511540294,1.5789433119999998,10.4966435425,-44.130559925,-29.02092838,-5.688558221
336,2.799888,-27.952497485,7.3063173295,-143.4243622,-1.51090312,1.7426712515,7.970569611,-37.3609848,-26.12644768,-5.465990782
337,2.808221,-28.198523525,7.096088886,-143.3581009,-3.2435468435,0.9445804355,8.6570715885,-30.28791046,-26.76056862,-5.2991515995
338,2.816554,-28.37037182,6.8895277975,-143.31562805,-2.5036804674999997,0.690839961,11.5995926855,-20.870620725000002,-25.093246460000003,-7.5412540435
339,2.824887,-28.46316242,6.712756872,-143.25616455,-2.8990545269999997,1.7469688655,12.50797272,-11.6898107545,-22.82229042,-4.2404710055
340,2.83322,-28.510962485,6.502772093,-143.21699905,-2.5892181395,0.9824805109999999,12.408015729999999,-5.9678975340000004,-25.24892235,-8.157978773
341,2.841553,-28.527065280000002,6.342917442,-143.1633301,-3.1391084190000003,1.292358965,8.8361737715,-2.35767591,-20.705474855,-3.910289764
342,2.849886,-28.539984705000002,6.177252531,-143.13563155,-2.8046646115,0.039305924999999964,8.473360775,-1.6358410715,-19.93753433,-6.802701949999999
343,2.858219,-28.49228096,6.051420212,-143.11157225,-3.277893543,-0.8861993105,12.3430180545,5.7504413125,-15.433392044999998,-5.0654659275
344,2.866552,-28.404865264999998,5.8978285790000005,-143.08673095,-2.640018225,0.23857632300000003,12.3485059735,10.470866202,-18.491160395,-6.4291818145
345,2.874885,-28.34602547,5.795115471000001,-143.07784270000002,-3.7383772134999997,0.07393330349999999,10.073902130499999,7.2659224255,-12.145370485499999,-5.2960842845
346,2.883218,-28.286641125,5.6978673935,-143.08786775,-3.1416076420000003,-0.29412403299999995,9.906567573,7.5077188015,-10.561551093,-6.876123428
347,2.891551,-28.195441244999998,5.609434843,-143.0944443,-3.4068417550000003,-0.964126095,12.546049593,11.39565468,-9.778588772500001,-6.087396979
348,2.899884,-28.108555795,5.520781994,-143.10824585,-2.2832933664999997,0.22360628100000002,10.55435705,10.8182320585,-9.4920289505,-6.694543599999999
349,2.908217,-28.061736105,5.46579957,-143.14710235,-2.8538457155000003,-0.806434572,7.796014786000001,6.3843550685,-4.432396649999999,-7.5761215685
350,2.91655,-28.01334858,5.390146017,-143.17741775,-2.739928961,-1.617912829,10.236065864,6.462606907,-7.182610392,-7.7398486135
351,2.924883,-27.96321487,5.3014392855,-143.195919,-1.751277119,-0.387524942,10.761881826,6.542869091,-9.1585178375,-7.3230659965000005
352,2.933216,-27.941514965,5.221123218500001,-143.23600765,-2.8432444335,-1.3190196755,12.124238495,3.2752094265,-7.136364221499999,-9.018933296
353,2.941549,-27.929681775,5.188575505999999,-143.27935409999998,-2.8079589605,-0.376857683,11.544805526,2.2644459605,-1.8258661035000001,-6.778647662
354,2.949882,-27.953134535,5.1347272395,-143.31512835,-2.8627581595000002,-0.9372659329999999,10.1178858255,-2.242981136,-4.579639673,-7.061838152
355,2.958215,-28.00431347,5.1179263595,-143.36486055,-3.4869725705,-1.6107038555000002,8.9429228315,-5.2465057375,0.20637392999999993,-6.564614533
356,2.966548,-28.069641115,5.081457019,-143.3875351,-0.4800388215000001,-1.5064998829999998,10.9012019645,-7.3611540795,-3.4263587145,-4.7882933915
357,2.974881,-28.14373493,5.0319269895,-143.4176941,-4.3385212420000006,-1.384716004,11.03486681,-8.246036529,-4.340313554,-6.355526209000001
358,2.983214,-28.256430625,5.0623042585,-143.4527664,-2.1526952384999998,-0.206707515,8.416226508,-12.962439535,4.3051457145,-2.2144857345
359,2.991547,-28.400066375,5.0856962205,-143.50263975000001,-3.2664838434999997,-1.5155068114999999,9.917285442,-16.375855445,4.502772092500001,-4.2883169655
360,2.99988,-28.524056435,5.1005852225,-143.53344725,-2.2138848010000003,-1.2680466584999999,10.3498013,-14.293186665,2.47626324,-2.7150259615000003
361,3.008213,-28.65107918,5.0567833185,-143.5495911,-2.1478810905000003,-1.7019390465,8.9425320625,-14.71606684,-4.488595009,-4.5848526955
362,3.016546,-28.826217655,5.072401643,-143.5929794,-2.7657335995,0.27133324700000006,11.614372014499999,-20.34705257,3.255563974,-3.9168854955
363,3.024879,-28.980837819999998,5.1288318635,-143.66416164999998,-4.14003098,-1.371291727,12.069149495000001,-17.464387889999998,9.2436494825,-4.5478925705
364,3.033212,-29.12221718,5.1453536745,-143.69683835,-1.2765078694999998,0.42888283699999996,8.358346939,-16.356568815,2.7512640360000002,-2.73693949
365,3.041545,-29.30090618,5.140559435,-143.72203065,-1.9255901574999998,-0.905784279,9.058587074,-20.89720917,0.1742666959999999,-3.284879804
366,3.049878,-29.463282585,5.1497623919999995,-143.736496,-1.3727077840000002,-1.6278867125,11.141213415500001,-19.117284775,0.9362965615000001,-1.257889792
367,3.058211,-29.60375595,5.154996157,-143.75666045,-4.156533003,0.5918662995,10.87024319,-16.301753995000002,0.938832253,-2.1600423755
368,3.066544,-29.769108770000003,5.180659294,-143.7624283,-2.1698497535,0.33021688450000003,9.4211471105,-19.59207344,2.152019918,0.6116422115
369,3.074877,-29.91411495,5.1900246145,-143.7813721,-2.4851715565,-2.0471240285,7.995677112999999,-16.885746005,1.3064736424999999,-1.7787744404999999
370,3.08321,-30.032162669999998,5.199501037499999,-143.7867508,-1.3075190335,0.156328678,11.42404509,-13.839405540000001,0.4107244015,-0.25561089049999997
371,3.091543,-30.154361725,5.178900957,-143.78433224999998,-3.9316442015,-0.36052949,8.861510276,-14.411192895000001,-3.0765577855000004,-1.3657448890000001
372,3.099876,-30.264425279999998,5.204800843999999,-143.80222320000001,-1.4271116855,-0.541239351,9.805475714,-12.765401364999999,2.9087980985,-0.625647053
373,3.108209,-30.32652855,5.2197859285,-143.81796265,-4.143147111,0.4196920845,13.421826363000001,-6.971190453,1.7065805495,-1.090763137
374,3.116542,-30.37912655,5.239856720000001,-143.8240738,-1.7996206955,-0.0360490215,10.8277235015,-6.025986074,1.5629229545,0.295857221
375,3.124875,-30.44203854,5.2330353259999995,-143.82588195,-2.5951449275,-0.927982777,6.439037561499999,-7.2443397045,-1.3909294605000002,-0.974858582
376,3.133208,-30.488312725,5.2236943245,-143.82878879999998,-1.2194582595,-1.294286102,13.1442914,-5.277743101,-1.7046145199999998,-1.1124967335
377,3.141541,-30.524501805,5.1816301345,-143.80957795,-3.2800120115,-0.8050463944999999,9.775912285,-4.2753427925,-6.306064963000001,-0.960642755
378,3.149874,-30.595074654999998,5.1719675065,-143.8106003,-1.9363014105,-0.7719955150000001,9.102334497000001,-8.240516424499999,-1.8626609295,-0.918039849
379,3.158207,-30.63944149,5.1593399044999995,-143.81060025,-4.8767949344999995,-0.912859678,12.156628849,-5.0080890655,-2.0984399315,-1.1482286155
380,3.16654,-30.666318895,5.158036708999999,-143.80259705,-0.7113249899999998,0.029952977,10.129199504999999,-3.1262563465,-1.5847080349999998,0.5780107675
381,3.174873,-30.721539495000002,5.168681383499999,-143.81603239999998,-4.2261590955,-0.519398127,8.0049595845,-6.1956806185,1.1245933175,-1.1039417385
382,3.183206,-30.751649855,5.1624507905,-143.80516815,-0.8424024879999998,-1.620201409,8.906032799,-3.466893196,-2.2775150535,0.5718185600000001
383,3.191539,-30.771374705,5.1478123665,-143.775383,-2.9087394475,-0.30729028599999997,11.65573883,-2.4280630870000004,-4.120645821,1.7838715615
384,3.199872,-30.802131655,5.164716959,-143.78025815,-1.9677826165,-0.7687164989999999,10.889534948,-3.4346321819999996,1.0152459145,0.472281687
385,3.208205,-30.814757344999997,5.178184748,-143.75930785,-4.6316862105,-0.8948112725,10.362662671,-1.4122407995,-0.6920581160000001,2.6048587265000003
386,3.216538,-30.85499859,5.208846569,-143.7580032,-0.9967102409999999,-0.6285625395000001,11.840702535,-4.6895504,2.052295804,1.9567354769999998
387,3.224871,-30.867518425,5.259428739500001,-143.7703018,-4.9499590395,-0.7425546125,10.681159496,-1.0568241475,5.1686000825,1.4779221415000001
388,3.233204,-30.88578129,5.2915272715,-143.76854705,-0.67290695,-0.48672032349999994,8.0718581675,-2.009629071,2.134965658,2.1434184314999998
389,3.241537,-30.958116529999998,5.353840113,-143.78739165000002,-3.375014782,-2.0193361640000003,8.4822115895,-8.218347310999999,6.783437252,1.5341776159999998
390,3.24987,-30.983264925,5.374271869499999,-143.79432674999998,-1.9057518245000002,-1.3594830635,11.368437765,-2.7167931794999998,1.462393522,0.5377324745000001
391,3.258203,-30.99843311,5.4348824024999995,-143.8018036,-3.5209838155,0.032404497000000004,11.109913351500001,-1.481668472,5.904972165999999,2.602899432
392,3.266536,-31.051729199999997,5.50445199,-143.83816530000001,-1.821677424,-1.240886569,10.2087745685,-5.7768366335,8.342205525499999,0.54278487
393,3.274869,-31.073967935,5.5609276295,-143.8471527,-4.7004401685,-0.807986081,10.7117023455,-2.2928902315000004,5.566581607,2.2026003005000003
394,3.283202,-31.097519875000003,5.6354176995,-143.87898255,-0.969719037,-0.7074861530000001,9.448743343,-2.2779063585,8.5380773545,1.3695997000000002
395,3.291535,-31.13165283,5.699852227999999,-143.90612794999998,-3.490306735,-1.1109160485,8.741353035,-3.460323155,7.499803781500001,0.845711574
396,3.299868,-31.17241478,5.7539536955,-143.9205475,-1.0581419319999998,-0.522051096,8.824999334000001,-4.575374842,5.378534794,1.877952516
397,3.308201,-31.20718575,5.844641447,-143.97152705,-3.598035574,-1.618852079,9.268252612,-3.2219958305,11.66599798,0.05159994950000002
398,3.316534,-31.195056915000002,5.8745191095,-143.96522520000002,-2.2247979195000003,-0.8220490215,13.2140493415,1.5493152065,1.6090926825,2.4884035585
399,3.324867,-31.22865486,5.991656541499999,-144.02851105,-2.856164038,-0.5571751739999999,10.548046115,-2.9657124875,15.143567090000001,0.448249154
400,3.3332,-31.233837129999998,6.051937580000001,-144.03063205,-3.2573975325,-0.3917724415,9.614269970999999,-0.4500675205,5.2388989925,3.5369229315
401,3.341533,-31.245926855,6.1573126315,-144.082077,-3.298021555,-1.5331937675,10.66295147,-0.4876503045,13.2008934,0.934996578
402,3.349866,-31.24492264,6.2670292855,-144.09618375,-1.772023499,-0.5170128495,9.340586187,0.45589500699999996,11.0417284965,5.4043159485
403,3.358199,-31.23157978,6.3866047859999995,-144.12072755,-3.2285708785,-0.23206597550000002,7.7165038585,2.203336835,12.996964935000001,4.559110403
404,3.366532,-31.19749546,6.552670479,-144.14402009999998,-3.1166677475,-0.49305511999999996,10.116441013,4.5529129505,17.419035909999998,7.929779053000001
405,3.374865,-31.0766201,6.7278025150000005,-144.16390230000002,-2.321973413,0.550071813,11.675621985,15.12365675,18.418484215,8.460636139
406,3.383198,-30.91362667,6.908382892500001,-144.1571884,-2.863401294,1.661783576,7.7890665535,19.553376675000003,17.146404265,11.754822728499999
407,3.391531,-30.675969125,7.1274735924999995,-144.17466735,-2.376485467,0.7902791055,10.609833717,29.098991395,22.854016305000002,11.296320914999999
408,3.399864,-30.33550358,7.3547551635,-144.1644287,-3.333432555,1.535296008,10.155162812,40.86562729,21.85385895,14.813593390000001
409,3.408197,-29.89757729,7.554153919500001,-144.13471220000002,-0.768561065,1.4266212585,9.0867776865,52.368944165,18.13630867,14.684885505
410,3.41653,-29.39942169,7.786453009,-144.1205368,-4.5364789965,2.0889345405,10.1976528165,59.70719528,22.38725185,15.147489069999999
411,3.424863,-28.774707794999998,7.972246885500001,-144.07130435,-0.02489820100000001,1.523316741,10.949592828499998,74.46642685,15.845901965,15.574659350000001
412,3.433196,-28.03608036,8.1691219805,-144.0301666,-5.1149630550000005,2.4583910105,9.6291105725,88.09077835,17.509283064999998,15.343133925
413,3.441529,-27.21944809,8.3474314215,-143.96811680000002,-0.2532242685,1.4959111214999998,10.265388487500001,97.23786924,14.745583055,16.0756917
414,3.449862,-26.333761215000003,8.543147802,-143.91483305,-4.685095071999999,0.654136449,8.6523499495,105.4904556,17.212399485,15.97360563
415,3.458195,-25.31914425,8.718505144,-143.8516922,-1.170179486,1.780041695,12.882283924,120.93790055,14.883548260000001,15.529470920000001
416,3.466528,-24.219977380000003,8.8676543225,-143.76958465,-4.4203851225,2.026085734,9.064180611000001,130.59132005,11.271532055,16.057123665
417,3.474861,-23.01053047,9.044107438,-143.66887665000002,-0.14801777900000002,1.379186094,11.8222589495,143.51686095,13.84229851,19.044547084999998
418,3.483194,-21.732749939999998,9.1952135585,-143.56813815,-5.6024689675,0.8330318255,8.0240943435,151.60533905,11.4060068135,17.498835565
419,3.491527,-20.33342171,9.3780426965,-143.4512253,-0.17877535499999997,2.1574435235,13.043336389,166.00634765,14.704532624999999,20.413494110000002
420,3.49986,-18.848948475,9.4956908235,-143.31427000000002,-3.728787303,2.2605196235,8.244079113,175.6250763,7.117375851,19.40065002
421,3.508193,-17.22369003,9.6458954835,-143.16215895,-1.3221568165000002,0.9686064125,12.88131237,192.35375975,10.757279395,22.313919065
422,3.516526,-15.556212425,9.7599139195,-143.00383375,-3.2297528985,0.7962949574999999,8.476587532,197.07187655,7.1013133525,21.173493385
423,3.524859,-13.824150085,9.879491806,-142.8466911,-1.3761265274999999,0.4194668755,14.3173761375,204.96365355,8.367247105,21.243646625
424,3.533192,-12.035002235,9.968628884000001,-142.67615130000001,-3.023476481,-0.06792140000000002,9.495179176499999,211.44733430000002,5.193500042,21.147727965
425,3.541525,-10.2050518995,10.014946936000001,-142.47887805,-0.6596196590000001,-0.5419209005,11.702859400000001,215.79467775,0.17350602150000005,23.548086165
426,3.549858,-8.33680892,10.0491423625,-142.29319385,-2.9217227694999997,-0.10587799549999999,13.814224245,220.57034299999998,-0.21545135950000005,21.370350835
427,3.558191,-6.508424282,10.097155572,-142.10212325,-2.4247738125,-2.1884871725000004,9.205497742,215.75456235000001,1.986166358,22.742227555
428,3.566524,-4.7031958105000005,10.0924887675,-141.91067505,-0.7961280344999999,-1.9624320865,10.002532483,212.86405185,-3.530746568,21.491765975
429,3.574857,-2.8711423875,10.058127401,-141.7427063,-3.1873641015,-1.680622518,14.558026315,216.6410522,-6.2197222705,19.14312935
430,3.58319,-1.0594178585,10.0357990285,-141.5689621,-2.1018030640000003,-1.464778945,13.985220909999999,214.1099243,-4.2126053575,19.488289835
431,3.591523,0.6836556454999999,9.988602159,-141.4190979,-1.7675308735,-1.5107022524999998,8.9940364345,206.32434080000002,-6.499148369,17.31168461
432,3.599856,2.345318079,9.9577946665,-141.28269195000001,-3.1320477725,-2.9269682169999998,8.596842287000001,196.88858795,-4.130854011,15.418244365
433,3.608189,3.9780105355,9.898472308999999,-141.1607857,-2.2027680875,-3.9543257955,12.234027390000001,193.66339875,-7.0867216605,14.33993149
434,3.616522,5.5600464345,9.872910023500001,-141.0453491,-3.34808135,-3.1852862835,14.211408136500001,187.7941742,-2.8010746245,13.1972332
435,3.624855,7.041032314500001,9.7913470285,-140.9265709,-0.15586504349999997,-2.5122811195,11.6312813735,175.52603915,-8.955552100999999,14.633241175
436,3.633188,8.427637339,9.7297315575,-140.84943005,-4.5320800545,-4.3752310275,11.0976955905,165.07170105,-6.92475152,9.8167967795
437,3.641521,9.74010706,9.693909646,-140.72842789999999,-0.296476863,-2.061284423,10.959296702,155.3317032,-2.774466693,14.39419603
438,3.649854,10.946347710000001,9.616779327500002,-140.67228699999998,-3.8199949264999997,-3.8634545805,10.2232575415,143.8407059,-8.710836886,8.018177986
439,3.658187,12.086740495,9.5844359385,-140.5567131,-0.525396183,-3.9083697795,12.158614876,134.77661899999998,-1.857944012,13.731755735
440,3.66652,13.09612036,9.557471750000001,-140.4941826,-4.698338746999999,-5.1718018054999995,10.597590925,120.09148785,-2.3116754295,7.857370853500001
441,3.674853,13.99391365,9.4597496985,-140.40221025,1.2331777815,-3.5085312130000004,9.125798938500001,106.16031265000001,-9.639377830499999,12.908282759999999
442,3.683186,14.789595604999999,9.504548547999999,-140.3270035,-5.485962628999999,-4.021021843,11.847117425499999,94.20802688500001,6.658293724,7.17646122
443,3.691519,15.487280845,9.3339984435,-140.27737805,1.2762360575,-2.735230565,8.2189598075,83.09725189,-19.019307135,10.656090257999999
444,3.699852,16.130596165,9.392512085,-140.19810105,-4.8328678605,-3.017873049,13.928976055,75.86249542,8.560744525,7.013392925
445,3.708185,16.675085065,9.243081569500001,-140.16070175,1.721097231,-3.374230385,5.8415035145,64.93643760500001,-16.745681285,8.9437971115
446,3.716518,17.130983354999998,9.266835689,-140.11133575,-5.280920863,-3.6459980009999997,11.8572047345,53.894386295000004,3.6681262235000003,4.5521736145
447,3.724851,17.47881699,9.187951086,-140.06658555,2.2255262585,-3.488682747,10.131692885,41.24684906,-8.2601299285,7.5125525
448,3.733184,17.79460144,9.096699476,-140.06087109999999,-5.2004089360000005,-1.3644512295000002,9.8776447795,37.956748965,-11.0412356855,3.591312647
449,3.741517,18.071506499999998,9.0967426305,-139.99077225,-0.1692447665000001,-1.9035923485000001,10.794996024,32.33134365,1.7649574279999998,7.5693087565
450,3.74985,18.288578035,8.940073015500001,-139.99800875,-1.8933788534999998,-2.184196353,5.437377691,26.388041495,-18.911645885,4.7827326055
451,3.758183,18.50557804,9.027838944,-139.8979454,-2.765423298,-1.52568239,15.70185566,24.488327025,12.939245225,7.549544573
452,3.766516,18.693463325,8.8196291945,-139.92155459999998,0.623337686,-1.6147594454999998,6.321916938999999,23.251550675,-25.335208895,5.1293838025
453,3.774849,18.87508297,8.7619018575,-139.8647194,-2.942946911,0.265299797,12.156662760000001,21.021984099999997,-5.1833369734999994,8.216178894
454,3.783182,19.012945175,8.7073130615,-139.83945085,-1.9304623605,-2.880328536,10.2165877815,16.39018345,-5.964348018,4.840836048
455,3.791515,19.12932396,8.529916525,-139.8398819,1.165268272,-1.17181921,8.03879261,14.2457242,-20.93104458,6.511808157
456,3.799848,19.275260925,8.4666798115,-139.8252678,-5.698664903499999,-0.5124569535000001,12.553239346,17.543849944999998,-7.3781578539999995,3.8758322005
457,3.808181,19.42055893,8.2954053875,-139.81778334999998,2.4701569675000004,-0.317025274,8.745064737,17.62070847,-19.894716260000003,7.2662768364999994
458,3.816514,19.540387154999998,8.15788722,-139.8350601,-5.396713972,-2.150399923,9.513567447,14.951895715,-17.001253130000002,3.3693242075
459,3.824847,19.691064830000002,8.051174640500001,-139.810894,0.8415737155,0.5433385,11.09548092,17.94631481,-11.894346711499999,6.6075532435
460,3.83318,19.862635609999998,7.9027895930000005,-139.82555385,-3.7419747115,-0.7518537935,10.5162601465,21.13644695,-18.08468819,4.24940443
461,3.841513,20.013293265,7.7203841209999995,-139.818737,1.5185816884999999,-1.572949141,10.0454707145,18.205485340000003,-21.09355545,7.828484297
462,3.849846,20.15921688,7.59912467,-139.84357455,-6.918506145,-0.5355722905,10.3763866415,18.28744745,-15.453026295,2.0087459785
463,3.858179,20.316874499999997,7.4551131725,-139.81223675,3.1723618504999997,-0.1395739765,8.914689541,18.695906635,-15.717430114999999,9.087540147
464,3.866512,20.46991062,7.295427084,-139.8662834,-6.141924619499999,-1.8656408195,8.367922308,19.527512549999997,-20.95538044,0.473876461
465,3.874845,20.652522089999998,7.1157689095,-139.8462639,3.0735054015000003,0.6904640645,12.426269055,21.888561250000002,-20.150033,9.395399570999999
466,3.883178,20.843883515,7.0049390795,-139.89382935,-8.1367344855,-2.168631792,12.514566895,23.95078659,-15.19379854,-0.7794477935000002
467,3.891511,21.05408764,6.852922201,-139.8738022,3.6141630410000003,1.1961739955000001,10.334495546500001,25.249444009999998,-16.985311985,8.3566122075
468,3.899844,21.233078955,6.709869623,-139.93177029999998,-5.5351271625,-1.807471037,8.311148882,22.595767975,-19.2493701,-0.4352816344999999
469,3.908177,21.390694619999998,6.5621767045,-139.92385485,1.3921026884999999,-1.37374866,9.7531259085,19.116594315,-16.96932745,6.9273881909999995
470,3.91651,21.562256815,6.5051269535,-139.954525,-8.0161550045,-1.086211294,12.3387899415,21.333540915,-8.489086866000001,-1.1652430865
471,3.924843,21.745806695,6.3980607984999995,-139.934948,3.422178507,-0.8074229660000001,11.280564307999999,22.05664921,-11.880260466,6.5136525635
472,3.933176,21.90215397,6.328138113,-139.9744873,-6.943125009499999,-1.370108783,8.882679462,19.612051010000002,-10.3288190375,-1.542944238
473,3.941509,22.059043885,6.232940912,-139.9609985,3.116704255,0.574513845,10.922825334999999,18.948062895,-10.7946264735,5.3642640114999995
474,3.949842,22.21652603,6.2495479585,-139.97202679999998,-8.583204983,-1.9559274910000002,10.5053551175,19.32622814,0.5774797199999999,-2.2356816829999997
475,3.958175,22.363963124999998,6.2287852765,-139.94670105,2.5061233284999997,-1.7378671765,10.8937830905,17.666069985,-1.9650685764999998,3.3355579595
476,3.966508,22.47212505,6.232435465,-139.96516415,-5.2260866765000005,-0.9035636785000001,8.757346630499999,13.537333010000001,-1.2191298004999997,-2.4848183094999996
477,3.974841,22.553441999999997,6.206226110499999,-139.98121265,1.2163549660000001,-1.060561765,8.610852718499999,10.2838220585,-4.4371673465,-0.9478227495
478,3.983174,22.64531326,6.265180588,-139.96031955,-5.6710933445,-0.6695114225000001,10.305435182,11.129911419999999,6.7016453455,-0.6881329715
479,3.991507,22.732945445,6.2994937895,-139.9529686,-0.07116639599999997,-1.5182641745,11.0384922035,10.717137815000001,3.340903461,-1.16377005
480,3.99984,22.78655815,6.3541390895,-139.9368248,-2.3441561465000005,-1.330806792,8.017528293,6.6172720205,5.9505457879999994,-1.1587816535
481,4.008173,22.82374668,6.36242938,-139.9541092,-1.405846715,-0.2441153975,11.3129606245,4.960927248,-0.674365178,-2.669720769
482,4.016506,22.86625576,6.449952125499999,-139.91254425,-1.9238624205,-0.232237002,10.9581410895,4.9219043255,10.774745464999999,0.11794075749999999
483,4.024839,22.887633325,6.474419117,-139.91532515,-1.083545923,-1.503458321,11.53895664,2.8941397665,1.7822896835000002,-1.8262438175
484,4.033172,22.886963845,6.502907991500001,-139.89917375,-0.27633214000000006,-1.5817119480000001,10.0621509575,0.0425260365,3.0621048215,0.04179602849999997
485,4.041505,22.87018299,6.538016795999999,-139.91352465,-4.2556388975,-0.6659962535,10.395031213,-1.4930349885,2.42209512,-3.5863645075
486,4.049838,22.86437702,6.58457613,-139.8741722,1.0360683499999999,0.6286486985,9.1663517945,-0.8507962674999999,6.1416282655,1.773465872
487,4.058171,22.850995065,6.6006588935,-139.89403535,-3.876538396,-1.740766883,9.211037635,-1.0389519035,0.06846022600000001,-3.3018795255
488,4.066504,22.837852480000002,6.5875964165,-139.88445665,1.9212172330000001,-0.790521331,10.692924978499999,-1.3345657885,-1.821652651,1.3008511065000001
489,4.074837,22.829224585,6.5980484485,-139.90410609999998,-5.477428436,-0.7687397149999999,12.1080670355,-0.4640979765000002,-0.5412096980000003,-3.008840054
490,4.08317,22.828614235,6.610663413999999,-139.8893776,1.3220313045,0.9709000139999999,9.931029797,0.13017797500000006,1.2498146294999999,0.65954715
491,4.091503,22.817733765,6.60902667,-139.91309355,-4.54450357,-0.9775161445,9.8015723215,-0.6565184589999999,-2.0656535625,-2.886711419
492,4.099836,22.81813526,6.590686321,-139.922287,2.7325779199999998,-1.2052089575,10.121728895,0.508064598,-3.2637594935000003,-0.506329391
493,4.108169,22.815796849999998,6.5674071314999996,-139.9676323,-6.421014785500001,-0.396310776,11.3914866445,0.7050255235,-5.4629657245,-4.258110404
494,4.116502,22.81557274,6.5719342229999995,-139.96281815,1.181680024,-0.2085912675,10.7496211555,0.22341382499999995,-0.06041753300000008,0.026081680999999968
495,4.124835,22.820305825,6.603312492,-139.9920082,-6.424043417,-0.48570591250000006,9.4673833845,1.3532578869999998,1.3281168939999999,-5.019506454
496,4.133168,22.844236375,6.606934309,-139.973732,3.278703451,0.5320158150000001,9.939560411,2.8949463365000003,0.4586932660000005,1.5312958955
497,4.141501,22.872616765,6.599944115,-140.01927945,-6.3129582405,-1.4764747025,10.1158289915,4.3871170285000005,-3.6738436224999997,-5.0344529155
498,4.149834,22.90836811,6.58896637,-140.00065615,2.3033430575,0.02267842,10.69411707,4.3828006385,-1.161344051,2.206026137
499,4.158167,22.94089985,6.6313693525,-140.02726365,-7.1658365725,-0.8992920665,10.525515077000001,4.600650132,2.6624014375000002,-5.2589362855
500,4.1665,22.97591305,6.6721172335,-139.9839134,2.2618253235,-0.27508606,10.297678470000001,3.9629704954999996,5.7175074815,2.530558467
501,4.174833,23.027650835,6.733944416,-140.00307465,-6.176429987000001,-1.195501328,11.008524896499999,6.791473627,5.147359848,-5.365990162
502,4.183166,23.064629555,6.7385892865,-139.973114,3.576517701,-0.0915896145,10.753898622,4.407902837,1.0954254865000002,2.7227034865000004
503,4.191499,23.071909905,6.7679679395,-140.02495955,-6.586883782999999,-1.8620405199999999,9.179577827500001,1.9240711835,0.03591728200000022,-7.4193429945
504,4.199832,23.066187855000003,6.8114719390000005,-139.99043275,2.0098212955,0.3162650615,9.730148554500001,-0.7131644484999999,5.5704438685,1.3387851714999999
505,4.208165,23.039144515,6.9138143065,-140.03428265,-7.1879763605,-2.3122668265,11.685799595,-2.3673191665,8.469963671,-9.9842145425
506,4.216498,22.999476435,6.962645769,-140.02316285,3.4099862575,-1.7509637475,9.044504405,-4.427612424,5.0778757315,-1.4375925065000001
507,4.224831,22.902565959999997,7.011978865,-140.10186765,-5.9724953175,-1.491115242,10.131725313499999,-10.2508969325,1.0131914615,-11.308970689999999
508,4.233164,22.768362045,7.0786635874999995,-140.1180878,1.9499104025,-1.3391410709999998,11.278974058500001,-15.368071075,5.785835808,-5.26951038
509,4.241497,22.61923504,7.185737848,-140.1671677,-6.6479959485,-1.4753124115,12.3595352195,-16.922360419999997,8.811801077,-10.7208571415
510,4.24983,22.400613785,7.2416574955,-140.19002915,3.9917372465,-1.007182062,9.9817276025,-25.38153267,4.3132995965,-5.4788879155
511,4.258163,22.095796585000002,7.3011078835,-140.2708626,-6.5470886235,-4.20695138,8.2995193005,-35.123037339999996,2.1702518465000002,-11.979446647
512,4.266496,21.75798893,7.412534952,-140.2777481,1.4186362775,-1.437493145,12.057717979000001,-39.917268754999995,11.27936721,-6.1015864025
513,4.274829,21.292446135,7.507607698499999,-140.35419465,-4.322954059,-3.841255307,10.336895942000002,-54.42443657,6.480247557499999,-13.0261695405
514,4.283162,20.7210865,7.551253557,-140.433712,1.6117323195,-4.026694417,8.522696493,-66.850790025,0.7031114105,-11.000580549
515,4.291495,20.12827015,7.7164635655,-140.48620605,-7.478020191000001,-1.44476822,12.960043071,-70.049015045,15.601447105,-13.152445795
516,4.299828,19.38995361,7.757350445,-140.57302095,5.0460038185,-2.7248814105,8.2583340455,-86.688983915,0.35256278499999993,-11.6134958285
517,4.308161,18.560277935000002,7.845749378000001,-140.66481779999998,-6.680892586500001,-4.218981266,6.8074285375,-97.81908795999999,5.6816302535,-14.155097485
518,4.316494,17.67755413,7.9758663180000005,-140.73649215,0.20834994350000002,-2.6174339055,15.156521795,-104.20922089999999,11.469347714,-13.048392296
519,4.324827,16.568246844999997,7.9664428234999995,-140.862854,-0.16859722150000023,-6.1288900375,5.8125300105,-130.7231674,-6.2994987945,-14.40170574
520,4.33316,15.36564112,8.074795723,-140.962101,-2.738684617,-5.911087275,17.5087666495,-142.1850052,8.433382511000001,-15.292193415
521,4.341493,13.97184467,8.0076858995,-141.1000328,2.772897214,-1.8188835979999998,5.94409585,-164.67247774999998,-12.741666795,-14.19615984
522,4.349826,12.45244312,7.898916006,-141.24968719999998,-1.3898563385,-5.704638481,12.733808281,-179.38720705,-17.519666675,-14.433115959999999
523,4.358159,10.86233616,7.8256394865,-141.36898045,-0.2438159285,-1.395991087,12.788496493,-188.57406615,-12.272332195,-12.476037505
524,4.366492,9.2129616735,7.505058765499999,-141.55272675,0.5138962865000001,-1.7015014885,5.985788018499999,-194.53936005,-42.450268745,-14.906563760000001
525,4.374825,7.527549028499999,7.363997459,-141.688385,-3.21934855,-0.546684638,14.051190629,-199.83158874999998,-19.88449764,-13.879128455
526,4.383158,5.8027448655,7.0355181694999995,-141.8649254,0.36913627350000006,-2.009090185,10.8525002015,-203.9010315,-42.358867645000004,-16.295730589999998
527,4.391491,4.151000261,6.694004058999999,-141.9966736,-2.739016771,2.7779275175,10.181725265,-196.0394516,-42.985033035,-12.43339348
528,4.399824,2.452964306,6.4987657070000004,-142.13876345,-2.018434763,-2.15472126,13.413890840499999,-201.32988740000002,-25.181212425,-16.04240227
529,4.408157,0.7535538374999999,5.9950082305,-142.2537231,1.207826495,0.1750828625,7.896038770500001,-202.16246795,-61.614004135,-12.35334301
530,4.41649,-0.9007461965,5.819813967,-142.38328935,-8.77742958,1.154961288,18.0116037145,-196.457222,-21.817456245000002,-16.04498863
531,4.424823,-2.6006739139999997,5.4402151105000005,-142.4538765,3.7839583155,-0.612849392,1.022640225,-202.83963775,-46.0593605,-10.2006750085
532,4.433156,-4.3165922165,5.1508477925000005,-142.58058545,-6.8338525295,-2.2102347015,11.717666147,-204.1038437,-34.572189335000004,-17.626111985
533,4.441489,-5.9284918305000005,4.9322743415,-142.63794704999998,-0.767479993,0.9987147000000001,15.454476829999999,-192.48300175,-26.29429531,-9.5183575175
534,4.449822,-7.524446249,4.7132310865,-142.74720005,-5.6220448014999995,0.953818917,12.438385246,-190.05226894999998,-25.417752265,-16.392016885
535,4.458155,-9.1306848525,4.495035648,-142.77652740000002,2.4993845820000002,0.7785784305000001,7.4266644705,-192.0940018,-26.17185974,-7.6367260225
536,4.466488,-10.72611761,4.267305255,-142.8639374,-5.7111878395,-0.399763051,7.007352114,-190.35408784999998,-25.99441242,-15.219511985
537,4.474821,-12.248111725000001,4.1764366625000005,-142.90020755,-3.1783524155,0.8566107155,11.5477304465,-181.89404295,-10.5799040775,-6.7950737455
538,4.483154,-13.69362211,4.0654007194999995,-142.9779053,-3.7955584525,0.9968980699999999,13.291957855,-172.54081730000001,-11.827320095000001,-12.148634674
539,4.491487,-15.08736992,3.99604857,-143.01133725,-1.176358104,1.616561115,11.304139613,-166.54013824999998,-7.8228871825,-6.316858185
540,4.49982,-16.42783451,3.927518487,-143.0705643,-2.130399823,2.4910597505,8.9027401815,-160.1403656,-6.980262041,-8.974787829
541,4.508153,-17.698394774999997,3.8833341594999995,-143.0982933,-2.4786790755,1.471528113,8.735978603,-151.7921982,-4.857076644999999,-5.094564916
542,4.516486,-18.894591335,3.929388523,-143.1595345,-4.597818613,2.3440802095,13.202545645,-142.81957245,6.532612562,-5.1196367725
543,4.524819,-19.989914895,3.9868019815,-143.21443935,-2.140409455,2.2992739675,10.711188317,-130.54556275,7.915910244,-4.263743043
544,4.533152,-21.017334939999998,4.08150208,-143.27824785,-2.943700507,2.475734949,9.988017558500001,-122.55954360000001,12.29915619,-3.1212227335000002
545,4.541485,-21.981305120000002,4.180814147,-143.34693145,-1.0304958819999999,1.9483970105,8.0074279305,-114.6065941,13.329285145,-3.634284496
546,4.549818,-22.85249138,4.2660746575,-143.38352585,-1.1750836075,2.9964718820000003,8.696313145,-104.04906845,10.1267957695,-0.17824172999999988
547,4.558151,-23.628047940000002,4.354432702,-143.46232605,-4.049934149,0.21184517449999998,10.218515395,-91.89218521000001,12.689267635,-4.8431473985
548,4.566484,-24.31680965,4.5003858805,-143.49736785,-0.5963176490000002,3.3302625415,10.529322149999999,-82.15975189,16.709818365,3.2326836575000004
549,4.574817,-24.92716789,4.6057137255,-143.60544585,-4.7210953235,0.9099079520000001,9.045632123499999,-71.762420655,16.09007454,-6.8445319405
550,4.58315,-25.43741989,4.722867608,-143.6129761,0.7203521430000001,2.965215802,11.237210274999999,-60.97751617,12.113931656,5.09776162
551,4.591483,-25.888077735,4.833052396499999,-143.7264252,-4.5163228515,0.8393315075,10.5495405185,-52.570119855,17.001874925000003,-6.8685458885
552,4.599816,-26.275796890000002,4.932783127,-143.7359238,1.241711885,1.770280272,8.927944184,-46.085401535,10.45953703,3.772260189
553,4.608149,-26.617980005,4.9519598485,-143.80908965,-2.071794093,0.17316424849999995,7.600694418,-40.00454712,5.161718130000001,-7.181301594
554,4.616482,-26.92625141,5.00605464,-143.80707555,-0.8069979844999999,1.6693495515,8.685605765,-36.68678093,4.7785657645,2.9143980144999997
555,4.624815,-27.14558792,4.9981069565,-143.8574295,-2.1266598705,-0.476435274,13.215564725,-25.492690085,1.092294037,-6.1684041025
556,4.633148,-27.315517425,5.013327837,-143.83729555000002,-1.7541426125,1.4211785795,11.180974009,-20.291267395,-0.3947280645,2.7659865025
557,4.641481,-27.483090400000002,4.9677041765,-143.87276459999998,-2.4453574419999997,0.627751082,10.0486526495,-19.46593666,-3.7022635939999997,-6.6620669365000005
558,4.649814,-27.591936115000003,4.9837464095,-143.8600388,-1.3411296605,1.3206974265,10.8997554785,-12.84813452,0.06584143649999996,2.0634574295
559,4.658147,-27.653248785,4.9122881885,-143.8667984,-2.685348332,0.2645445985,10.199616908,-7.034047842,-8.011973979,-5.074628769
560,4.66648,-27.693662645,4.8693890575,-143.84004215,-2.146960184,1.1321433485,11.544239999999999,-4.763704181,-6.995639682,0.2879803179999998
561,4.674813,-27.71874046,4.837057471,-143.84222415,-0.6203619985,0.5029370040000001,10.443977358000001,-2.7616052035000003,-4.099347234,-2.418035507
562,4.683146,-27.721211435,4.753667592999999,-143.81155395000002,-3.5210011005,-0.144770924,9.5641674995,-0.23011845349999993,-11.50186205,-1.5946396585
563,4.691479,-27.71341801,4.6936272384999995,-143.7960663,-0.2173385619999999,-0.09611379400000002,10.944087982500001,0.9935570659999999,-8.025715351,-2.0926196575000002
564,4.699812,-27.703133585000003,4.6411652565,-143.7906036,-3.6701253654999997,-0.5087889990000001,11.211050035,1.5775682255,-6.812778473,-2.541444898
565,4.708145,-27.700404165000002,4.5596859455,-143.75003049999998,-0.3791283369999998,-0.197659433,9.121721268,0.13187497849999996,-11.69591713,-0.6340548990000001
566,4.716478,-27.691082955,4.5068455935,-143.77350619999999,-4.7600924970000005,-1.5520526765000002,12.103291035,1.699997604,-5.2508356575,-5.612649648
567,4.724811,-27.67355919,4.4624000785,-143.7427139,-0.8758425115,0.292176515,11.0555212515,2.0763474554999997,-7.2244377135,0.4030399324999998
568,4.733144,-27.695363999999998,4.4080060725,-143.7637558,-4.266957402,-1.2167373005000002,9.926138402,-2.124745518,-5.5330395695,-5.472231388
569,4.741477,-27.704677585,4.400562167,-143.74959565,-1.402683463,-0.6015581784999999,9.8805618275,-0.964350313,-2.369451344,0.7070682644999999
570,4.74981,-27.71849632,4.3509705065,-143.7680664,-3.32465291,-1.396088004,11.4455938345,-1.1770768165,-5.165591001499999,-4.9359716175
571,4.758143,-27.796274185,4.3790687325,-143.75791170000002,-0.8474193809999999,-1.0810261964999999,8.650898459,-9.1580562595,1.6269972325,2.266674429
572,4.766476,-27.875609394999998,4.363276005,-143.7937393,-4.761423826,-1.513855994,10.3589928155,-8.8763775825,-0.5976572035000001,-4.894797802
573,4.774809,-27.93803787,4.4060317275,-143.77592470000002,-0.623274803,-1.073841572,11.67094612,-7.360923767,2.743240118,3.9081116915
574,4.783142,-28.044069290000003,4.4553114175,-143.84411625,-4.6212896105,-0.953215271,11.841621399000001,-11.81366539,8.1150844095,-4.625592708499999
575,4.791475,-28.149613379999998,4.547376871,-143.84118655,-1.9294403194999998,0.219922636,10.2576751695,-12.381982327,8.7867548465,5.1371219155
576,4.799808,-28.256048200000002,4.6373624805,-143.9178314,-3.4584178925,-1.108898431,8.6157069205,-11.82147837,12.90384626,-3.1604065594999997
577,4.808141,-28.35734272,4.756185293,-143.9227753,-1.0644539,-0.5620254875,12.5650401125,-11.740024564999999,12.037342075000002,5.869356155499999
578,4.816474,-28.473475455,4.846878886,-143.98068235,-2.745166898,-0.327916682,9.508369684,-13.190509321,11.908618925999999,-1.0722768305
579,4.824807,-28.60261059,4.9795563220000005,-144.003952,-1.7534302474999999,-1.565980196,8.5494635085,-14.887313840000001,14.51967287,4.7884490490000005
580,4.83314,-28.709648129999998,5.0447881225,-144.04795835,-2.512123048,-1.106094569,12.052429676000001,-12.176197049999999,8.4438951015,-1.0503889324999998
581,4.841473,-28.84164238,5.1960370545,-144.08785245,-2.1035031374999997,0.297665417,11.083319185,-15.09403515,17.40833378,4.1859776375
582,4.849806,-28.967664720000002,5.324015856,-144.15964505,-3.380516648,-0.568966344,8.1867091655,-14.13818693,16.645399095000002,-0.2818074225
583,4.858139,-29.055863379999998,5.438904046999999,-144.1997986,-2.298311651,-0.6557523195,10.169365408,-9.765013217,13.585595135,2.1204117535
584,4.866472,-29.161151885000002,5.5776724815000005,-144.26147459999999,-0.7898996545,-0.555136502,10.5597848895,-11.76090145,17.178019525,1.482129335
585,4.874805,-29.253374100000002,5.6583545205,-144.28903194999998,-2.2706301215,-0.9079811870000001,8.211675643500001,-10.3714416005,9.259143591499999,1.4827570915
586,4.883138,-29.353123665,5.7536168100000005,-144.32316585,-1.0027907790000001,-1.084785402,9.7829654195,-11.408601285,11.0156402595,1.844378829
587,4.891471,-29.44199657,5.8286168575,-144.35502624999998,-3.0844650270000002,-0.46949871600000004,12.349492075,-9.8750510225,8.910521982,0.7360117435
588,4.899804,-29.528779985,5.9304437635,-144.38410950000002,-1.3439567985,-0.37116584199999997,9.9267773615,-9.933874844,11.398407461000001,2.793270707
589,4.908137,-29.614292145,6.022839308,-144.4330597,-4.2213108539999995,-1.0023033319999999,10.55650091,-9.2559173095,11.726678849999999,0.024576306499999978
590,4.91647,-29.685180665,6.1116850375,-144.4520416,-0.054662600000000006,-0.12197273999999997,11.45319033,-8.135741948,9.399971007,3.171727449
591,4.924803,-29.781173705,6.2236130235000005,-144.5009842,-3.639168501,-1.1721017955000002,8.614675998500001,-10.52722979,13.76068163,1.2229647935
592,4.933136,-29.84805393,6.2630763055,-144.5060196,0.971564382,-0.2866290065,9.78356004,-7.8172535895,3.4377956055,1.6672307329999998
593,4.941469,-29.94243145,6.355999946500001,-144.5566864,-3.9880467655,-2.281913817,10.704023837000001,-10.3236208,11.882811545,-0.05217623700000007
594,4.949802,-30.023135185,6.363391398999999,-144.5433655,0.33483004549999995,-0.16724976900000005,9.0011100765,-9.686465262999999,-1.0230134130000001,1.7029433550000002
595,4.958135,-30.117139815,6.431955576,-144.59430695,-4.6297781465,-1.04905577,12.260499476,-10.2704067205,9.3686580655,-1.5076860635
596,4.966468,-30.174383165000002,6.4442765715,-144.5776825,-0.1345022805,-0.32870793350000005,9.552027224,-6.958869161,-0.7439398765,2.387855202
597,4.974801,-30.266127585,6.5328378675,-144.6349106,-5.1885871885,-0.4676921665,9.128823281999999,-9.899051665,11.820465085,-0.917854175
598,4.983134,-30.323565485,6.530097484500001,-144.61665345,0.525752738,-1.0871706305,10.912083626000001,-6.9947936534999995,-2.4605226365,1.7310036420000001
599,4.991467,-30.39142418,6.6348085405,-144.67137144999998,-4.679776907000001,-0.553741917,9.736918449000001,-7.060225963500001,13.342746735,0.34923735250000004
600,4.9998,-30.440080639999998,6.619451523,-144.65381625,1.675298452,-0.25980188699999995,8.2492730605,-5.9518589969999995,-3.7229971885,0.8791061345
601,5.008133,-30.503341675,6.696555138,-144.70063015,-4.8545769455,-1.979330778,11.6950988775,-6.600590467,10.007911205,-0.488975793
602,5.016466,-30.554953575,6.67977643,-144.67453765,0.43090343499999995,-0.380155742,9.3088431335,-6.4072669745,-4.382064879,1.6515612305
603,5.024799,-30.624703410000002,6.73403573,-144.71907805,-4.6370675565,-1.4050141055,11.021364691,-7.4148287775,7.5099356185,-1.627342999
604,5.033132,-30.65612602,6.725271940500001,-144.70734405000002,0.12548851949999995,-1.1962047370000002,11.456662179,-3.8240840585,-2.6764057875000002,0.6443196685
605,5.041465,-30.731886860000003,6.7909469604999995,-144.7599335,-5.821520567,-0.320850879,9.763292315,-7.987627982999999,9.178574322,-1.736267567
606,5.049798,-30.780469895,6.7878220085,-144.7636261,1.2071780635,-1.650619805,11.0452721135,-5.6730729345,-1.1354150774999998,-0.630609691
607,5.058131,-30.83847523,6.853305817000001,-144.8025055,-5.560875416,-0.5463594645000001,11.404595613,-6.050486326,8.323302028,-0.321701929
608,5.066464,-30.90085125,6.869742393499999,-144.81814574999999,1.58652401,0.182659492,9.456726372999999,-7.1636161825,1.624800563,-0.6739425659999999
609,5.074797,-30.941039085,6.886734247,-144.82118225,-4.287983179,-2.2318990525,8.001641514,-4.4641964435000006,1.1390649375000002,0.3640167415000001
610,5.08313,-31.000701905,6.95243454,-144.8592911,-0.284177184,-1.031201303,11.447291373999999,-6.482163191,8.036921978,0.138342485
611,5.091463,-31.038531305,6.9157686235,-144.83599850000002,-3.537099719,-0.47375407799999997,8.8822598455,-4.526234388500001,-5.997362732999999,-0.26030463
612,5.099796,-31.066886905,7.0315315725,-144.8982315,-1.278960824,-1.3436150845000001,13.37554884,-2.3994972409999997,14.70244026,0.7238071559999999
613,5.108129,-31.094355585000002,7.000645399,-144.86923215000002,-3.1131134925,-0.426823698,6.3397591115,-3.3723899125,-5.752849102,0.6729564889999999
614,5.116462,-31.12542534,7.1339178085,-144.95339965,-2.3082865774999997,-0.9969438775,14.41612053,-2.3822205065,17.862802025,-0.4343408645
615,5.124795,-31.136107445,7.1334617135,-144.92726900000002,-2.5969469245,-0.9287797660000001,6.5063591005,-1.351727247,-2.4498415590000002,2.259399891
616,5.133128,-31.151941299999997,7.2706394195,-145.00003055000002,-1.745671451,-0.036170883,11.975296025,-0.6677440775,17.55850458,0.9858537909999999
617,5.141461,-31.137215615,7.2698352335,-144.98229214999998,-1.92141521,-0.868668407,7.974608662,1.7918820979999999,-1.9681594370000002,1.380882561
618,5.149794,-31.13302326,7.387724638,-145.03697970000002,-3.733997941,-1.9278627039999998,11.0964753605,1.5038568975,14.438958645,1.6700678764999999
619,5.158127,-31.098649025,7.403855800500001,-145.0402451,-0.07259210949999995,-0.017640262499999976,10.6621769665,4.4782708885,1.0636954305000001,0.29147708400000005
620,5.16646,-31.089694975,7.4944961075,-145.09317779999998,-4.296802044,-1.411652282,8.885353565499999,2.056996554,11.559431791000002,0.10158657999999998
621,5.174793,-31.04867649,7.5595884325,-145.1307602,-0.2704859825,-1.0492482145,10.955926777,5.807343125,8.202109217,-0.17243456849999994
622,5.183126,-31.001796725,7.6020607945,-145.15280915,-3.4221380949999998,-0.8008972255,9.291964769,6.1316963435,4.6812714935,0.30509149999999985
623,5.191459,-30.9682951,7.727734089,-145.22602840000002,-2.225006044,-2.518487513,12.435840129999999,5.466021538,16.618013859999998,-0.074985623
624,5.199792,-30.9100914,7.7187457085,-145.19898985,-1.6181299089999999,-0.48295313100000004,9.901393651,6.6897656915,-3.5810945034999997,2.0719931425
625,5.208125,-30.87979317,7.9208955764999995,-145.32238005,-4.6638731955,-1.422591925,11.89700079,5.9619929795,27.55200386,-0.5039857029999999
626,5.216458,-30.804099085,7.9029753209999996,-145.2860336,0.9495366815000001,-1.6212683915,6.7160015105,8.580994605,-5.0280048845,2.4149618595
627,5.224791,-30.787547115000002,8.115352154,-145.41007230000002,-6.6497681145,-1.034221381,12.597712518,4.4223837855,28.63840771,0.02019664649999997
628,5.233124,-30.732484815,8.158609629,-145.40434265,2.072148919,-1.3196116685,8.878691075,6.587040662500001,3.1693903205,3.008513689
629,5.241457,-30.689692495,8.3353037835,-145.48781585,-6.2871468065,-1.8784189224999999,10.418877839,6.929902554,22.492238045,1.9398248200000001
630,5.24979,-30.664055825,8.507588625,-145.52197265,1.1584972439999999,-0.9250187725,9.6093075275,3.7497014999999996,18.897389415,6.844913482500001
631,5.258123,-30.61977959,8.673892498,-145.57920835,-6.473540306,-1.956843078,10.0467803475,6.7125012875,19.831132410000002,3.9658857585
632,5.266456,-30.58754444,8.9849705715,-145.6504135,-1.645421386,-1.0985038875,12.37249756,5.2591018675,35.4705143,11.528180124999999
633,5.274789,-30.557636260000002,9.202365637,-145.69413759999998,-4.362801552,-1.499747217,7.082875013,4.773285985,24.297277450000003,8.4445393085
634,5.283122,-30.50423431,9.6097540875,-145.80181885,-3.0133652690000003,-0.8137729465000001,12.400181295,8.592755556,47.627450945,13.63804245
635,5.291455,-30.46595287,9.956029894499999,-145.8737259,-4.088190794,-1.4007840155,7.9404609200000005,6.391882658,39.32482338,13.386091704999998
636,5.299788,-30.396725654999997,10.412736894,-145.97470095,-2.049882889,0.45131970200000004,10.173369882,10.6042652135,52.455186839999996,17.06295109
637,5.308121,-30.339541435,10.9056959155,-146.08360290000002,-3.4227989915,-0.5582401455,7.12126565,9.5783267035,56.736022945,18.453520775
638,5.316454,-30.235015869999998,11.407247065,-146.1842499,-2.744598508,-1.194126248,9.780014752,15.098306179999998,57.180025099999995,19.580169679999997
639,5.324787,-30.085906025,12.00611353,-146.3166809,-2.8062222005,0.517246589,8.700318098,21.39568615,69.160137175,22.27514267
640,5.33312,-29.916365625,12.573126315,-146.43787385000002,-3.0998130445000003,-0.513058856,9.1861109715,23.73934078,65.308994295,21.09450245
641,5.341453,-29.685928345,13.208739755,-146.56188965,-1.5406181815000002,1.260773659,9.4663879885,31.206848145,72.60799789000001,24.93310356
642,5.349786,-29.40288734,13.843136785,-146.70951845000002,-3.650169611,-0.715366721,8.469845771500001,38.40292549,74.074543,21.793917655
643,5.358119,-29.02647018,14.495442870000002,-146.81298065,-1.18457219,2.5298688415,9.980154992,48.443813325,73.385368345,27.295341495000002
644,5.366452,-28.578730585000002,15.14339304,-146.93924715,-1.4344625130000002,1.2162055075,8.6042796375,57.849588395,74.51094818499999,23.979548455
645,5.374785,-28.02628517,15.78327608,-147.01448820000002,-3.175900698,0.8718520999999999,10.036271096,69.04997635000001,70.932346345,28.37967682
646,5.383118,-27.36629868,16.468064785,-147.10922240000002,-1.9206629395,1.7654941380000002,9.8574776645,82.656253815,77.32808685500001,27.479532239999998
647,5.391451,-26.602848055,17.084797385,-147.1310272,-0.7251589295,2.0653397735,9.9059329015,92.7028389,66.29172516,30.976280215
648,5.399784,-25.730284689999998,17.703754425,-147.158638,-3.5095437765,0.496975079,10.547431467500001,105.9580269,67.45566177,29.028803824999997
649,5.408117,-24.764214515,18.36316681,-147.15600584999999,-1.02439034,1.2040843964999999,9.497311591999999,116.05729295,70.636196135,33.613286975
650,5.41645,-23.6747427,18.905366895,-147.08369445,-0.7620373364999999,2.189214766,11.205030915,128.36948775,55.40165329,33.236718175
651,5.424783,-22.471951484999998,19.458381655,-146.9763565,-0.27019220550000006,1.5937746765,10.575492144,140.39351655,55.495965955,36.821969984999996
652,5.433116,-21.132430075000002,19.92628002,-146.8228302,-1.8778077735,1.673999697,9.626534461999999,154.8401718,45.100193024999996,35.958227155
653,5.441449,-19.72084141,20.41071796,-146.64175415,-1.673122883,1.0229221585,12.519618035499999,162.23957825000002,46.556646345000004,39.037130355
654,5.449782,-18.206748965,20.797015195,-146.4126358,-0.20811256749999996,0.6548086104999999,10.723126410999999,172.3108292,34.842479705,38.45351601
655,5.458115,-16.613425255000003,21.138927459999998,-146.1615601,-0.802018538,0.090155639,10.624297141500001,180.67224125,29.926691055,38.71423149
656,5.466448,-14.961176875,21.38595295,-145.8748703,-0.5062986015000001,-0.01774266400000002,10.86141014,186.1431274,19.14007568,38.044477459999996
657,5.474781,-13.282348630000001,21.66491032,-145.59471895000001,-3.2834358515,-0.969800472,11.823606966,189.4833145,24.027013775,38.128456115
658,5.483114,-11.533967975,21.837440495000003,-145.26883695,0.5726639629999999,0.278724119,10.740367175,195.570755,11.69845104,39.100345615
659,5.491447,-9.7546329515,21.941423415,-144.95411685,-2.4755969645,-1.1290073695,11.907060144999999,199.7941971,4.9869856835,36.364219665
660,5.49978,-7.971884489500001,22.06916046,-144.6205063,-1.4310297965,-1.537703499,11.570193289999999,199.02868655,8.6417169575,38.560075760000004
661,5.508113,-6.169755697499999,22.104538915,-144.28310395,-1.6032827495,-1.7588021155,12.027549265,201.2941513,-1.2043167355,37.337486264999995
662,5.516446,-4.3967685695,22.113945960000002,-143.93996429999999,-1.8275781869999999,-1.418811306,12.739658355,197.4871063,-3.1867480275,37.65974045
663,5.524779,-2.6310750245,22.1171875,-143.59929655,-2.0428884625,-2.1979480980000003,11.56360531,196.8307724,-2.733129382,37.447870255
664,5.533112,-0.892139614,22.024921415,-143.25203325,-0.2617579105000001,-2.042737365,12.097883225,193.16964719999999,-13.05066252,37.79483223
665,5.541445,0.8085466325,21.9575119,-142.9186783,-2.9503885505,-2.5291993020000003,12.6856219765,189.40268705,-8.9059076305,36.69278526
666,5.549778,2.4560868740000004,21.80051136,-142.58719250000001,-0.584467828,-3.2712074519999996,12.368535995,183.0848389,-18.586440085,37.003456119999996
667,5.558111,4.051906228,21.62729645,-142.2840538,-1.1509732305,-2.7888842819999997,14.108170985000001,178.2944031,-19.6246109,34.515333175
668,5.566444,5.541523695,21.414793965,-142.00087735,-2.1285123825,-3.3677127359999997,8.739501236,166.54776765,-23.569095609999998,33.21543312
669,5.574777,6.9684038165,21.160779955,-141.74900055,-0.862133771,-3.682748675,14.086328980000001,160.5812988,-28.030047420000002,30.942996025
670,5.58311,8.3404011725,20.897948265,-141.51877975,-1.4609657675,-2.811191678,12.338068485,154.9523544,-28.621424675,29.34581184
671,5.591443,9.580798626,20.63429737,-141.3276787,-2.407335341,-3.8834946155,9.558547499,141.0069962,-28.70601082,25.69664097
672,5.599776,10.73370504,20.316236500000002,-141.17676925,-2.3193134665,-3.4263710974999997,13.314109803000001,132.28665925,-35.374174115,23.028390885
673,5.608109,11.856079105,20.070528985000003,-141.03030775,-3.4925111534999997,-3.2351578475,13.3821754435,128.8187866,-26.469350815,21.498170854999998
674,5.616442,12.873845580000001,19.811925889999998,-140.92147065,-1.2903514205,-4.6721704005,12.38936758,118.01985930000001,-28.48095989,18.275128365
675,5.624775,13.76471329,19.495473865,-140.8246727,-1.900107354,-3.6871075629999996,10.490415809999998,103.22768785,-35.22511482,18.974206925
676,5.633108,14.550183775,19.376536365,-140.7213478,-4.8842633965,-4.032114387,13.3595457095,90.41651916500001,-11.76346397,14.437329765000001
677,5.641441,15.256947995,19.123360635,-140.62906650000002,-0.3187884689999999,-4.2099089625,7.9785547875,81.44150161499999,-27.4650774,17.524519920000003
678,5.649774,15.85709715,18.98888016,-140.55408095,-5.2247133255,-4.6281206605000005,11.721012116,69.30939293,-14.0493597995,12.09842682
679,5.658107,16.40118885,18.81661415,-140.44408415,-0.20001882300000007,-2.113735795,11.984272480000001,61.291397094999994,-17.176959035,17.34496498
680,5.66644,16.849190710000002,18.760356899999998,-140.35370634999998,-5.974178195,-4.5668017865,12.704229355999999,50.505590440000006,-4.3232712745,11.35985088
681,5.674773,17.20627308,18.58744335,-140.24678805,2.7120990154999998,-2.7735688095,6.770675182,39.11076927,-17.072458745,17.34203672
682,5.683106,17.45645237,18.5786047,-140.16627125,-7.404179335,-3.6642136575000004,12.68584156,27.05120182,1.0309481735000001,8.955998896
683,5.691439,17.695323945,18.5232029,-140.03648755,1.9855037334999999,-2.6590021850000003,9.1028912045,24.063195229999998,-2.671848297,15.716495989999999
684,5.699772,17.820197105,18.448632240000002,-139.9858551,-5.2407784465,-2.42051661,8.973685741499999,13.164130685,-7.4576756955,8.080472232
685,5.708105,17.959983825000002,18.51283264,-139.82637405,-0.6236537395,-1.5899397135000002,12.8874235155,11.0384459515,12.112361669999999,14.528450485
686,5.716438,18.001006125,18.50520229,-139.7422638,-2.857403874,-3.473376274,9.179796694,1.8550599215,1.3888870475,9.242936375
687,5.724771,17.989910125,18.506618500000002,-139.61328890000001,-0.38966937349999997,-3.1140378715,7.152283908999999,-5.964570762,3.8983534575000003,13.517107965000001
688,5.733104,17.990495680000002,18.625576019999997,-139.47001265,-6.506205319999999,-1.0419217349999998,12.462339639,-5.1487450599999995,17.875809670000002,10.821928974999999
689,5.741437,17.947901729999998,18.637920375,-139.32416535,2.9903185965000003,-2.0729761719999997,7.2277514915,-10.373205185,5.731071711,14.942427635
690,5.74977,17.858980175,18.71150303,-139.21292115,-5.0641704205,-1.5150774194999999,9.25694108,-14.754433155000001,11.575192455,9.1154179565
691,5.758103,17.823574065000003,18.76354599,-139.07278445,-1.1257743834999998,-0.546284422,11.614598514,-9.309240339999999,10.0308189385,12.87661266
692,5.766436,17.78335094,18.870901105,-138.92698670000001,-1.7105286119999998,-0.019334942500000007,9.151432276,-10.272324560000001,16.633290289999998,11.685410975
693,5.774769,17.7339716,18.86914349,-138.83376694999998,-0.8238722089999999,-2.4101938605,8.750309706,-9.2504534725,2.2313264015,9.7619314215
694,5.783102,17.703808785,18.971746445,-138.70290375,-3.5740608875,0.22715881849999997,10.808130982,-8.434898852,15.547205445,10.2361817355
695,5.791435,17.6694746,19.028038979999998,-138.61029435,-0.3682062629999998,0.07720048750000003,10.49198246,-7.454562902,8.831071136,7.573259115500001
696,5.799768,17.697384835,19.09280872,-138.50019840000002,-1.835509181,-1.2104954124999998,7.810205581,-0.6908096074999999,10.510380269999999,9.415564061
697,5.808101,17.716595650000002,19.070614815,-138.44599155,-1.0677137374999999,-0.0063493549999999975,10.036525727,0.4333096745,-1.4665944725000002,6.2715562585
698,5.816434,17.754384995000002,19.161961555,-138.35178754999998,-2.798612088,-1.0179962814999999,9.861229418,1.2008147835,12.98152828,6.639928577
699,5.824767,17.851758955,19.15966606,-138.29609299999998,-1.165057242,0.14814107099999999,10.9363515375,9.6452338695,0.862066686,5.663974582
700,5.8331,17.95711708,19.21597481,-138.2294884,-2.7004110810000004,0.260051742,9.4129424095,10.472996235499998,8.0485060235,4.9538647525
701,5.841433,18.072058675,19.181128505,-138.1840782,0.5820772945,-1.070439577,10.118621351000002,12.101780415,-3.1954085830000003,5.734855265
702,5.849766,18.206697464999998,19.17391586,-138.16194915,-3.1134713295,-1.998398334,10.1977281595,15.719330315,-0.7184345719999996,2.565322876
703,5.858099,18.35184002,19.148423195,-138.1212807,0.274462154,0.8445486425000001,10.422616242,15.93680906,-2.2664185465,4.894311545
704,5.866432,18.522426605,19.127439494999997,-138.124115,-4.53896451,-1.159898579,11.050114154000001,21.01798916,-3.17367655,0.3763041494999997
705,5.874765,18.71638584,19.096959115,-138.06589505,1.5760225205,0.5869770645,10.0257554065,21.203165055,-2.1580641270000003,7.0169209265
706,5.883098,18.902086255,19.014546395,-138.10972595,-3.302375555,-1.9515031575000001,7.4055361755,24.350330355,-11.685503480000001,-1.7687859535
707,5.891431,19.08346176,18.955542565000002,-138.0699501,0.0585189385,-1.5885956879999998,11.035814285,20.501679420000002,-6.0208070275,6.1907577515
708,5.899764,19.2543993,18.871793750000002,-138.11125185,-3.8033534285000004,-0.8880873025,11.212220669,22.376836779999998,-11.727777958,-1.3267540035
709,5.908097,19.44719696,18.824651715,-138.08003235,-0.841647625,-0.394732125,12.00113678,22.295012475,-4.9522333145,4.8676288125
710,5.91643,19.61791992,18.732795715,-138.12301635,-2.3437542785,-2.1884695885000003,9.185264823499999,22.331873895,-12.7280416465,-1.1659417155
711,5.924763,19.7571249,18.643123625,-138.13464355,-1.0200560090000002,-1.038074137,11.944487093,17.58012009,-11.3608906245,2.0511177775
712,5.933096,19.86924267,18.51180744,-138.1889534,-0.844943166,-2.0836815535,7.657425165,15.710639955000001,-17.629557135,-0.7318699359999998
713,5.941429,19.987478255,18.437787055,-138.21170425,-4.0608573555000005,-0.9175197780000001,13.897449015,15.479379655,-10.018077134,0.2592990399999999
714,5.949762,20.10516739,18.349395755000003,-138.2264748,-0.4696649315000001,-0.6312955170000001,8.5599007605,14.851381775,-11.242757317999999,1.8107538819999998
715,5.958095,20.19775963,18.263415334999998,-138.2728462,-3.814701855,-2.4709562065,10.2548666025,13.284710884999999,-12.290034771,-1.7376769185
716,5.966428,20.259281155,18.159565925,-138.2925568,0.9255577325,-1.7375306785000002,8.7645742915,8.31822443,-13.169306277,1.965265056
717,5.974761,20.316991805,18.047774314999998,-138.35733034999998,-4.307604849,-0.9278200565,11.913879869999999,9.693147184,-15.933366295,-2.6337590219999996
718,5.983094,20.380417825000002,18.016715050000002,-138.33885575,-1.2962489574999998,-0.5350911025,11.396265744499999,7.206795454,-3.462410897,3.0383604765000003
719,5.991427,20.420537945,17.917550085000002,-138.40254215,-3.0235707200000004,-1.6796596945000002,11.0600762385,7.4786794185000005,-14.479755879999999,-3.0363249779999997
720,5.99976,20.440317155,17.889660835,-138.37796785,-0.4859189395,-1.3556108475,9.7194995875,1.8367199,-2.850198269,3.589092076
721,6.008093,20.423065185,17.76600361,-138.45383455,-2.0032923815,-1.965546727,9.444530249,0.9294960494999999,-17.73207283,-3.3412046435000002
722,6.016426,20.40600872,17.7597065,-138.4317818,-3.0651614665,-2.020138025,10.6036846615,-2.3919596675,-0.5236762765,2.410242081
723,6.024759,20.379779815,17.6977911,-138.4676285,-2.530739188,-0.705170341,9.7149460295,-1.651029922,-9.1973948465,-1.6627550125000001
724,6.033092,20.337356569999997,17.684414865,-138.44981380000002,-1.2363173665,-1.0335491595,9.4218575955,-5.2377526759999995,-1.472542882,2.302329421
725,6.041425,20.271802899999997,17.605790135,-138.4927406,-1.634303369,-2.418555558,9.250591278,-6.2182421685,-11.367435215,-1.7705023290000006
726,6.049758,20.2191906,17.55980587,-138.4980392,-3.1068730355,-1.1807875335000002,11.703428745,-5.563501835,-6.0704842805,1.1565916535
727,6.058091,20.14076519,17.52871084,-138.50737765,-1.77140671,0.300302416,11.99014139,-8.9808130265,-4.6874259125,-0.15574145350000013
728,6.066424,20.07524681,17.516343595,-138.5158844,-3.734874666,-1.8070673050000001,10.3742461185,-7.0173405424999995,-2.4091665745000004,-0.5826280114999998
729,6.074757,19.999797819999998,17.509261605,-138.48540875,0.22693485049999995,-0.15033685449999998,8.747468233,-10.048119544,-0.41750574100000004,3.1300666329999998
730,6.08309,19.88202,17.46789694,-138.53211595,-4.168525696,-2.30047369,9.303071022,-11.885904785,-7.200931549,-3.5961056960000004
731,6.091423,19.77307701,17.46967459,-138.48789595,1.4751296045,-1.286582649,10.904888153,-14.51734495,1.1068426370000002,4.2665838605
732,6.099756,19.660652159999998,17.462011815,-138.5365028,-6.5240192415000005,-0.918885276,9.771070001,-11.257380485,-3.4479198455,-5.176688552
733,6.108089,19.571700094999997,17.50629854,-138.47560885000001,0.46226325649999994,0.5382765304999999,12.086473465000001,-12.603114605,6.5469994545,4.3912409545
734,6.116422,19.46368885,17.528261185,-138.51268005,-5.030053377,-2.2625467775,8.324066639,-11.2267322565,0.3560826185,-5.1363072395
735,6.124755,19.39111328,17.534673214999998,-138.4699936,1.8722563385,1.580998003,9.0714330675,-9.9193325025,1.5593888165000003,3.9811576605
736,6.133088,19.27509308,17.56085825,-138.51769255,-4.288842082,-2.731878996,9.068270204,-11.92625904,0.4467571975,-6.4494731425000005
737,6.141421,19.206012725,17.52830267,-138.5028496,-0.697117463,0.1250559685,11.24548292,-8.39798665,-3.9099494215,2.5521706935
738,6.149754,19.101474765,17.5867033,-138.533226,-3.0442988875,-0.749723226,10.6952157025,-11.21237612,4.7811790705,-5.8025085925
739,6.158087,19.044000625000002,17.5786047,-138.53211975,-2.689287186,-1.399897933,10.718557833,-6.524086951999999,-1.6617685555,0.09380579
740,6.16642,18.971230505,17.650457385000003,-138.54906465,-1.3617233930000001,0.332767218,9.704759597,-7.8201670645,6.824733734,-4.861172378
741,6.174753,18.898199079999998,17.648543355,-138.56856535,-2.4762569665000003,-1.22037822,10.4016776105,-7.6792504785,-1.729101837,-2.3898406325
742,6.183086,18.82158947,17.67999363,-138.5860138,-0.514828101,-0.9122529965,9.647893429,-8.224168539,2.2292518615,-3.332565993
743,6.191419,18.73915672,17.69930363,-138.6293068,-3.0589077475,-1.1310941725,8.9388833045,-7.994357586,-0.19261229049999984,-5.800664901999999
744,6.199752,18.65097618,17.71483326,-138.66857530000001,-2.0155778525,-1.3493056,11.7726988785,-8.774259567,-0.3566207884999999,-5.0313659905
745,6.208085,18.540106774999998,17.774757385,-138.71185305,-3.0214251279999997,-1.3979315755,10.3692669885,-11.397656914999999,4.4479251805,-7.3475210665
746,6.216418,18.408808710000002,17.80643654,-138.77661135,-1.9285588264999998,-0.9834025799999999,10.319255827500001,-12.98548603,0.5571033955,-8.4593973165
747,6.224751,18.242036820000003,17.90703678,-138.82543185,-2.5078772904999997,-2.4907428025,8.1999487875,-17.910980225000003,8.914398908999999,-9.461428406
748,6.233084,18.01593876,17.92384338,-138.9238434,-0.9523074330000001,-1.868003547,9.524824859999999,-23.11348057,-2.2555078264999997,-11.459789755
749,6.241417,17.735427855,18.024604795000002,-139.01606370000002,-3.5514537095000005,-3.1540527345,9.9877843855,-29.922938345,7.4887017595000005,-14.089983465
750,6.24975,17.43043041,18.06825352,-139.12376025,-1.1161770635,-1.9964704515,11.87761116,-32.2361269,0.5924139020000001,-13.479774955
751,6.258083,17.06049538,18.21616268,-139.23703765,-5.299713135,-1.7750431894999998,10.684870823,-39.79646301,12.34048748,-17.94252348
752,6.266416,16.625314709999998,18.338339805,-139.3580551,1.5196756495000001,-2.5073809625,11.6747496125,-47.3203125,9.3459917305,-17.62646675
753,6.274749,16.09412956,18.378501890000003,-139.55120465,-5.0247542855,-4.4933700565,6.2706443665,-56.055517195,-2.3458926085000003,-22.797422410000003
754,6.283082,15.495654105,18.578421595000002,-139.67926405,-0.00013732949999997746,-1.5648664235,13.76086283,-66.63030815,18.411634445,-20.759727475
755,6.291415,14.83209419,18.606690405000002,-139.8945503,-5.2054433825,-3.246980786,6.6380126455,-70.99429703000001,-3.903423786,-24.86032677
756,6.299748,14.124518875,18.932508464999998,-139.9932213,-0.984224826,-2.1151605845,12.82299638,-80.82954788,34.363475799999996,-20.736395835
757,6.308081,13.277290345,18.902327534999998,-140.25263215,-1.748059213,-3.929982424,7.652521608500001,-91.140434265,-11.2598161715,-28.09864807
758,6.316414,12.422178745,19.1557436,-140.39317705,-3.6007983685,-1.8057857305,11.6960845595,-96.87766267,25.41359997,-22.34193039
759,6.324747,11.4923439,19.331766125,-140.60422895,-2.6279680130000003,-3.009021163,12.34168768,-102.81414035,14.939823149,-28.143994329999998
760,6.33308,10.49429941,19.432728765,-140.77013015,-0.5440797804999999,-2.2468768729999997,9.145203710999999,-112.87898255,7.579707086999999,-20.91497326
761,6.341413,9.394727707000001,19.693547245,-140.97483445,-4.3087587355,-4.5685284135,10.7670519335,-123.3178329,26.057714465000004,-28.591420175
762,6.349746,8.270511389,19.72120571,-141.151577,0.5154848695,-0.32149446049999997,7.106257737,-127.4329224,-0.5072076320000001,-20.3569994
763,6.358079,7.054475307500001,20.110028265,-141.35467145,-7.501496553,-4.5565538409999995,13.974689005,-137.191391,42.42801285,-29.31075287
764,6.366412,5.7624082565000005,19.98674774,-141.58393475,6.77862668,-2.501776338,6.5624210825,-145.32198334999998,-18.319103239999997,-24.121813775
765,6.374745,4.4149329665,20.328178405000003,-141.84544755,-12.140811445,-2.4103901385,13.290725233,-150.49279785,37.43475914,-33.298535345
766,6.383078,3.0036168095,20.344871519999998,-142.0737991,8.094766378500001,-2.4072518350000003,9.797211886,-159.53181454999998,-0.3987469674999997,-25.86150265
767,6.391411,1.4797557590000001,20.37632465,-142.3842926,-9.245888472999999,-3.9145154955,7.826984137,-169.56014255,1.6282444895000001,-35.387981415
768,6.399744,-0.06019204850000004,20.54430008,-142.62828825,2.7524303495,-0.1591347235,13.716312885,-174.1160431,19.07618523,-28.00696468
769,6.408077,-1.6561184525000001,20.458182335,-142.93537525,-5.194884777,-3.5668363569999997,5.3773090835,-178.30418395,-10.6075601565,-35.088960650000004
770,6.41641,-3.3275375365,20.570052145,-143.1925049,1.4840817155,-0.7833041550000001,10.900315761,-189.2747574,13.94109869,-28.550854685
771,6.424743,-4.994665384,20.426932335,-143.4914932,-3.5057673455,-0.2595841285,10.498158693999999,-187.1736755,-15.469798327000001,-35.2174263
772,6.433076,-6.6401388645,20.514707565000002,-143.740036,-3.550220788,-1.2634875625,13.0499768265,-186.55939485,12.5729250915,-26.966692925
773,6.441409,-8.3088445665,20.363540649999997,-144.0218353,2.679059088,0.252328299,10.856580973,-188.28617094999998,-14.705527068,-34.30857849
774,6.449742,-9.9543852805,20.192186355,-144.24996950000002,-4.504340291,-0.09561538699999994,8.174125912,-187.2281799,-16.84822321,-29.292258259999997
775,6.458075,-11.615774155,20.20727539,-144.55300905000001,-2.18670851,0.9360895155,12.971064089999999,-186.64682765,7.341583731,-33.737505909999996
776,6.466408,-13.244616985,19.88673687,-144.74575805,-0.472953111,-1.2676560879999998,3.6377230880000004,-186.82185364999998,-33.493455885,-30.19946766
777,6.474741,-14.86714983,19.857924465,-145.0313034,-2.9056261185,0.7563667295000001,15.179070470500001,-182.79302215,3.6812769174999995,-32.529026985
778,6.483074,-16.374253275,19.43524647,-145.16909025,1.262800634,1.5156953035,5.3114494085,-174.67073825,-45.257415775,-29.479829789999997
779,6.491407,-17.8911953,19.356170655,-145.4292679,-4.821373701,0.7139272544999999,15.309635164,-171.48068999999998,-1.2201263905,-31.377043725
780,6.49974,-19.248929975,18.94885445,-145.5235672,-0.1141248345,2.5258972645,9.374464034999999,-158.5683365,-43.47793007,-26.503509525
781,6.508073,-20.56810284,18.75938988,-145.70434569999998,-2.691914678,2.982416153,13.109567644999998,-151.08325960000002,-15.200015064999999,-27.481638904999997
782,6.516406,-21.733598710000003,18.35621643,-145.77388005,-1.4531595705,2.1483682395,8.456147194,-136.64729305,-42.852958674999996,-25.53901577
783,6.524739,-22.86820412,18.043501855000002,-145.8772888,-1.297939062,2.3227939605000003,12.001764295000001,-131.99051665000002,-31.018146514999998,-25.538468360000003
784,6.533072,-23.882805825,17.644861220000003,-145.93586729999998,-2.7441515924999997,2.3623702525,10.071609019499999,-119.13653945,-41.90376663,-25.73073959
785,6.541405,-24.785676955,17.23565388,-145.97470855,-0.4506019705,2.9612691405,9.6677074455,-106.6877289,-43.69997597,-24.70398426
786,6.549738,-25.608254435,16.855392455,-146.0245056,-4.568291664,1.8652566675,11.033190725999999,-96.52723312500001,-39.516130450000006,-25.10918331
787,6.558071,-26.299451830000002,16.40358257,-146.00947575,-0.2711126505,2.345824361,11.6696770205,-83.140411375,-50.29253578,-22.55331993
788,6.566404,-26.935058595,16.036327365,-146.0304718,-4.3766732215,2.9853168725,10.074817182499999,-75.226680755,-39.012628555,-22.36047459
789,6.574737,-27.45067215,15.623834135,-146.01039125,-1.3475944105,1.7231599095,10.943532468,-62.162858965,-45.854818345,-20.88776398
790,6.58307,-27.90905762,15.23151684,-145.995903,-3.56497407,1.968752861,9.5967802995,-55.183414455000005,-43.210338594999996,-20.824952125
791,6.591403,-28.285210605,14.894533630000002,-145.9838791,-1.295543559,1.8250050545,8.998857977,-45.15007400499999,-37.124292374999996,-18.16287613
792,6.599736,-28.58661747,14.484051229999999,-145.9279022,-2.564657867,1.8604783415,9.8102862855,-37.629526139999996,-47.15332794,-18.11459923
793,6.608069,-28.841297150000003,14.19636774,-145.9205017,-3.1208109855000004,1.382503748,11.0628175755,-30.40722275,-31.488594055,-16.17783451
794,6.616402,-28.980766295000002,13.850147245,-145.8636551,-3.196555138,2.2852737905,10.309639931500001,-18.09485769,-40.304500579999996,-14.665911675
795,6.624735,-29.11150551,13.566040515000001,-145.83356475,-2.038038969,0.6793916525,9.814957858,-16.212764265,-32.303030965000005,-13.85184431
796,6.633068,-29.171227455,13.32173014,-145.81388095,-4.3621721265,1.384705722,12.08187628,-7.4135918615,-27.457490919999998,-12.648096084999999
797,6.641401,-29.193053245,13.036744120000002,-145.77590179999999,-2.021074772,0.7308118640000001,9.8826870905,-3.321478486,-32.817025185,-13.1671977
798,6.649734,-29.201753619999998,12.878263950000001,-145.78281399999997,-4.090245127999999,0.7132724375,13.219710825,-0.5457241239999999,-16.920186039999997,-10.399261472500001
799,6.658067,-29.1577034,12.625454900000001,-145.7514496,-2.3460389975,0.2272991875,10.111446383,4.7891685965,-29.07316303,-11.953514575
800,6.6664,-29.117048265,12.51558161,-145.7746811,-3.796555519,0.13752836750000003,10.04725075,5.7811791894999995,-10.902515887,-9.2260127065
801,6.674733,-29.07231331,12.325790405,-145.77801515,-2.8465204835,-0.6710632295,11.66651821,5.815631628,-20.509948735000002,-11.77634811
802,6.683066,-29.00490189,12.221201895,-145.796402,-2.1833844780000002,0.48084646449999996,11.964128019,8.8321294805,-10.637562037,-8.4129009245
803,6.691399,-28.92220211,12.086702825,-145.8363419,-4.1612159015,-0.987900257,9.218741417,11.2615008365,-12.649934294000001,-12.28139687
804,6.699732,-28.825583459999997,11.993943215000002,-145.8570328,-2.082401097,0.49724031300000004,12.0445032135,12.44021654,-9.2859632985,-7.9382569785
805,6.708065,-28.7517128,11.91198683,-145.90563205,-3.005830973,-1.0348347125,9.042722462,10.353590965,-6.6669328215,-10.112176178999999
806,6.716398,-28.61725903,11.835489275,-145.92352295,-2.576379895,-0.6006764475,11.117288590000001,16.895777225,-7.752964497,-6.6968126295
807,6.724731,-28.54564095,11.8059721,-145.9709091,-2.738279283,-1.7164743245,8.057808161,10.0463576325,-1.241880633,-6.9578831195
808,6.733064,-28.431471825000003,11.74482584,-145.98283385000002,-2.189974904,-0.36313807249999996,12.26022339,14.33114958,-6.5016822815,-5.159752369
809,6.741397,-28.365787505,11.74833918,-146.02819060000002,-2.5299654599999997,-1.3676632645,9.323077679,9.249576092,2.113244832,-4.868914127
810,6.74973,-28.31091881,11.691423895,-146.04421995,-3.226336956,-1.6858128905,10.324718950000001,7.3209016325,-5.832854986,-5.3430854085
811,6.758063,-28.26296997,11.728020195,-146.10169985,-2.5260401965000003,0.0955396815,12.517364975,7.420630455,6.276647091,-4.24921608
812,6.766396,-28.240532875,11.715304375,-146.13747405,-3.3394832015,-1.4139289855000001,8.4792857155,3.9077779055,-0.07826411750000006,-4.855850816
813,6.774729,-28.206780435,11.733741760000001,-146.17697145,-1.454460226,-0.372959897,13.43224192,5.2542034385,3.352538705,-3.4332875605
814,6.783062,-28.210623740000003,11.759532929999999,-146.230278,-3.4795930385,-1.2309376005,8.2657327665,1.1539277435,4.952083826,-4.469934225
815,6.791395,-28.234649655,11.755777835,-146.25364685,-0.7786712050000001,-1.5523214935,10.044881825000001,-2.0111976865,0.10610708599999996,-3.005939126
816,6.799728,-28.267074585,11.778415205,-146.30294800000001,-3.0741481185,-1.5236979725,10.9259347935,-2.418771386,4.4136084315,-4.266172409499999
817,6.808061,-28.296751975,11.772960659999999,-146.31876375000002,-2.0895447135,-0.866088241,7.389874218499999,-2.856839061,-0.49108254549999997,-2.3190551995
818,6.816394,-28.35564518,11.80087614,-146.36893465,-3.0081477165,-1.7099921105,12.982303139999999,-5.606348038,5.035266042,-4.0766403675
819,6.824727,-28.391914370000002,11.80955172,-146.38848875,-2.4520680905,-0.042148501000000005,8.9225659365,-3.5056089165,1.2100292444999998,-1.882639922
820,6.83306,-28.446826935,11.844495299999998,-146.43286895,-3.2301507000000003,-1.0558274685,10.0694255855,-5.3092360495,5.4299171565,-3.0282627345
821,6.841393,-28.49647236,11.87272835,-146.4598236,-1.7981528039999999,-1.5317373275000001,9.93333006,-4.9371628765,3.690018684,-1.5247576535
822,6.849726,-28.55331135,11.8744154,-146.48175815000002,-2.697274208,-0.7641670110000001,9.2165541645,-6.0185450315,0.7197600305,-2.6902569534999996
823,6.858059,-28.63760662,11.913002015,-146.50982670000002,-1.9935441015,-1.5539892315000001,9.181118967,-9.0859527585,4.846770644499999,-1.044465363
