,time,Euler_X,Euler_Y,Euler_Z,Acc_X,Acc_Y,Acc_Z,Gyr_X,Gyr_Y,Gyr_Z
0,0.0,21.443876265,4.7065576315,-141.70581435,-2.7698423265,-0.141311459,13.092525485,-21.04532909,13.102245804999999,-10.156747819
1,0.0083329999999932,21.235891345,4.790131807,-141.72956084999998,-0.158562653,-1.723027289,9.9803929355,-25.41692448,7.9764375685,-6.958284378
2,0.0166659999999865,20.978513715,4.9145436285,-141.76924515,-2.647746682,-2.2387869360000003,10.5041670775,-31.085215570000003,11.868335725000001,-10.214768887999998
3,0.0249989999999797,20.68060875,5.015765309,-141.79492190000002,-0.02738982799999999,-1.2241076830000002,6.7834587095000005,-36.159196855000005,9.978275297500002,-7.7242457865
4,0.033331999999973,20.27815151,5.142286777500001,-141.8396263,-2.8865641355,-1.883922279,14.229208945,-48.403203965,12.004580019999999,-10.72923136
5,0.0416649999999663,19.82776928,5.283424139,-141.83558275,-1.9220968185,-3.2151057720000003,11.532933235,-54.694406505,15.743291854999999,-6.018433808999999
6,0.0499979999999595,19.29725361,5.4129145145,-141.8963165,-0.951242268,-0.35497193,6.2069282535,-63.590728760000005,11.856163260999999,-12.449917315
7,0.0583309999999528,18.697710035,5.5581612585,-141.90825655,-1.3058203609999999,-3.6808508635,10.6951470375,-72.40935135000001,15.682873729999999,-7.693420887
8,0.0666639999999461,18.01061821,5.6532607079999995,-141.95222855,-0.5490416140000001,-0.6160394105,10.220447066,-82.520153045,8.823089601,-8.988340142
9,0.0749969999999393,17.25286484,5.8365626335,-141.98984145,-2.885819137,-2.312174797,13.76608324,-91.04355620999999,19.279181,-11.605392935
10,0.0833299999999326,16.467370985,5.954433441,-142.03393935,-1.7772000435,-2.0416356325,7.1523947715,-94.279701235,11.655062675,-9.549556734
11,0.0916629999999258,15.58055687,6.1266589165,-142.09416965,0.2881754895,-2.6268318895,10.472125055,-106.25941850000001,17.55235624,-13.285171510000001
12,0.0999959999999191,14.6182065,6.2092669009999995,-142.15644835,-2.5547169445,-0.4962287475,12.523912429,-115.2046585,7.287150145,-10.167633059
13,0.1083289999999124,13.572152615,6.4356205465,-142.213192,-1.1144501865,-2.923594713,12.01989889,-125.34593205,24.375264164999997,-13.863669395
14,0.1166619999999056,12.509566785,6.5461094375,-142.2683449,-1.8712286355,-0.9500062465000001,6.350025177,-127.31106564999999,11.086301800000001,-9.811565399
15,0.1249950000000126,11.371061805,6.672332525,-142.34428789999998,0.3843981995,-0.120485544,10.683701990500001,-136.15148925,12.63152981,-12.671603675
16,0.1333280000000059,10.18004179,6.8238360885,-142.384346,-2.787347436,-2.3113567235,11.92134857,-142.90328979999998,16.62311554,-8.511926174
17,0.1416609999999991,9.0149540905,6.956217766,-142.469841,-1.588459849,0.6422864555,9.1421334755,-139.12519070000002,13.65918827,-13.377849099999999
18,0.1499939999999924,7.8030292985,7.076038599,-142.50546645,-0.252678245,1.0465970039999999,10.857829575,-145.4695282,13.259247779999999,-6.7211415765
19,0.1583269999999856,6.563022852,7.191057682,-142.59479525,-0.4276618954999999,-2.410784483,9.6952834125,-148.04846955,12.06706953,-12.971386429999999
20,0.1666599999999789,5.3530259135,7.225473642500001,-142.65447235,-2.0423911214999997,1.129036546,10.706680059,-144.8575287,3.0350865725,-7.926145792
21,0.1749929999999722,4.09847188,7.329075813000001,-142.74021915,-0.591998048,1.1843537684999998,15.30220032,-149.80570985,11.268239495,-11.84621096
22,0.1833259999999654,2.862237334,7.406618357,-142.7885437,-1.569790721,-2.371206403,9.3818897,-148.15209959999999,8.586169718499999,-7.0596191885
23,0.1916589999999587,1.6579869385000001,7.422936439499999,-142.90454865,0.41365760549999997,1.8992350105,5.1243498325,-143.28761294999998,1.141800832,-14.540923594999999
24,0.1999919999999519,0.42334754799999996,7.385986567,-142.97048189999998,-0.7232919335000001,0.35144042950000004,12.255202291500002,-147.70706175,-4.908467293,-8.499921321999999
25,0.2083249999999452,-0.8430003525,7.416890383,-143.0863037,-1.046502903,-0.47179164,14.492652889999999,-150.76587675000002,3.501703562,-14.312275885
26,0.2166579999999385,-2.035217643,7.385564565999999,-143.1863861,-2.5773074625,0.395968944,8.7273931505,-142.1194687,-3.773690939,-12.689282895
27,0.2249909999999317,-3.2478958365,7.2952196595,-143.30231475,2.089463472,1.571236253,9.352910521,-144.32641605,-10.443265436,-14.934163095
28,0.233323999999925,-4.517114401000001,7.179210901,-143.41172025,-1.6731218695,-2.1180999275,11.57968712,-151.29419704999998,-13.305054665,-14.63193703
29,0.2416569999999183,-5.758206844,7.0750617985,-143.52070615,-1.0989858209999999,1.074104279,10.815470695,-147.91088105,-11.5272641165,-14.612840655
30,0.2499899999999115,-6.981560469,6.8969025615,-143.6157379,-1.8321977255,0.9603165979999999,12.113370896500001,-146.1064835,-20.292266845,-14.173074719999999
31,0.2583229999999048,-8.239774227000002,6.730448246,-143.6985092,0.9252969474999999,0.509393774,9.9003002625,-150.4117737,-18.728812215,-12.981770990000001
32,0.2666560000000118,-9.487605571500001,6.5461261275,-143.78318025,-1.7669445275,-0.237298906,9.3756325245,-149.2985382,-20.606074335000002,-13.822904585
33,0.274989000000005,-10.671875475,6.3057498935,-143.82765195000002,-0.9452133775,1.2215049859999998,10.968603134,-142.15364075,-27.695605280000002,-10.875921726000001
34,0.2833219999999983,-11.84915352,6.085431814,-143.90328215,-3.0102018115,2.334378123,13.1675038335,-141.07054134999998,-24.500826840000002,-14.323645595
35,0.2916549999999915,-13.04816723,5.871176481,-143.91516875,1.046726048,0.994828232,10.344169141,-144.36058045,-25.02099037,-7.525804042499999
36,0.2999879999999848,-14.22304678,5.617660761,-143.9610672,-1.5136340785,-0.7879837155,8.826327921499999,-141.24785609999998,-28.56820488,-12.98963642
37,0.3083209999999781,-15.326445105000001,5.3515598775,-143.9716187,-0.623825818,0.4298047685,9.015955448,-132.94042969999998,-30.79330635,-9.871062281
38,0.3166539999999713,-16.42000389,5.047192454,-143.9768295,-2.755320072,2.137090981,11.589568136,-132.01108555000002,-35.25161552,-11.0894742
39,0.3249869999999646,-17.545549395000002,4.80585742,-143.99734495,-1.078118235,1.944047153,14.178071975,-135.53718565,-27.246008875,-11.227799415
40,0.3333199999999578,-18.655492785,4.5065419675,-143.99332429999998,-0.639130831,0.7342529745,11.522510766,-134.12839509999998,-34.69018364,-10.866812705000001
41,0.3416529999999511,-19.699644085,4.2299267050000005,-143.98207095,-0.9768875465,0.1997921315,9.395825625,-126.1140213,-32.05671692,-10.0700879075
42,0.3499859999999444,-20.675930975,3.9252606629999995,-143.9583054,-0.8333915169999999,1.2059130075,7.761047124499999,-118.24161910000001,-35.578889845,-10.458619115000001
43,0.3583189999999376,-21.61714268,3.6238256694999995,-143.9072418,-0.8426031174999999,2.3812794685,9.133321287000001,-114.08919905,-36.22267723,-7.745617628
44,0.3666519999999309,-22.52404022,3.3334432840000003,-143.8897934,-2.2007199525,2.9056702855000003,11.682312488,-109.87488934999999,-33.3566618,-11.67407417
45,0.3749849999999242,-23.387063025,3.0379735235000003,-143.81121065000002,-1.0416870115,1.544850111,11.820018765,-104.8540802,-36.632232665000004,-5.5120062825
46,0.3833179999999174,-24.18662167,2.7758880255,-143.78768159999998,-2.7031468155000002,2.330368161,11.536467550000001,-97.06383514500001,-30.194244384999998,-10.629526615
47,0.3916509999999107,-24.90634823,2.5011639,-143.701149,-0.8932920695,2.449567914,9.755566119000001,-87.625709535,-34.59887123,-4.657146453999999
48,0.3999839999999039,-25.5491457,2.2433511615,-143.66812134999998,-2.483905792,3.2572369575,13.61674833,-78.300445555,-29.951176645,-10.132920262999999
49,0.4083170000000109,-26.107132915,1.9978903829999999,-143.58215330000002,-1.013662001,1.0059787034999998,9.5923290235,-68.146656035,-31.322054865,-3.9418770074999996
50,0.4166500000000042,-26.596046445,1.771124989,-143.54309085,-2.4937213655,4.138117075,12.009610655,-59.86274338,-26.74217987,-8.412278413500001
51,0.4249829999999974,-27.001533504999998,1.540822253,-143.47829435,-0.48680925350000004,2.0065124035,9.2786145225,-49.70282555,-28.50222969,-5.9074220660000005
52,0.4333159999999907,-27.319553374999998,1.3316924425,-143.42820740000002,-2.5031441450000003,3.22653985,12.41126299,-39.387002945,-25.346609115,-6.642174244
53,0.4416489999999839,-27.559659959999998,1.1241203155000001,-143.39083865,-0.38139295549999996,1.0455459360000001,7.502907753,-29.741693495,-24.498784065000002,-7.9121634965
54,0.4499819999999772,-27.735592845,0.925534882,-143.31923675000002,-3.080786228,3.3377338645,11.871222975,-22.386037825000002,-25.37169933,-3.9798856975
55,0.4583149999999705,-27.83652687,0.7518128605,-143.31905365,0.08968848,0.451523721,8.642591955,-12.974905015000001,-18.774418830000002,-10.133272173
56,0.4666479999999637,-27.884030345,0.5515593885000001,-143.22498324999998,-2.3244797585,2.5136647224999997,12.609101294999999,-6.961690902999999,-26.79470539,-1.7849481999999999
57,0.474980999999957,-27.880824085,0.39100772149999996,-143.25094605,-1.367952585,1.1637601555000001,9.024528978,-0.496621922,-15.895950795000001,-12.206871985
58,0.4833139999999503,-27.841197965,0.23042404700000008,-143.14210509999998,-2.0360885265,1.6866823135,11.570535185,3.549065113,-23.4144249,2.0068570375
59,0.4916469999999435,-27.765501025,0.06526577449999993,-143.16931155,-1.780183256,1.8766292930000001,11.32375288,8.1345398425,-16.34300947,-12.567841529999999
60,0.4999799999999368,-27.65097618,-0.052033126500000026,-143.06659695,-1.6917161345,0.6247453479999999,12.29893303,12.613716125,-18.47029877,3.832128048
61,0.5083129999999301,-27.52502251,-0.18418207749999993,-143.0884247,-1.8540138005000002,0.24950358600000003,11.182821751,14.10368347,-13.175884725,-10.112049105
62,0.5166459999999233,-27.36148548,-0.25306156250000006,-143.01818085000002,-1.8810387254999998,-0.08247256250000001,8.0734214785,18.537355425,-11.49895859,3.1322956084999998
63,0.5249789999999166,-27.207515715,-0.332395047,-143.04592895000002,-1.888546452,1.3037019375,12.209008693000001,17.40297604,-7.2646539215,-7.790411949499999
64,0.5333119999999099,-27.05530357,-0.35915806899999997,-143.0153656,-3.9688551425000003,-0.988002807,9.4353652,17.157218935000003,-4.810501814,1.2636209729999999
65,0.5416449999999031,-26.929961204999998,-0.36065375850000003,-143.03224945,0.38437426100000005,1.3824185135,10.54078865,13.965493200000001,0.43275248999999993,-2.387625158
66,0.5499780000000101,-26.846133235,-0.337358624,-143.03985595,-4.4517663715,-0.8201070425,14.16715765,8.892488002499999,2.624351323,-0.08164536950000001
67,0.5583110000000033,-26.732335095,-0.2647949455,-143.07440185000002,0.2677345575,-1.3107663395,6.708539369,12.557656764499999,9.300114394000001,-0.2672205565
68,0.5666439999999966,-26.607818605,-0.19745630050000007,-143.1014328,-4.011755347,-1.108387217,8.3517119875,13.764650345,8.3287706375,0.324096963
69,0.5749769999999899,-26.53853226,-0.08426380150000001,-143.159935,-0.8769305645,1.20537281,12.976189611999999,7.1879135355,14.942830085,-0.698788505
70,0.5833099999999831,-26.533422469999998,0.04612994199999998,-143.20306395,-3.531783879,-1.408235133,12.293498515,-0.5484457315,16.025813104999997,1.8262762730000002
71,0.5916429999999764,-26.52758884,0.23203471300000006,-143.27383425,-0.21016418949999993,-0.48113759649999993,8.747692585,-0.4160970445,23.39810944,1.870627761
72,0.5999759999999696,-26.511451725,0.40607416599999996,-143.35081485,-4.4570903775,-1.8483609555,11.704056265,0.795489073,22.525699615,0.528191477
73,0.6083089999999629,-26.55139828,0.580505967,-143.3813782,0.8987962454999999,0.013165920999999997,13.64553261,-5.910314083,20.007678034999998,5.5578238965
74,0.6166419999999562,-26.647418979999998,0.7733943015,-143.4758606,-2.7731187344999997,-1.1215590835,8.407413244499999,-12.567434785,25.486741065,-0.307537608
75,0.6249749999999494,-26.758917805000003,0.99958913,-143.54402925,-0.136337429,-1.115063578,7.6498270035000004,-14.421485425,27.563918115,4.371463299
76,0.6333079999999427,-26.885118485,1.15868132,-143.6156311,-2.688470304,-0.827453464,13.287167069999999,-16.20049572,20.565163615,0.5443476735
77,0.641640999999936,-27.049654959999998,1.3809493485,-143.67996215,0.598439604,-0.277255103,10.62084484,-20.74604511,26.907863615,4.6972265245
78,0.6499739999999292,-27.21629429,1.585897863,-143.8011856,-4.246269702499999,-0.8890240490000001,10.219748021000001,-20.866806985,28.167292595,-2.1188436150000003
79,0.6583069999999225,-27.37463665,1.7822907865,-143.8227844,0.38854000749999995,-0.4697193615,11.758260726,-20.125616075,21.761994365,7.981165886
80,0.6666399999999157,-27.569210050000002,1.990502745,-143.94162749999998,-2.5686790349999997,0.6181116995,12.120786665,-24.108088495,28.391778945,-1.5223262905000001
81,0.674972999999909,-27.751470564999998,2.2046711445000002,-143.9902954,-0.31397028250000003,-0.69314006,7.4773101805,-22.879981995,25.100200655000002,6.2333135605
82,0.6833059999999023,-27.92341518,2.360413969,-144.0671158,-1.1285614970000002,0.31626996399999996,12.04102564,-21.50088215,20.472673415000003,0.1890140045
83,0.6916390000000092,-28.120228769999997,2.5815997125,-144.11507415,-0.462696746,-0.634683445,11.567427160000001,-24.612585064999998,25.757439615000003,6.871352434
84,0.6999720000000025,-28.275953289999997,2.7119835020000003,-144.1913452,-1.779836595,0.4708057645,8.427114486499999,-19.531895640000002,17.756625175,-1.0597831605
85,0.7083049999999957,-28.428458215,2.899770856,-144.2077408,-0.1786407455,0.2257040515,13.43272638,-19.444720265,20.39641762,8.431437492499999
86,0.716637999999989,-28.579804420000002,3.0318526025,-144.26943205,-2.0878349545,-0.7223938704999999,11.7304830565,-19.06695938,17.100245955,0.6823571625
87,0.7249709999999823,-28.68785191,3.1741811635,-144.28260805,0.170188382,1.3511451485000001,6.1296372415,-14.14743328,15.37174225,6.269502639500001
88,0.7333039999999755,-28.825647355,3.2787797450000005,-144.32206725,-0.4014706315,-0.818602979,13.38443136,-17.53370142,12.924173355,1.5069053175
89,0.7416369999999688,-28.932657245,3.381713867,-144.30531315000002,-0.7555911835,-1.259057522,9.6132736215,-14.267421725,9.4750475885,7.1889767645
90,0.7499699999999621,-29.047801970000002,3.476737022,-144.33081055,-0.8594940154999999,0.5642975275000001,8.5509397985,-14.899837015,11.099630834,2.4761993885
91,0.7583029999999553,-29.159858704999998,3.5600450035,-144.3380737,-1.4231490495,-0.0019232955,12.43765545,-14.73263979,8.790097236000001,3.5579403640000002
92,0.7666359999999486,-29.239499095,3.625811577,-144.34257509999998,-0.43253716000000003,-0.26632775,12.124633315,-10.7812438,6.7938888075,3.007604718
93,0.7749689999999418,-29.306090355,3.7151114940000003,-144.36105344999999,-2.399483323,0.4808077365,12.451707840000001,-9.2273311615,10.06250906,2.7647305725
94,0.7833019999999351,-29.345629695,3.743666887,-144.3528137,0.04804480050000004,0.602370128,7.2032778265,-6.0736410615,2.143770933,2.1709923745
95,0.7916349999999284,-29.378575325,3.8298364879999998,-144.38943485,-2.309324503,-0.7513701765,14.977939605,-5.0331269505,10.787148,0.7149190905
96,0.7999679999999216,-29.41281128,3.839750886,-144.34783935000002,0.23070994,0.616888657,10.3690772035,-5.729065418499999,-1.7713972629999999,4.562900543
97,0.8083009999999149,-29.446421625,3.9044027325,-144.38201905,-1.2567959275,-1.4204826955,9.861603738500001,-5.145138502,8.3807418345,-0.260451963
98,0.8166339999999082,-29.481853485000002,3.869554162,-144.3281784,-0.5545082689999999,0.032435473000000006,10.6274428345,-5.997452020500001,-7.1844923495,3.220471382
99,0.8249669999999014,-29.53674698,3.9107586144999997,-144.36750030000002,-2.084520698,-0.833327591,13.52396822,-7.6616346835,6.239711523,-2.1805208325
100,0.8333000000000084,-29.568541525,3.884841919,-144.28990935000002,0.01472897849999999,-0.9460552335,9.1547765745,-5.7615005969999995,-7.663357496,6.218842745
101,0.8416330000000016,-29.635519979999998,3.902172446,-144.32304384999998,-2.5548461675,0.1252557335,13.32737255,-9.206474302,3.3770450355,-2.9223411085
102,0.8499659999999949,-29.685601230000003,3.8655230995,-144.25077055,-0.737844223,-0.8030585050000001,8.687497139000001,-7.886264800999999,-8.4846394065,5.026345729999999
103,0.8582989999999882,-29.752812385,3.9204939605,-144.28211975,-1.737939328,-0.8707277775000001,11.738176825,-9.2593672295,7.2175283435,-0.523490995
104,0.8666319999999814,-29.827142715,3.8661414385,-144.2114258,-0.3712278600000001,-0.20582579099999998,8.896615028500001,-10.790600778000002,-10.2536492355,3.803163767
105,0.8749649999999747,-29.88827419,3.9203490015,-144.2373886,-1.6693378015,-1.0192508695,10.30895853,-8.588133811999999,6.807239770500001,0.0331255795
106,0.8832979999999679,-29.96466541,3.9010415075000004,-144.18768310000002,-1.47137478,0.5444781854999999,9.6518580895,-10.8868708635,-5.3715236184999995,3.713987589
107,0.8916309999999612,-30.051635740000002,3.9492783545,-144.22013090000002,-0.7894278165000002,-0.6999399365,13.948719024999999,-11.643669605,6.5660955905,-0.970754087
108,0.8999639999999545,-30.081205365000002,3.9219776395,-144.16516115,-2.587551266,-0.5429012325,10.429713723999999,-5.3230860235,-6.541273594,3.793685794
109,0.9082969999999476,-30.146505355,3.988550186,-144.20365905,-0.037158966000000015,0.584857106,10.714766025,-9.006748197,8.821108103,-0.45538272700000004
110,0.916629999999941,-30.18654919,3.9438991545,-144.1744156,-2.8514790535,-0.58913219,11.126831055,-6.377227306,-6.8108384609999995,0.0926723005
111,0.9249629999999344,-30.212394715000002,4.018401265,-144.2048187,-0.3319526315,0.012108593999999973,11.661400794999999,-4.330675959500001,9.155885936,0.8758788405
112,0.9332959999999276,-30.24091911,3.9849226475,-144.17815395000002,-1.0316647735,-0.12216886849999997,9.924591542,-4.977089882,-5.528244018500001,0.547965407
113,0.9416289999999208,-30.274394035,4.0327391625,-144.18523405000002,-0.6476144795000001,-1.0123850705,10.501550911499999,-5.4766311645000005,4.9790110585,1.6948046680000002
114,0.949961999999914,-30.277192115,3.999472022,-144.17298125000002,-2.026017934,0.18350824699999999,9.0070290555,-1.7513988615000002,-4.652492762,-0.9027865235
115,0.9582949999999072,-30.306406975,4.087420106,-144.19545745,-1.471479122,-0.40815266949999995,13.741066935,-4.848953843,10.0799708385,2.516944647
116,0.9666280000000144,-30.311616895,4.0568349365,-144.18753049999998,-1.8415340335,-0.775217295,10.003962992,-2.0208608505,-4.1306159495,-1.160709083
117,0.9749610000000076,-30.299371715,4.159931421,-144.21489715,-1.5010798425,0.4419160135,10.0544180855,0.165365495,11.92168522,2.9763741495
118,0.9832940000000008,-30.2763834,4.1737635135,-144.21735385,-1.4658289555000001,0.10267969199999999,9.6697552215,1.4437463505,1.1117475035,0.432944618
119,0.991626999999994,-30.243115425,4.293296575499999,-144.2196045,-0.8853625055,0.363026701,11.114923239500001,2.4866173265000002,12.137369634999999,6.5172858235
120,0.9999599999999872,-30.142813685,4.319664478,-144.2093124,-1.483635664,1.2125926315,9.017125606499999,10.619138719,1.63232507,2.5345674750000002
121,1.0082929999999806,-30.030995365,4.4721004959999995,-144.19568635000002,-1.281832486,-0.49199142649999994,10.111260413,11.74546337,14.614130495000001,10.118715762
122,1.0166259999999738,-29.86625576,4.5399228335,-144.20807645000002,-2.210160494,2.1572737689999997,9.7822222695,18.548476219999998,7.3078463075,2.6674928665
123,1.024958999999967,-29.629065515,4.6954118010000006,-144.16960905,-0.7408593445,0.352712527,12.04122353,26.564763069999998,13.56715441,12.713482855
124,1.0332919999999604,-29.347399715,4.833947778,-144.18646999999999,-3.080596685,1.42696774,11.2544217095,32.610544205000004,14.980656145,6.3251485825
125,1.0416249999999536,-28.978940965,4.983189106,-144.15458675,-0.6243537514999999,2.0515249965,7.558380604,42.34957695,13.412302494999999,11.556817535
126,1.0499579999999469,-28.5666647,5.1604824065,-144.18296815,-1.905927777,1.0787258145,13.499269005,48.43004608,19.81256294,7.1513388155
127,1.05829099999994,-28.06201172,5.343813896,-144.15738675,-2.1623555420000002,0.8521582335,11.982019422499999,58.71657562,17.55926418,12.620797634999999
128,1.0666239999999334,-27.49802208,5.528746128,-144.18011475,-0.9810942115000001,2.715358615,8.783250809,66.60809707499999,20.43005943,7.842810631
129,1.0749569999999269,-26.855734825,5.724902868,-144.1775513,-1.9947350625000002,0.642084613,10.826218128499999,75.50053786999999,20.449063305,10.508021833
130,1.08328999999992,-26.113555910000002,5.9169285295,-144.1724548,-1.1304017305,2.6462150810000002,10.618651868,87.64818954500001,19.897773739999998,10.725544925
131,1.0916229999999132,-25.32298374,6.127731799999999,-144.18146515,-2.228996456,0.8269206735,9.6981403845,93.430294035,22.93204212,9.453247546
132,1.0999559999999065,-24.435462,6.3656857015,-144.18770595,-0.981013447,2.0672793385,8.207741022,105.3097191,25.9751873,10.81154299
133,1.1082890000000134,-23.480247495,6.5573313235,-144.19210049999998,-2.080282301,1.7355988029999998,13.790410995,113.14709855,20.936239245,8.236462116
134,1.1166220000000069,-22.460328099999998,6.8062419895,-144.19233705,-1.9966032505,0.4406224935,8.646283864499999,121.063179,27.108752250000002,11.48818493
135,1.124955,-21.375792505,7.050696611499999,-144.22418975,-1.4726218580000001,0.8923661559999999,10.3477840415,129.05692675,28.355364799999997,6.7741537095
136,1.1332879999999932,-20.273551939999997,7.2995631695,-144.20858005,-0.8765661419999999,0.4048534035,12.6239109045,130.77709959999999,27.009033205,11.83042288
137,1.1416209999999865,-19.113459585,7.511507988,-144.22341154999998,-1.780682206,-0.160938399,10.553608895,137.9297638,24.302060125,6.149872541000001
138,1.1499539999999795,-17.935770035,7.7585163115,-144.18878174999998,-0.7394966185,0.280805349,9.646840812,139.4560013,26.47455978,13.04581404
139,1.158286999999973,-16.760723114999998,7.929210186000001,-144.1868515,-0.7484432754999999,-0.638649851,10.854192734,139.47805025,19.254345895,5.5214941500000005
140,1.1666199999999662,-15.543455125,8.117157936,-144.12243655,0.05642128000000002,-1.6308300495,10.319411276,143.71398165,19.24677467,13.266276835
141,1.1749529999999595,-14.35463047,8.250832081,-144.09041595000002,-0.798495665,0.40391835550000005,10.455658915,140.6281662,14.29198885,6.981109858
142,1.1832859999999528,-13.1620903,8.3397624495,-144.013649,-0.287054569,-0.906664416,9.8416123405,140.50254819999998,7.9480764865,10.9194321635
143,1.191618999999946,-11.93539095,8.4113397595,-143.9552612,-0.9331504405,-1.2542828620000002,10.4883041365,144.7327957,6.660650492,7.750236511000001
144,1.1999519999999393,-10.740672589999999,8.473779678,-143.8534088,0.280691922,-0.06673899300000002,12.409590245,140.31700895,4.7553851604999995,12.699855804999999
145,1.2082849999999326,-9.5847611425,8.474294186,-143.78445435,-1.0461951645,-1.1212591975,12.291985515,136.0413513,-1.6089332775,7.185518265000001
146,1.2166179999999258,-8.394291401,8.4606399535,-143.68265535,-1.030325523,-2.020724356,11.58874798,139.8368683,-3.7164018155000003,10.9962978365
147,1.224950999999919,-7.2031629084999995,8.395869493500001,-143.5759811,1.540819049,0.427387953,7.900579452500001,139.63470460000002,-9.6484947225,10.59257412
148,1.2332839999999123,-6.0493655205,8.283976555,-143.4611969,-1.1438024005,-1.2030185685,11.9705352785,135.2403641,-15.114431385,11.21761131
149,1.2416169999999056,-4.9079611305,8.1815977095,-143.34736635000002,-0.8563410040000001,-0.6802873615,9.7138071045,133.58451839999998,-13.761665820000001,11.43889141
150,1.2499500000000126,-3.735717654,7.99676609,-143.24810789999998,0.04072925449999998,-1.428326845,7.049363613000001,137.79730225,-23.2151165,9.2577276235
151,1.2582830000000058,-2.558191776,7.7828547955000005,-143.12140655000002,-1.1381020845,-0.0107278375,13.5449013715,137.8071442,-26.7096777,12.782527925
152,1.266615999999999,-1.4428917765,7.6175751685,-143.0234222,-0.4285759330000001,-0.962925851,13.173639300000001,131.05902859999998,-20.445915225,10.087946415000001
153,1.2749489999999923,-0.338488251,7.382723093000001,-142.92612459999998,-1.3624326585,-1.701848209,12.027858257,129.61386875,-28.619249345,10.2972440715
154,1.2832819999999856,0.7820575835,7.1286597255,-142.82253265,-0.936810862,-1.3838573095000002,9.665457727,131.7068634,-30.6721468,11.590008735
155,1.2916149999999789,1.9194912315,6.8550605775,-142.72182465,-0.642650768,-0.607139945,7.566528797,133.64069365,-32.807510375,11.927974225
156,1.299947999999972,3.0358217955000004,6.589058399500001,-142.65529635000001,-1.5861878395,-1.2875445485,6.950422287,131.83805085,-31.792848585,8.445272683999999
157,1.3082809999999654,4.101421833,6.2786531445,-142.5575752,0.7734611555,-0.08652059000000001,12.7709932345,125.17844009999999,-36.727819440000005,13.135582925000001
158,1.3166139999999589,5.127017498,6.038918257000001,-142.5237045,-3.2175152305,-1.926081717,15.0913353,121.44843675,-28.6053133,5.5016994475
159,1.324946999999952,6.154990435,5.746324539,-142.44418715,0.8850342035000001,-1.9799728989999998,6.652865648000001,121.01605605,-34.29149437,12.116221905
160,1.3332799999999452,7.16806078,5.4307501315,-142.4367218,-2.7335187795,-0.874680758,10.247029304,120.29737854999999,-37.776153565,4.446648955
161,1.3416129999999384,8.152299404,5.1788065435,-142.34775925,0.12100434300000001,-1.7749583125,11.237068175,115.78429415,-28.833547590000002,13.810942175000001
162,1.3499459999999317,9.114819050000001,4.880159259,-142.37983325,-2.3395014405,-0.8966509100000001,10.12162542,114.62330625,-36.281847,0.765094072
163,1.358278999999925,10.049146173,4.60070467,-142.3043022,-0.460749328,-1.0929200945,12.35661221,110.0696335,-31.859570505,13.73858023
164,1.3666119999999182,10.957242489999999,4.3315935135,-142.3425217,-1.7018327905,-0.007828921,10.92484999,108.0802307,-32.812530515000006,0.88375859
165,1.3749449999999117,11.86092663,4.0586315395,-142.29031755,-0.855233729,-3.1357359885,6.8669691085,106.70892715,-31.17726803,11.851292132000001
166,1.3832779999999048,12.74021244,3.755555153,-142.33091355,-1.1908845005,0.35643872649999997,10.0373527985,104.59762575,-36.795059205,2.4957432745
167,1.3916110000000117,13.570925235,3.5334614515,-142.28358839999999,-1.662814766,-2.4097543955000003,11.37558079,98.06140518000001,-24.97938824,10.808671476
168,1.399944000000005,14.398352150000001,3.293655157,-142.3231163,-1.2144576310000001,-0.1064754245,8.632759094,98.314022065,-29.29150009,1.8555057050000001
169,1.4082769999999982,15.18493986,3.0396906135,-142.29593275,-1.218301177,-3.3352174755,10.3063151855,92.969551085,-28.948857305,10.2075328845
170,1.4166099999999917,15.92394114,2.8275368810000003,-142.3192749,-2.311298341,0.2696916015,14.723786835,87.577575685,-25.50146961,3.6311454775
171,1.4249429999999847,16.634238245,2.6430271865,-142.30160905,-0.810231447,-4.4692589045,7.515896082,83.91352462500001,-20.97825527,7.524262669
172,1.433275999999978,17.309098245,2.3874923585000003,-142.32501605,-1.243982613,0.1854623555,9.050793884499999,79.85234833,-30.37111378,5.7676261664999995
173,1.4416089999999713,17.912340165,2.2241292,-142.32138824999998,-1.223570853,-3.4010285135,11.174962045000001,71.163928985,-18.871767995,5.6472942825
174,1.4499419999999643,18.511971475000003,2.029672772,-142.32157899999999,-2.6532697675,-0.6036025285,8.5746803285,70.71285248000001,-22.396739959999998,6.770508766000001
175,1.4582749999999578,19.052529335,1.8181488065,-142.34950255,1.503325373,-2.223742604,9.596166370999999,63.75568962,-25.429273605,4.3142820595
176,1.466607999999951,19.535639765,1.620882325,-142.34638975000001,-3.796267152,-1.4896914955,13.954954625,56.747249605,-22.44464207,7.677808523
177,1.4749409999999443,20.00543976,1.4328012319999999,-142.3959236,1.3837494220000002,-2.142444253,7.824473381000001,55.324697495,-23.572667125000002,1.3503865899999998
178,1.4832739999999376,20.427196505,1.1878299714999998,-142.40108874999999,-2.7099215985000003,-1.0968473255,8.468694687,49.40641022,-28.026952745,9.0751566885
179,1.4916069999999308,20.814272879999997,0.9852131605000001,-142.46403885,2.5094941855,-1.76120919,9.0939464565,45.376316075000005,-25.74558258,0.7883311955000001
180,1.499939999999924,21.180747035,0.7495696544999999,-142.4758186,-6.03925848,-1.4725520015,11.886445522999999,42.826440809999994,-27.132218360000003,8.3187608715
181,1.5082729999999174,21.51540947,0.5600087045000001,-142.5340538,3.9137284755,-0.624324098,9.2412226195,39.010894775,-24.04696655,1.106351659
182,1.5166059999999106,21.82461548,0.33310037850000007,-142.53898625,-5.781680107,-1.54223454,12.32037926,35.938404085,-25.749518395,9.009944439
183,1.524938999999904,22.10639763,0.10435527550000001,-142.60864255,4.682639121999999,-1.3112462759999999,10.33564091,32.595838549999996,-28.90934181,1.831606448
184,1.5332720000000108,22.349188804999997,-0.06690776349999994,-142.6153793,-7.8793935775,-1.5725188855,14.651289460000001,28.02015209,-19.55795574,6.531258583
185,1.541605000000004,22.59263897,-0.3106454015,-142.68214415,4.3063857555,-0.915811837,9.5758490545,27.95260811,-30.409207345,3.114791751
186,1.5499379999999974,22.784402845000002,-0.4834395050000001,-142.7022629,-5.737638235,-2.1511518955,12.315573215,21.859799385000002,-20.29113293,5.27311039
187,1.5582709999999906,22.981861115,-0.700340867,-142.77341460000002,3.6698825955000003,0.059763566000000004,6.213400364,22.37138939,-27.593010905,1.653842449
188,1.566603999999984,23.133628845,-0.902903408,-142.8067322,-5.176624417,-2.7568478585,9.706391097000001,17.022100925,-24.161240575,5.344868541
189,1.5749369999999772,23.251580235,-1.105665326,-142.8695984,3.2053271535000003,-0.42631658679999995,11.8104043,12.790009025,-25.619151115,2.0701248645
190,1.5832699999999704,23.359734535,-1.283514276,-142.91616820000002,-6.1193301675,-2.2827738525,9.4215738755,11.753187655,-22.04087067,2.8188864584999997
191,1.5916029999999637,23.418537139999998,-1.4656185585,-142.9689865,2.349503696,-1.3606632355000001,11.778135299999999,5.6811316015,-22.86001778,2.2766134735
192,1.599935999999957,23.4680109,-1.580207352,-142.99151615,-6.251707554,-2.3588244915,13.12023258,4.7717090845,-13.92182016,2.496523857
193,1.6082689999999502,23.502660755,-1.7680804805,-143.04351805,1.5216909644999999,0.938896835,8.846516131,2.7660250065,-23.43722153,2.716000259
194,1.6166019999999437,23.493743895,-1.8083283755,-143.0405884,-4.2533959150000005,-2.500690937,10.956068515,-2.176486254,-4.522750497,1.7490426155
195,1.6249349999999367,23.500667569999997,-1.9566930685,-143.0526581,-0.49145752200000004,0.181056976,12.51681757,-0.390597962,-17.18744421,5.2069842815
196,1.63326799999993,23.468230245,-2.005228996,-143.07816315000002,-1.576546043,-1.9890367985000001,8.799638271,-5.144523144,-6.795322301,-0.9824339745000001
197,1.6416009999999233,23.43202114,-2.077402115,-143.0581131,-1.9788150195,0.12216644750000001,11.619055745,-5.4189929965,-7.269019842,5.096919656
198,1.6499339999999163,23.397800445,-2.101494968,-143.06697079999998,-1.0044053640000001,-1.580423713,9.914584636499999,-5.2747716905,-3.3104799985,-0.323520571
199,1.6582669999999098,23.34328461,-2.1697162985,-143.04091645,-2.1308130025,0.31163167950000004,9.681333543000001,-7.6060898305,-6.551551819,5.5698735715000005
200,1.666599999999903,23.28993225,-2.0929502845,-143.01253505,-1.730453968,-1.6418651935000002,10.560998914999999,-7.379315137999999,9.5698065755,-1.0190625935000002
201,1.67493300000001,23.248073575,-2.1642858685,-142.98791505,-1.0531718730000001,0.27737999,11.3922429065,-6.0924296380000005,-7.005115986,5.481261492
202,1.6832660000000033,23.16402149,-2.041096136,-142.9378967,-1.580238521,-1.728977203,9.2014842055,-10.996699809999999,15.712707044999998,-0.8122021105
203,1.6915989999999963,23.115673065000003,-2.0414868445,-142.8945847,-2.4740141035,0.1406478555,10.6962142,-6.7398810385,1.7433820070000001,4.3112543825
204,1.6999319999999898,23.053584100000002,-1.928721547,-142.8459473,0.10245627150000003,-1.428305805,12.00613785,-8.393536806,14.497910025,-0.439745426
205,1.708264999999983,22.987505915,-1.866224721,-142.78392789999998,-2.2999780775,0.5013663024999999,8.7969679825,-8.8231763835,9.4995965975,3.2913975715
206,1.7165979999999763,22.940520285,-1.734728787,-142.74409485,-1.563175023,-1.527100146,7.954378128,-6.583852768,16.154755595,-2.252984107
207,1.7249309999999696,22.87426567,-1.6665617305,-142.682724,0.05936783550000002,-0.565339893,13.854361534999999,-8.9016718865,10.0870728475,2.972577214
208,1.7332639999999628,22.818758965,-1.5153754055,-142.6470718,-2.842885077,-0.6998392865,10.4868459715,-7.6133286955,18.140192985,-3.597296357
209,1.741596999999956,22.74960518,-1.450605199,-142.58467865,0.15964132549999988,0.8197591900000001,6.549986839500001,-9.2818129055,9.7582509505,3.2773228884999996
210,1.7499299999999494,22.689162255,-1.251789987,-142.5532951,-2.8591254354999998,-0.7627640290000001,15.826806065,-8.254607677500001,23.219513895,-6.2404568195
211,1.7582629999999426,22.658878325,-1.165365458,-142.4724655,-0.7089918925,1.5630075335,10.56827211,-4.5594432355,12.996248245,4.3320018055
212,1.766595999999936,22.62553406,-0.9816745520000001,-142.4617119,-1.869328439,-1.2779834270000001,9.3736021515,-5.1059701445,20.601641655,-7.7904326915
213,1.7749289999999291,22.59035587,-0.8233270945000001,-142.3492889,-2.2261685135,-1.508739233,14.065727235,-5.0933167935,22.412657735,4.525691986
214,1.7832619999999224,22.58128643,-0.6925072369999998,-142.36883545,-0.6422598214999999,0.2215554715,10.3437976815,-2.2514471415,13.354016305,-8.688138485
215,1.7915949999999157,22.55527687,-0.541249633,-142.2624054,-1.479948223,-1.2748190165,8.946182966999999,-4.080150604,21.3489151,4.205980777500001
216,1.799927999999909,22.564917565000002,-0.3956812620000001,-142.2799454,-0.399101615,1.742409766,10.223582504,-0.00508439500000013,15.08500147,-9.1380529405
217,1.8082609999999024,22.555945395000002,-0.2774745825,-142.20774075,-0.5603630245,-0.44037760800000003,14.816188335,-2.1241442855,16.10525608,1.9292455915
218,1.8165940000000087,22.543115615,-0.08777713750000005,-142.17540739999998,-0.733649254,0.061243847000000004,8.689242601,-2.6752092835,22.27204132,-5.6410193445
219,1.8249270000000024,22.56775284,0.03732538250000006,-142.13284305,-2.0932489335,0.342656627,9.886731622500001,1.896004364,15.50703859,-1.66602689
220,1.833259999999996,22.59722328,0.2353746295,-142.0893364,-0.5786226689999999,-0.8940934835000001,14.288261890000001,2.379775047,23.708080295,-4.801896810500001
221,1.841592999999989,22.668934819999997,0.3727692965,-142.05551144999998,-2.8648420569999997,-1.609526932,8.3101208205,7.5359220505,16.46354961,-3.2206773755
222,1.8499259999999824,22.72870922,0.5562447904999999,-142.02164075000002,-0.9415786525000001,0.7210923435000001,8.1303052875,5.9957122805,21.63888264,-5.2424616815
223,1.8582589999999757,22.7413826,0.7820066509999999,-141.9684296,-2.1394129395,-1.9903166890000001,15.29454565,0.3673852085,27.132682799999998,-5.2203702925
224,1.8665919999999687,22.74052143,0.9682039320000001,-141.93733595,-1.0728701945,-0.32946975549999996,10.041980268,-1.2751476765,21.80672169,-5.689852953
225,1.874924999999962,22.6820755,1.226458117,-141.8688965,-0.798706442,-1.1024831535000001,9.469829082499999,-8.272259474,31.435171125000004,-5.038599968
226,1.8832579999999552,22.623191835,1.468782641,-141.8492508,-2.2386339905000003,-1.8368477225,13.60186529,-8.2213494775,27.502914429999997,-9.515317917
227,1.8915909999999485,22.535164835000003,1.7079268209999998,-141.77570345,-0.8482680175,-1.392489314,10.519980910000001,-11.895830635,29.55584717,-3.5316486355
228,1.8999239999999415,22.401536945,1.971585244,-141.75208665,-1.577577561,-1.5972972515000001,9.3393292425,-17.222249985,30.07992077,-9.962872027500001
229,1.908256999999935,22.219352725,2.2017784715,-141.68858335,-1.2488724885,-2.710613251,9.882843017999999,-23.225087164999998,28.114171980000002,-4.11315763
230,1.9165899999999283,21.98055458,2.4933183195,-141.65708925,-1.5551883575,-0.5500015465,12.978430750000001,-29.917167665,33.5948925,-10.154007436
231,1.9249229999999216,21.680492405,2.7074202295,-141.60247425,-0.6029366855,-2.628880739,9.119003775,-37.36592865,25.946734425000002,-4.1652727125
232,1.9332559999999148,21.309606549999998,2.9973101615,-141.5626297,-0.746748269,-2.3962340355,11.330958365,-45.877325060000004,33.87580299,-8.7969465235
233,1.941588999999908,20.88728428,3.2309771179999998,-141.53001405,-2.595989013,-2.3152220244999997,9.559040068,-51.922061920000004,27.22675419,-7.155800580999999
234,1.9499219999999011,20.382130619999998,3.5606203675000003,-141.47831345,-0.5038655994999999,-2.937325239,12.683177950000001,-62.14460373,38.96076584,-8.639216421
235,1.9582550000000083,19.83690548,3.8052761554999996,-141.45687485000002,-3.251402542,-2.396969676,9.714260578,-66.595516205,28.115855215,-8.3909869195
236,1.9665880000000016,19.200796125,4.1720409395,-141.39466475,1.1104050874999998,-0.3262935355,11.870257375,-78.035633085,43.728939055,-8.184631111
237,1.9749209999999948,18.536439895,4.422248125,-141.3972702,-5.243097692499999,-3.3480221035,11.064355136,-80.676956175,27.965723034999996,-10.7579283705
238,1.983253999999988,17.80540371,4.7998919485,-141.29951095,2.8126347065,0.02285356849999999,12.431167125,-89.83621597,46.460227965,-3.523083031
239,1.9915869999999811,17.03341198,5.0509046315,-141.31650925,-5.7477595805,-3.296381235,11.831442356,-93.43767929,27.785170555,-11.745078085
240,1.9999199999999744,16.203680040000002,5.4012241365,-141.22554780000002,3.2384376450000003,-0.649534866,7.892168999,-101.71974566,43.1481514,-2.1058130265
241,2.008252999999968,15.315911289999999,5.7079641819999996,-141.2670822,-5.109389067,-2.910048485,11.43377733,-107.04764940000001,33.73538494,-15.58940172
242,2.016585999999961,14.395308495,5.999682665,-141.1985092,2.746680975,-0.869241476,8.902764797,-112.4507942,35.694532394999996,-1.5596122
243,2.0249189999999544,13.412609100000001,6.342944383500001,-141.2575722,-3.783855677,-1.9240404965,8.492399930000001,-118.20596315,37.95542908,-17.583848
244,2.033251999999948,12.43120861,6.629804611499999,-141.22380445,0.5763225999999999,-0.8296905455,8.3224108205,-119.3248749,34.213594435000005,-4.265013456
245,2.041584999999941,11.379108904999999,7.007342577,-141.27429195000002,-2.4951035975,-1.681836009,12.32864237,-126.61447139999999,42.776765819999994,-16.039061070000002
246,2.049917999999934,10.346941950000001,7.321879624999999,-141.24941635,-1.7728775145,-1.618992448,12.114140030000002,-125.29342270000001,37.39064026,-4.6925148960000005
247,2.0582509999999274,9.272996425999999,7.673595904999999,-141.2885132,-0.40425241,1.502947211,10.474301578,-129.36717225,40.499317164999994,-12.560067175
248,2.0665839999999207,8.1852827075,8.0413796905,-141.29481885,-3.0354583859999997,-2.2174583075,12.52957058,-131.418869,43.223461150000006,-8.268908740499999
249,2.074916999999914,7.128574371,8.381142855,-141.31542585,-0.8431893589999999,1.233525038,10.166091444,-127.5471497,39.799701690000006,-8.6248919955
250,2.0832499999999072,6.0344028475,8.702434301,-141.38113405000001,0.21604359150000008,-0.2142163925,10.429101945,-131.1456604,37.125570295,-13.062328335
251,2.091583000000014,4.9965901375,9.072275398,-141.40837475,-2.77808848,0.4999177455,10.074154616,-125.10908125,43.592689515000004,-8.2892861345
252,2.0999160000000074,3.9515125749999997,9.3120739475,-141.51135255,2.1317949670000003,0.26195544000000004,8.234816313,-124.4671974,27.47099495,-15.284574984999999
253,2.1082490000000007,2.904437542,9.6698212645,-141.5521202,-2.6546421645000002,1.182089776,12.230458258,-125.9384499,42.310852049999994,-8.088173151
254,2.116581999999994,1.9008495805,9.918645384000001,-141.68292235,0.48472356799999994,-1.5333517195000002,6.921254635,-118.7736931,28.933148385000003,-17.626434324999998
255,2.1249149999999872,0.920900822,10.1603302935,-141.72285465,-1.4083136435,1.1318491695,11.315797329,-117.8380699,28.631331445,-6.201331854
256,2.1332479999999805,-0.0698191675,10.4175362605,-141.88404465000002,-1.034085313,-0.8729684950000001,12.815167429999999,-116.45199585,30.488045695,-20.19908142
257,2.1415809999999738,-1.017694503,10.640203475,-141.9358406,-1.9917873140000002,1.6459843514999999,10.335904123999999,-113.6905403,26.540335655,-6.5967884065
258,2.149913999999967,-2.0218755605,10.873305321,-142.13617705,0.3862485885,-0.8755073250000001,11.600111485,-117.02952195,28.369148255,-23.781962395
259,2.1582469999999603,-2.983796835,11.0720348365,-142.2007141,-1.9512870315000002,-1.676277578,9.115446328,-115.0534973,23.928820615,-7.2021715644999995
260,2.166579999999953,-4.023261905,11.205812932,-142.41819379999998,3.06663388,-0.998942733,5.307228446,-120.73482895000001,17.384150505,-25.523028375000003
261,2.174912999999947,-5.0561754704999995,11.3118119265,-142.5214653,-2.78861773,-1.081295997,12.1428704275,-122.6116562,13.423404692999998,-11.78363657
262,2.18324599999994,-6.149145364500001,11.400335309999999,-142.7243881,0.6709902285,-1.0962901115,12.673457145,-127.4139595,12.712043285,-23.614299775
263,2.1915789999999333,-7.195698738,11.464095115,-142.836647,-3.1526185275,0.601883665,12.95678711,-124.0249214,8.9123358435,-12.80753136
264,2.1999119999999266,-8.2975387575,11.487263200000001,-143.0407867,2.2876006735,-0.0375155435,5.181800008,-128.40631100000002,5.8093969515,-24.26020527
265,2.20824499999992,-9.387745857,11.447869305000001,-143.1575699,-0.602425128,-2.317126274,11.54977894,-129.1515274,-2.7700159550000003,-14.925719735000001
266,2.216577999999913,-10.511407375,11.39186192,-143.33168790000002,-0.5682932734999999,0.966944039,13.929311275,-131.80184935,-3.28113994,-21.980358125000002
267,2.2249109999999064,-11.597376345,11.33109236,-143.441864,-2.197025515,-0.35649837549999996,11.555434224999999,-128.8515663,-4.8973727245,-14.629321099999999
268,2.2332440000000133,-12.690314295,11.202435491,-143.5970993,1.308373511,0.5758476385,5.626681328,-128.63449094999999,-11.451101063500001,-21.723511695
269,2.2415770000000066,-13.769528385000001,11.055678845,-143.69605255,-0.9963190559999999,-1.7302658555,9.446215627499999,-128.3220978,-14.681127075000001,-15.96443081
270,2.24991,-14.881836889999999,10.8482975965,-143.79177855,0.8445339800000001,1.6061924395,11.0667028445,-132.5105362,-21.61511898,-17.319349765
271,2.258242999999993,-15.974704265,10.651437281500002,-143.91182709999998,-2.8332226275,-1.819774747,15.103504655,-129.59672545,-19.2256484,-20.446325299999998
272,2.2665759999999864,-17.026701924999998,10.4118404415,-143.97842405,-1.1951648595,1.5370402335,9.351444245,-125.94839095,-25.561008455,-16.20021391
273,2.27490899999998,-18.08169079,10.215899945,-144.0988159,-0.442924038,-0.227978777,10.0069293955,-125.13414765,-18.346300125,-21.165699005
274,2.283241999999973,-19.101424215,9.895602227,-144.12353515,0.5328322355,1.3013588784999999,9.5545077325,-123.03019714999999,-35.722564695,-15.527840615
275,2.291574999999966,-20.119709014999998,9.6495509155,-144.2090607,-1.2270647879999999,-0.8307398705,12.245249273,-121.58232495,-24.648364065000003,-19.912995340000002
276,2.2999079999999594,-21.050364495,9.330390931499998,-144.2108536,-1.9981992245,2.898654819,8.486273767,-112.83761215000001,-35.998752589999995,-14.1760993
277,2.3082409999999527,-21.955115319999997,9.042248488,-144.27065275,-0.447094947,0.695729107,12.96195316,-108.5634537,-29.81357479,-19.71452236
278,2.316573999999946,-22.763648035000003,8.776283264,-144.24997710000002,-3.6711030009999996,1.5429050325,11.568836211499999,-98.59924316,-30.667274475,-10.384141923000001
279,2.324906999999939,-23.517766950000002,8.485798836,-144.2952194,-0.031193256500000044,3.1000243425000003,8.779279708499999,-90.845657345,-30.177055355,-19.105158805000002
280,2.3332399999999325,-24.20970631,8.2320804595,-144.2639313,-2.1508304475,0.547626525,10.7324810035,-84.714118955,-29.56680775,-9.420836448500001
281,2.3415729999999257,-24.80825615,7.9880902765,-144.29486845,-0.8201319575000001,2.886805415,11.224606991,-72.508136745,-25.36629391,-15.923041820000002
282,2.349905999999919,-25.338134765,7.695533752499999,-144.24844359999997,-1.944783397,1.8924921755000002,7.9421608445,-65.48331451,-34.359151839999996,-10.37909937
283,2.3582389999999123,-25.81833744,7.494690417999999,-144.27066804999998,0.4951437715,1.575377047,9.3354475475,-58.435710905,-20.83217621,-13.258686065
284,2.366571999999905,-26.20531845,7.2003045085,-144.2272873,-2.961832851,1.6989874244999998,11.42651987,-48.278871535,-34.232131005,-11.35638237
285,2.3749050000000125,-26.53962612,6.972920655999999,-144.21347045,0.28398406499999984,1.9915580745,7.225744724,-41.49061203,-25.427364349999998,-11.0822982795
286,2.3832380000000057,-26.832202915,6.7553243635,-144.22413634999998,-3.186547339,-0.3373455705,12.1224770545,-36.12063217,-22.979662894999997,-13.364626885
287,2.391570999999999,-27.049723625,6.5037317275,-144.17410275,0.5351982710000001,2.5172096489999998,9.416193007,-27.98659992,-29.863318445,-8.807923556999999
288,2.3999039999999923,-27.25744057,6.273000002,-144.20464325,-2.856613159,0.352597553,13.15904522,-25.6907177,-23.302726749999998,-16.167948250000002
289,2.408236999999985,-27.395343779999997,6.0723245145,-144.1759491,-1.4570846560000001,1.17290768,9.526124001,-18.124205590000003,-23.211797715,-8.458076477
290,2.416569999999979,-27.507698060000003,5.822330952,-144.17399595,-0.6768009815,1.1686359645,10.561605214,-14.68039751,-27.056746484999998,-13.92142105
291,2.424902999999972,-27.593330379999998,5.631255149999999,-144.14414215,-1.6701592505,0.433652967,12.749560835,-11.84147406,-22.219804760000002,-7.902168989
292,2.4332359999999653,-27.630426405,5.380335808,-144.1343689,-1.947933614,0.8965139690000001,9.256935595,-5.746603012,-27.533549309999998,-13.251400945
293,2.4415689999999586,-27.677733420000003,5.229954004,-144.1011887,-1.565352142,-0.526268579,12.48785019,-7.2295823095000005,-18.06805706,-5.3187723160000004
294,2.449901999999952,-27.686288835,4.9857959745,-144.07125094999998,-1.185104381,0.7676527795,10.253417494,-2.5303298830000003,-27.826482775,-10.9507727635
295,2.458234999999945,-27.692259784999997,4.836594343,-144.04109195,-1.395704597,-0.1762518465,11.057827475,-2.1942696575,-17.76321888,-5.6038582325
296,2.4665679999999384,-27.681952475,4.637105465,-144.01872255,-2.1404197815,0.6755168440000001,9.4114117625,-0.20111662150000004,-22.75275326,-9.082262516
297,2.474900999999932,-27.681726455,4.526433706,-143.98406985000003,-0.962753922,-1.6650760175000001,11.460551735,-1.452359125,-13.937013624999999,-2.9492745400000002
298,2.483233999999925,-27.68994236,4.354698061500001,-143.96325685,-1.9903903905,0.6112793685,11.527435780000001,-2.4172672035,-19.714269635,-7.702036381000001
299,2.491566999999918,-27.69381237,4.2502605915,-143.9454498,-1.5454794765,-1.212174356,9.3064079285,-1.775412619,-12.3389296535,-4.386323571
300,2.4998999999999114,-27.704126355,4.167389989,-143.9387512,-2.7618016005,0.7155471445,12.709129335,-2.5306484105,-9.395943639,-4.4151520725
301,2.5082329999999047,-27.721159935000003,4.0665977,-143.92378235,-0.24128699299999995,-1.4198993445,10.259353635,-3.3217828275,-11.7913241375,-4.4922509195
302,2.516566000000012,-27.72960472,4.0319213865,-143.91576385000002,-3.8819236755000004,-0.13313988599999999,12.106761930000001,-2.3115953205,-4.3491696715,-1.5888640285
303,2.524899000000005,-27.771685599999998,3.9631460905,-143.92269894999998,0.00015041199999998867,-0.650966257,8.125137329,-6.152181387,-7.161420822,-5.0436358455
304,2.533231999999998,-27.800704955,3.9577718969999998,-143.92408755000002,-2.4319787920000002,-0.3599644835,10.256573675,-4.6793112755,-0.7133180944999999,-0.9518122375
305,2.5415649999999914,-27.840823175,3.905303597,-143.92810055,0.5433331130000001,-0.2603513675,10.595757961499999,-5.942285061,-5.589730978,-3.8279963729999995
306,2.5498979999999847,-27.911720275,3.9272152185,-143.92458345,-3.440710306,-1.3298287095,10.7922501545,-9.77960539,1.8126363755,1.280250698
307,2.558230999999978,-27.975831035,3.893060446,-143.9410858,0.47950002550000004,-0.589121208,6.865786791,-8.734070301,-2.9422303535000003,-4.126223087
308,2.566563999999971,-28.06706047,3.9503670935,-143.96298215000002,-4.3248398305,-0.08378348499999999,15.008463379999998,-12.006996156,6.9806752185,0.6032666115
309,2.5748969999999645,-28.158964155,3.9354349375,-143.9790344,0.3230867945,-1.3976814750000002,9.3927721975,-12.08625841,-0.9235024455,-2.9949450495
310,2.5832299999999577,-28.2475729,4.029947996,-144.00984195,-2.7147524955,-0.180917159,9.800076485,-11.595707895,11.414615155,1.7943033575
311,2.591562999999951,-28.3672657,4.0012326245,-144.02711485,0.3988382815,0.3379718955,9.242087839,-15.415008064999999,-2.2981351765,-3.9185045955
312,2.5998959999999443,-28.506652835,4.1048543455,-144.06777190000003,-3.354388356,-2.5678619145,14.368377684999999,-17.60386276,12.919209485,1.341238618
313,2.608228999999937,-28.634861945,4.103087306,-144.06693265,1.104310095,0.5058501215,8.0998113155,-16.591331484999998,-0.48825216250000003,-0.460191891
314,2.6165619999999308,-28.79272461,4.1809942724999996,-144.1141968,-3.6631057265,-1.0667645935,13.815247535000001,-19.796468734999998,10.5802981835,-0.760640606
315,2.624894999999924,-28.936469074999998,4.1828280685,-144.12165835,0.49019368,-0.812301733,6.8691666125,-18.354908945,0.3667128085,-1.1228003205000001
316,2.6332279999999173,-29.099982259999997,4.2647818325,-144.16738125,-2.8740210535,-0.576875359,12.50970745,-20.485955240000003,10.906738995,-0.288141042
317,2.6415609999999106,-29.28290081,4.2456229924999995,-144.16355135,1.597729236,0.0348158495,7.7573149205,-23.143562314999997,-2.4837300774999997,-1.1785756795
318,2.649893999999904,-29.44649029,4.278278589,-144.1885834,-2.2705716495,-1.548981011,11.883099080000001,-20.677241325,4.5361745955,-0.9635310175
319,2.6582270000000108,-29.634305949999998,4.2833912375,-144.18069459999998,-0.25354862200000006,0.123076522,7.193129063,-23.79191017,-0.19362378100000033,0.683311408
320,2.666560000000004,-29.798378945,4.2912364005,-144.19963835,-2.303138137,-0.2103761675,13.648548125000001,-20.79638481,1.5832608940000001,-1.763489604
321,2.6748929999999973,-29.95628643,4.3263896705,-144.20542905000002,-0.9760739354999999,-0.49662422749999996,12.280964375,-20.0828104,3.7164922359999997,1.1036025585
322,2.6832259999999906,-30.070768355,4.314267397,-144.1866608,-2.479018152,0.5014382749999999,10.4353132255,-15.18067646,-2.7518337965,0.9688073995
323,2.691558999999984,-30.199974060000002,4.3797346355,-144.21434019999998,-0.9112661479999999,0.521192908,8.0584213735,-16.45152807,8.165565012,0.6915590465
324,2.699891999999977,-30.29946327,4.345831633,-144.19449615,-1.3930819355,-0.5972301515,11.510160446,-13.38277435,-5.0987577435,-0.22023122
325,2.7082249999999704,-30.38468838,4.4480497835,-144.23454285000003,-2.178204268,0.8691803365,13.0948781945,-11.0635457,12.721313475,1.6610707045000002
326,2.716557999999964,-30.44899273,4.4154446125,-144.20870205,-0.09055548950000003,-0.506879285,7.3713002205,-9.196920394500001,-5.352184534,0.5030892339999999
327,2.724890999999957,-30.499755855,4.540039778,-144.2616196,-2.468634203,-0.8052064480000001,12.5400214175,-6.8360311985,15.792294975,1.7613888979999999
328,2.73322399999995,-30.555071830000003,4.49415195,-144.2403412,0.0912611485,0.5417582985,6.8730175495,-8.05488348,-6.464290261,-0.7680684925000001
329,2.7415569999999434,-30.59414101,4.608139992,-144.29810335000002,-3.3978845475,-0.7662706675,15.07028246,-5.4272346495,14.982281685,0.6578505335
330,2.7498899999999367,-30.630251885,4.6131627559999995,-144.2924652,0.645264074,-1.2742464545,7.4756810665,-5.5779929159999995,-0.2839016915000001,0.7706939575
331,2.75822299999993,-30.641890525,4.6711438895,-144.31482695,-2.59636724,0.893098861,13.046334745,-2.4899728295,7.0488209715,0.8789140579999999
332,2.766555999999923,-30.65792084,4.7240439655,-144.34909820000001,-1.3317904435,-0.7095235285,9.840648413,-2.79416728,7.069375575,-0.36823023899999996
333,2.7748889999999165,-30.64457321,4.7199043035,-144.32205199999999,-0.7348510619999999,-0.006257183999999999,10.9107732755,0.06199284249999999,-2.3953090905,2.1873788235
334,2.7832219999999097,-30.631772995,4.852481484,-144.3904266,-3.3212462664999998,0.33051434150000003,13.717790130000001,0.9379807115000001,17.345003605000002,1.052758157
335,2.791554999999903,-30.61152363,4.840844631,-144.3715286,1.5622141960000002,-1.311487496,5.1753394605,1.0773986949999999,-2.698824881,0.92093426
336,2.79988800000001,-30.56197071,4.9067615275000005,-144.3997421,-3.868305445,-0.22806338,15.587389470000002,4.861300707,8.0104750095,1.1207126085
337,2.808221000000003,-30.532437324999997,4.9701248405,-144.42126465,1.0039051175,-0.9276334045000001,3.4492743015,2.6341809035,7.577324987499999,1.2215301395
338,2.8165539999999964,-30.50397873,4.9581815005,-144.40815735,-1.868374452,-0.805075109,12.9622535685,1.944498308,-2.548392296,0.6222338375
339,2.8248869999999897,-30.468652725,5.044867872999999,-144.45039365,-1.8507444565,-0.4508697239999999,14.364323615,3.440440416,11.237157345,0.530009791
340,2.833219999999983,-30.44131851,5.0581274035,-144.45520779999998,-1.0224387645,-0.2271768935,8.2627854345,2.1059256790000003,1.1460006240000002,0.2976374105
341,2.841552999999976,-30.40891552,5.1032403705,-144.45789335,-2.4634607429999997,-1.415978372,11.5968112945,2.613420546,4.572621464999999,2.0233452915
342,2.849885999999969,-30.373193739999998,5.210977912,-144.5129013,-1.945378497,-0.41998407249999997,10.722797392,3.616922736,13.94784975,0.88082248
343,2.8582189999999628,-30.35538292,5.2234048845,-144.5040512,-0.4263519645,-0.7902418225,11.09777451,0.8160311284999999,0.434731066,1.3171607855
344,2.866551999999956,-30.30142498,5.3184044365,-144.530632,-3.353314042,0.6432596745,14.235317705,5.4343297485,10.940175056000001,2.9882724285
345,2.8748849999999493,-30.233002665,5.442770481,-144.56765745,-1.1818467675,0.0172406145,8.721660852500001,7.4291288855,14.857336045,3.254532695
346,2.8832179999999425,-30.10563755,5.5197563175,-144.56173704999998,-1.040443599,1.844896913,8.414519072500001,13.933672905,7.1128320695,5.2509450915
347,2.891550999999936,-29.89796448,5.671425104000001,-144.59687805,-3.042861819,1.63858521,13.765514849999999,24.049699785,17.59972286,5.026157618
348,2.899883999999929,-29.618260385,5.8040127755,-144.6058273,0.09221874199999999,1.927871883,7.8008084295,32.448842045,13.8125317075,6.9875969885
349,2.9082169999999223,-29.238395695,5.936021328,-144.6092148,-2.6510930655,2.041196108,12.41308737,44.32056427,13.715334894,7.0290079115
350,2.916549999999916,-28.76332188,6.1412053105,-144.62789149999998,-1.4417716265,2.120230198,11.315058229,55.9919548,22.099753380000003,9.9964742665
351,2.924882999999909,-28.190306665,6.242606878,-144.60836790000002,0.45834249250000003,2.0764352085,7.5388936995,67.263534545,9.3539209365,7.3558359145
352,2.933215999999902,-27.544857975,6.4243266585,-144.62570190000002,-2.8216553925000003,1.1997318865,12.41224909,76.37528229,19.744232175,8.378724337
353,2.941549000000009,-26.802437785000002,6.5405759815,-144.61922455,0.42759853600000003,2.4247094395,10.1150236115,87.78996277,11.7978510875,6.614185095
354,2.9498820000000023,-25.975154875,6.669785738,-144.59819794999999,-2.1269050835,0.8285548684999999,12.098925115,97.69904327500001,12.308623315,9.113731861000002
355,2.958214999999996,-25.052558894999997,6.802035093,-144.58460235,-1.4533446429999999,1.396861643,11.773530485,109.27321625,13.388864045,7.8147883415
356,2.966547999999989,-24.060521125,6.919051647,-144.5422516,-0.7560871395000001,2.0800420644999997,7.106288433,117.23470685,10.450038195000001,9.9091744415
357,2.974880999999982,-22.991704939999998,7.026787519499999,-144.51489255,-2.1619346145000002,0.6709504725,13.778045174999999,126.5974846,10.345937012,7.6073770524999995
358,2.9832139999999754,-21.845576285,7.1748933795,-144.47355655,-0.6832181214999999,1.146046996,11.4147768,135.74236295,14.325760364499999,10.810877323500002
359,2.9915469999999686,-20.63140869,7.2457487585,-144.40252685000002,-1.3460924029999999,1.662409127,10.560082435,143.41049195,4.704363823,10.283937932499999
360,2.999879999999962,-19.354597095,7.400972605,-144.35729215,-1.4192183465,0.7963841110000001,11.76223326,151.31073,15.437738894999999,10.914979935
361,3.008212999999955,-18.01828194,7.4174540045,-144.2753372,0.04134175149999997,0.601465091,7.6885242465,157.896904,-1.4110672174999999,9.170129776
362,3.0165459999999484,-16.62718868,7.5176930425,-144.19496155000002,-1.3532098385,1.238851726,13.578392985,164.44405365,8.410527706,12.20159054
363,3.0248789999999417,-15.167778015,7.492077827499999,-144.0918198,1.161076754,1.0246376394999999,7.4548931145,172.3528824,-6.468220845499999,10.182097914
364,3.033211999999935,-13.646706585,7.4827461245,-143.97805019999998,-2.047916174,0.7740868030000001,11.9315109235,179.49414059999998,-4.6957896945,12.40370846
365,3.041544999999928,-12.078295235,7.426290989,-143.8657684,0.6082381605,0.8762290925,10.206359864500001,185.2908554,-9.7350451955,10.710502149
366,3.049877999999921,-10.475277425,7.3428750035,-143.72455595,-0.97861895,-0.350216627,16.5264473,188.98117825,-13.29155302,13.832670215
367,3.0582109999999147,-8.8320441245,7.2086560725,-143.59049985000001,-0.129353881,0.45526303349999997,7.0589339735,193.98670195,-18.71789026,12.16526842
368,3.066543999999908,-7.170143366,7.0700383185,-143.43751525,-1.2385080455,-0.26675862100000003,11.525298832,195.95770265,-19.19495773,14.94748783
369,3.0748769999999013,-5.5178630349999995,6.906495571,-143.3078232,-1.3486921195,-0.946616888,14.75401163,195.20417025,-21.394933700000003,12.31541681
370,3.083210000000008,-3.859344363,6.7358367445,-143.1590042,-0.543024144,-1.769319117,9.718219278,195.7410049,-22.057149889999998,15.126276015000002
371,3.091543000000001,-2.241982102,6.524585724,-143.0312347,-0.6197142525,-1.1669802070000002,9.56370497,191.13109585,-26.327350619999997,12.98825884
372,3.0998759999999947,-0.632833451,6.2929258345,-142.90984345,-0.9065221395,-1.3807802200000001,10.138498784,190.31386565,-28.36850643,12.83677006
373,3.108208999999988,0.9654524329999999,6.070686102,-142.8040657,-0.931467712,-1.600241065,11.837066648,189.2597885,-26.855890275,11.791811945
374,3.1165419999999813,2.4913300275,5.839047432,-142.6958656,-1.610712886,-2.42115134,12.88418293,180.59668729999999,-27.632946015,12.798844339999999
375,3.1248749999999745,3.9935908314999997,5.5518960955,-142.63247295,0.278817743,-1.429682434,9.840617655500001,178.32024385,-34.21784592,8.6035671235
376,3.133207999999968,5.4788796904999995,5.3329247235,-142.5631981,-3.3574537035,-2.050986886,15.126413825,176.29668425,-25.763475415000002,9.4925627695
377,3.141540999999961,6.873126268,5.0584001545,-142.50237655,1.6187974515,-2.093390286,9.189778805,165.4596863,-32.23616791,9.8506059645
378,3.1498739999999543,8.222184181,4.743668318,-142.4640045,-2.506175935,-2.8667325975,12.323444365,160.3387833,-37.11296462999999,8.6268429755
379,3.158206999999948,9.547912598,4.4844760895,-142.41671755,0.050381361999999985,-3.2188765999999998,8.1501972695,157.4484329,-30.137555120000002,9.4982495285
380,3.166539999999941,10.80807924,4.1063820125,-142.43338395,0.064493403,-1.552301824,7.825753214000001,150.15306855,-45.23307991,5.549002886
381,3.174872999999934,11.969398975,3.826043606,-142.42746355,-2.0330094695,-2.6332172155,17.14663315,138.14923095,-33.136131285000005,6.461543798499999
382,3.183205999999928,13.05018187,3.4769408105,-142.45354079999998,0.823829163,-2.8821225165,11.603428365,128.6618042,-41.79677391,5.513700247
383,3.1915389999999206,14.060956,3.122841835,-142.4876976,-1.664628625,-3.515993357,11.10292864,120.3631859,-42.58006096,5.1039466860000005
384,3.199871999999914,15.010642050000001,2.756172538,-142.5379257,-1.8663775325,-2.627150178,10.0492465515,113.0764313,-44.325031280000005,4.718581438
385,3.208204999999907,15.912033555,2.422373474,-142.59441755,-0.38727053999999994,-2.592552304,11.980178835,107.28315355000001,-40.734495165,3.27673316
386,3.216538000000014,16.73615551,2.0159840585,-142.6760864,-1.4448829145,-3.3238557574999996,9.4985756875,98.07290268,-49.77601433,3.8075262309999998
387,3.224871000000008,17.492752075,1.7223054315000002,-142.7288208,-1.306151524,-1.6562594174999998,14.862449645,89.844329835,-35.863918305,3.499669671
388,3.2332040000000006,18.169262885000002,1.330486119,-142.83032225,-0.4489885275,-3.5523126124999997,5.0607914925,80.24959564,-48.711034775,2.291807115
389,3.241536999999994,18.756198885,0.991463095,-142.90424345,-1.3271515965,-2.4264142509999997,16.04547453,69.47186661,-41.728090285,3.649543881
390,3.249869999999987,19.30624676,0.687918842,-142.98828885,-3.468776345,-2.966616511,7.888246775000001,64.95126342500001,-37.94609833,1.8400785325
391,3.2582029999999804,19.771755215,0.36126506299999994,-143.05381775,2.3965895770000003,-2.2185962200000002,8.777397155500001,54.705442425,-39.908321385,4.866858721
392,3.2665359999999737,20.188558575000002,0.08812081799999993,-143.15506745,-6.641498327,-3.165166855,12.886107925000001,48.923414230000006,-35.17794037,-0.7099393159999999
393,3.274868999999967,20.53015423,-0.16169255999999999,-143.19071200000002,2.7982896565,-1.0169866685,12.29637432,39.767194745,-29.928809165,5.6079609395
394,3.28320199999996,20.81946373,-0.3765580654999999,-143.27249145000002,-5.6128525735,-4.2009243965,7.661655425499999,33.491540905,-27.81047535,-0.574829139
395,3.291534999999953,21.048757555,-0.6165350675,-143.29924775,1.9336565135,-0.9280899015,8.9483268255,26.270320894999998,-28.375377655,6.502239466
396,3.2998679999999467,21.231569295,-0.7292025389999999,-143.34781644999998,-6.242343664,-1.9310735465,12.120879169999998,20.723611830000003,-14.935943605,-1.055351844
397,3.30820099999994,21.414440155,-0.8916102644999999,-143.3287048,2.4520837365,-1.7265120745,6.976615667,20.754954339999998,-17.63285732,8.4894025325
398,3.3165339999999333,21.53069878,-1.0084174275,-143.36986545000002,-4.5052330495,-1.8986876014999998,10.1006488805,12.679389,-15.075191975,0.035475738500000006
399,3.3248669999999265,21.586234089999998,-1.1138308945,-143.3334198,1.778832972,-1.580462635,13.246119975,5.5750221015,-10.4444804215,8.059346913999999
400,3.33319999999992,21.66675854,-1.1581611485,-143.33389285,-6.75951457,-2.1350685955,11.92931509,8.5258455275,-5.192575574,1.4099933505
401,3.341532999999913,21.705721855,-1.275823548,-143.2987442,5.295337915499999,0.6943248955,8.6933095455,3.5361165999999997,-11.889778135499999,8.3701257705
402,3.3498659999999063,21.7045784,-1.282176852,-143.3039398,-6.3461456300000005,-3.2495472430000003,8.0707626345,-1.3217520120000001,-1.1638851465,-0.7964937985
403,3.3581990000000133,21.72181702,-1.3981370924999998,-143.2566376,3.1043158770000003,-0.017735734499999996,9.5230648525,1.0139845755,-11.149949549999999,9.6793589575
404,3.3665320000000065,21.70164394,-1.399937488,-143.2674484,-6.069568157,-0.7431820335,13.1522383695,-3.6079633835,-0.9069295825,-1.6228988765
405,3.374865,21.681406975,-1.4212327525,-143.19062805,2.4724572895,-1.4624242189999999,11.4367694865,-3.370610118,0.71287632,8.773997783999999
406,3.383197999999993,21.702598575000003,-1.4392410594999998,-143.2054062,-5.275173902500001,-0.27424591800000003,10.031829836,1.3357951829999999,-2.8899068835,-1.3456887005
407,3.3915309999999863,21.666760445,-1.5077856255,-143.13337710000002,4.7979006765,0.3244070855,8.701808453,-5.2951482535,-4.7594012615,10.356868265
408,3.39986399999998,21.630425455,-1.4742146434999999,-143.14989475,-6.0156641005,-2.479453802,11.86513853,-5.569847584,2.7866944074999997,-3.825940728
409,3.408196999999973,21.593165395,-1.5903607775,-143.08052825,4.012392521000001,-0.6273779575,7.928533078499999,-5.4242310525,-10.1977519975,12.173621175000001
410,3.416529999999966,21.51079941,-1.5588863195,-143.11421965,-5.1995851994999995,-0.4370848575,14.906826975,-11.165623189000002,1.8025955555,-5.641977787
411,3.42486299999996,21.452106475,-1.6155782845,-143.0280609,1.082933545,-1.9409561155000001,8.6278643605,-7.8891217705,-2.8224588035,11.488511084999999
412,3.4331959999999526,21.40937805,-1.629867843,-143.06922915,-3.8468809125,0.546949476,10.4686501045,-6.439016342,-3.6262782810000003,-4.464632511
413,3.441528999999946,21.325463295,-1.6454841759999999,-142.96972655,0.30374413749999996,-1.183115542,11.417108061,-10.875685215,2.3191325065,11.15429115
414,3.449861999999939,21.295490264999998,-1.6179160885,-142.9916306,-3.5051315425,0.25369605450000005,7.7556710245,-4.836505175,1.898783103,-4.1454328295
415,3.4581949999999324,21.257980345,-1.652909478,-142.90591435,-0.2411214115,-1.0549679995,10.2514924985,-5.338416815,-0.45568367849999997,10.4926800725
416,3.4665279999999257,21.200274465,-1.5741171704999999,-142.88023379999998,-1.2795505525000002,0.8864147665,10.018134118,-8.0551207065,9.700682163,-1.0505553189999999
417,3.474860999999919,21.188336375,-1.52197453,-142.8136139,-3.1778234245,-0.942036226,11.034440995,-2.314361453,8.4663243295,4.6208212374999995
418,3.483193999999912,21.17405796,-1.4250927345000002,-142.75714490000001,0.7956204414999999,1.6323795915000001,10.352885244,-2.7678682805,13.058709143,1.614926534
419,3.491526999999905,21.161622045,-1.2845055015,-142.6898346,-3.8053324225000003,-2.426237464,11.704284667,-2.4070153235,18.37954521,0.8395452495
420,3.4998600000000124,21.200346945,-1.115852356,-142.6098099,-0.8763855694999999,0.884282887,10.456093789499999,3.6751637455,22.10878658,1.143189289
421,3.5081930000000057,21.2619915,-0.9793877900000001,-142.5731964,-1.8429047164999999,-1.37238121,8.349910736,6.3389678,16.560036185,-2.5008912685
422,3.516525999999999,21.342829705,-0.7623758020000001,-142.46668625,-1.6017990709999999,0.342313636,10.6292238245,8.7385401725,28.67239952,1.946728289
423,3.524858999999992,21.424222945,-0.6000651120000001,-142.44550705,-0.889088929,0.613520294,9.059617757,8.6287536615,18.772969245,-5.3929319385
424,3.533191999999985,21.48934364,-0.321035862,-142.30670924999998,-1.8095292820000002,-0.1786015775,12.379409315,6.783586502,37.020908355,2.748353481
425,3.5415249999999787,21.564732550000002,-0.10726380349999998,-142.243885,-0.3787721395,-0.742816612,10.457410334999999,7.946521282,26.33478737,-3.0614346265
426,3.549857999999972,21.641519545,0.15339535450000008,-142.12251285,-1.4607014615,-0.9351596835,11.803139686,8.0432429315,34.21072388,1.5236836075
427,3.558190999999965,21.76712513,0.38883382050000004,-142.0641632,-1.768520415,-1.7547041179999998,9.1101782305,13.94338179,28.5422163,-4.603810072
428,3.5665239999999585,21.90415955,0.6103220585,-141.9467087,0.34766790249999996,1.1083368955,8.874332907,15.136421205,29.678471565,2.6884793045000004
429,3.574856999999952,22.01817417,0.8706259725000001,-141.8914337,-2.0528037545,0.168086879,13.367362499999999,12.4786725025,31.15812683,-6.183250427000001
430,3.583189999999945,22.10041618,1.1010670660000001,-141.76854705,0.27191632999999993,-1.0498435050000001,11.941020009999999,8.458474877,30.93108177,2.7781928775
431,3.5915229999999383,22.21718502,1.3556569665,-141.72759630000002,-3.2761399745000004,-0.583274275,13.228231428499999,12.812207220000001,29.853922845,-7.622681378999999
432,3.599855999999932,22.376542094999998,1.5258952005,-141.626194,1.088277131,-0.764564574,7.6369781495,17.656923295,23.27953529,2.9993330240000002
433,3.608188999999925,22.521132469999998,1.7563218775,-141.58688355,-1.6570152194999999,0.190581679,11.6536002175,16.06882763,27.064258575,-6.8548293115
434,3.616521999999918,22.636960985,1.896662928,-141.51111225,1.4512455465,-0.0021390915000000232,8.7948894525,12.466088294999999,18.80455208,1.4239791035
435,3.6248549999999113,22.738884925,2.1047352705,-141.46897504999998,-3.053968668,-1.5564618110000001,14.884675505,10.9596138,24.693784715,-5.610795498
436,3.6331879999999046,22.86711502,2.1830624044999998,-141.4134903,1.7324181495,-2.38641417,7.602229357000001,13.98089552,11.008322952,1.9867172245
437,3.641521000000012,22.961452485,2.345100522,-141.3872566,-2.8620360495000003,0.3408685385,12.120421409,10.0948879725,18.842473984999998,-5.3178181645
438,3.649854000000005,22.96975708,2.436672717,-141.33586505,1.907313526,-2.0263510345,7.261610508,-0.432214856,12.286709071,0.8804702085
439,3.658186999999998,22.974801065,2.5263419750000002,-141.3324509,-2.3424096705,-1.3932673334999999,14.099783895,-0.5025642215,9.7710058685,-4.473853111
440,3.6665199999999913,22.986787794999998,2.57850644,-141.29046635,1.1092065125,-1.580795288,7.770719528000001,0.05189445599999998,7.492439626,1.6829514205
441,3.6748529999999846,22.96286392,2.6413270234999997,-141.28541565,-2.098889932,0.2593161725,12.796943665499999,-4.001769543,6.955514074,-2.8644207715
442,3.683185999999978,22.884160039999998,2.697898984,-141.28078465,0.45321913049999996,-2.7762086395,9.486454009,-10.625318051,6.234628141,-2.635212183
443,3.691518999999971,22.822100640000002,2.709688723,-141.2837677,-2.980423212,0.3554866995,14.14757776,-8.5001559265,0.8667347429999999,-1.5333515405
444,3.699851999999965,22.733221055,2.7891393305000003,-141.28562925,0.48807744649999996,-1.8667306305000002,7.128962755,-11.830866815,8.4699967515,-4.4026341435
445,3.7081849999999577,22.601052285,2.7525209784999998,-141.31641005,-0.7483990195,-0.9366203545,12.875350715,-16.790553095,-5.719514431,-2.241406441
446,3.716517999999951,22.412036895,2.8758147359999997,-141.31226345,-1.9951672555,-1.7669022675000001,13.739970445500001,-23.81499767,13.626020435000001,-5.700983286
447,3.724850999999944,22.225827215000002,2.818610549,-141.3504181,-0.3275747985,-1.198789358,6.3940112595,-23.258706089999997,-8.381014347499999,-2.2833757400000003
448,3.7331839999999374,22.010499955,2.9580923915,-141.3534813,-3.7451570035,-1.729957968,15.85714054,-26.89847183,15.135189534999999,-7.133551359
449,3.7415169999999303,21.702089309999998,2.9222989674999997,-141.37278750000002,2.5214300155,-2.127218008,6.058885336,-38.079540255,-5.153386054,-1.24678731
450,3.749849999999924,21.342165944999998,3.0168685914999998,-141.40979385,-3.495170355,-3.2166093585,10.998022554999999,-44.01351547,8.699936745999999,-8.771502018
451,3.758182999999917,20.905727385,3.0287932155,-141.42076875,0.300998956,-2.5372586249999998,6.855206728,-53.488456725,0.5602631570000001,-2.4340308905
452,3.7665159999999114,20.40407753,3.0997536180000003,-141.46299745,-3.2591078280000003,-1.296030402,17.43234873,-60.96249771,5.953369379,-8.2219483855
453,3.774848999999904,19.818730350000003,3.224068582,-141.44739915,-0.7453723475,-2.8069543835,7.7779572025,-71.53001785000001,14.3366339195,-4.1103298665
454,3.7831820000000103,19.156929015000003,3.2280178665,-141.50101469999998,-0.7022337915,-2.03080374,11.896037101000001,-80.13018036,-1.9272520539999998,-6.703071594000001
455,3.791515000000004,18.43385792,3.4251596335,-141.4930725,-2.4378713220000003,-3.637168765,12.095713137499999,-87.950271605,22.375779155,-7.510014057499999
456,3.799847999999997,17.66291332,3.4082694055,-141.5433273,-0.22958409800000013,-0.824736625,6.9673884205,-93.271896365,-4.0250200035,-5.5890495775
457,3.8081809999999914,16.820822715,3.6649613380000003,-141.51433945,-3.7320015435,-1.4930226805,16.13633537,-102.33837510000001,30.12817097,-6.610223532
458,3.816513999999984,15.892106055,3.6552658080000002,-141.5739746,3.415831566,-3.187135458,3.357490778,-112.19860075,-3.3622016895000004,-7.026748896
459,3.824846999999977,14.927793505,3.8437844515,-141.56498720000002,-5.350032329499999,-1.070741624,15.605914595000002,-116.78683855,21.776421309,-5.8027029035
460,3.8331799999999694,13.90648508,3.9498924014999997,-141.603405,2.01872164,-1.37370801,3.3831973074999997,-123.44750214999999,10.9513125035,-8.126488924
461,3.841512999999964,12.878485675,4.077659130000001,-141.61737060000002,-3.811976671,-1.2859693765,16.563815595,-124.27262114999999,14.211262941,-6.05085206
462,3.849845999999957,11.77358389,4.2372293469999995,-141.61734389999998,1.8091201785,-0.397358626,7.1217075585,-133.77301025,18.473739145,-4.584420323
463,3.85817899999995,10.658198355,4.307161331,-141.67323299999998,-4.076870084,-1.3600437045,15.415424345,-134.3960419,6.628880263,-9.060727596500001
464,3.8665119999999433,9.543791293999998,4.5381186005,-141.66859055,-0.783223331,-0.7550400795000001,8.920176029,-134.87525175,27.068261145,-5.2650744915
465,3.8748449999999366,8.412858963,4.673836589,-141.7171631,-0.8365680275,0.461603455,7.533657550999999,-136.334816,14.88524246,-9.1969180105
466,3.88317799999993,7.2661089895,4.8299337625,-141.73333739999998,0.09125602999999999,-0.05003516400000002,9.5741746415,-138.54107670000002,17.995301725,-5.4343008995
467,3.891510999999923,6.1297318935,4.9841911795,-141.79161835000002,-1.8596132994999999,-1.7302632930000001,9.324220657000001,-136.86649325,17.299038885,-9.970130918
468,3.899843999999917,5.0295910835,5.1696041825000005,-141.81743245,-2.6060065029999997,2.190159619,11.3298218265,-132.82395935,21.563677785,-6.2081496715
469,3.9081769999999096,3.914413452,5.4049230815,-141.89543155,-0.4887618575,0.26944801949999997,12.74198246,-134.04824065000003,27.17059231,-12.360989575
470,3.916509999999903,2.8667736055,5.558326721,-141.9203377,-1.0671393425,-0.3062256275,7.920789242,-126.5207901,17.937582015,-5.0404870509999995
471,3.92484300000001,1.7937693000000001,5.7565600875000005,-142.00400545,0.84083502,1.1030535695,8.263991832999999,-128.8783646,23.12088013,-11.814455985
472,3.933176000000003,0.74946779,5.9122810365,-142.05332945,-2.8213108775,0.09970165800000001,13.311443805,-125.7907829,18.3086462,-7.236528635
473,3.941508999999997,-0.26355604850000003,6.081257343000001,-142.13612365,0.9950126705,-0.025148689500000015,10.66947985,-121.6254959,20.007927895,-10.77638054
474,3.9498419999999896,-1.268156767,6.2469620705,-142.17500305,-1.945536792,0.450558636,8.918539764,-121.1326637,19.717568395,-5.258000135
475,3.958174999999983,-2.2761673925,6.294452429,-142.27467725,3.177882552,0.5170113595,4.8695943355,-120.78014755000001,5.848069011,-12.52891111
476,3.966507999999976,-3.2768845555,6.397002459,-142.330719,-3.156129062,-2.1235616205,14.120792865,-120.42056654999999,12.401154281,-6.915785074
477,3.9748409999999694,-4.294831276,6.412309885,-142.41132735,1.1337653845,0.8833160995,10.617821692,-122.19353865,2.26373294,-10.301176546
478,3.9831739999999622,-5.3136680125,6.4752290245,-142.47901535,-1.1748968065,-0.2722212745,10.779187203,-122.4565048,7.981214045,-8.0506930355
479,3.991506999999956,-6.357407093,6.3758881095,-142.55400085,1.814876258,-0.6235972865,6.9078850745,-125.3581848,-11.1442885405,-10.911260126
480,3.999839999999949,-7.408454895,6.378829479,-142.6398926,-4.0206274985,-0.531079173,18.161848065,-126.12155535,1.344061377,-10.58955574
481,4.008172999999943,-8.4545731545,6.3125422,-142.710392,2.7021425960000003,0.12316107750000002,4.593231559,-125.704319,-6.897649544,-10.241233824999998
482,4.016505999999936,-9.484333992,6.1982853415,-142.78484344999998,-2.2287222745,-0.45686955000000007,10.209482669500002,-123.78042605,-12.432662486,-11.124576095
483,4.024838999999929,-10.53656006,6.096702576,-142.8524628,1.106126666,1.1879528165,7.913820267,-126.50754925,-10.784598947500001,-10.7875833515
484,4.033171999999922,-11.57580948,5.957837582,-142.9333153,-3.7157755495,-1.0245125295,14.546829698,-124.9007454,-14.8023920045,-12.811659339999999
485,4.041504999999916,-12.60594511,5.879815817,-142.9955139,1.0567985175,0.6499839875,8.2131879325,-123.95401385,-7.790438684,-9.872034073
486,4.049837999999909,-13.614878655,5.678968191,-143.05956265,-1.8032826485,0.5037276595,13.740949149999999,-121.51822659999999,-22.064805985,-12.995577335
487,4.058170999999902,-14.63696337,5.5664179325,-143.10216524999998,0.9564397930000001,-0.8499190809999999,5.8650113049999995,-123.26640705,-12.0476985,-8.8533923625
488,4.066504000000009,-15.639559264999999,5.329997301000001,-143.14541624999998,-2.2179716230000004,0.3945790735,13.3259079475,-121.00761795,-26.26342678,-12.902918334999999
489,4.074837000000002,-16.64507103,5.2226547005,-143.1933899,-0.1914173965,0.7333617210000001,15.961323735,-121.25781635,-10.9856748555,-9.6429576855
490,4.083169999999996,-17.59362316,4.963245988000001,-143.20195009999998,-1.968113959,0.5725530240000001,7.254208565500001,-114.90294265,-29.67529011,-10.647939685
491,4.091502999999989,-18.553602220000002,4.8493250605,-143.23013305,0.433922589,0.6810762585000001,9.133663414499999,-116.05401995,-12.177622316499999,-7.929590225
492,4.099835999999982,-19.464693070000003,4.563290119,-143.2357483,-0.17733705050000004,0.11819338799999995,6.9020302295,-110.44207,-32.45937729,-12.32050991
493,4.108168999999975,-20.361929895,4.413144111499999,-143.24263765,-1.4475222675,0.21376369550000002,13.274457455,-108.76272585,-16.905378345,-7.3436739445
494,4.116501999999969,-21.20021725,4.1489053965,-143.23890690000002,-1.1574819385,1.4712261555000001,11.4065275215,-101.80200195,-30.02940369,-11.338568685
495,4.124834999999962,-22.02380085,3.998993158,-143.23764035,-1.68200019,0.32367294500000005,10.6604824045,-100.01056668999999,-17.04411602,-6.881832123000001
496,4.133167999999955,-22.77311039,3.8044803145,-143.2398453,-2.233270407,2.10555768,9.921419143,-91.081832885,-21.704937935,-9.643943785
497,4.141500999999948,-23.499393465,3.645102978,-143.22099305,-0.17332685,1.963787258,12.760533330000001,-88.44938278000001,-18.742063520000002,-5.8314619059999995
498,4.149833999999942,-24.131345745,3.50678432,-143.21899415000001,-3.047443509,1.2532790305,10.9578537965,-77.04119109999999,-15.505744455000002,-6.990117788499999
499,4.158166999999935,-24.71138573,3.3521112205000003,-143.19052125000002,-0.0028221310000000055,2.151372671,6.280668497500001,-70.95634079,-18.58528423,-4.9580106735000005
500,4.166499999999928,-25.229575155,3.293966651,-143.2127762,-3.1768994925,1.3694618345,13.5402627,-63.217113495,-5.4238716364999995,-5.869355917
501,4.174832999999921,-25.670956609999998,3.142314732,-143.16900635000002,1.032041371,1.8107867835,8.7020840645,-54.40639305,-18.943702700000003,-3.51560235
502,4.183165999999915,-26.06548977,3.116238773,-143.1917038,-3.573238194,1.7167102695,11.604224204000001,-48.388229370000005,-1.852232978,-4.3181205985
503,4.191498999999908,-26.377289775,3.009510279,-143.169487,-0.12004470850000004,1.1502519845,7.8655068875000005,-38.715139385,-12.94341612,-3.6645566225
504,4.199831999999901,-26.650581359999997,3.008435071,-143.18415835,-2.513846189,1.151525259,13.467241285,-33.885679245,0.44534234699999997,-2.1380479335
505,4.208165000000008,-26.854187009999997,2.9384176135,-143.1703491,-0.292239994,0.7337003945,10.485797405,-25.69011879,-8.523974419,-2.7015988825
506,4.216498000000001,-27.035098075,2.9303759335,-143.18219755,-1.6416139305000002,1.3879323005000002,9.7566561715,-22.81076813,-0.44027704000000006,-2.213340044
507,4.224830999999995,-27.16050911,2.8856096865,-143.1893158,-1.685168609,-0.10537272699999999,11.3383345605,-16.184331415,-4.662163376500001,-3.6215206380000002
508,4.233163999999988,-27.273049354999998,2.905424178,-143.2011566,-0.9740604165000001,0.926215768,11.597672463999999,-14.58725834,2.5371035859999997,-0.6837465165000001
509,4.241496999999981,-27.34608078,2.859825969,-143.19897459999999,-1.4833690525,-0.2423052045,10.257861614,-9.982727052,-5.2506626845,-2.688457489
510,4.249829999999975,-27.419840815,2.9022976755,-143.221817,-0.8392134905,0.42093321699999997,9.369351146,-9.861032962500001,5.559224248,-0.5992194715
511,4.258162999999968,-27.47346783,2.8396095635,-143.22175595,-0.915003687,0.24090755749999998,11.551466463,-7.6298666,-6.9515116215,-3.866866231
512,4.266495999999961,-27.510743140000002,2.9258503915,-143.2534866,-2.758078039,-0.2516007795,11.633989812,-5.464042187,10.586403845,1.131765157
513,4.274828999999954,-27.545233725000003,2.8762543204999997,-143.2529907,0.8798224139999999,-0.6221250595,6.861326933,-5.300956249,-5.5612607,-3.1425467730000003
514,4.283161999999948,-27.563218115,2.9375246165,-143.2689972,-1.992425859,0.365605593,11.73908424,-3.2980507610000003,7.0601416835,1.432668328
515,4.291494999999941,-27.601113320000003,2.9258387089999998,-143.2965622,-0.220171191,-0.6567501725,9.1510946775,-5.507470608,0.024366140000000147,-4.016440153
516,4.299827999999934,-27.62364769,2.9385827780000002,-143.28230285,-2.440851152,-0.29839628900000004,14.114345075500001,-4.0295677185,0.3376660345000002,1.724222362
517,4.308160999999927,-27.658408165,3.0081856845,-143.34297945,-1.6457365045,-0.4079780055,11.8056392675,-4.9721844195,10.5089712125,-2.9950984715
518,4.316493999999921,-27.69451904,2.9966419935,-143.314415,0.41484713549999996,-1.3456190229999998,7.1429162025,-5.6839654445,-3.164613515,2.1104850175
519,4.324826999999914,-27.722157475000003,3.0470936895,-143.35982515,-3.183835268,0.4839794265,15.25078964,-4.286350012,7.635374305999999,-2.4371434450000002
520,4.333159999999907,-27.778252600000002,3.0826919079999997,-143.36637115,0.734455891,-0.9875999095000001,5.273976922,-7.796090841,3.7884948254999995,1.022699535
521,4.341493000000014,-27.846346855,3.0638018845,-143.363678,-1.762865424,-0.9287598435,14.707892415,-9.4799847605,-2.4183628560000003,-1.1876041295
522,4.349826000000007,-27.92810249,3.1718174815,-143.41098019999998,-1.2137015015000001,-1.144261539,11.115121604999999,-10.6448559765,13.8792691215,0.5435149635
523,4.358159000000001,-28.03468704,3.13999182,-143.39395904999998,0.04464590549999997,-0.11319600799999999,9.1982588765,-14.084336279999999,-4.5994858144999995,-0.409719102
524,4.366491999999994,-28.133547784999998,3.204637647,-143.4197769,-2.8953301905,-1.775159538,13.862852095000001,-12.951456069999999,7.9411965605,0.6717462759999999
525,4.374824999999987,-28.24968338,3.2572878005,-143.4398117,-0.3843726514999999,-0.3145743905,7.741050002500001,-14.972177505000001,6.4286873345,0.4568363985
526,4.38315799999998,-28.377152445,3.256504893,-143.4465561,-0.5770983995000001,-0.9239693579999999,10.6912174245,-16.456279755,-0.0740827875,-0.9868527055
527,4.391490999999974,-28.496100425,3.3123830555,-143.46161655,-2.111282617,-0.11344353100000001,15.419363975,-15.42423058,6.4768173675,1.211553693
528,4.399823999999967,-28.630101205000003,3.363684535,-143.49832155000001,-0.6908655615,-0.7588513044999999,6.515367508000001,-16.96502876,7.137447117,-1.1690212785
529,4.40815699999996,-28.767011645,3.362376213,-143.4705429,-0.21938362700000003,-0.3944882335,9.0574147685,-17.863604549999998,-1.99534297,2.4106974599999997
530,4.416489999999953,-28.902116775000003,3.4450412989999997,-143.52628325,-1.972854227,-1.0634084344999999,12.24839735,-17.04071903,11.52853537,-1.290548027
531,4.424822999999947,-29.054182055,3.443325758,-143.4998703,0.655622393,-0.5714654475,8.584160328,-19.60726738,-1.9986222984999997,2.271214843
532,4.43315599999994,-29.184900284999998,3.466318369,-143.52856444999998,-3.0015310645,0.274147685,15.51499987,-16.760318755,3.7039417030000004,-1.8837736845
533,4.441488999999933,-29.29552841,3.550005913,-143.5436325,-1.3685158785,-0.355495505,10.4609742155,-14.356360435,9.3473920805,2.955384135
534,4.4498219999999264,-29.402428625,3.5659029479999997,-143.56554415,-0.901062131,0.287295088,8.3543293475,-13.873452665,2.541726768,-1.539531052
535,4.45815499999992,-29.487131115,3.6144311425,-143.5514221,-1.1757820845,0.075076388,11.987909792,-11.526599885,3.940724641,3.9700789455
536,4.466487999999913,-29.560386655000002,3.687635541,-143.60836795,-0.9964941445,-0.102386631,10.7655746925,-9.554264545,10.581370832,-1.7690346840000002
537,4.474820999999906,-29.63097763,3.68761456,-143.5707855,-0.07366263900000003,-0.462020546,8.337309122,-9.953577516,-2.514152914,3.519780755
538,4.483154000000013,-29.690665244999998,3.7601245645,-143.6229477,-2.324792981,-0.7811977265,16.14943552,-8.072621584,10.219056009,-1.2571851615
539,4.4914870000000064,-29.738230705,3.8162674904999996,-143.63729855,-0.25751134800000003,-0.2751880585,8.159443853,-6.7365829945,6.3584459405,1.5441671015000002
540,4.49982,-29.780741695,3.808541775,-143.64226535,-1.3827076855,0.13720543649999997,9.802623985,-6.339638948499999,-0.945236087,-1.1134509145
541,4.508152999999993,-29.79765987,3.8909838199999998,-143.67251585,-1.866814375,-1.3587460515,11.929758069999998,-3.0191886424999996,10.054600714,1.455695629
542,4.516485999999986,-29.820280075,3.925801635,-143.6942444,-0.30139666749999994,0.7129947244999999,9.909227369,-3.773348689,4.4377565385,-0.24453264449999998
543,4.52481899999998,-29.841014865,3.952979326,-143.71083065,-0.6838401275,-1.4135791064999998,11.10505056,-3.556241989,3.5151569845,-0.47009165199999997
544,4.533151999999973,-29.84476471,3.97023201,-143.72103885,-0.8308097275,-0.034089417999999996,12.673486234999999,-1.650504559,1.9190120395,-0.08093456900000001
545,4.541484999999966,-29.85658264,4.0241361855,-143.7669449,-1.6883286835,-0.625672251,9.0205507265,-2.2279902695,8.014770985,-1.8699416515
546,4.549817999999959,-29.879384995,4.017259121,-143.75228885,0.5535458625,-1.7152709365,7.08415699,-4.1049631835,-2.1154922845,1.1239910725
547,4.5581509999999525,-29.89280987,4.035635233,-143.77349855,-1.750261128,-0.6301250605000001,12.0841727245,-2.6928308385,2.8538738025,-1.4308496119999998
548,4.566483999999946,-29.911737445,4.05363071,-143.77384949999998,-0.7028260235,0.218807906,12.5294795,-3.5382099150000004,1.3416096565,1.0999009905
549,4.574816999999939,-29.931070325,4.0618053675,-143.79494475,-1.4957926275,-1.5697115065,11.195120335,-3.3526085615000003,1.7679905740000001,-2.002456844
550,4.583149999999932,-29.943870545,4.052240491,-143.77891540000002,-0.655264802,-0.42419934249999997,10.632463932,-2.9524629115,-2.513204753,1.1674456000000002
551,4.591482999999926,-29.966171265,4.0882416965,-143.8050385,-2.2435998919999998,0.1253891105,13.20455265,-3.7089666125000003,4.987462759,-0.892348677
552,4.599815999999919,-29.99247837,4.102363467,-143.80467225,0.030216604499999966,-1.7505308985,7.735456944499999,-4.3894217015,0.894916415,0.9354574680000001
553,4.608148999999912,-30.00860214,4.1003414395,-143.80039215,-1.3713911175,-0.21495626150000002,10.536574364,-3.205454886,-0.779697299,-0.028502248000000008
554,4.616481999999905,-30.02291298,4.1306785345,-143.7933731,-1.3239892125,-0.1491501425,11.237296579999999,-3.071466923,2.1837416215,2.602931261
555,4.624815000000012,-30.02199173,4.1926590205,-143.82154079999998,-1.7651761174999998,-0.5552158505,11.88563013,-0.8828395310000001,7.7738821505,0.5222102104999999
556,4.633148000000006,-30.00478077,4.199570179,-143.80213924999998,-0.057657450499999985,0.016740619999999984,9.451538562500001,0.6575494854999999,-0.9954268929999999,2.4796373845
557,4.641480999999999,-29.95081139,4.247770548,-143.80638125000002,-3.2983180284999998,1.326273799,14.359284875,5.2168133255,4.949343417,2.1090763805
558,4.649813999999992,-29.863636014999997,4.337936997,-143.82887265,-0.30253717300000005,-0.550841745,8.2656779285,9.4422278385,10.1555457115,3.1386535165
559,4.658146999999985,-29.73615265,4.371799946,-143.81806945,-1.093596309,1.2234821315,8.1597089765,13.95982361,2.5919815305,2.7545677425
560,4.666479999999979,-29.554656025,4.4492613075000005,-143.83215335,-0.6969006955,0.5957694055,10.129267214999999,20.625168799999997,8.369224548,3.1853494645
561,4.674812999999972,-29.32901764,4.515476227,-143.8340988,-1.001417659,0.08207103599999999,9.453701733499999,25.86451626,6.671206236,3.440967441
562,4.683145999999965,-29.051938055,4.56404984,-143.83200835,-0.6639656949999999,1.6128063799999999,11.467415334,31.954595564999998,4.4061133859999995,3.154395938
563,4.691478999999958,-28.70292568,4.6654002665,-143.83398440000002,-1.97054857,0.9499649405,12.165878295,40.628147125,10.415276526500001,5.392150640500001
564,4.699811999999952,-28.30025959,4.7602679729999995,-143.84333800000002,-0.702090114,0.042273871500000004,9.005212785,47.175405505,9.986613276,4.535355091
565,4.708144999999945,-27.82780838,4.8272053,-143.81709289999998,-0.8821837005,1.888770461,10.6917219155,55.17266083,5.3257391455,6.162494421
566,4.716477999999938,-27.311163905,4.9217715265,-143.83177945,-2.0127981305000002,0.11636371200000001,11.782186507999999,60.871271135,10.336480139999999,3.781198502
567,4.724810999999932,-26.741481784999998,4.981242180000001,-143.80126955,0.1225454995,0.5538374484999999,8.953125,66.84016037,4.4070364835,6.1171267035
568,4.733143999999925,-26.109136579999998,5.055861591999999,-143.80252074999999,-2.532076478,1.34965688,15.031659605,74.57256317,7.5667637590000005,3.9407182929999998
569,4.741476999999918,-25.4268322,5.1617101430000005,-143.79467775,-0.18218877899999997,0.5176528545,9.34996915,80.590415955,10.744991304500001,5.983520031
570,4.749809999999911,-24.675114630000003,5.1732070445,-143.7601395,-0.9242783484999999,0.6353796275,7.9887835979999995,88.54085159,-0.9969513415,4.4042572975
571,4.7581429999999045,-23.88636589,5.2731140855,-143.7558975,-1.3124564515,1.193608135,13.11476374,93.379238125,10.48654985,4.9097111225
572,4.766476000000012,-23.050536155,5.2865422965,-143.7167511,0.0934541235,0.6167600449999999,8.595762253,98.683807375,-0.6106486320000002,4.4182305335
573,4.774809000000005,-22.170479775,5.3431317805,-143.68460085,-2.4893710015,0.12857908,13.796924115,104.00094605,4.589723587,5.6093981265
574,4.783141999999998,-21.24492836,5.403452158,-143.6537094,-0.17535647750000005,0.638698354,8.9899144195,109.53390885,5.1338063925,5.590846538499999
575,4.791474999999991,-20.283249855,5.40460968,-143.59477235000003,-0.9173124285,-0.14376366150000003,9.0179054715,113.50242235,-2.543452263,6.0102117065
576,4.7998079999999845,-19.298384665,5.489148139999999,-143.57228855,-1.392667726,-0.037762133,10.589134218,116.7168007,8.4114892505,5.451396465
577,4.808140999999978,-18.30463314,5.4637963769999995,-143.5049591,0.22460782550000002,-0.5503191055000001,9.8271403295,117.28516385,-5.6692732569999995,6.044283628500001
578,4.816473999999971,-17.294916155,5.525295496,-143.46559904999998,-2.124718964,-0.7330147065,12.026087765,119.4900436,5.3652193545,6.2243442535
579,4.824806999999964,-16.280039785,5.4720680715,-143.3989563,1.3343188165,-0.592821509,8.504074812,119.84214399999999,-8.602297546500001,5.1465222834999995
580,4.833139999999958,-15.245518685,5.4652884005,-143.3426132,-2.2422392965,-0.46547158099999997,12.49557018,122.2540016,-2.835160851,5.7548453805
581,4.841472999999951,-14.21690941,5.4156944755000005,-143.28160855,1.082163781,-0.9400603475,6.7108347415,121.56332015000001,-7.775500775,4.812343836
582,4.849805999999944,-13.18543434,5.312575221,-143.21109769999998,-0.04040646549999999,-0.561923869,13.712587355,121.75559615,-14.24050522,4.744081974
583,4.858138999999937,-12.144263745,5.2017967705,-143.155098,-0.604011029,-0.1386482715,14.612225055,123.1416931,-14.614661694999999,2.9060441255000002
584,4.866471999999931,-11.06625271,5.032670617,-143.08467865,-0.02047428500000001,-0.45308206949999996,8.179720402000001,127.38450625,-21.83557892,3.83498764
585,4.874804999999924,-9.9778947855,4.8486419915,-143.00255199999998,0.3141082265,-0.677336544,7.1547906395,128.56364055,-23.67598629,4.8444359304999995
586,4.883137999999917,-8.8813991545,4.594821811,-142.92363735,0.9597077220000001,-0.02813164899999998,8.805231094500002,129.57545475,-31.846544265,3.986642599
587,4.89147099999991,-7.768431424999999,4.3000274895,-142.84508895,-1.4647239,-0.07932155600000002,15.213059905000001,131.63291935,-36.536718365,3.34312892
588,4.899803999999904,-6.635335207,4.0460889335,-142.76921465,-0.784126914,-0.685192034,8.372679234500001,134.11038969999998,-31.605876924999997,4.7622979875
589,4.908137000000011,-5.5049295425,3.6877201795000003,-142.6886711,0.2694090455,-1.0292405485,11.04144096,133.80053709999999,-43.964548115,4.1694362165
590,4.916470000000004,-4.364796877,3.383471072,-142.6261635,-1.4916199445,-0.7807919529999999,13.382301805,135.14270785,-37.25124168,3.9034913775
591,4.924802999999997,-3.222453475,3.006676197,-142.5711136,-0.1192322895,-0.2460801375,7.972760677,135.53291325,-45.749242785,2.6985280515
592,4.93313599999999,-2.0860399605,2.6379196645,-142.52782825,-1.0894887450000001,-1.5975125435000002,12.929552555,134.90879825000002,-44.66966248,2.6571395989999997
593,4.941468999999984,-0.947755635,2.258092582,-142.48170855,-0.0937186965,-0.999735817,7.397566557,135.17292785,-45.920894625,3.4167506695000003
594,4.949801999999977,0.1952373105,1.8914488405,-142.45630265,-2.7276940345,-0.094287481,10.8794431705,135.84656525,-44.24055481,2.1446224455
595,4.95813499999997,1.338803589,1.494149478,-142.42353055,1.1356642245,-1.284089148,6.3479764460000005,135.91993715,-47.84775162,3.6389340160000003
596,4.966467999999964,2.46884501,1.092297241,-142.41004565,-1.891548574,-0.9313560725000001,13.280119178500001,134.36180115000002,-48.369771955000004,2.5773572920000003
597,4.974800999999957,3.5758767125,0.7280610799999999,-142.40077589999999,-0.8778852525,-1.3239027265,15.660454275,131.64509579999998,-43.831388475,2.562203169
598,4.98313399999995,4.70100975,0.31055945149999997,-142.3948479,-1.0339506415,-1.5566328765000002,9.6897106175,133.79940795,-50.16007614,3.579903603
599,4.991466999999943,5.791843891,-0.06489604699999996,-142.40475845,-0.374476019,-0.7497386185,9.0663695335,129.70603945,-45.23295975,2.048641443
600,4.9997999999999365,6.862019777,-0.4585421085,-142.43919755,-2.363747835,-1.3500992059999999,10.127480744,127.21160884999999,-47.63083649,0.6061004625
601,5.00813299999993,7.937637328999999,-0.815076649,-142.466198,-0.36810243099999995,-2.0876546505,9.5374279025,127.83670425,-43.116413115,1.4275749919999998
602,5.016465999999923,8.985092640000001,-1.2339438349999998,-142.51755905,0.369486317,-1.343764365,9.712362764,124.37854385,-50.84837723,0.803563386
603,5.024798999999916,9.975831984500001,-1.5521525015,-142.57801055,-2.768179536,-1.513841927,13.455075260000001,117.52174,-39.136135105,-1.685483843
604,5.03313199999991,10.939528464999999,-1.9381311085,-142.64165115,0.10662344099999999,-3.0417717695,7.6958565715,114.20316695,-47.15870476,0.3946053045
605,5.041464999999903,11.86800766,-2.2876767815,-142.73942565,-1.275243968,-2.3112192155000004,11.554410935,109.77725219999999,-43.730062485000005,-4.0514464375
606,5.04979800000001,12.757555485000001,-2.6580114365,-142.8152809,-1.4579552414999999,-1.3051375745,11.4237921245,105.17840955,-45.585630415,0.09584996099999998
607,5.058131000000003,13.56470728,-2.941326559,-142.89911655,-0.7141323089999999,-1.794880927,10.2293472275,95.13442993000001,-35.700855255,-2.9179683924999997
608,5.066463999999996,14.315918920000001,-3.3449386955000002,-143.0230484,-0.5985665915,-3.6189507245,9.159101723,88.128032685,-50.809635165,-3.2406973834999997
609,5.07479699999999,15.0420084,-3.5725474360000002,-143.10620115,-3.9739136695,-1.9443260434999998,18.03225136,85.370651245,-29.26326847,-3.5527653695
610,5.083129999999983,15.730784889999999,-3.9388449195,-143.23268895,2.2970231775,-2.5958884955,3.3336848019999996,80.404384615,-46.62496376,-3.457057953
611,5.091462999999976,16.35060692,-4.2331455945,-143.3319092,-3.280759573,-2.8734192845,12.858912946,72.37259674,-37.547986985,-2.4838584665
612,5.099795999999969,16.877848625,-4.5140756369999995,-143.4269104,0.22304171350000002,-0.8163198535,8.5935795325,61.16014862,-35.779685975,-1.7572788
613,5.108128999999963,17.36817169,-4.772899151,-143.52783205,-2.973078251,-2.455436349,13.695043564999999,56.679519655,-33.569064139999995,-3.2306654454999997
614,5.116461999999956,17.8099947,-5.0376899245,-143.60169985,-0.12171931549999998,-3.6353417634999996,9.0954134475,51.050958635,-33.1858263,0.6824359595
615,5.124794999999949,18.236166005,-5.285715103499999,-143.71751404999998,-2.4293203355,-1.564033151,13.11802626,48.71754837,-32.913365365,-4.753446579
616,5.133127999999942,18.62485695,-5.514714003,-143.797142,-1.039673418,-2.320076883,7.1144502165,44.538101194999996,-29.306316375,-0.838708073
617,5.141460999999936,18.948485375,-5.718626499,-143.9045639,-0.12523502099999995,-1.2066093979999999,10.400275706,36.3364563,-27.619196889999998,-5.0462765695
618,5.149793999999929,19.224128725,-5.9415655135000005,-143.99118805,-2.3118688165,-1.1044555605,10.5427601325,30.862635609999998,-28.894589425,-1.5205081699999998
619,5.158126999999922,19.432229040000003,-6.051377058,-144.04656219999998,-0.8164169189999999,-1.9676065445000002,13.408429145,23.051783559999997,-14.93539572,-2.620677471
620,5.166459999999916,19.671406745,-6.2274610995,-144.13615414999998,-2.809411526,-2.237391412,8.5519239895,26.397771835,-23.719406125,-3.4947013855
621,5.174792999999909,19.858849525,-6.3264083865,-144.14752195,-0.26477426299999995,-0.70669806,9.8363707045,21.106453899999998,-11.9494113935,1.9917574525
622,5.183125999999902,20.05742264,-6.4462273119999995,-144.2228546,-3.041503668,-2.4078006745,9.6429357525,21.675042155,-16.813328745,-4.027732253
623,5.191459000000009,20.221071245,-6.5091114045000005,-144.21647645000002,-1.3592355249999999,-1.552621901,10.5962669855,18.52067852,-7.123609304,2.6209328175
624,5.199792000000002,20.322834965,-6.4943461414999994,-144.23822025,-1.8445491195,0.2523261455,12.21989727,10.7352590555,0.531745255,-3.5429550405
625,5.208124999999996,20.407503130000002,-6.4939317705,-144.22503665,-0.4240657535,-1.8920378089999998,7.611742973,9.14144516,0.295396149,0.7777571080000001
626,5.216457999999989,20.42852783,-6.449493647000001,-144.2201233,-1.196613852,-2.5665821435,9.563735963,1.396475375,4.9693732265,-1.8065144419999999
627,5.224790999999982,20.470227245,-6.3884496685,-144.21120455,-2.733108342,-1.1343691945,12.1277079595,3.9608255625,6.890018582,-2.3590520020000003
628,5.233123999999975,20.524526595,-6.3078336715,-144.17267605,-2.1598021985,-1.8507888315,8.8978915215,5.8564074040000005,10.434761045999998,0.41965726000000003
629,5.2414569999999685,20.566477775,-6.164024591,-144.11196135,-1.5996747015000001,0.40625406649999996,9.2351448525,4.668663919,18.46831036,0.22689738699999998
630,5.249789999999962,20.569834710000002,-6.0088961125,-144.04545595000002,-1.6405382455,0.7262786625,11.763185024,0.05492937549999999,19.978988645,0.3892404885
631,5.258122999999955,20.519821165,-5.7605662345,-143.9197769,-2.45682168,-2.8290317655,10.6285715095,-5.606276273500001,32.934425355,3.0874596834999997
632,5.266455999999948,20.51756668,-5.554206848,-143.82182310000002,-1.4131635425,-0.20791628949999996,9.581168650999999,-0.271856785,27.05336857,1.7765596504999999
633,5.2747889999999416,20.50813961,-5.28302753,-143.69229885,-0.7107803525,-2.5238050225,10.56878948,-0.8632711175,35.56429672,2.3172389865
634,5.283121999999935,20.4990139,-5.0339735745,-143.5695038,-2.0972738265,1.2961146235,11.230829002499998,-0.9143389465,32.892892835,2.7808953525
635,5.291454999999928,20.43228054,-4.6762211325,-143.42845155,-1.061194688,-0.627372354,14.606172082499999,-7.753680706000001,45.77231026,-0.003125071499999965
636,5.299787999999921,20.435256005,-4.442931533,-143.30602265,-1.226940632,-1.8537146450000002,5.958493471500001,0.37857866249999983,31.10587883,3.4543960095
637,5.308120999999915,20.41965103,-4.057527303500001,-143.15991209999999,-0.17867237300000005,-0.352416085,7.419753312999999,-1.776262999,49.10813332,-0.5252532824999999
638,5.316453999999908,20.36759567,-3.837686777,-143.0593567,-0.4781658055,0.44750373050000003,12.842631340499999,-6.563992261999999,28.680480000000003,1.5925214885
639,5.324786999999901,20.35509777,-3.4327560065,-142.90496445,-1.8691087960000001,-2.6176376340000003,12.264217377,-1.4738017915000001,51.654205325,-0.3353039025
640,5.333120000000008,20.33401489,-3.1984609365,-142.78175355000002,0.6356433925,1.3067266645,9.820568563,-2.840685498,31.250976559999998,3.5625908375
641,5.341453000000001,20.305535315,-2.856308222,-142.65474319999998,-1.7892201545000002,-0.383716885,14.20911026,-3.727447152,43.452285765,-0.7428972125
642,5.349785999999995,20.300789835,-2.588946253,-142.5385513,0.9871754235,-2.032313764,3.6458129885,-1.1448876115,34.681741715,1.417230904
643,5.358118999999988,20.27571297,-2.3472461405000002,-142.4515419,-1.810695715,-0.12326030599999999,17.627757550000002,-3.616802931,30.49411583,-0.9972975255
644,5.366451999999981,20.24858379,-2.0165792700000003,-142.33075715,-0.4565587040000001,-0.8526467974999999,8.306216357,-3.93232286,41.998231884999996,-0.665952161
645,5.374784999999974,20.222704885,-1.839758657,-142.27428815,0.12065386750000018,-0.591585755,10.995678899500001,-3.974735379,21.92316246,-1.716955006
646,5.383117999999968,20.192183489999998,-1.5007340985,-142.14453505,-2.343518883,-0.1115628185,11.165464638,-4.3436626195,43.31105804,0.05143350349999998
647,5.391450999999961,20.150799749999997,-1.3307219595,-142.09719085,2.779738903,-0.983910322,3.4564781190000002,-6.047580719,20.78789854,-2.4401087759999998
648,5.399783999999954,20.12016201,-1.113776028,-142.0265694,-3.1781373024999997,-0.43723030399999996,18.55169201,-4.5388395785,27.11637306,-1.487413347
649,5.408116999999947,20.101321225,-0.8424681425,-141.94811629999998,0.8604967594999999,-0.373872757,7.5394878375,-3.314722538,33.49001694,-3.092006326
650,5.416449999999941,20.073006630000002,-0.7214592695,-141.90439225,-1.231906414,-0.711017832,9.780612231500001,-4.4147486685,15.19637251,-0.5494830755
651,5.424782999999934,20.060803415000002,-0.44991242850000013,-141.81626125,-0.17862081500000015,0.121532109,12.682126045,-2.5039920805,33.925811769999996,-1.949776709
652,5.433115999999927,20.0180645,-0.3602420089999999,-141.80307770000002,0.702137299,-0.8180924949999999,6.2419421674999995,-6.307596445,10.4087827195,-2.70718205
653,5.4414489999999205,20.003728865,-0.206863582,-141.76470185,-0.8954227865,0.521488696,16.720255375,-2.7719922660000003,18.553840635,-2.6764646765
654,5.449781999999914,19.994010924999998,-0.028019964499999994,-141.7290306,-1.623804748,-0.7548851075,10.0155196195,-2.3059414625000003,21.38777447,-3.8191804885
655,5.458114999999907,19.996489525,0.04179757800000006,-141.71468355,1.5367341635,-0.2386244465,6.463436842,-0.8556051925,8.152646780000001,-1.9452925325
656,5.466448000000014,20.008473395,0.18330198499999995,-141.69525149999998,-2.6079262495,0.06255147600000001,12.464546200000001,0.35745959699999996,16.511870384999998,-4.104086757
657,5.474781000000007,20.010216715,0.28330034000000004,-141.6833992,2.2769832014999998,-0.44694121200000003,6.974410772,-1.0199784635,11.4477032445,-3.4978103635
658,5.4831140000000005,19.995778084999998,0.323958993,-141.7063484,-2.4009170605,-1.194551289,13.4912285815,-2.777223587,3.4017694,-4.73728919
659,5.491446999999994,19.983997345,0.5100448725,-141.66731645,-1.232390523,-0.3594117905,10.511207581,-2.5976302405,22.2778368,-3.9341305495
660,5.499779999999987,19.938980100000002,0.5898595455,-141.7000809,-0.722427651,-1.4624714855,9.9741945245,-6.5054078104999995,7.4188368295,-7.4619712830000005
661,5.50811299999998,19.89310074,0.7180770635,-141.670208,-1.738226414,-1.2974628209999999,10.619972228,-6.645531893,15.374879360000001,-2.575019002
662,5.5164459999999735,19.790866855,0.9081839025,-141.6669693,-1.343994044,-2.0600696205,7.214749098,-13.431485174999999,21.348887445000003,-7.8775982854999995
663,5.524778999999967,19.619960785,1.0127950015000002,-141.67035675,-0.21543872350000004,-1.9770810605000002,13.351764201,-21.64081669,11.3616271,-5.3439319135000005
664,5.53311199999996,19.424636839999998,1.2724448444999998,-141.6560173,-3.8206653595,-1.433273256,16.450704575,-24.54895973,29.700284005,-9.280292987500001
665,5.541444999999953,19.14874363,1.506037898,-141.61319350000002,-0.6218921915,-2.6352057455,6.541962145499999,-34.38685608,27.829922675,-5.1643574235
666,5.549777999999947,18.823322295,1.7088053875,-141.6285133,0.269779414,-2.4209740159999997,3.850436032,-40.148914335,22.169694905,-10.1506915075
667,5.55811099999994,18.419872285,1.997251004,-141.58347705,-2.9634132385000003,-2.4441883564999998,15.212120535,-49.65266228,34.201346395,-6.68485713
668,5.566443999999933,17.918655395000002,2.303951949,-141.56871795,-1.5773273855,-3.084438443,10.232054471,-61.36648178,35.278303144999995,-10.2921075845
669,5.574776999999926,17.36727905,2.58226189,-141.5345993,0.13881728099999996,-1.7862243055,9.357989548499999,-67.46797943499999,32.734071730000004,-7.0228500364999995
670,5.58310999999992,16.745579720000002,2.949951649,-141.51572035,-2.735523462,-1.33140862,14.872547625,-75.79771805,42.604364395000005,-11.26834917
671,5.591442999999913,16.04661274,3.302450061,-141.46387099999998,-1.1875398755,-3.443383217,8.106443644999999,-85.3474617,41.999734875,-6.812179565
672,5.599775999999906,15.308781625,3.652009487,-141.4465485,-0.5858232395,-1.3958894015,9.2012572295,-89.78078461,40.70569229,-9.830309868499999
673,5.608109000000013,14.509690285,4.074006677,-141.4010315,-2.053496957,-1.3757841585000001,13.271600724999999,-97.322216035,50.008657455,-8.60628891
674,5.616442000000006,13.628674985,4.467372298,-141.387825,-0.21177554100000007,-3.101667881,6.098733903,-107.0150642,45.92938995,-10.443343638999998
675,5.624775,12.7056818,4.844492197,-141.3736954,-0.8765487670000001,-1.220162332,11.2729003435,-111.9709015,44.1209507,-9.5550842285
676,5.633107999999993,11.738282205,5.3560009005,-141.35654830000001,-3.6596742865,-0.5762414634999999,15.7218771,-117.3517609,60.183900835,-11.481034755
677,5.641440999999986,10.720606325,5.8134205340000005,-141.3510742,0.9200972390000001,-2.856925964,3.6385737665000004,-123.3173027,53.650749205,-10.953521255
678,5.649773999999979,9.685227871,6.2023777965,-141.36630635,-0.3575712145,-0.688989967,11.2013279185,-125.1620903,45.374261855,-10.5466413525
679,5.658106999999973,8.626427174,6.7540979385,-141.36592485,-3.5033216475,0.216885537,17.08983326,-128.1036186,65.07131004499999,-11.393734455
680,5.666439999999966,7.549051285,7.1718702315,-141.38874815,2.531602979,-1.6077046395,2.795885414,-130.06759645,48.940195085,-10.7348213205
681,5.674772999999959,6.456049919,7.5927004815,-141.4244423,-2.271426141,-0.4752547144999999,15.629111769999998,-131.6482849,49.320644380000005,-11.2726984
682,5.6831059999999525,5.350841045499999,8.0881512165,-141.4605179,0.161294818,0.56932582,8.979476214,-133.10710905000002,58.405992510000004,-11.380828860000001
683,5.691438999999946,4.2733061315,8.414520978999999,-141.51152805,0.037591695499999966,-0.6950430685,7.9951673725,-129.4787064,38.253507615000004,-10.192227840000001
684,5.699771999999939,3.2193176745,8.8937671165,-141.54908369999998,-2.0557538865000002,1.703707337,11.4156820765,-126.85100555,56.82168007,-9.2366452225
685,5.708104999999932,2.1399607659999997,9.2119238385,-141.6421814,2.9446548220000004,-1.0553026345,6.269606829,-128.8535156,37.371212005,-13.66179657
686,5.7164379999999255,1.1111572385000001,9.549934864,-141.71121595,-3.0828289985,0.9694561065,19.92199802,-123.12487795,40.06031036,-10.379127503
687,5.724770999999919,0.0911189205,9.9834890375,-141.8268738,-0.41760390999999997,0.8403476475,7.0276013615,-121.11966705,51.647678375,-14.998987674999999
688,5.733103999999912,-0.9126231075,10.1358180025,-141.9016571,2.2893911235,-1.0412370265,4.231413632500001,-119.9192314,18.109122275,-9.762666225
689,5.741436999999905,-1.9140022394999998,10.541674616,-142.02879715,-2.7864380105000004,0.19662603749999996,15.958238605,-118.5233688,48.836946485,-14.55456066
690,5.749770000000012,-2.9338532685,10.6815090165,-142.1392021,3.1164044735000003,0.087774783,3.596052587,-120.95252995,17.105049131,-13.354370594999999
691,5.7581030000000055,-3.9277838469999997,10.9334945665,-142.27135470000002,-3.5757985115000004,-0.18115377400000002,16.258100035,-117.4179268,30.900550845,-14.466082575000001
692,5.766435999999999,-4.9642362595,11.1347217575,-142.39369965,2.1801680625,-1.3812936245,6.7272930355,-122.5659561,24.998083115,-13.48597002
693,5.774768999999992,-6.000081539,11.2066111565,-142.52054215,-1.2209244375,0.3513946535,14.957022903,-122.47319795,9.810685485499999,-14.805632115
694,5.783101999999985,-7.0097296235,11.444826599999999,-142.65937424999998,-0.9603404405000001,-0.1373410525,9.259550574,-118.90246965,30.080217365,-14.002663609999999
695,5.791434999999979,-8.04754591,11.447354315,-142.7834053,2.2032816410000002,-0.659232378,3.862980366,-122.68776704999999,2.0047528745000003,-15.059381005
696,5.799767999999972,-9.0813269615,11.506297584999999,-142.9037361,-2.814242788,0.09487322,18.566183565,-122.2959862,8.9110325575,-13.70343542
697,5.808100999999965,-10.106579305,11.671443465,-143.04320145,-0.9156211614999998,0.3093229715,8.0658437035,-120.7761383,22.075548175,-13.512721065000001
698,5.816433999999958,-11.13826466,11.616402149999999,-143.15981295,2.207067281,-0.4180990905,5.938536882499999,-122.03147885,-4.1342124045,-15.50160265
699,5.824766999999952,-12.158844949999999,11.66737461,-143.28009035000002,-2.4069149495,-0.1320557295,16.27960062,-120.7371979,8.637893529,-13.190140725
700,5.833099999999945,-13.18493652,11.692401405,-143.4162369,0.0007835629999999871,-0.39619935300000003,6.8548005839999995,-120.88990405,6.2479767505,-15.59919071
701,5.841432999999938,-14.19426918,11.62659264,-143.4970856,0.31641104800000003,0.5093365315,11.6988041415,-120.34048845,-5.6439205985,-11.615660195
702,5.849765999999931,-15.194761755,11.648931025,-143.63961030000002,-1.0982429085,0.19728811049999997,11.437792302999998,-117.76794050000001,6.6095740795,-15.990891935
703,5.858098999999925,-16.181866645,11.56382561,-143.71936035,0.20604512099999994,-0.602118641,6.9606695174999995,-117.64453125,-7.513253688,-12.297398565
704,5.866431999999918,-17.14295387,11.51726961,-143.83592985,-2.269426346,1.1882565025,13.371129992,-113.7432823,-1.6483476140000004,-15.22965288
705,5.874764999999911,-18.093460085,11.519667145,-143.95397185,-0.5647099615,-0.0513375255,8.5131157625,-112.363945,4.2429252564999995,-13.592904565000001
706,5.8830979999999045,-19.02630329,11.3620863,-144.03933715,1.264514424,0.3572516215,9.871248958999999,-111.0576172,-14.958092685,-16.02346516
707,5.891431000000011,-19.924706460000003,11.32166958,-144.14528654999998,-2.468598902,0.7419544455,15.188998224999999,-106.5324936,-0.6493122579999997,-13.83436966
708,5.899764000000005,-20.80586433,11.241417885,-144.24886325,0.2794730665,0.3828983155,6.601147055999999,-104.398201,-5.012102248,-15.260631085
709,5.908096999999998,-21.61455059,11.1085205065,-144.2805328,-1.6653423250000001,1.421861827,12.4923501015,-97.54927063,-13.740628005,-9.7401604635
710,5.916429999999991,-22.399028780000002,11.116942408,-144.40636445,-1.5432146785,1.6758343574999999,12.5366554275,-92.40261841,6.187378049,-13.652141095
711,5.9247629999999845,-23.121303554999997,10.9237637495,-144.40499875,2.3551417144999998,0.829235494,4.838355422,-87.82875824,-21.65755558,-9.3149995805
712,5.933095999999978,-23.777544974999998,10.8763370505,-144.48425295,-3.648185849,2.256033659,14.67662287,-78.25415420499999,-1.8189284789999998,-11.11330414
713,5.941428999999971,-24.38191128,10.7583632455,-144.50101475,1.8705182075,0.833822787,5.4870584010000005,-73.21340942500001,-12.349152804500001,-8.0440301895
714,5.949761999999964,-24.9080677,10.5961828255,-144.5096588,-1.799148202,2.148038864,14.071696281000001,-64.25690842,-17.594035625,-9.2992405885
715,5.9580949999999575,-25.394732475,10.5415353765,-144.55991365,-0.9101519735000001,0.23432382200000001,9.341267348,-58.408971789999995,-3.6499117020000003,-8.611512661
716,5.966427999999951,-25.814785954999998,10.3351888655,-144.53878020000002,-0.5247150515,2.1809542774999997,12.826576233499999,-52.12407303,-23.727702139999998,-8.740357876000001
717,5.974760999999944,-26.187271115,10.303364275,-144.59980009999998,-2.877880454,1.0815443995,14.727427005,-44.57072258,-0.5112419129999999,-8.600174904
718,5.983093999999937,-26.4926424,10.1141753195,-144.58229065,1.6015876535,1.18004179,4.0871462825,-38.18263054,-21.578496455,-8.522729874
719,5.991426999999931,-26.74225903,10.0140233045,-144.60230255,-3.3071048254999997,0.9526476265,15.002643585000001,-30.789019585,-9.921544193499999,-7.951473236
720,5.999759999999924,-26.970324515,9.904820920999999,-144.609169,1.4308409094999996,1.01892367,6.148873301,-28.350886345,-11.6351130025,-6.9603164195
721,6.008092999999917,-27.15015888,9.722603799,-144.5904236,-1.8002172710000002,-0.163522832,13.482355116,-23.213306425,-20.71745348,-8.427680492499999
722,6.01642599999991,-27.299471855,9.697465898499999,-144.6299896,-2.2303361835,1.1215286855,13.8986234645,-18.322945595,-0.86052984,-5.839868307
723,6.024758999999904,-27.41325569,9.534213066,-144.60738375,0.927282132,0.2257207685,5.61671257,-15.234548570000001,-18.858582974999997,-7.096402168
724,6.033092000000011,-27.48914814,9.4570970515,-144.60420225000001,-2.728723049,0.475480303,13.301715855,-10.4791317,-8.707805514,-4.2203683855000005
725,6.041425000000004,-27.559034349999997,9.3908729565,-144.63165279999998,-0.07153111700000003,0.126606861,9.1642568095,-8.957888842,-5.7715347405,-7.030993222999999
726,6.049757999999997,-27.603812214999998,9.249690294,-144.58631135000002,-0.8113911745,0.5140569804999999,12.207479478500002,-7.4926390645000005,-17.82269573,-3.3831931355
727,6.05809099999999,-27.627447125,9.2365500905,-144.6216736,-3.06065619,-0.1069107205,13.890506745,-3.3822062015,0.2978485820000001,-4.8744022845
728,6.066423999999984,-27.643068315,9.1727886215,-144.62059779999998,0.19827359949999995,-0.129793108,7.056349277500001,-3.0613108875000004,-7.1667737365,-3.7209801675
729,6.074756999999977,-27.64283562,9.0991020185,-144.61065675,-0.8726064415,-0.055615805000000004,10.031774281,-1.378045857,-8.5967261795,-3.5471619370000003
730,6.08308999999997,-27.6324234,9.086199046499999,-144.62799834999998,-1.7182487545,-0.2892631885,10.2805929185,0.3545458465,-0.747577041,-2.818385482
731,6.091422999999963,-27.635824205,9.023303509,-144.6239395,0.5323474260000001,-0.702213615,9.658124447,-1.6471107005,-7.1512509585,-3.5210481885
732,6.099755999999957,-27.62480164,8.984694956999999,-144.61759185,-2.298772991,-0.2665056585,14.901546955,-0.06990772499999998,-4.784329027,-1.7551770210000002
733,6.10808899999995,-27.619353295,9.012615206,-144.65322115,-2.0023552474999997,-0.3557071535,10.7809004785,0.124363527,4.698572874,-2.6562988755
734,6.116421999999943,-27.612753865000002,8.982985975,-144.6525421,-0.2279403135,-0.7459813355,7.341507911500001,-0.41496980199999994,-3.5166681779999998,-1.8590556980000001
735,6.124754999999936,-27.610136985,8.966800691,-144.66389465,-1.4006581900000001,-0.307833828,13.461443425,-0.7095399275000001,-1.3127996920000002,-2.581287384
736,6.13308799999993,-27.619789125,9.000189068000001,-144.69290165,-1.0387616975,-1.2270727755,9.1367306695,-1.8185337185000001,4.813721418,-1.4668248295
737,6.141420999999923,-27.65396881,8.963020325999999,-144.68372345,0.15603381,-1.4614519480000001,9.549310684,-5.472340107,-4.6950887445,-1.5514798165
738,6.149753999999916,-27.69936466,8.9841952325,-144.70930479999998,-2.3167259695,-0.887182683,16.384004115,-6.2392308715,3.3252272379999996,-1.7725434899999999
739,6.1580869999999095,-27.74690914,8.9915220745,-144.72377775,-0.15032678849999997,-0.0009795724999999977,9.654613974,-6.6399016379999996,1.324255969,-1.5322308545
740,6.166419999999903,-27.805201529999998,9.0107011795,-144.7546692,-2.3910380604999997,-0.8549248275,9.957621097499999,-7.65359807,3.3996626135,-2.420571208
741,6.17475300000001,-27.860805515,9.002508402,-144.74591825,1.0175212025,-1.072370261,8.377166748,-8.012478113,-1.578175962,-0.015989687500000002
742,6.183086000000003,-27.924682615000002,8.999600411,-144.75868225,-1.8145732285,-0.8578364254999999,10.401640893,-8.715602398,0.04951822750000012,-1.738438189
743,6.191418999999996,-28.005858425,9.0316061965,-144.76929475,0.23344194900000004,-0.6534697709999999,8.858947517499999,-10.7139873525,3.7574037540000003,0.216978198
744,6.1997519999999895,-28.10073757,8.9728732105,-144.75488285,-0.6816291735,-0.9963910874999999,12.490601060500001,-12.898538115000001,-7.3741862775,-2.0464498405000002
745,6.208084999999983,-28.1896019,9.0091202265,-144.76515195000002,-2.559699416,-0.4603592975,14.370560645,-11.746178625,4.1817485075,0.5158195495
746,6.216417999999976,-28.280426025,9.030752659000001,-144.78862759999998,-0.8320425745,-0.2580077725,6.6588041785,-11.667657375,3.2355973125000004,-1.4355116485
747,6.224750999999969,-28.37751389,9.029073717,-144.7776184,-0.5214636185,-0.7540419700000001,11.935060974999999,-13.08392048,-1.028328713,0.593008056
748,6.2330839999999625,-28.46575165,9.0366482735,-144.7840271,-0.4916643065,-0.7911591825,10.525280474999999,-11.72583866,0.792472437,-0.44645619400000003
749,6.241416999999956,-28.55003357,9.036066771,-144.77684019999998,-1.110820413,-0.4372651575,9.805212498,-11.487024779999999,-0.696790576,0.254157286
750,6.249749999999949,-28.653596880000002,9.047183038,-144.79650114999998,-0.5431435035,-1.0053979755,10.4837889665,-13.29253435,1.9106748699999998,-1.6061279775
751,6.258082999999942,-28.75240612,9.025216102,-144.7730179,-1.34578038,-0.429694295,11.930238246,-13.539943695000002,-3.8828880785,0.720682323
752,6.266415999999936,-28.852013585,9.0848908425,-144.81102755,-2.1176829935,0.03800547149999999,14.512465955,-12.54450941,8.0510294455,-0.660232559
753,6.274748999999929,-28.95215416,9.0871064675,-144.81492615,0.339975171,-1.075955808,6.1883832215,-13.10381031,0.18057346350000003,-0.6602582635
754,6.283081999999922,-29.03646469,9.075324775,-144.8093872,-0.826239325,-0.38163846749999997,9.756474017,-11.532233235,-1.9620313945000003,-0.25231303250000003
755,6.291414999999915,-29.110787395000003,9.098637103,-144.81647494999999,-0.8828987185,-0.6317628024999999,9.1934986115,-10.016011238499999,2.567186594,0.261111528
756,6.299747999999909,-29.189928055,9.100827215,-144.81182095,-1.019064844,-0.803172529,10.77144098,-10.8856906895,-0.46840751150000004,0.5031788425
757,6.308080999999902,-29.272322655,9.1161324975,-144.8239975,-1.028913915,-0.7471070585,12.44388866,-10.881748197,2.0150978565,-0.713074833
758,6.316414000000009,-29.339095115,9.1012983335,-144.81249235,-0.786120713,0.130368844,13.094956395,-9.553637027,-2.666480243,0.23899361600000002
759,6.324747000000002,-29.40197372,9.162844898,-144.84752655,-2.696099758,-0.4440056085,12.2896657,-8.141165256499999,8.179612639,-0.343698247
760,6.333079999999995,-29.459004399999998,9.1685371405,-144.84749605000002,0.43408519049999994,-0.9155475195,4.728305936,-8.092344761,0.12200713149999975,0.300992895
761,6.341412999999989,-29.518754004999998,9.160796406,-144.84873199999998,-1.3023956639999998,-0.9680568574999999,13.72924089,-8.428786993,-1.0211691854999998,-0.9508516785
762,6.349745999999982,-29.575032235000002,9.1880693425,-144.86073305,-0.14123484500000005,-0.5163814125,12.091726305,-7.8353829385000004,3.0539727215,0.37978231149999997
763,6.358078999999975,-29.63089943,9.1679844855,-144.8624878,-1.2355855105,-0.613026336,9.956572055,-7.931576489999999,-2.283624768,-1.7242096065
764,6.366411999999968,-29.688775059999998,9.200429199,-144.878273,-1.290483564,-0.7968907955,11.33461189,-7.9494559764999995,3.7881411314999998,0.34977521
765,6.374744999999962,-29.739284515,9.1622359755,-144.8638687,-0.5803397445,-0.7001308500000001,10.258818151,-7.5904073715,-5.125062465499999,-1.131329566
766,6.383077999999955,-29.782289505,9.2154371735,-144.87191769999998,-2.9373350145000003,-0.1635972855,13.301429745,-6.3886651995,5.4692551495,2.4340827465
767,6.391410999999948,-29.8281908,9.238246202500001,-144.88996885,0.738438964,-0.697005989,6.7772984505,-6.341649771,3.1646580694999997,-0.8849334419999999
768,6.3997439999999415,-29.863048555,9.2499108325,-144.8711853,-1.9788342415,-0.6637686785000001,11.2381296165,-5.893553971999999,-0.4246264099999999,2.6906476020000003
769,6.408076999999935,-29.886964795,9.294118881500001,-144.8908844,-0.5455803945000001,-0.27508062050000004,7.947717666999999,-3.7351193425,5.491846084500001,0.231078865
770,6.416409999999928,-29.90846062,9.341764928,-144.88017274999999,-1.9250267745,-1.2938289045,11.46120119,-4.1423217055,3.7987062934999996,4.002916217
771,6.424742999999921,-29.941173555,9.418272974499999,-144.91664125,-0.9734739659999999,-0.694438875,12.20955944,-4.4337477685,9.8727006915,0.3916480615
772,6.4330759999999145,-29.95860672,9.450774195000001,-144.90907285,-0.9956143794999999,-0.8657082915,11.135634897,-3.573877573,2.4112728834999997,2.764928579
773,6.441408999999908,-29.963560105,9.577870368500001,-144.9533997,-3.136228144,0.10337875049999999,13.73819542,-1.033521712,15.53946829,2.7274171115
774,6.449742000000015,-29.93751335,9.694247245500001,-144.9768219,-0.8274754735000001,-0.3901993935,5.554580569,2.3278478385000003,12.967620134,4.6014187335
775,6.458075000000008,-29.878232955,9.8028616885,-144.97859955,-0.905859977,1.4081717724999998,12.104064464,5.8689906595,11.147790909000001,5.9018406865
