time,Euler_X,Euler_Y,Euler_Z,Acc_X,Acc_Y,Acc_Z,Gyr_X,Gyr_Y,Gyr_Z
0.0,-23.87137413,4.818645,153.1283112,-2.759016275,-0.776344895,4.577579021,31.80902863,21.98167801,1.407196522
0.008332999999993262,-23.59760475,4.719772339,153.223175,3.843244791,-2.19531846,13.50740623,28.98740196,-15.92982864,5.15860939
0.016665999999986525,-23.2593174,4.791779041,153.2019958,-5.635587215,1.233652711,7.555897236,38.95423508,8.709134102,0.881156564
0.024998999999979787,-22.92055511,4.816707134,153.2545776,-0.917602181,-1.988781214,15.18731499,37.18625259,-0.217401057,6.512170315
0.03333199999997305,-22.51164818,4.796756268,153.2832642,-2.557024956,1.531415939,10.92278576,46.92987442,-3.758755207,2.010029793
0.04166499999996631,-22.05341721,4.861784935,153.3233032,-1.818364382,-1.207467675,7.166264057,51.62251663,4.898555279,6.941090584
0.049997999999959575,-21.57697105,4.723119736,153.3801727,1.508711696,-0.644815862,15.32739258,54.75632858,-18.20059395,-0.099268265
0.05833099999995284,-21.05191612,4.773810387,153.4206848,-3.38990736,-0.063649721,4.578604698,59.63020325,3.404834509,6.284780025
0.0666639999999461,-20.4824295,4.653809547,153.4624481,1.467524767,-1.822898388,13.78950882,66.07774353,-15.45993042,-0.666011155
0.07499699999993936,-19.8367691,4.607102871,153.5412598,-6.087125778,2.109015226,6.055950165,73.73590851,-9.01321888,6.485632896
0.08332999999993262,-19.17319107,4.519271851,153.5639038,2.516684294,-1.305745602,10.08528805,77.56452179,-11.06524277,-1.193002105
0.09166299999992589,-18.45365906,4.305222988,153.6854401,-1.595477939,0.380551726,10.54668713,82.22925568,-29.5133667,5.057513714
0.09999599999991915,-17.71116638,4.172817707,153.724472,0.530324638,-0.943474293,10.29687595,86.90714264,-16.77850342,-0.721237838
0.10832899999991241,-16.90330124,3.895268917,153.8575745,-2.333059311,0.12187466,13.58541584,92.81306458,-37.04843521,4.895486355
0.11666199999990567,-16.06155968,3.781083584,153.9183044,-2.957247734,0.026500029,3.657366753,98.67996216,-15.42621803,2.852554321
0.12499499999989894,-15.15190601,3.485569477,154.0254211,1.577160597,-0.159131929,16.00042915,105.3270721,-38.13108826,2.422851801
0.1333279999998922,-14.1869154,3.244140625,154.1108551,-2.558155298,0.665496111,9.757143021,113.355484,-30.84307098,2.333766699
0.14166099999988546,-13.19636726,2.96030879,154.2149048,-1.631721497,-0.776993513,13.59967899,115.1576614,-36.56895447,3.67971158
0.14999399999987872,-12.13858223,2.692967415,154.2977448,-0.19773072,0.487694442,7.781249523,124.6046753,-33.70211029,2.419991732
0.15832700000009936,-11.04443359,2.391346455,154.3873138,-2.628609896,0.719057322,8.823608398,127.8439331,-37.84912491,1.46513176
0.16666000000009262,-9.884707451,2.037953377,154.4844055,0.505112112,-0.511983395,11.2290535,136.8794098,-44.04123688,3.515028715
0.17499300000008589,-8.642058372,1.721089721,154.5733948,-2.13959837,1.407505989,10.21554565,145.7682953,-39.54646683,2.654712677
0.18332600000007915,-7.400744915,1.401245832,154.644165,-1.26838696,-0.464392722,9.632387161,146.8895874,-39.41581726,2.821004391
0.1916590000000724,-6.07154274,1.11076951,154.7168121,-3.595708609,-0.307144105,10.58344555,156.2967072,-35.99915314,2.721497774
0.19999200000006567,-4.688132286,0.799891889,154.7908783,0.47209388,0.673881531,16.56432724,164.02742,-38.20014572,5.121746063
0.20832500000005894,-3.326293945,0.485581368,154.8317871,-3.282939196,-0.597519517,14.35279655,160.3304901,-38.40382004,0.333197922
0.2166580000000522,-1.971765041,0.265194237,154.8825684,-1.59300828,-1.634018421,8.078223228,160.6692505,-26.92455864,4.636618137
0.22499100000004546,-0.55387187,-0.070830643,154.9158478,0.144435182,-0.908355772,9.907622337,167.0991974,-40.92931747,1.196241498
0.23332400000003872,0.890999258,-0.405954242,154.9515991,-2.207718372,0.366084874,12.61184216,171.5681763,-40.42686462,4.180357933
0.24165700000003199,2.360905647,-0.629027963,154.9737244,-2.166183949,-0.452708006,12.95878983,173.3610992,-27.30089569,1.400598764
0.24999000000002525,3.76011014,-0.952106297,154.9741364,0.331261754,-0.690591633,17.48696518,166.0717773,-38.93743896,1.889636278
0.2583230000000185,5.132594585,-1.160641789,154.9644012,-3.278769493,-2.664885283,12.17841434,161.658493,-25.60816765,0.592215002
0.2666560000000118,6.499536991,-1.405986786,154.9129486,-1.541087627,-2.432957888,10.82163811,162.0587006,-30.14080238,-3.385834694
0.27498900000000503,7.853693008,-1.66609633,154.8748932,-2.968443871,-1.23744154,13.07906342,159.3880463,-32.11988068,-0.786234438
0.2833219999999983,9.148310661,-1.773143888,154.8015747,-1.388473272,-4.186759472,11.70479012,153.2551727,-14.23129654,-7.029397488
0.29165499999999156,10.37315178,-2.005462408,154.7248535,-1.459429383,-1.675989747,15.97414112,143.7222137,-29.62840462,-4.472394466
0.2999879999999848,11.49183273,-2.037056923,154.6648254,-3.78874898,-3.586702347,13.76154518,132.1480255,-5.313306808,-6.578233242
0.3083209999999781,12.56060982,-2.18306756,154.6390991,-0.195903838,-2.138027906,9.015603065,125.2253723,-18.38632393,0.525457799
0.31665399999997135,13.55299568,-2.156618118,154.6034851,-3.436356544,-3.785694599,5.633360863,117.0831299,1.900522113,-5.108141899
0.3249869999999646,14.51231956,-2.222084999,154.6099854,1.940400481,-2.788688421,18.60712814,112.2674789,-8.048171997,2.566421509
0.33331999999995787,15.34567451,-2.270235062,154.5769348,-4.801203251,-2.176012993,20.0624733,98.00294495,-6.830517292,-2.568579197
0.34165299999995113,16.0587883,-2.213443279,154.6077881,-0.594153941,-4.787934303,11.93889046,82.88507843,6.940015793,1.635504603
0.3499859999999444,16.68897247,-2.094219685,154.6369934,-2.748514414,-2.980804205,8.813140869,73.90583801,14.48709774,-0.899563551
0.35831899999993766,17.2727623,-2.075539351,154.6718445,0.737523139,-1.975152254,10.47033978,67.41977692,2.735995531,3.26762104
0.3666519999999309,17.82405663,-2.051109552,154.6580658,-1.464865923,-2.01452899,12.7039938,64.24710846,2.069893599,-2.688774347
0.3749849999999242,18.23835754,-1.927820683,154.7548828,-1.591740012,-2.746624947,13.62671661,47.36743927,17.03527069,6.393737316
0.38331799999991745,18.54030609,-1.791594267,154.7876587,-0.84776324,-5.374397755,12.20423222,34.50828934,16.52402115,-1.657025456
0.3916509999999107,18.86404419,-1.753862619,154.856842,-0.78429389,-0.730686128,6.818864822,36.40753174,6.315914631,6.339044571
0.39998399999990397,19.12543488,-1.651665688,154.9276886,-0.552491069,-0.641614079,12.50197697,29.76594734,14.13489628,3.814296484
0.40831699999989723,19.33793068,-1.698638558,154.9405365,2.256881952,-1.590430617,17.73343277,22.87165451,-5.447753906,3.247143984
0.4166499999998905,19.46398354,-1.56892705,155.0444183,-2.885631084,-2.377678156,9.989839554,13.62790585,18.59417534,6.35299921
0.42498299999988376,19.57576561,-1.590673685,155.0486145,1.699885726,-2.650121689,8.267823219,10.7998333,-2.924057484,1.282966018
0.433315999999877,19.72579193,-1.504135728,155.1152802,-4.274394512,-1.31221509,1.981198072,16.36286545,12.24153519,3.807352304
0.44164900000009766,19.92117882,-1.582218409,155.1032104,1.233293295,0.287988305,12.6605072,20.80686188,-9.942336082,1.755113721
0.4499820000000909,20.07078171,-1.569258928,155.0988617,-0.695250094,1.46014607,11.44721127,16.08336067,1.054973602,-1.252549171
0.4583150000000842,20.19732666,-1.639398575,155.0805511,-0.320016891,-0.883141398,10.42140675,12.54751873,-9.291142464,0.775932133
0.46664800000007745,20.36715126,-1.633555293,155.0615387,1.508747578,-0.378548384,8.033207893,18.45928574,-0.359354973,-2.612870216
0.4749810000000707,20.63080788,-1.72911644,155.0198822,-4.896852493,-0.526380002,8.526444435,28.94800186,-13.12125015,-0.720900476
0.48331400000006397,20.93266487,-1.872020602,154.96875,5.022356033,1.905762434,14.60985279,34.17742538,-18.4331665,0.120361447
0.49164700000005723,21.2401371,-1.918236494,154.9053345,-5.511493683,0.913772643,10.56734657,34.12543869,-8.539090157,-5.154293537
0.4999800000000505,21.56537056,-2.072669268,154.8692932,6.230581284,-0.41007629,10.55176926,37.02595139,-19.05647278,2.509738207
0.5083130000000438,21.9381752,-2.136915445,154.7754822,-10.24282551,-0.193976432,7.659321308,41.83385849,-11.95322418,-7.639856339
0.516646000000037,22.35803032,-2.359152555,154.7084045,7.765457153,-0.539527059,14.10386276,48.21559525,-27.95679665,2.376162052
0.5249790000000303,22.7058506,-2.396349669,154.6194305,-6.722675323,-0.017018605,13.00867653,38.84091949,-8.840214729,-8.177727699
0.5333120000000235,23.10220337,-2.565281868,154.5575256,4.916725159,-0.845102191,10.69718552,45.38765717,-21.78714752,0.822756708
0.5416450000000168,23.49019241,-2.628965855,154.4695129,-7.068314552,-2.044072151,8.893903732,43.65966415,-11.82540894,-6.696200371
0.5499780000000101,23.86015701,-2.823669434,154.3761902,4.064670563,-0.124384522,17.97291756,42.01132965,-26.11365509,-1.090285063
0.5583110000000033,24.18412971,-2.859299183,154.3201141,-5.506392002,-0.680465758,6.962135792,36.16757202,-7.282814026,-4.414323807
0.5666439999999966,24.45624352,-2.881895304,154.2879639,1.144584537,-3.378209352,12.98342133,30.60721207,-4.284022331,-2.626549482
0.5749769999999899,24.74537086,-3.002331018,154.2094879,-3.144813538,0.09824802,7.459821224,31.87582779,-17.70692635,-2.541896105
0.5833099999999831,25.01075554,-2.975944281,154.212738,-1.646855712,-0.582774818,8.717365265,30.01276016,2.809294939,-1.209441066
0.5916429999999764,25.21184349,-3.042045116,154.1519165,2.422245741,-1.762378097,16.41825104,21.43659019,-10.93814182,-3.231173277
0.5999759999999696,25.41252518,-2.986845493,154.1800995,-4.435200691,-1.707495689,7.044111729,22.40531921,7.20528698,-0.00961815
0.6083089999999629,25.58527184,-2.914309502,154.1803589,-0.167963251,-0.821377993,17.65554619,18.46471977,7.198883533,-3.714795589
0.6166419999999562,25.70945168,-3.019136906,154.1756897,-0.674980819,-0.44597289,15.20632744,13.01559544,-11.80789661,4.711150169
0.6249749999999494,25.81920815,-2.813154221,154.2431946,-3.245790005,-1.081564546,7.04313612,11.36545372,25.10263252,-3.453070164
0.6333079999999427,25.88890076,-2.77793169,154.3130035,1.692932367,-1.598069549,11.3496666,6.914256573,7.225675106,5.456012726
0.641640999999936,25.99673271,-2.687299252,154.3295441,-4.822371483,-1.985034585,4.391596317,10.84857845,9.969549179,-2.970470667
0.6499739999999292,26.10474968,-2.555613041,154.426651,1.407848954,1.920833349,13.76624966,11.63883305,19.08030701,3.287153244
0.6583069999999225,26.16410828,-2.526079893,154.4141388,-0.416566491,-1.312643051,11.97597408,4.897287846,1.836642981,-2.895727634
0.6666399999999157,26.28881264,-2.28806138,154.5388031,-2.225402355,-0.260120332,5.23345089,13.73534012,31.99805069,0.55193603
0.674972999999909,26.45099449,-2.306912899,154.5060425,0.75458169,1.000235081,15.09300995,17.17427254,-4.462935925,-2.502498627
0.6833059999999023,26.5847683,-2.241826773,154.5353088,0.331040919,0.491887927,13.08234215,14.33839226,8.327394485,-0.576743126
0.6916389999998955,26.71826553,-2.126915932,154.5509338,-1.473797798,-1.898685217,11.79662228,13.99582672,12.47569847,-4.499461651
0.6999719999998888,26.90074539,-2.158643723,154.5445404,1.968939543,1.222492695,4.94704771,20.01407242,-3.969067812,0.803646863
0.7083049999998821,27.1583004,-2.032646656,154.5584717,-5.402441978,-0.612196505,8.163794518,28.90346146,13.54082584,-5.372450352
0.7166379999998753,27.44107056,-2.184137821,154.486908,6.816420555,0.641850293,16.54776764,31.76227951,-20.31617165,0.482086062
0.724971000000096,27.65365791,-2.047621727,154.4887238,-7.628183842,0.340925068,11.72158337,23.49021339,13.94403839,-7.370896816
0.7333040000000892,27.89052773,-2.124668837,154.4579468,5.753202438,0.059312403,11.33542728,26.43600464,-10.12394238,0.814789295
0.7416370000000825,28.19816208,-2.159301758,154.3778992,-6.58435154,-2.423019648,4.603087902,34.56145859,-8.86413765,-6.497609615
0.7499700000000757,28.46838951,-2.209279776,154.3801575,5.352739811,1.843056083,16.81141281,30.58403778,-5.376265526,2.854042768
0.758303000000069,28.68751526,-2.214808702,154.3197174,-5.30380249,-2.449418783,10.16808319,24.05270004,-4.732987881,-6.024381161
0.7666360000000623,28.93549919,-2.279092789,154.3370514,3.566008091,-1.09630096,9.289340019,27.98744202,-5.983835697,5.30822134
0.7749690000000555,29.15614891,-2.35390377,154.2341766,-6.217819214,-0.615830958,15.1186676,24.05649948,-14.52160358,-6.397223949
0.7833020000000488,29.3105793,-2.425018072,154.2421722,5.496811867,-1.344764948,15.77629566,16.71780205,-7.204069614,4.776006222
0.791635000000042,29.40013695,-2.39030695,154.2095795,-5.795481682,-2.646488428,10.15004539,8.711530685,1.027130961,-5.418192387
0.7999680000000353,29.49492645,-2.502633333,154.1815338,2.629056931,-1.077964902,11.71251202,9.374221802,-13.61615753,3.46773243
0.8083010000000286,29.56202507,-2.502682686,154.1235199,-5.748325348,-1.325491309,15.01838493,5.920885086,-4.128643513,-6.012571335
0.8166340000000218,29.56902313,-2.578007698,154.1254425,3.441773653,-0.945005238,12.41385746,-1.007625699,-7.974467754,4.429059982
0.8249670000000151,29.50700188,-2.522634506,154.1086884,-4.36289072,-0.822775185,12.21701145,-9.31437397,4.088339329,-4.98879528
0.8333000000000084,29.452528,-2.578502417,154.1085815,0.216405928,-3.90743494,5.027127743,-8.395617485,-6.069127083,3.059339046
0.8416330000000016,29.37075233,-2.609294891,154.066864,0.691170633,1.280032277,13.84598732,-11.78230572,-6.388280392,-2.503548145
0.8499659999999949,29.2255764,-2.624464989,154.0751648,-0.398313522,-2.32750988,10.28185368,-19.23523331,-1.325626731,1.529964328
0.8582989999999882,29.11105537,-2.582481146,154.0792389,-2.185841799,-2.163488865,11.98381424,-15.42383289,3.922410727,-1.995131612
0.8666319999999814,28.95378685,-2.725560904,154.0230713,-1.381706834,2.48794198,18.93930435,-21.04545212,-18.50528717,2.216299057
0.8749649999999747,28.75503159,-2.619452953,154.0562134,1.726101637,-2.176246643,9.839186668,-25.32823181,12.34230423,-2.631006479
0.8832979999999679,28.58328438,-2.66177249,154.0422211,-5.690383434,-1.811562181,11.0316143,-22.54608154,-5.488991737,0.734232426
0.8916309999999612,28.35569572,-2.686511517,154.0180054,2.470633268,0.499336839,17.49044037,-29.06788826,-4.730760574,-1.099274158
0.8999639999999545,28.08747292,-2.623635769,154.0332947,-3.193979025,-2.985118866,7.386517525,-33.96260071,7.287052155,-2.184473991
0.9082969999999477,27.81557083,-2.572304726,154.04422,0.864282787,-2.229637146,12.30823612,-34.14937973,5.311706066,-1.700671673
0.916629999999941,27.5150528,-2.566246271,154.0330963,-3.869562864,1.509527087,12.98381424,-37.98474503,-0.202749744,-1.747879267
0.9249629999999343,27.19726753,-2.482998133,154.0758514,2.64267993,-2.441403627,6.3630023,-39.45249557,10.47208691,-0.011564842
0.9332959999999275,26.8737278,-2.421662092,154.1022034,-3.945076704,0.151609898,15.57570076,-40.55099487,7.764353275,-0.760884881
0.9416289999999208,26.52333832,-2.423764944,154.1221466,-0.008413221,-0.129142165,12.13911343,-43.4587326,0.087626442,2.27039814
0.949961999999914,26.17807007,-2.363564968,154.1521454,0.314758986,-0.519898057,6.616491318,-43.14383316,7.843450546,-0.212457612
0.9582949999999073,25.79326057,-2.322071075,154.1695557,-0.813614905,-1.762544632,14.68637276,-47.57913971,4.626734257,-0.291196018
0.9666279999999006,25.44793129,-2.342078924,154.1678925,-0.54492265,0.186996877,5.20457983,-43.3105011,-2.477399826,0.628036439
0.9749609999998938,25.09969521,-2.301760435,154.1750336,-0.384315461,-0.443360746,10.20882797,-43.2110405,3.969547272,-1.282673359
0.9832939999998871,24.730196,-2.311380148,154.1854401,0.806878448,-1.169243932,17.29623413,-46.1529808,-0.746822894,1.387269616
0.9916269999998804,24.36581993,-2.331309557,154.1585388,-4.076452255,0.91050607,7.998029232,-45.2749939,-4.286921501,-1.940397024
0.9999599999998736,24.03227615,-2.316637993,154.1915588,3.292985916,-0.408016086,9.826804161,-41.7284317,3.002966642,2.660529137
1.0082930000000943,23.66903877,-2.337550163,154.1641998,-6.532919884,-1.094559908,18.60569954,-45.12210846,-4.396704197,-1.9925735
1.0166260000000875,23.29160881,-2.341783285,154.176178,4.857640266,0.002262752,4.129699707,-47.09724808,-0.11999011,1.289576769
1.0249590000000808,22.9589119,-2.320058107,154.1677856,-7.514060974,-0.797188401,11.56735611,-41.33773422,1.219290614,-1.963705182
1.033292000000074,22.5781498,-2.377668858,154.1529388,6.611459255,-1.210891962,15.98063564,-47.62949753,-7.290632725,0.803084791
1.0416250000000673,22.20205879,-2.2674613,154.1708221,-8.018955231,-0.181988895,6.836186886,-46.38523102,12.26109695,-3.077723026
1.0499580000000606,21.83094406,-2.370632648,154.1509552,6.115119457,-0.261356652,15.67142963,-46.49423981,-12.59732151,2.202802658
1.0582910000000538,21.43684959,-2.227716923,154.1802673,-7.974774837,-1.222888947,9.046625137,-48.47470856,16.44957924,-3.086766243
1.066624000000047,21.0762043,-2.308103323,154.1620178,4.341134548,-0.395179331,12.00366879,-45.22699738,-10.01053429,1.228845119
1.0749570000000404,20.6818676,-2.155904055,154.2086182,-6.906534672,-0.32011047,13.06024456,-48.40650177,18.26268578,-1.32480979
1.0832900000000336,20.2650795,-2.257411957,154.1805878,5.006946564,-0.603739083,14.86437321,-52.00708771,-12.81205559,0.880414784
1.0916230000000269,19.85817146,-2.020819187,154.2468414,-7.130246639,-0.554122627,3.464287281,-49.81877136,28.59988976,-2.320951223
1.0999560000000201,19.45823288,-2.142467976,154.220871,3.408396244,-0.606709838,18.51400948,-49.96915054,-15.02223301,1.746638775
1.1082890000000134,19.00849533,-1.886045814,154.2979431,-4.572637558,-1.343988895,7.347603798,-54.91915131,31.30119705,-1.463051915
1.1166220000000067,18.57859039,-2.002873898,154.2464294,3.114207745,-1.289444804,9.712845802,-53.66146469,-15.48639584,-1.561307073
1.124955,18.14368439,-1.746128917,154.3283691,-7.172600746,0.965331674,12.4331255,-53.13538361,31.54656792,-0.442781955
1.1332879999999932,17.65829659,-1.843444228,154.2829285,5.413471222,-2.449552536,11.63740158,-60.28230667,-13.01403618,-1.826800704
1.1416209999999865,17.21752548,-1.562526822,154.3755646,-6.681254387,0.347248495,5.398926258,-53.81883621,34.70600128,0.424301267
1.1499539999999797,16.73921204,-1.621572733,154.3582153,4.694785595,-1.462465048,16.63580894,-59.32078171,-7.609949112,-0.151444659
1.158286999999973,16.27045631,-1.427180886,154.4220123,-5.236177921,-0.766487181,4.372871876,-57.30071259,23.76332855,0.625629783
1.1666199999999662,15.8129158,-1.322825789,154.446106,1.540144801,-1.975150824,11.4681654,-56.70163727,12.60633945,-0.913624048
1.1749529999999595,15.30862236,-1.276145577,154.4852142,-2.436223745,0.843324661,14.07384872,-61.66699219,5.885350227,2.925769806
1.1832859999999528,14.79280663,-1.030188322,154.5460815,-2.311742067,-2.484874725,10.42569637,-63.61649323,30.16931725,-0.843877435
1.191618999999946,14.25444698,-1.029909134,154.5744476,3.511872768,-1.043105006,7.550727844,-65.79929352,0.11967016,3.187012196
1.1999519999999393,13.74711323,-0.86166209,154.6179657,-7.954666615,0.306573153,14.31920052,-62.65871429,20.62501907,-0.050370585
1.2082849999999326,13.16786575,-0.708790064,154.6969299,4.06151104,-1.83541882,11.68198299,-70.64814758,19.28072166,4.835299015
1.2166179999999258,12.64288235,-0.641657233,154.7006989,-3.191702604,-0.81396246,4.586931229,-64.85829926,7.727203846,-1.587461114
1.224950999999919,12.08718586,-0.403746486,154.8190155,-3.618215799,1.5393821,18.7156105,-67.82875824,30.18237495,7.63010788
1.2332839999999123,11.48934269,-0.350581288,154.8316803,1.713363051,-2.937678576,9.137203217,-73.5983429,6.328564644,-0.04504285
1.2416169999999056,10.92268181,-0.143883839,154.9080963,-2.054403782,-0.103287853,1.411066771,-69.23736572,25.38185501,4.041228294
1.2499499999998989,10.38635445,-0.032780431,154.9535828,-2.280359507,-0.67405349,17.92189026,-66.21665192,13.88484097,2.668962717
1.2582829999998921,9.788207054,0.199454531,155.0271454,-1.688737035,0.253495216,9.178677559,-73.08556366,28.25995064,3.669489384
1.2666159999998854,9.232665062,0.342673928,155.0689087,1.733855963,-2.91642952,5.41221714,-68.55397034,17.5491333,1.871691704
1.2749489999998787,8.675955772,0.523324788,155.1216888,-4.661039352,0.078075781,13.81702805,-68.16043854,21.69579124,2.731719255
1.2832820000000993,8.097614288,0.764892161,155.1959839,0.484153092,0.761577368,14.43147659,-71.36788177,29.75070572,4.360590458
1.2916150000000926,7.542933941,1.065230131,155.2443848,-4.783249855,-0.403517544,4.702620983,-67.97993469,35.79984283,0.693329632
1.2999480000000858,7.030017853,1.280300498,155.322937,2.632261038,-0.580617845,10.66461849,-63.60678101,26.56737709,5.845424175
1.308281000000079,6.483879089,1.558092594,155.3204651,-3.643339872,-0.257388115,13.22587109,-66.8731842,32.38961411,-4.380785465
1.3166140000000723,5.970643044,1.917830706,155.4138641,-1.778156161,-0.362823009,6.305677414,-63.79472733,43.89995956,6.223677635
1.3249470000000656,5.475205421,2.240699768,155.3965454,-4.085666656,0.675194681,16.33896255,-60.73812103,37.6730957,-6.09599781
1.3332800000000589,4.955453396,2.646537066,155.5138092,-1.75724709,-1.113801599,9.777553558,-64.83515167,49.5471611,9.341259956
1.3416130000000521,4.474617004,3.004808903,155.4639435,0.675550103,0.158663273,8.076846123,-58.78433228,41.69278717,-9.659210205
1.3499460000000454,3.981987953,3.371905327,155.5809326,-2.94378376,-1.543028831,15.5976038,-61.76087952,44.73587418,10.49999523
1.3582790000000386,3.503810406,3.800415516,155.5345154,3.414310217,-0.408587068,6.835692406,-58.42859268,50.30342484,-9.077054024
1.366612000000032,3.035704613,4.209791183,155.6209869,-7.027740955,1.078973413,12.31437492,-58.76208496,49.40555573,7.301222324
1.3749450000000252,2.58050561,4.683001041,155.6031189,1.895488143,-0.528891861,6.607600212,-55.87608719,55.98144913,-5.09110117
1.3832780000000184,2.196309328,5.063355923,155.6574554,-4.31303215,-0.087979689,7.111055374,-48.520298,45.64505005,4.359816074
1.3916110000000117,1.823371291,5.437408447,155.633667,4.027920246,-0.632412255,15.13604069,-45.92826843,44.1450119,-4.594787598
1.399944000000005,1.481082082,5.863351822,155.6714172,-4.429364204,2.441651106,9.100413322,-43.38408661,50.99199295,2.803898811
1.4082769999999982,1.102916956,6.226330757,155.6477051,1.108849883,-0.893062592,13.12657356,-46.54257202,42.89149857,-3.989854097
1.4166099999999915,0.787519515,6.678516388,155.6800385,-6.282917976,-1.117979884,3.19188261,-40.14554214,54.08848572,2.730539322
1.4249429999999847,0.492216319,7.001189709,155.6478119,6.214550018,-0.129491642,15.00048351,-36.45346832,38.09555817,-4.450958729
1.433275999999978,0.208021864,7.405824661,155.6449738,-6.35559845,-0.135166526,11.43373203,-35.92327881,48.32333755,-0.864752233
1.4416089999999713,-0.139995009,7.721412182,155.6477661,4.616101742,-1.692504644,12.87915993,-43.3029213,37.31492233,0.127277479
1.4499419999999645,-0.440402299,8.089288712,155.6081848,-7.374145031,0.306604296,3.552163124,-37.25835037,43.9393959,-4.708178997
1.4582749999999578,-0.750963807,8.388605118,155.6015625,3.743808508,-2.227385044,15.05081844,-38.66653442,35.38455963,-0.596467316
1.466607999999951,-1.083964586,8.717629433,155.5376282,-3.272063732,-0.06619747,7.152445793,-40.68206024,39.36893082,-7.182980537
1.4749409999999443,-1.479206204,9.002120018,155.5212555,2.188692093,-2.492029428,13.78883076,-48.65596771,33.65652084,-1.360824466
1.4832739999999376,-1.85205555,9.285767555,155.4636383,-5.7232337,-0.514824688,5.342408657,-45.50544357,33.99284363,-6.064250946
1.4916069999999308,-2.222910166,9.631170273,155.4306488,3.547860861,-1.850527883,13.42622566,-45.39440155,41.05755234,-2.613442183
1.4999399999999241,-2.669023991,9.737440109,155.3586731,-1.990802765,-1.054228425,15.24145794,-53.94556046,12.87582493,-8.190520287
1.5082729999999174,-3.115966082,10.11312294,155.3352509,-0.958980799,-1.55963397,6.484936237,-54.7062149,44.686306,-0.677563548
1.5166059999999106,-3.625815392,10.20965862,155.2452393,-1.049815178,-0.383713573,18.10503578,-61.14172363,11.96250629,-10.16229248
1.524938999999904,-4.116569042,10.43920898,155.2258911,-1.556646466,-2.457450628,3.430595398,-60.04754639,27.17667961,-0.612041712
1.5332719999998972,-4.673090935,10.58551693,155.1161499,2.442315102,-1.223171711,12.5450983,-66.24658966,18.26812363,-11.79265022
1.5416049999998904,-5.280661106,10.62198353,155.0709229,-3.284397125,-0.875640631,10.81575298,-73.49530792,4.382232189,-5.130671024
1.5499379999998837,-5.882651806,10.8923254,154.9432373,-2.66100359,-3.300881863,9.51303196,-71.24622345,33.52130508,-12.05421543
1.558270999999877,-6.554661274,10.85340405,154.8792725,4.365138531,-2.018595457,16.80026054,-80.87594604,-4.305457592,-7.756997108
1.5666040000000976,-7.283252716,10.92495823,154.7525024,-5.597867966,-0.750949681,9.751302719,-86.42668152,10.0960474,-14.0246954
1.5749370000000908,-8.008154869,11.1136179,154.6858215,-1.265390396,-1.584416866,6.702232361,-87.16527557,23.00108147,-4.502310276
1.583270000000084,-8.784197807,11.05045605,154.5618439,3.763130188,-2.156949043,10.8394165,-92.13499451,-5.592565536,-15.78055286
1.5916030000000774,-9.565393448,11.02879047,154.5184174,-2.915218353,0.001471385,10.882617,-94.40964508,-2.17885375,-5.474842548
1.5999360000000706,-10.35589504,11.14994907,154.3808289,-1.721176147,-1.716558933,10.48213482,-93.55484009,16.89398193,-13.6720047
1.608269000000064,-11.18489742,11.10000229,154.3250732,-1.669100404,-1.003916383,15.12039471,-99.93457794,-5.148160458,-7.256230831
1.6166020000000572,-12.00499153,11.06937313,154.2297058,0.355887353,-0.543192565,10.69078445,-98.08105469,-1.570204377,-11.97205448
1.6249350000000504,-12.83448982,11.12852764,154.1481934,-2.266355515,-0.292695761,9.619591713,-99.48812866,8.432512283,-7.200135231
1.6332680000000437,-13.70626545,10.98831749,154.0702057,1.330945849,-0.973430932,13.01715946,-104.6882324,-14.49420071,-13.03189754
1.641601000000037,-14.50997734,11.0290699,153.9908905,-7.758366585,0.948964357,8.28983593,-96.39871979,6.532887936,-7.589317799
1.6499340000000302,-15.3539753,11.02556419,153.8981476,4.266821384,-0.853382111,12.39481354,-101.0240326,2.181891203,-10.89261532
1.6582670000000235,-16.17450333,10.82933617,153.8511353,-2.040157557,-0.399249166,8.626098633,-99.18868256,-21.65904808,-11.42404175
1.6666000000000167,-16.92152786,10.90813065,153.7416534,-1.604331374,0.740286946,6.388343334,-89.03536987,12.51136398,-9.902751923
1.67493300000001,-17.70825386,10.75184345,153.6829376,-0.20020622,-1.337883711,13.77585411,-94.87699127,-16.33055687,-11.97584248
1.6832660000000033,-18.41282845,10.7365284,153.6172333,-3.845216751,2.470128059,11.68536949,-84.9477005,0.42742753,-8.163142204
1.6915989999999965,-19.11125183,10.75143719,153.5038147,-1.700286508,-0.254087627,10.26797771,-83.0792923,5.512345791,-11.89877033
1.6999319999999898,-19.75883102,10.60009098,153.492691,0.697515011,0.180457056,12.78218651,-79.33148193,-16.91580391,-7.510892868
1.708264999999983,-20.35909653,10.64781284,153.3795624,-3.816555977,0.436243057,5.259392262,-71.40586853,9.373829842,-10.11243343
1.7165979999999763,-20.9369545,10.54130459,153.3542633,4.441855907,-1.417124629,13.46737766,-70.65176392,-11.13329029,-7.529633045
1.7249309999999696,-21.48037529,10.44611454,153.2960663,-5.803133011,2.086366415,9.307562828,-65.69026947,-8.482304573,-10.77650261
1.7332639999999628,-21.97325134,10.47471523,153.2349396,0.295074552,-0.612733722,12.83026886,-59.67937851,5.631641388,-5.659650326
1.741596999999956,-22.45889854,10.35634232,153.1934814,-2.964019775,0.778409421,10.3894577,-59.14810562,-11.6118803,-10.14689445
1.7499299999999494,-22.85117912,10.3823061,153.1549988,-2.538903475,1.545793533,9.884666443,-48.10610199,4.397306919,-3.220829964
1.7582629999999426,-23.23011971,10.3465929,153.0762939,-1.272458792,0.591662228,9.700144768,-45.55644989,-0.616984069,-10.47656155
1.7665959999999359,-23.56840897,10.27517509,153.0800781,-0.31363669,0.115810707,12.13164997,-42.5365448,-8.269223213,-3.224594355
1.7749289999999291,-23.87340927,10.29934692,152.9914551,-2.674051762,-0.112303637,8.225421906,-36.49967194,6.56129837,-8.659862518
1.7832619999999224,-24.13440895,10.27866936,152.9709167,0.739830077,0.380254716,14.3275013,-32.7399292,-1.506617904,-3.456656933
1.7915949999999157,-24.39776421,10.18775749,152.9462433,-1.312109709,-0.659374952,9.006606102,-32.8880806,-9.044228554,-7.390777111
1.799927999999909,-24.57726288,10.23577023,152.9026489,-2.915422201,1.037078738,8.588494301,-22.47420883,7.149321079,-2.524885893
1.8082609999999022,-24.7737484,10.17007828,152.8744202,1.967546582,-1.538309455,10.35879993,-24.79788589,-6.063904762,-6.574908733
1.8165939999998955,-24.94016266,10.13129902,152.8639679,-3.458291292,0.063075751,12.14146996,-21.60562706,-3.929212332,-3.307272911
1.8249269999998887,-25.09905624,10.10854053,152.8246002,-0.771600842,-0.551141381,13.26415253,-20.06864738,-0.795463204,-5.619854927
1.833259999999882,-25.24156761,10.09950352,152.7882996,-3.716132879,0.499325156,10.37653351,-18.19629288,0.614767432,-4.570669651
1.8415929999998752,-25.38175201,10.0637331,152.7599335,0.451348364,-1.452553272,12.67506218,-18.07047653,-2.730977774,-5.11855793
1.8499260000000959,-25.49929619,10.02606487,152.7375031,-3.175178051,-0.176291108,9.100709915,-15.49450302,-3.170697451,-4.565033913
1.8582590000000891,-25.60907555,10.03130054,152.6983337,0.954616427,-0.927011192,11.24569416,-14.20987225,2.284227133,-4.157972336
1.8665920000000824,-25.72617722,9.943097115,152.6971741,-0.486493677,-1.489916801,10.7963419,-15.88599014,-9.707631111,-4.937773228
1.8749250000000757,-25.8305912,9.903637886,152.6864014,-1.584845901,-0.173792124,12.17989826,-14.16955376,-3.982822418,-3.457294703
1.883258000000069,-25.94041252,9.84303093,152.6754456,-1.456317663,-0.82699424,11.32469559,-14.81129456,-6.202988625,-4.572642326
1.8915910000000622,-26.02623177,9.842782974,152.6441498,-1.544786811,-0.88429302,10.40338135,-11.52598476,1.323718071,-3.589924812
1.8999240000000555,-26.12856483,9.75865078,152.6454926,-1.127033472,-0.98870486,13.97632504,-14.1666851,-9.365039825,-4.524409771
1.9082570000000487,-26.21457291,9.741132736,152.6390686,-3.738331556,0.657367766,9.001791,-12.07130909,-1.81542182,-1.863550782
1.916590000000042,-26.28104591,9.747738838,152.6123047,-0.94233042,-1.208066225,9.688035011,-9.290450096,1.884132028,-2.718887329
1.9249230000000352,-26.36212158,9.711733818,152.6132813,-0.643085122,-0.455831915,10.56012344,-11.63814926,-4.189374924,-2.06505847
1.9332560000000285,-26.42200661,9.684512138,152.6030273,-0.559854269,-1.405575991,12.85118961,-8.83702755,-2.612511635,-2.769219637
1.9415890000000218,-26.48629951,9.626173019,152.6051788,-1.427875757,-0.327269346,10.9830761,-9.653044701,-6.640606403,-3.144211531
1.949922000000015,-26.52684975,9.659966469,152.5660095,-2.212905169,-0.400889695,11.84911442,-5.93713665,5.469407558,-2.566969156
1.9582550000000083,-26.58848381,9.606653214,152.568985,0.130488977,-1.728516102,11.38581944,-9.358250618,-6.137388706,-2.798803329
1.9665880000000016,-26.64283562,9.611571312,152.5500183,-3.362529039,-0.331457376,11.33317852,-8.000208855,1.30565989,-1.971309781
1.9749209999999948,-26.69141388,9.609982491,152.5361176,-0.42197746,-0.955293894,11.26664925,-7.459442616,0.311238617,-1.80853188
1.983253999999988,-26.73295784,9.618573189,152.5187836,-3.55001545,-0.72430706,8.28080368,-6.496934891,1.616104484,-1.599416614
1.9915869999999813,-26.79047012,9.618630409,152.4999237,1.048261404,-1.713261962,14.21077347,-8.437598228,0.756670117,-2.243691683
1.9999199999999746,-26.86302948,9.592536926,152.5033722,-2.568092585,-1.512482762,10.72123337,-10.63409615,-3.204584122,-1.279648781
2.008252999999968,-26.92122841,9.629267693,152.464325,-0.45565176,-0.666062355,12.02203369,-8.12269783,5.767481327,-2.379959822
2.016585999999961,-27.00424767,9.598002434,152.4679413,-0.686772764,-1.35451448,11.2992506,-11.89293575,-3.763820171,-1.550545216
2.0249189999999544,-27.06898499,9.619239807,152.4534912,-1.926344752,-1.672920227,10.99542713,-9.406276703,2.80014801,-0.618237913
2.0332519999999477,-27.14028358,9.616753578,152.4508362,-2.980298042,0.658701837,10.77276707,-10.36189365,-0.350364357,-0.644159675
2.041584999999941,-27.18769646,9.677244186,152.4259796,-1.710201502,-1.096144676,8.560089111,-7.120949745,7.554535866,0.442742079
2.049917999999934,-27.25699425,9.679642677,152.400177,0.093454979,-1.819523096,12.67890072,-9.653582573,1.423664927,-2.809894323
2.0582509999999274,-27.33457756,9.655107498,152.4134674,-0.995555699,-0.623076081,10.12942505,-11.5136385,-3.57965374,-0.208820075
2.0665839999999207,-27.39572906,9.684325218,152.3781281,-2.075902462,-0.965344906,12.07449913,-8.484625816,4.807612896,-2.329909325
2.074916999999914,-27.47640038,9.671731949,152.3935089,0.208383322,-1.579295874,10.85198498,-11.93255615,-2.422734976,0.664817393
2.0832499999999072,-27.55334663,9.698913574,152.3553314,-1.769745827,0.050940268,11.03223896,-10.32075596,4.751466274,-2.727954388
2.0915829999999005,-27.62401009,9.655390739,152.3895721,-0.262838811,-2.146730661,11.53201199,-11.11697769,-6.742987633,0.916938484
2.0999159999998938,-27.66558647,9.660322189,152.3666077,-3.387441635,0.498057693,7.787258148,-6.385205746,1.557652831,-2.360825777
2.108248999999887,-27.68873405,9.679854393,152.3638916,-0.428848863,-1.295082927,11.27761745,-4.670614719,1.985845923,0.548400819
2.1165819999998803,-27.72417259,9.611031532,152.3711548,-0.30081442,-1.401477337,12.4430933,-6.255342484,-7.938659191,-3.307809591
2.1249149999998735,-27.75402451,9.595444679,152.3764038,-2.060406208,0.348142922,13.13679218,-5.64308548,-2.179784536,-0.573028922
2.133248000000094,-27.77226448,9.518115997,152.394516,0.53890872,-1.231736183,12.06497478,-4.4058671,-9.436067581,-2.656158209
2.1415810000000874,-27.76503563,9.490328789,152.404007,-2.732614517,-0.994831681,8.620623589,-1.278649688,-3.70685339,-0.812496305
2.1499140000000807,-27.75867844,9.458789825,152.4129791,0.086212069,-0.894507766,13.9393816,-1.272425652,-4.069833279,-1.053423882
2.158247000000074,-27.75835991,9.383105278,152.4576721,-3.066148043,-1.202891707,10.66506195,-2.802594662,-10.73319817,0.200482652
2.1665800000000672,-27.73399544,9.421637535,152.444458,-2.558847904,-0.656118691,9.519993782,1.325459957,4.592683792,0.538155079
2.1749130000000605,-27.71521187,9.397815704,152.4575806,-0.839163721,-0.457604676,12.2773304,0.029712517,-3.485290766,-0.207795501
2.1832460000000538,-27.6932106,9.383288383,152.4705658,-0.92574507,-1.563402414,7.919187069,0.529420614,-2.484106779,0.319358289
2.191579000000047,-27.66220856,9.381919861,152.4648438,-1.728965998,-1.020235419,13.64952374,1.863025665,-0.061871182,-0.930552363
2.1999120000000403,-27.64918327,9.342320442,152.5063629,-0.852981508,-1.301203132,10.71891212,-1.105036616,-6.718396664,1.919607878
2.2082450000000335,-27.62316704,9.374376297,152.4849396,-1.564207077,-1.077238917,8.178214073,1.564517617,4.354471684,-0.715546548
2.216578000000027,-27.60376549,9.329875946,152.5263214,1.047994852,-2.33499527,12.65632248,-0.335303128,-7.230194092,1.636083603
2.22491100000002,-27.58616257,9.275085449,152.5434723,-3.140227795,-0.356728405,8.482383728,-0.195910498,-6.992238522,-1.500085115
2.2332440000000133,-27.54589844,9.294823647,152.5579529,-1.894644976,-1.609172344,10.98656559,2.693311214,1.077744603,2.38765645
2.2415770000000066,-27.51241875,9.246525764,152.5683441,-1.98600173,-0.815283954,12.78769493,1.839768291,-5.936932087,-1.841138601
2.24991,-27.48585892,9.258581161,152.5770264,-1.327932954,-0.674951911,12.25403118,1.16286087,0.581443191,1.350049615
2.258242999999993,-27.46975327,9.181405067,152.5977173,-0.051859219,-1.173188686,14.44539165,-0.448133826,-9.572565079,-2.353013277
2.2665759999999864,-27.44421005,9.163366318,152.6192627,-2.795717239,-1.395252824,9.115371704,0.797857881,-3.324971676,1.037735224
2.2749089999999796,-27.41895103,9.167286873,152.6074066,-0.345094711,-1.732874632,12.38467312,1.271746755,0.837944031,-1.282517552
2.283241999999973,-27.40646362,9.091347694,152.6503601,-0.581278861,-1.403705955,9.479039192,-1.175014615,-10.65786648,0.091135457
2.291574999999966,-27.37484932,9.108323097,152.6367188,-3.108301401,-1.087873697,11.3186903,2.064020872,2.328410864,-0.749792695
2.2999079999999594,-27.34304047,9.040286064,152.6755829,-0.053200204,-0.789990842,10.55575848,1.225359201,-9.594643593,0.108322591
2.3082409999999527,-27.28974915,9.097844124,152.643692,-5.226687908,-0.044581041,7.312835217,5.009991169,7.646618843,-0.440731406
2.316573999999946,-27.26338768,9.06116581,152.6760406,2.090928078,-2.487644672,14.25004673,0.691789269,-5.895974159,1.160939693
2.324906999999939,-27.25678062,9.025324821,152.6820831,-2.215807438,-0.971827745,9.584399223,-1.313971996,-4.374540329,-1.586635351
2.3332399999999325,-27.23366737,9.04414463,152.6964722,-0.710416675,-1.412237883,11.3853569,0.645017684,1.000184774,2.321264505
2.3415729999999257,-27.22091484,8.981700897,152.7053375,-0.871155679,-1.589823484,9.247089386,-0.631531835,-7.364567757,-2.746986151
2.349905999999919,-27.18134499,9.010209084,152.7256165,-2.594953537,-0.937425971,11.27815533,2.511552811,1.71615386,3.471395016
2.3582389999999123,-27.15650558,8.94924736,152.7414551,-1.911610603,-0.437229753,13.23023033,0.687767863,-7.588819981,-1.922515154
2.3665719999999055,-27.10747147,9.014094353,152.7565765,-2.905981779,-0.947728395,9.971432686,3.741778851,5.880105972,4.913629532
2.374904999999899,-27.08434868,9.008248329,152.7426758,0.377690434,-1.655342102,12.46795845,1.036146998,-0.095477052,-2.039623022
2.383237999999892,-27.06005859,8.973525047,152.7942505,-1.622038007,-0.704191267,9.464236259,0.091570884,-6.721162319,3.317991018
2.3915709999998853,-27.00996208,8.991204262,152.7772675,-1.077517033,-1.911116481,11.20576096,4.326525211,2.583246708,-1.083571672
2.3999039999998786,-26.95396996,8.974422455,152.8162689,-1.480855703,-1.417957783,8.626834869,4.130167007,-4.11878109,2.976066589
2.408237000000099,-26.88182259,9.020537376,152.7855835,-1.241363287,-0.489692181,12.596838,7.233562469,6.360654831,-0.991847217
2.4165700000000925,-26.80936623,8.963249207,152.8331757,-1.716816902,-1.376710892,10.56840324,5.944194317,-8.909900665,1.700273275
2.4249030000000857,-26.70523834,9.040173531,152.8079834,-4.243635178,0.533556938,7.148825169,10.96099854,9.365973473,1.237142086
2.433236000000079,-26.6044178,9.057765007,152.825531,0.747604609,-2.4757936,10.84201241,9.912351608,0.727751732,2.574845552
2.4415690000000723,-26.51636887,9.049043655,152.8485413,-0.539272964,-1.369857311,8.880206108,8.122375488,-2.375937939,1.717229366
2.4499020000000655,-26.40771866,9.069122314,152.8607635,-1.709549665,-0.479894876,12.66695786,10.95134258,1.283375859,2.140786886
2.458235000000059,-26.29852867,9.036484718,152.8813019,-0.492571771,-1.451146007,9.417627335,10.70559883,-4.808471203,0.188367113
2.466568000000052,-26.16591644,9.105331421,152.8598785,-3.394365788,-1.874564767,10.41711044,14.46407986,8.303496361,1.144854069
2.4749010000000453,-26.03621292,9.080846786,152.8897705,-0.827208757,-0.560553432,12.95228863,12.98580551,-4.415651798,1.632779837
2.4832340000000386,-25.89709091,9.139111519,152.8842468,-4.029995918,-0.649591863,9.892619133,14.94519138,6.34518528,2.243346453
2.491567000000032,-25.76770592,9.186247826,152.8855896,0.616660357,-2.027614355,12.52957058,13.48553753,4.800210476,2.351950645
2.499900000000025,-25.64612389,9.168886185,152.9098358,-1.105708122,-0.320051521,9.326234818,12.27080917,-3.350611448,1.454684019
2.5082330000000184,-25.50773239,9.196079254,152.9275055,-0.386847615,-2.682980776,11.60439396,14.25160694,1.822606564,3.040051222
2.5165660000000116,-25.37664032,9.180166245,152.9541779,-2.495950937,-1.7104038,10.82491589,13.36515427,-3.310986757,1.804702878
2.524899000000005,-25.23061752,9.264058113,152.938324,-1.279145479,-0.142644465,12.17881489,15.81044197,9.686358452,2.349671364
2.533231999999998,-25.10501289,9.211752892,152.9614258,-0.867992699,-2.061904192,9.821710587,12.77202702,-7.071258068,-0.421956122
2.5415649999999914,-24.94627762,9.241828918,152.9754791,-2.872408867,-0.214154243,8.261206627,16.76049805,2.349466324,2.778043747
2.5498979999999847,-24.78266335,9.237667084,152.9953308,-0.162235186,-1.201271534,9.881288528,17.39506531,-1.670957565,1.697096944
2.558230999999978,-24.61761665,9.236097336,153.0306702,-0.376589984,-2.059292316,8.360238075,17.10572624,-2.136573315,3.466579437
2.566563999999971,-24.46821976,9.210749626,153.0598907,-0.131983504,-1.951627254,13.71551991,15.51039505,-4.431429386,1.656472921
2.5748969999999645,-24.3298893,9.147122383,153.1181183,-2.594771385,-0.907457769,10.11865234,13.46417522,-10.01804829,2.871253729
2.5832299999999577,-24.16015625,9.21586895,153.1128998,-3.332856417,-1.72352922,9.634989738,18.61353874,7.548696995,2.594722748
2.591562999999951,-24.00992203,9.174454689,153.1541595,-0.349282563,-1.972581029,12.4413538,15.21306324,-6.748493195,2.179848433
2.5998959999999443,-23.85923004,9.15677166,153.1840973,-1.972214341,-0.547323465,12.95884323,15.65780544,-3.605242729,2.14939332
2.6082289999999375,-23.7120533,9.112175941,153.2177887,-0.177379757,-1.963576913,9.305624962,14.99647427,-6.721856117,1.239601374
2.6165619999999308,-23.54954529,9.121026993,153.2306976,-2.983447552,-0.87966466,9.067570686,17.40049744,0.131836504,1.596663833
2.624894999999924,-23.41449356,9.083487511,153.2626038,-0.16181691,-1.489023685,10.64346218,13.58059502,-5.853251457,1.416288257
2.6332279999999173,-23.24472809,9.078125,153.2889404,-3.549461126,-1.103768706,10.07265568,18.01833725,-2.053864956,2.382354736
2.6415609999999106,-23.06483269,9.105044365,153.3000946,-0.482893974,-1.309002876,11.22906971,19.3553009,2.232588768,2.23094964
2.649893999999904,-22.87501717,9.064427376,153.3432617,-1.746572495,-0.428630143,10.1278429,20.10536385,-6.710432529,2.577100515
2.658226999999897,-22.65547562,9.047019958,153.3836212,-1.338464975,-0.598873734,8.905508041,23.56333733,-3.991173267,3.346680164
2.6665599999998904,-22.40105438,9.081869125,153.397522,-1.613137126,-1.021241665,7.605354309,28.41476059,3.003168583,2.894103289
2.6748929999998836,-22.1332531,9.063240051,153.4315186,-0.51237762,-1.367224216,13.50508595,29.47729301,-3.811490536,2.625793934
2.683225999999877,-21.85808945,9.043379784,153.4617615,-3.359675884,-0.240721732,11.37618065,30.59533501,-3.779396534,2.201238155
2.6915590000000975,-21.54597473,9.131505013,153.4565887,-2.388734102,-1.235931754,11.28326797,35.53566742,9.835595131,3.087338448
2.6998920000000908,-21.25231552,9.104791641,153.4941254,0.127646267,-1.535609007,11.02273273,32.67393112,-4.833807468,2.740597725
2.708225000000084,-20.91773033,9.138807297,153.5092621,-2.238319159,-0.871102095,10.4322834,37.85053253,2.94489789,2.889084339
2.7165580000000773,-20.5784111,9.172337532,153.5294495,-0.552533746,-1.18492043,6.296869278,38.48082733,2.688934565,3.430518627
2.7248910000000706,-20.19832611,9.189864159,153.5585632,-1.824533343,-0.835961938,10.79302788,43.04202652,0.553473294,3.714531422
2.733224000000064,-19.82280159,9.215371132,153.5852203,-2.297283888,-1.386954665,9.00055027,42.700737,1.566978931,3.783228159
2.741557000000057,-19.41951942,9.270051956,153.6004333,0.050444163,-0.859008312,12.31416321,46.09571457,5.358071804,3.647755146
2.7498900000000503,-19.04557991,9.188612938,153.6594391,-0.764912248,-1.471730351,10.91379547,41.88528442,-11.75678635,3.149582863
2.7582230000000436,-18.59295082,9.266295433,153.6804504,-3.459739685,-0.556230903,7.307276249,51.90934372,7.805291176,5.109258175
2.766556000000037,-18.14809036,9.265715599,153.7191772,-0.914856613,-1.304666281,10.14132786,50.78476715,-1.740247965,4.100617886
2.77488900000003,-17.67282867,9.225982666,153.7745972,0.345127016,-1.056295156,13.99268723,53.93981934,-6.819051743,4.671330929
2.7832220000000234,-17.20445442,9.208584785,153.808075,-1.684973598,-1.752239227,8.293387413,53.71066284,-3.406868696,2.928713799
2.7915550000000167,-16.70868111,9.208040237,153.8544617,-2.170351267,-1.133489847,13.83605099,56.57808304,-1.940347672,5.175985336
2.79988800000001,-16.2178688,9.17680645,153.9129791,-2.445347786,-0.958568335,6.130047798,55.92438507,-5.785234928,5.354491234
2.808221000000003,-15.67067528,9.207649231,153.9562836,1.053428531,-2.245801449,7.236326694,62.79981995,1.856808066,5.956355095
2.8165539999999964,-15.17953587,9.072844505,154.0265045,-0.712495744,-1.337910175,11.17250919,55.74880981,-18.03238678,3.487132311
2.8248869999999897,-14.63155079,9.0866642,154.0812836,-3.794867754,-1.259910345,8.912753105,62.67695236,-0.379181653,6.8043437
2.833219999999983,-14.11802006,9.108333588,154.1103058,-1.401230097,-1.188155651,16.0377903,59.22285843,1.437910795,3.746656656
2.8415529999999762,-13.6115942,8.976189613,154.1969604,1.338555455,-2.625211239,12.27239227,57.16210556,-18.06547928,5.890318871
2.8498859999999695,-13.07470608,9.048715591,154.2098236,-5.142293453,-0.443707734,7.641520023,62.33550262,7.888468266,3.262445211
2.8582189999999628,-12.58726692,8.98322773,154.2865906,0.48251006,-2.198363543,11.10666752,55.04970169,-9.928629875,7.001209259
2.866551999999956,-12.0667429,8.911990166,154.3287201,0.237660512,-1.508243442,8.285095215,59.82734299,-9.645827293,2.824413776
2.8748849999999493,-11.54974365,8.91186142,154.3897247,-3.524005413,-1.002803802,12.73707867,58.9068985,-1.744808435,6.990683556
2.8832179999999425,-11.04903221,8.853980064,154.4524078,-2.779168844,-1.785673976,10.09185219,57.07549286,-8.494844437,5.695597172
2.891550999999936,-10.51238918,8.90284729,154.5039063,0.847501993,-1.902203321,10.00016403,61.45736694,4.375950813,6.971448898
2.899883999999929,-10.02548981,8.776771545,154.5646667,-1.93061161,-1.616513848,11.6310854,55.45809937,-16.39675713,4.161479473
2.9082169999999223,-9.476263046,8.892299652,154.6141968,-3.887696981,-0.672011912,6.273566723,63.01306534,12.42676544,8.018437386
2.9165499999999156,-8.947063446,8.812870026,154.6725616,3.918372869,-2.009044409,15.38361263,60.57804871,-10.7428894,5.073863983
2.924882999999909,-8.374829292,8.748456001,154.7509308,-5.292349815,0.752794564,2.235179186,65.31669617,-9.218457222,7.528487206
2.933215999999902,-7.774804592,8.827392578,154.792572,0.014365223,-1.764906883,11.31532383,69.39183044,8.457907677,5.989812374
2.9415489999998954,-7.162320137,8.692180634,154.8750458,0.696440458,-0.669102728,13.80667114,70.12046814,-17.51052284,6.829785824
2.9498819999998886,-6.548340321,8.729341507,154.9274292,-4.044499874,-0.806257784,10.83673954,70.87941742,3.457450628,6.471439838
2.958214999999882,-5.902900696,8.647807121,155.0001373,-0.260747194,-0.9106341,11.08675957,74.24033356,-10.84206009,6.924355984
2.966547999999875,-5.251840115,8.600154877,155.0694275,0.941738009,-0.768073976,6.277887344,75.03291321,-6.717994213,7.397351265
2.974881000000096,-4.549160957,8.547149658,155.1184082,-3.760735273,0.420642644,6.478542328,81.52396393,-7.03943491,4.869089603
2.983214000000089,-3.813485861,8.489606857,155.2102051,0.640735388,-1.333150387,15.15334225,84.80525208,-7.907536507,10.13105869
2.9915470000000823,-3.037988186,8.385975838,155.2748718,-1.412282348,-0.194565758,11.43653679,89.99510956,-13.08537006,6.604140282
2.9998800000000756,-2.271082878,8.358605385,155.3621216,-1.667387366,0.034703176,8.934120178,88.65884399,-3.987485409,9.966005325
3.008213000000069,-1.439103246,8.203447342,155.4306488,1.377526402,-0.779620528,8.143429756,96.72270966,-19.09107971,7.285366058
3.016546000000062,-0.550741613,8.111838341,155.5274048,-2.876151085,1.680175781,11.52762032,103.1119919,-11.41746235,11.0719347
3.0248790000000554,0.355846912,8.020887375,155.5843658,-0.479942948,-1.43979919,8.328645706,105.9049759,-11.14416027,6.507079601
3.0332120000000486,1.302169323,7.821488857,155.6669464,-0.789104104,-1.095867038,9.90144825,110.3517532,-24.0097599,9.929469109
3.041545000000042,2.274288654,7.768144131,155.7360382,-1.923332214,-0.239906698,14.12240505,113.6076202,-6.359229565,8.168652534
3.049878000000035,3.196122408,7.574903488,155.8121033,0.711835384,-1.644723892,11.47025299,107.5595016,-22.95737457,9.913070679
3.0582110000000284,4.147737026,7.373412132,155.8799438,-2.288723946,-0.95830667,5.155360222,111.2181549,-23.82831192,9.361775398
3.0665440000000217,5.158315659,7.291482925,155.9576721,-1.604283333,-1.013754487,10.25715446,118.2376938,-9.275836945,9.787910461
3.074877000000015,6.135629177,7.011230469,156.007782,0.369971037,-1.839002728,18.42427063,114.6191101,-33.09614563,9.004746437
3.083210000000008,7.067605972,6.982901573,156.0818939,-2.884431601,-0.550163627,12.16673946,108.9107513,-2.590023518,8.930265427
3.0915430000000015,7.953583717,6.739737988,156.1160889,1.917429924,-2.246009588,9.092639923,103.9201279,-28.61355782,7.614780903
3.0998759999999947,8.893303871,6.596218586,156.1846466,-5.470447063,-0.802795231,7.862370014,109.9683075,-16.06610298,10.37623596
3.108208999999988,9.857600212,6.461087227,156.2346802,1.850669384,-1.008690596,10.87070465,113.132782,-15.24580669,8.288067818
3.1165419999999813,10.79013538,6.204543591,156.2587738,-3.699796438,-0.125412449,14.58463097,109.743187,-29.9984436,8.114297867
3.1248749999999745,11.70536804,6.198335648,156.3503723,1.287704229,-1.682322741,14.76935196,106.7432709,1.180802584,10.62471199
3.133207999999968,12.55295467,5.904126167,156.3488007,-1.198068023,-1.217917085,12.47698879,99.88734436,-34.78215408,7.005125999
3.141540999999961,13.43386555,5.878560543,156.457962,-3.193691492,-0.992344797,8.962085724,102.4729462,-0.277673721,13.1492424
3.1498739999999543,14.28278923,5.640305996,156.442749,0.573071897,-2.122184277,12.53702927,100.2110062,-28.41886711,4.855071068
3.1582069999999476,15.15118504,5.600016594,156.5668335,-3.036452293,-1.319826245,8.681585312,100.8629227,-1.13048172,15.32306194
3.166539999999941,15.94974518,5.408333778,156.5441895,2.976613283,-1.742913723,15.92666435,94.24307251,-23.1104908,3.331056118
3.174872999999934,16.77715111,5.340882778,156.6473083,-5.801373959,-0.356998682,6.642624378,96.25092316,-4.515173912,13.8642292
3.1832059999999274,17.57890511,5.172131538,156.6071625,2.009448051,-1.52799809,17.49909592,94.80851746,-20.98854065,1.169376373
3.1915389999999206,18.34435463,5.120251179,156.7014008,-3.582565784,-1.197938323,9.008470535,88.96492767,-2.667882204,12.39701843
3.199871999999914,19.09035492,4.961175919,156.6269684,1.116260886,-2.823314428,10.6255579,88.46046448,-21.16215706,-2.531742096
3.208204999999907,19.81118584,4.924818993,156.7184753,-3.413989067,-1.461899281,13.83641052,83.68434906,-0.690141439,11.53469849
3.2165379999999004,20.47425079,4.806284428,156.6365662,-0.55944401,-3.050317764,14.73810768,78.55341339,-16.95399094,-4.525177002
3.2248709999998937,21.06150055,4.751723289,156.7249298,-1.213537574,-2.019310713,10.69683456,67.72293854,-2.594643354,11.96768761
3.233203999999887,21.62756348,4.722509861,156.6786041,-3.628641129,-2.572566271,7.717568398,66.53895569,-5.509528637,-4.114878654
3.24153699999988,22.13445473,4.684994698,156.7693024,0.995610535,-1.931545854,8.720510483,58.0742569,-0.358075261,11.51071262
3.2498699999998735,22.5602932,4.666749477,156.7225037,-0.198799759,-3.909285069,13.34590244,49.70735168,-4.379262924,-4.574879169
3.258203000000094,22.99844933,4.595843315,156.7908478,-1.661088705,1.220144272,12.44117355,50.06500626,-4.900872707,10.60137367
3.2665360000000874,23.37552643,4.562024593,156.7628632,0.355759799,-2.70580554,16.32617378,43.66485977,-5.277040005,-1.709996223
3.2748690000000806,23.69731712,4.533242702,156.8327484,-2.769161463,-3.349710464,16.25858879,36.10174561,-0.049909398,8.80907917
3.283202000000074,23.96443748,4.493159771,156.8164978,0.598757088,-0.981522202,7.936916351,30.35624695,-5.411383152,-0.062281061
3.291535000000067,24.18653297,4.514933586,156.8939819,-2.79737258,-2.530257463,9.845350266,24.07767487,5.944478035,7.164562225
3.2998680000000604,24.406147,4.520568848,156.9191589,0.316240847,-1.349312782,8.148047447,24.26089668,1.628656626,2.235790968
3.3082010000000537,24.58693695,4.473788738,156.9358215,-3.988709688,1.331585407,7.237989426,19.69937706,-4.503893375,3.911806822
3.316534000000047,24.77629089,4.515836716,156.997406,4.158344746,-3.176371098,12.52367496,20.2895031,7.43361187,4.356829166
3.32486700000004,24.93437195,4.483513832,157.0058441,-4.427412033,-0.42547971,19.79581642,17.05493164,-3.315929651,2.315527201
3.3332000000000335,25.05452347,4.423716068,157.0250397,2.353980064,-0.911028683,12.80389881,12.38284492,-5.761065006,4.883533478
3.3415330000000267,25.19059181,4.513292789,157.0852356,-5.302119255,-0.890678644,8.07496357,13.93814373,12.56819057,1.727117181
3.34986600000002,25.33792305,4.476143837,157.1188202,1.711280823,-1.931974173,7.115298271,15.50814247,-2.544480324,5.304837227
3.3581990000000133,25.47982979,4.478541374,157.1046448,-0.37003389,1.822984815,9.213373184,15.33555222,-0.69075197,-1.885963559
3.3665320000000065,25.66584396,4.485271931,157.170517,-3.193384171,-1.982047796,7.472970963,19.85062981,3.903328419,6.529147148
3.374865,25.85525322,4.50082922,157.1556549,1.386584878,0.051981591,12.34895706,21.04676437,0.684950531,-2.639944792
3.383197999999993,25.99767303,4.445721149,157.1631622,-0.877903879,-0.03254535,15.38298225,15.16450214,-5.781582832,3.469013453
3.3915309999999863,26.2042675,4.456073761,157.1425629,0.180145174,-0.204515845,12.08784103,23.1661644,-0.190685257,-2.986813068
3.3998639999999796,26.42253876,4.395098209,157.147583,-2.916889906,-0.324436545,7.160036564,24.29273224,-6.520580769,3.552005053
3.408196999999973,26.61548996,4.372438908,157.1075745,5.248349667,-1.048712134,14.51277828,21.70597458,-4.793488503,-3.29661727
3.416529999999966,26.84819984,4.309400082,157.1026917,-7.139716625,-0.043042231,11.28238201,26.11495972,-7.246695042,2.649615049
3.4248629999999594,27.05885315,4.209669113,157.0395203,5.247580051,0.160614848,15.75991344,24.03410721,-14.31674004,-1.540351391
3.4331959999999526,27.23492241,4.231378555,157.0744171,-6.022681236,-2.429007292,10.51463699,18.96555519,3.997282028,2.29841733
3.441528999999946,27.4322567,4.080921173,156.9853363,3.565720797,-1.5588063,8.898164749,22.65058327,-21.15697479,-1.410897136
3.449861999999939,27.61116219,4.053042889,156.9899292,-3.309059143,1.287419319,14.04222107,19.57596397,-2.940476656,1.804164648
3.4581949999999324,27.76410294,3.993804932,156.951767,0.484138221,-2.913150549,7.359274387,16.8725605,-8.638184547,-0.969691157
3.4665279999999257,27.89621162,3.878264666,156.9103088,-2.649618387,-0.215666339,12.22191811,14.339571,-14.80496979,1.85529089
3.474860999999919,28.03158569,3.83150816,156.8800507,0.563441455,-0.448931515,6.764855862,14.69015121,-6.875975609,-0.798101246
3.483193999999912,28.13772774,3.806180477,156.8794403,-1.035151362,-1.159077406,11.85376644,10.88699818,-2.942269087,1.137144089
3.4915269999999055,28.22565079,3.703429699,156.8292847,-1.192737103,-2.229002714,12.38995361,9.150201797,-13.92745018,0.301889449
3.4998599999998987,28.31612396,3.622812986,156.7810974,1.01843214,0.891275883,13.65366268,9.372149467,-11.47970104,-0.730095565
3.508192999999892,28.33611107,3.578701496,156.7859039,-1.347596288,-2.675363541,17.46964264,0.570019186,-4.607501984,2.790978193
3.5165259999998852,28.39710426,3.472032785,156.7280884,-1.810928583,-0.258923113,9.33765316,5.887842655,-14.77966022,-0.241452634
3.5248589999998785,28.38894653,3.356781006,156.6911163,0.844673157,-0.246349841,14.93913174,-2.499348164,-14.49396038,2.45433116
3.533192000000099,28.3938942,3.365190029,156.6760559,-2.385077238,-2.406694651,6.89604187,-1.157750726,-0.197805941,-2.297327757
3.5415250000000924,28.3855629,3.187233448,156.6177521,-0.01198907,-0.480295241,11.74249935,-2.382496119,-22.32874298,3.781994581
3.5498580000000857,28.37019539,3.166665554,156.5717926,-0.260983795,-1.794865966,9.66794014,-3.394718409,-5.015996933,-3.900855541
3.558191000000079,28.32977486,3.085754395,156.5509491,-0.714495659,-0.563824296,10.29752636,-6.49301672,-9.953040123,2.184792042
3.566524000000072,28.28796577,3.002691746,156.462265,-2.438183784,-0.46594581,12.83863926,-6.30841589,-14.04158497,-4.859981537
3.5748570000000655,28.23557281,2.937652826,156.4478455,0.736500025,-0.955093265,8.449176788,-7.974313259,-7.914914608,1.947040677
3.5831900000000587,28.15407562,2.894176245,156.3787384,-1.820084453,-1.808529854,15.8477087,-11.21605301,-8.73700428,-5.06235981
3.591523000000052,28.07837677,2.785137653,156.3517456,-0.435109735,0.952489853,7.460933208,-10.69475365,-13.28834915,3.085005283
3.5998560000000452,27.99450302,2.744987726,156.2892914,-1.474884033,-2.281193018,11.76340389,-11.56005096,-7.996956348,-4.571155071
3.6081890000000385,27.91596413,2.647236347,156.2785339,0.941592634,-0.011657418,13.13901424,-11.13349915,-11.18890285,4.133011341
3.6165220000000318,27.79232788,2.527671337,156.1685181,-2.608428478,-0.40789631,9.039961815,-16.09900284,-19.07420158,-5.185771465
3.624855000000025,27.69879341,2.481141567,156.1894989,2.240449905,-1.429819942,12.6506424,-13.097929,-3.993810177,4.598396301
3.6331880000000183,27.58855629,2.355685711,156.0847015,-4.784729958,-0.94071722,10.75283051,-14.55743504,-19.39361,-4.374875069
3.6415210000000116,27.42007446,2.25732708,156.0650787,5.914291859,-1.250458121,14.59801865,-21.88482475,-11.77828789,3.139358997
3.649854000000005,27.29305267,2.154571772,155.9851227,-7.454938412,-1.389737844,8.399422646,-16.73333931,-15.5848217,-3.081662893
3.658186999999998,27.16395378,2.0189991,155.9490967,5.947749138,0.402756602,9.631984711,-17.09283447,-16.66551399,3.376547098
3.6665199999999913,27.0117836,1.924197078,155.885376,-7.081172943,-1.37610209,16.73721313,-19.85663795,-13.83477879,-1.851077557
3.6748529999999846,26.84605789,1.780764699,155.8364105,5.071907043,-0.729179323,6.547202587,-21.45481682,-18.23011208,2.331229687
3.683185999999978,26.70068932,1.668118715,155.7610779,-7.619328976,0.655986249,15.01703262,-19.03106689,-16.36467361,-2.208165884
3.691518999999971,26.51294708,1.545769334,155.719574,5.939874649,-2.340197802,11.2564373,-24.14498138,-15.58116245,1.898477197
3.6998519999999644,26.36215973,1.436262488,155.6217804,-8.661744118,0.207828745,7.909495831,-19.64924049,-17.21663094,-4.883702278
3.7081849999999577,26.16995811,1.308921099,155.5864105,7.220835209,-0.681832671,17.44421196,-24.71871567,-15.80613232,2.73029995
3.716517999999951,25.97730255,1.182887554,155.4834595,-8.340726852,-1.654732227,5.795166969,-24.71016312,-19.23888016,-4.674358368
3.724850999999944,25.81603813,1.14641273,155.4988861,3.64315033,0.104486793,9.767065048,-21.14308548,-3.356246948,3.348652363
3.7331839999999374,25.6367836,0.997814357,155.3874207,-6.568385601,-0.790807962,15.56741905,-23.1192627,-22.09638214,-4.53655386
3.7415169999999307,25.47238159,1.059453964,155.4886627,2.668375492,-0.587655008,7.06708765,-21.69791794,11.68481064,7.537914753
3.749849999999924,25.28274155,0.940213442,155.3716583,-3.743896961,-0.894308865,15.02931881,-24.37128639,-19.1718502,-6.779517651
3.7581829999999172,25.10512352,0.954388976,155.4672394,-0.51779294,0.336336881,11.68322754,-23.25608826,6.192526817,9.42565918
3.7665159999999105,24.90983772,1.013092399,155.4500732,-2.275167227,-1.46143949,10.07432747,-25.25773811,5.284911633,-5.076039791
3.7748489999999038,24.72862244,0.95163554,155.4920197,1.416767359,-0.231660932,11.83946991,-23.58092308,-4.808805943,7.437685013
3.783181999999897,24.53080559,1.114525437,155.5139771,-5.644534111,-0.007871542,16.65337563,-25.64690399,18.63803673,-5.980557919
3.7915149999998903,24.28438187,1.033446908,155.5569763,6.459276676,-2.489952564,7.348697186,-31.41610146,-6.95927763,8.492381096
3.7998479999998835,24.08011818,1.132128119,155.5227814,-6.616542816,0.184108973,10.2887764,-26.29276276,8.895317078,-8.82399559
3.808180999999877,23.83979034,1.160240769,155.6387634,1.933410764,-0.409563214,11.95441532,-30.8681221,8.502527237,11.11933136
3.8165140000000974,23.61401939,1.168958306,155.5584869,-0.358123332,-1.989435673,6.59970665,-28.75695801,-3.14495635,-9.467219353
3.8248470000000907,23.35567093,1.178999543,155.6576385,-3.094100475,-0.116333373,13.70340538,-32.9952774,5.614569187,10.201828
3.833180000000084,23.10534859,1.245123029,155.6170044,0.954280853,-1.981896281,9.045555115,-31.79596519,5.141652584,-7.837617397
3.8415130000000772,22.85191917,1.147996068,155.6538239,-1.655161738,-0.935886025,8.181930542,-32.25341034,-9.235772133,8.390078545
3.8498460000000705,22.57944107,1.1633991,155.6040955,1.709491372,0.144894779,16.55587578,-34.43900681,-0.824997067,-6.445637703
3.8581790000000638,22.28858185,1.187978148,155.6720276,-5.773928642,-1.043172836,11.58013535,-36.81859589,5.603274345,6.178467751
3.866512000000057,21.97165108,1.148484945,155.6508942,5.278795719,-0.776336432,15.19194031,-39.84209061,-5.570886612,-0.79075104
3.8748450000000503,21.59666252,1.137924552,155.6620483,-5.845077038,-1.278163791,11.29621124,-46.77461624,-0.909652948,1.484808922
3.8831780000000435,21.22921562,1.203144431,155.6954803,0.888355196,-2.197267294,6.11972332,-46.03855896,8.522333145,0.646991134
3.891511000000037,20.8548584,1.184001923,155.6908264,-4.975889683,-0.123627201,13.77505016,-46.66150284,-2.575605869,0.079634801
3.89984400000003,20.42414665,1.221739292,155.7390137,2.607890129,-2.350362301,7.44707346,-53.67128754,6.046716213,3.582338572
3.9081770000000233,20.02276802,1.233594656,155.7153473,-2.47109127,-0.622888803,6.192131042,-49.85584641,0.121924013,-3.380330563
3.9165100000000166,19.60452461,1.240907192,155.7714233,-1.250199437,-0.150717184,18.53394508,-52.19907761,2.878124714,5.802047729
3.92484300000001,19.13162994,1.299381495,155.7598419,-0.623912871,-0.513094246,13.9090786,-58.46826553,5.925947666,-3.864161968
3.933176000000003,18.6728878,1.419374347,155.8299255,-4.221943378,-0.726973832,9.978766441,-57.11248016,16.1176281,3.059092045
3.9415089999999964,18.20142555,1.45427072,155.8266907,1.061601996,0.174687266,15.30579853,-58.31827164,3.614179611,-1.917346597
3.9498419999999896,17.67612076,1.56584394,155.8726196,-2.387531996,-1.130340934,12.35590744,-65.04718018,14.20670891,0.889124811
3.958174999999983,17.17312813,1.699370742,155.8958435,0.701322317,-2.395329714,2.447951794,-62.19252014,15.88464832,-2.365675211
3.966507999999976,16.68689537,1.767604113,155.9244385,-3.186215878,-0.35535112,14.68581486,-60.31679153,8.604258537,0.666125953
3.9748409999999694,16.12682533,1.921955705,155.9616089,0.915522635,-1.45840621,13.23138523,-69.10579681,18.79086876,-1.178068042
3.9831739999999627,15.59309292,2.133119106,156.0128174,-5.153348923,-0.555596352,4.18518734,-66.13000488,25.82471848,-1.247226596
3.991506999999956,15.07589722,2.324602365,156.0799255,-1.635489106,-0.887850881,13.89926147,-64.13194275,24.04871368,1.460043073
3.999839999999949,14.48754692,2.541573286,156.1192017,-1.058599234,0.240216762,18.88031197,-72.66879272,26.14760971,-2.319393873
4.0081729999999425,13.89164352,2.890449047,156.2200165,-5.46298027,0.241743118,6.600163937,-73.83892822,43.31051636,1.229363203
4.016505999999936,13.32441998,3.171799421,156.2736206,1.215901971,-1.106412053,8.396016121,-70.27284241,34.09698105,-1.930696011
4.024838999999929,12.74710751,3.489432335,156.3329773,-4.685809135,-0.3059448,13.58687019,-71.44982147,38.49649811,-1.891660571
4.033171999999922,12.13305569,3.896263599,156.4243164,2.483576298,-0.849449396,11.65807247,-76.25811005,49.79981232,-0.065099053
4.0415049999999155,11.53831577,4.240198135,156.4612274,-3.477762222,-1.977090597,5.860259056,-73.44354248,41.05810547,-4.362835407
4.049837999999909,10.91264248,4.623911858,156.5523682,1.484567404,-0.615755618,17.08660316,-77.79258728,47.05909729,1.501543045
4.058170999999902,10.27762222,5.064743042,156.5648956,-3.871797562,0.026909422,7.381166458,-78.09165192,52.03068161,-8.473651886
4.066503999999895,9.667527199,5.49616909,156.6742706,-2.065793753,-0.530914128,10.93669415,-76.28559875,53.02340317,3.676695108
4.074836999999889,9.024692535,5.937860489,156.659729,-0.298509032,-0.509994268,13.56206512,-78.73143768,51.77341461,-10.53671741
4.083169999999882,8.408993721,6.436194897,156.7588196,-4.574862957,0.039322115,5.100197792,-77.03129578,60.66992188,2.392133236
4.091502999999875,7.765020847,6.842695713,156.727005,3.047122478,-0.488972038,17.99446487,-78.60274506,47.51880646,-10.83255768
4.099836000000096,7.111498356,7.372847557,156.787735,-3.986217022,-1.165524125,7.799838543,-81.19120789,63.78773117,-1.297283411
4.108169000000089,6.44669342,7.766458988,156.7460938,4.238790512,-0.647769809,12.2358551,-80.88730621,46.07550049,-10.70692348
4.116502000000082,5.801363945,8.30202961,156.7675629,-5.864131451,0.51361537,9.630187988,-79.66703033,63.94343185,-4.549220085
4.1248350000000755,5.157016277,8.713136673,156.7499084,0.646046042,-0.58398813,10.47101593,-78.77692413,48.66602707,-7.012448788
4.133168000000069,4.532304764,9.207030296,156.7266235,-2.802208185,0.242345333,8.708076477,-76.39798737,58.59184265,-7.983139515
4.141501000000062,3.88967061,9.571256638,156.6962128,2.192193985,-0.904788494,12.84228039,-78.29406738,43.08359909,-7.014443398
4.149834000000055,3.211942911,10.01816654,156.651535,0.065477885,-0.581138492,11.57596111,-82.28340912,52.96957779,-8.824113846
4.158167000000049,2.529800892,10.33433628,156.5938416,-1.573697925,0.244084671,8.02923584,-82.41172791,37.31365967,-8.919596672
4.166500000000042,1.87024951,10.76339531,156.531662,-1.855016708,-1.159036994,8.408964157,-79.64797211,50.93689728,-9.534296036
4.174833000000035,1.224548936,10.9807415,156.452301,2.214728594,-0.034883726,14.96592331,-77.46685028,25.58162498,-10.26536274
4.183166000000028,0.565195858,11.34417915,156.3687439,-2.138084412,-0.513892472,11.21135807,-79.04984283,43.22533035,-10.7480011
4.191499000000022,-0.165175125,11.5148201,156.2992401,2.273465872,-1.51962018,12.27681446,-87.77477264,20.21380043,-8.457740784
4.199832000000015,-0.850196838,11.83122253,156.1939087,-3.92155385,0.454195529,2.426760435,-81.51411438,37.84625244,-12.27026749
4.208165000000008,-1.579217315,11.88024807,156.1177216,5.062049866,-2.209604025,15.94969749,-87.39273071,5.838599682,-9.032779694
4.216498000000001,-2.294105291,12.03350925,155.9970245,-3.645707846,1.062219024,7.54989624,-84.65455627,18.63243103,-13.77006149
4.224830999999995,-3.069975615,12.17140961,155.9008789,0.118410692,-3.415846586,16.55452347,-92.47673798,16.82591629,-10.7066927
4.233163999999988,-3.862720966,12.14190292,155.7871094,-2.241369247,0.921473742,7.643578053,-94.12535858,-2.954049349,-13.7655201
4.241496999999981,-4.670918465,12.28407001,155.661026,2.672832012,-2.993898392,9.05819416,-95.57817841,17.88280487,-13.68834877
4.2498299999999745,-5.544270039,12.14245892,155.529541,-2.093563795,-0.268898278,16.01776695,-103.3354034,-15.7793045,-17.10180473
4.258162999999968,-6.392630577,12.33379745,155.4091949,-2.899060726,0.598050117,5.263758183,-100.7996063,23.95281792,-10.67561531
4.266495999999961,-7.315112114,12.11845398,155.2703094,4.716130733,-2.35644722,14.97608757,-109.0399475,-23.93873215,-19.4856987
4.274828999999954,-8.17124176,12.06174755,155.1894379,-5.656212807,0.272368342,5.730557442,-102.7245407,-5.825819969,-9.524113655
4.2831619999999475,-9.057167053,12.09142399,155.042923,1.476526499,-0.211981237,14.47672844,-104.5055389,5.868841648,-16.69394493
4.291494999999941,-9.99990654,11.83911896,154.9724121,-0.885651648,-0.038153283,13.86609268,-113.3688507,-28.85856056,-12.50936222
4.299827999999934,-10.90558243,11.85595989,154.8305206,-1.360101581,-2.867695093,4.673329353,-107.0598602,4.783585072,-16.25113297
4.308160999999927,-11.84332561,11.63124847,154.7757568,0.972464204,1.14431715,20.28087044,-113.1594849,-25.54017258,-11.08783245
4.316493999999921,-12.75179386,11.6141634,154.6416168,-6.953897476,1.586768389,2.143298388,-107.6463623,1.127268553,-16.06988335
4.324826999999914,-13.66073322,11.5068264,154.5650787,3.604638338,-2.547430277,12.40247345,-109.2453995,-10.93069839,-10.97186089
4.333159999999907,-14.53830719,11.2853241,154.4736633,-1.16370225,1.24725616,9.023138046,-105.012886,-23.38577271,-17.13404083
4.3414929999999,-15.41127205,11.26629925,154.3729553,-2.33234024,0.560919464,13.54875278,-104.3884048,0.404606342,-11.3932066
4.349825999999894,-16.30401421,10.99390411,154.3236237,-1.71932447,-0.890912533,12.20564651,-107.8582535,-30.08147812,-14.74982738
4.358158999999887,-17.13533211,11.06378365,154.1934357,-2.796936035,0.243905038,7.062933445,-98.82032776,11.87942314,-11.3563118
4.36649199999988,-18.00341988,10.80709743,154.1391144,1.428612947,0.335411578,15.8566227,-104.8053589,-27.6582222,-15.63175011
4.374824999999873,-18.8052845,10.80458736,154.0536804,-3.767578125,-0.127023607,2.804316282,-96.21073914,2.537802696,-9.461835861
4.383158000000094,-19.60658264,10.59594822,154.0023804,3.624918222,-0.089809328,20.02103043,-96.8813858,-21.88008881,-14.17833328
4.391491000000087,-20.35547638,10.51287746,153.9504852,-5.336734295,1.788019061,3.993859053,-90.55633545,-7.495637417,-9.37919426
4.399824000000081,-21.08124924,10.41291142,153.8868408,1.403931499,0.890432298,16.40802383,-87.57350922,-8.790470123,-11.49678516
4.408157000000074,-21.72647285,10.30959606,153.8619537,-5.263067245,2.215221882,4.92754364,-78.72089386,-10.68906975,-7.481330872
4.416490000000067,-22.32713699,10.24827766,153.800354,1.13691771,0.821858585,14.84025669,-72.62940216,-4.320437431,-9.730957985
4.42482300000006,-22.85354996,10.09645939,153.7992554,-3.311164856,1.840093732,5.483865261,-64.97979736,-16.99020767,-7.339365482
4.433156000000054,-23.33914566,10.0589056,153.7444153,0.900707126,0.183335245,10.710392,-58.98466873,-1.830130219,-7.956282616
4.441489000000047,-23.75467682,9.888741493,153.7429962,-2.056494713,1.998266578,9.330368042,-51.66895676,-18.87145424,-8.536517143
4.44982200000004,-24.10985374,9.85964489,153.6906281,-0.186773449,0.432991475,12.29448891,-43.40853119,-0.906681359,-7.304307461
4.458155000000033,-24.4229393,9.638875008,153.6989288,-1.370238066,1.602540135,11.61443996,-39.58000183,-24.77386856,-10.21773052
4.466488000000027,-24.66884041,9.623010635,153.6461945,-2.058213711,0.25838539,7.65282011,-30.31084633,0.633184373,-6.695066452
4.47482100000002,-24.91008186,9.432440758,153.6469269,-0.251123875,1.002888322,13.32574177,-30.8100853,-21.0173912,-9.732232094
4.483154000000013,-25.06784439,9.399170876,153.5947113,-2.154649734,-0.221860722,8.314803123,-19.76690674,-1.234439969,-7.520098209
4.4914870000000064,-25.21422958,9.263881683,153.5805817,-0.57999748,0.031083392,13.4421711,-19.13979721,-14.205163,-8.635472298
4.49982,-25.29477501,9.175798416,153.5674591,-4.234788895,1.068894863,7.997788429,-11.27056026,-9.123215675,-6.145893574
4.508152999999993,-25.36158562,9.153706551,153.507843,0.095962279,-0.272228897,11.0193119,-8.731854439,0.404551268,-7.742582321
4.516485999999986,-25.41108131,8.997058868,153.53302,-1.299507856,0.567075789,14.97593498,-8.272287369,-18.48722267,-5.59308815
4.5248189999999795,-25.43143082,9.036590576,153.4505615,-2.932315111,-0.157666653,9.256498337,-2.745193005,8.259950638,-7.017212868
4.533151999999973,-25.45331573,8.911990166,153.4786835,-0.632609963,-0.156278655,15.46148109,-5.010439396,-15.15949249,-3.642818213
4.541484999999966,-25.45132256,8.89828968,153.439209,-2.888350964,-0.640144706,6.271081448,-0.885061443,0.305833936,-5.158284187
4.549817999999959,-25.44589996,8.874793053,153.4227295,1.869355321,-1.413722038,12.16605854,-0.901352108,-1.933093667,-3.204276562
4.5581509999999525,-25.44484329,8.760364532,153.4285736,-2.429071665,-0.032699063,12.90032864,-1.842137694,-12.91535282,-5.502207279
4.566483999999946,-25.44338608,8.79854393,153.3873291,-3.001085758,-1.048268557,11.48198605,-0.925813675,6.010354519,-2.677827597
4.574816999999939,-25.45158386,8.764850616,153.358963,-0.064523034,-0.824697137,12.53091049,-2.330549479,-2.42416954,-5.00280571
4.583149999999932,-25.47049141,8.721463203,153.3586426,-3.548278093,0.338081092,10.17864037,-4.119191647,-4.9123106,-2.503266335
4.591482999999926,-25.46899986,8.768192291,153.3041229,-0.389264226,-1.826073527,9.13381958,-0.69559294,7.622642517,-3.652935505
4.599815999999919,-25.52522469,8.694685936,153.3141327,-0.753292263,-1.458331585,11.05125999,-8.788744926,-8.699120522,-2.956434011
4.608148999999912,-25.5582943,8.672635078,153.2911072,0.033730809,-0.902615726,12.41693592,-5.421419144,-1.429594517,-3.832030296
4.616481999999905,-25.61816216,8.695049286,153.2375946,-4.002232075,-0.985816836,10.97976589,-8.073878288,4.940321445,-4.793615341
4.624814999999899,-25.68856812,8.659532547,153.2368774,-0.344484657,-1.033609986,13.15020466,-10.30966663,-4.023369312,-2.151429653
4.633147999999892,-25.75507355,8.70330143,153.1923218,-4.287937641,0.095119528,10.26658344,-9.031798363,6.798070908,-2.71145916
4.641480999999885,-25.84116364,8.715691566,153.175705,2.829910755,-2.577116251,11.07995892,-11.90914822,1.973679423,-1.355876923
4.649813999999878,-25.94277,8.648569107,153.1707306,-2.017265558,-0.494773954,13.17819309,-13.96046543,-7.213008404,-4.279844761
4.658147000000099,-26.04960442,8.688784599,153.1542053,-2.405791044,-1.293095589,9.487365723,-14.40051842,4.976974964,0.124638893
4.666480000000092,-26.1518631,8.718780518,153.0917969,-1.415607691,-0.237260222,13.11421299,-12.99798393,6.261476994,-5.293272495
4.674813000000086,-26.28911591,8.664744377,153.1138611,-0.848458588,-1.168320417,10.49535847,-18.75466156,-7.191879272,-0.749434412
4.683146000000079,-26.39092827,8.688775063,153.0733185,-1.864861727,-0.684100449,7.910424232,-13.34318638,4.489458084,-3.257733822
4.691479000000072,-26.52747154,8.672517776,153.0827637,1.020498157,-1.815657735,9.953211784,-18.44508553,-2.46323204,-0.098422736
4.699812000000065,-26.6599102,8.5826931,153.0884705,-1.442384362,-0.48431471,12.60333252,-17.85480499,-10.16868782,-4.450129032
4.708145000000059,-26.77934837,8.640154839,153.0552216,-4.222747326,0.200409159,10.60737419,-15.62231636,7.71354866,-0.652612448
4.716478000000052,-26.9040947,8.610634804,153.0431671,0.027261268,-1.364450812,13.29678822,-16.61259079,-2.741377115,-3.106662035
4.724811000000045,-27.03412056,8.586723328,153.0537567,-2.198426962,0.223503396,11.65325165,-17.68421364,-3.346693039,-0.4116081
4.733144000000038,-27.13849258,8.573864937,153.0365143,0.877770126,-1.377702236,9.960496902,-14.07534313,-0.66805774,-2.754849434
4.741477000000032,-27.25123978,8.518222809,153.0525513,-0.79170382,-0.22138378,11.24780178,-15.70676804,-7.026870728,-1.589017868
4.749810000000025,-27.36367035,8.439817429,153.0727844,-2.171628237,-0.748651505,11.25083256,-15.70925236,-9.687909126,-2.412644148
4.758143000000018,-27.44690704,8.478570938,153.042923,-2.852175474,0.038721308,8.784702301,-11.35928822,5.540642262,-1.23695004
4.7664760000000115,-27.53978157,8.404756546,153.0568695,0.668259203,-1.620495558,13.19205475,-13.25002766,-8.848273277,-2.850749493
4.774809000000005,-27.61700439,8.356650352,153.072937,-3.203046083,0.252786189,8.770960808,-11.4444046,-6.217101097,-1.212590933
4.783141999999998,-27.6769352,8.352303505,153.0709686,-0.488681883,-1.326166749,8.153347015,-9.016200066,-0.581507325,-0.678969443
4.791474999999991,-27.74905586,8.281817436,153.0982666,0.419602811,-1.277620673,13.35213947,-11.02904224,-9.21222496,-1.296836138
4.7998079999999845,-27.81682587,8.218091965,153.1218109,-2.337767363,0.014918745,11.96575451,-10.39544868,-8.296618462,-1.321092844
4.808140999999978,-27.86732483,8.250341415,153.0907898,-2.895702839,-0.602047741,11.13408375,-7.428218365,4.924695492,-1.681459427
4.816473999999971,-27.92723465,8.202197075,153.1060028,-1.504693389,-1.252505541,13.64646816,-9.308073044,-6.177090645,-1.337665081
4.824806999999964,-27.97498322,8.205551147,153.1035461,-2.714482069,0.209504083,10.05305386,-7.594352722,0.274072349,-0.301005691
4.833139999999958,-28.01549911,8.22104454,153.0931396,-0.396083623,-1.465662837,10.36256695,-6.541069031,1.994094014,-0.448799849
4.841472999999951,-28.06116867,8.174314499,153.1120453,0.05825739,-0.812415004,12.08029652,-7.712228775,-6.22148037,-0.888340175
4.849805999999944,-28.10754776,8.142757416,153.1332397,-2.144028187,-0.731465757,11.89308071,-7.784742355,-4.753553391,0.209089011
4.858138999999937,-28.14962006,8.168075562,153.1192017,-0.911059558,-0.978888631,10.85683823,-6.720701694,3.24588728,-0.271728635
4.866471999999931,-28.20163345,8.131175041,153.1292572,-1.226359606,-1.397452474,13.91856194,-8.269698143,-4.693899632,-1.266739368
4.874804999999924,-28.26426315,8.110930443,153.1499634,-2.182879686,0.329843253,9.293571472,-9.779707909,-3.521227598,0.783590734
4.883137999999917,-28.29275703,8.150823593,153.1282196,-2.617288589,-0.85953927,9.901799202,-4.906470776,5.213597775,-0.237021312
4.89147099999991,-28.35128784,8.138986588,153.1507874,0.573885739,-1.495249867,10.1469593,-9.323978424,-2.742528915,1.453582168
4.899803999999904,-28.4059639,8.113399506,153.1467743,-2.136585474,-0.340774745,12.69526768,-8.35204792,-2.702801466,-2.108141422
4.908136999999897,-28.45486832,8.158885956,153.1383972,-2.059981823,-0.966819644,9.951128006,-7.644632816,5.055584431,1.490825534
4.91646999999989,-28.50759697,8.168751717,153.1123352,-0.463284314,-0.524504304,13.4375782,-7.741044521,2.288657427,-2.386286259
4.9248029999998835,-28.5795002,8.180937767,153.1331482,-2.237719297,-1.117922187,8.914558411,-10.90322495,-0.112664223,2.635295153
4.933135999999877,-28.6069355,8.25075531,153.0767822,-0.717174828,-0.250069916,10.39958191,-4.182997227,10.33242512,-2.097870111
4.941469000000097,-28.65415764,8.256672859,153.0965118,-0.700013101,-0.736747324,10.49533367,-7.927105904,-0.716391683,2.161636353
4.949802000000091,-28.67967796,8.277556419,153.0711365,-2.056604624,-0.988655031,13.03653622,-4.482708931,3.416478157,-1.671239257
4.958135000000084,-28.70368958,8.342037201,153.0681915,-2.944525719,-0.680622339,11.41471863,-4.758087635,6.736389637,3.173321962
4.966468000000077,-28.71972656,8.415419579,153.014389,-0.38889873,-0.060401209,12.73890972,-2.839863062,10.5648222,-1.600800157
4.97480100000007,-28.74304199,8.416982651,153.0352325,-1.082903147,-1.402198195,11.96558285,-5.091021538,-1.243327737,2.023652554
4.983134000000064,-28.73828506,8.473909378,152.9913025,-2.253102303,-0.380948454,8.857113838,-0.511144876,8.269991875,-1.516964674
4.991467000000057,-28.73344231,8.529220581,152.9772186,0.339951992,-1.276534915,10.86477661,-1.099324584,6.40583849,1.487546802
4.99980000000005,-28.73725891,8.542330742,152.9635468,-0.653850317,-1.303795338,10.25680923,-2.070744514,1.931825757,-0.895076692
5.0081330000000435,-28.73612213,8.577480316,152.9513397,-2.09918642,-0.810763419,14.31555176,-1.576671481,4.179346561,0.520378828
5.016466000000037,-28.74119759,8.631850243,152.9156799,-2.413482666,0.527593017,9.99950695,-1.828075171,7.526102543,-0.800227165
5.02479900000003,-28.71543312,8.712321281,152.8692627,-1.538662791,-1.274486184,10.67037296,1.997859359,10.89563084,-0.423108786
5.033132000000023,-28.69436264,8.720890999,152.8631439,-0.712437451,-1.145434856,9.935656548,0.783693135,1.02395463,-0.373084098
5.0414650000000165,-28.64280701,8.800365448,152.8168335,-2.586371899,0.279927015,11.27442169,5.096670151,10.78572083,-0.480561554
5.04979800000001,-28.61572647,8.807510376,152.799469,1.471703291,-1.637246728,9.855999947,1.711799383,1.511111975,-1.626337409
5.058131000000003,-28.56772041,8.842253685,152.773819,-2.149986029,-1.149904609,9.872132301,4.296941757,4.901053429,-0.913877428
5.066463999999996,-28.53515625,8.845966339,152.7727203,-0.414419621,-0.976996481,13.51092052,2.069374323,0.227300748,-0.131900489
5.07479699999999,-28.48965263,8.913100243,152.7274628,-3.497980595,-0.558949411,11.42029095,4.357622147,9.42437458,-1.106906533
5.083129999999983,-28.45059776,8.970253944,152.705719,0.724106729,-2.01639843,13.64256859,3.236563444,7.028187752,0.776162565
5.091462999999976,-28.4230957,8.966651917,152.6941071,-2.904028654,0.161504418,11.05540848,1.574301958,0.060987495,-1.65661335
5.099795999999969,-28.37046242,9.022444725,152.6962433,-0.225425065,-2.321279526,9.902347565,4.417892933,5.540565014,3.177062035
5.108128999999963,-28.30492592,9.022213936,152.6872101,-1.461375594,-0.953604817,7.090837479,6.090270996,0.268744588,-1.193661809
5.116461999999956,-28.21718979,9.09792614,152.6707916,0.330885857,-0.38834846,13.68972874,8.981633186,8.696008682,2.357765198
5.124794999999949,-28.15295601,9.014920235,152.6893463,-0.372802824,-1.528669238,11.78956985,5.41285181,-10.03083038,-3.006355762
5.133127999999942,-28.03352737,9.096735954,152.6751251,-5.132959843,1.387450814,10.24714375,12.7440834,9.225967407,2.908548117
5.141460999999936,-27.89894676,9.096033096,152.6667023,1.656028152,-1.402491212,11.26963902,14.35836792,0.177788422,-1.160209775
5.149793999999929,-27.72837067,9.116830826,152.6953583,-2.703348875,0.107904136,7.297618389,18.07171822,0.396508455,3.93713975
5.158126999999922,-27.4899292,9.126729965,152.6903687,0.813764513,-0.290244132,11.67463589,26.75995064,1.112068295,-0.215377405
5.1664599999999155,-27.21194839,9.101701736,152.7429352,-1.318141222,0.001439732,8.279200554,30.50471115,-5.757252693,3.923335791
5.174792999999909,-26.89297104,9.145234108,152.7302856,-1.172952175,-0.508736074,9.411463737,36.57015228,5.120419979,0.800727606
5.183125999999902,-26.56949234,9.090621948,152.7969208,-0.813314378,-0.528322935,15.78551197,35.69911957,-9.630361557,3.873901606
5.191458999999895,-26.2125206,9.140842438,152.8011627,-3.237179756,-0.248722881,9.278294563,40.80410385,4.961408615,2.888419151
5.1997919999998885,-25.82941628,9.146819115,152.8299408,0.936974525,-1.440197945,12.97688866,43.57328796,-1.078348279,3.147738457
5.208124999999882,-25.41427422,9.054855347,152.9040375,-0.448380351,-0.250585079,9.694234848,46.45994186,-13.95964622,2.902918577
5.216457999999875,-24.94964409,9.093184471,152.9200592,-2.75864315,0.00624799,10.40840721,53.60373688,3.127429247,3.444867611
5.224791000000096,-24.47530365,9.024132729,152.9911194,0.232357025,-1.149467468,9.643139839,53.62582016,-11.26190472,3.945703745
5.233124000000089,-23.98317528,9.002855301,153.0292664,-1.843540311,-0.135702401,12.19281673,56.4878273,-4.41036129,2.844725132
5.241457000000082,-23.48246956,8.900965691,153.1201935,0.457521439,-1.598353744,10.19141388,56.43744659,-15.74359322,4.704375744
5.2497900000000755,-22.92798042,8.87138176,153.175293,-2.182147503,-0.29317081,7.643578053,63.66789627,-6.063436031,4.374311924
5.258123000000069,-22.35002136,8.781329155,153.280426,-0.590782523,-0.432587564,12.18465519,65.47240448,-14.98458004,7.107133389
5.266456000000062,-21.7202034,8.790810585,153.3513336,-4.19954443,0.606733859,7.804374695,72.43212128,-2.327538013,7.992473125
5.274789000000055,-21.07797432,8.764959335,153.4227295,0.651126981,-1.225404501,14.98966312,73.81230164,-6.19097805,6.509120941
5.2831220000000485,-20.42338181,8.689382553,153.5102234,-2.134585142,-0.179534256,9.486474991,75.11003113,-12.38481522,6.262302876
5.291455000000042,-19.7341671,8.740308762,153.5389404,-2.475250483,-1.204720259,10.80111313,80.23609924,4.357082844,5.054383278
5.299788000000035,-19.0522213,8.691607475,153.6242676,-0.854222834,-0.607735395,10.11199093,78.43561554,-9.099851608,7.376503468
5.308121000000028,-18.30336952,8.757203102,153.6620941,-1.755515814,-1.553477287,6.074048996,87.23059082,5.805557251,6.529368877
5.3164540000000216,-17.56803131,8.698996544,153.7455597,0.722249985,0.002290614,10.69868183,84.87522888,-9.921699524,7.038887501
5.324787000000015,-16.76359749,8.706971169,153.8111572,-2.929513216,-0.380878776,7.131707191,93.41028595,-1.571304679,7.397268295
5.333120000000008,-15.94911671,8.793380737,153.871933,-1.775243759,-0.551924646,15.28755379,94.78481293,7.691580296,9.605543137
5.341453000000001,-15.10484219,8.737037659,153.9780273,0.494763494,-0.294612825,11.8214407,97.47563171,-10.01805592,9.788794518
5.349785999999995,-14.21546268,8.804450035,154.0513763,-2.628730536,-0.446033984,8.595478058,103.541954,5.396740437,10.23301125
5.358118999999988,-13.30559444,8.779212952,154.1521759,-0.615843773,-0.275295883,11.40481186,105.3986588,-5.9966712,10.63403416
5.366451999999981,-12.34384632,8.845833778,154.2401733,-1.672687769,0.34857595,8.653706551,111.9498749,5.252078533,11.71964359
5.374784999999974,-11.33852673,8.775286674,154.3656311,2.34760499,-0.110094234,9.318375587,116.4081192,-11.53990364,12.51449776
5.383117999999968,-10.24785137,8.757425308,154.4735107,-2.874230385,1.994697928,6.258076191,127.0690155,-4.728033066,11.93714714
5.391450999999961,-9.075257301,8.718424797,154.6032104,-1.371129036,0.671412647,11.34029961,136.4467773,-7.37644577,13.93424797
5.399783999999954,-7.841685772,8.677276611,154.739212,-1.423296928,2.028569698,13.64120388,143.7239685,-7.484246254,15.00135612
5.408116999999947,-6.550370216,8.622674942,154.874588,0.307930052,-0.82202369,9.597570419,150.6355591,-8.685155869,14.54339218
5.416449999999941,-5.199211121,8.592852592,154.9949493,-2.20388341,0.942727387,11.77346992,158.1425781,-5.247538567,13.6076088
5.424782999999934,-3.826756001,8.549524307,155.1445313,-1.694258809,-0.715860009,9.219358444,160.1152954,-6.783868313,16.90043068
5.433115999999927,-2.398650169,8.479239464,155.2760468,-0.682923675,1.367558241,12.90632343,167.2030945,-9.495829582,14.89350986
5.4414489999999205,-0.990046203,8.466028214,155.409256,-2.675646305,-1.999294639,8.881085396,164.8032532,-2.257500887,15.18771172
5.449781999999914,0.444766909,8.393310547,155.5336914,0.345578164,-1.512799025,12.14434052,168.1567688,-9.023571968,14.49973869
5.458114999999907,1.858571172,8.380487442,155.6529846,-1.943604946,-0.649659038,14.17403221,165.6508331,-1.469025016,13.94596004
5.4664479999999,3.233669996,8.2932024,155.7575989,0.069521263,-2.611633778,13.2991724,161.3567352,-10.13769531,12.64422131
5.4747809999998935,4.599248886,8.169063568,155.8530884,0.115611248,-1.365147352,12.12473583,160.3177795,-14.30330467,12.08927441
5.483113999999887,5.980296612,8.064184189,155.9559937,-1.242968559,0.77509743,10.46744442,162.1479797,-11.63106823,13.10247421
5.49144699999988,7.298417568,7.922201633,156.0441589,-0.370051861,-2.622934341,13.12629986,154.7922821,-15.9263382,12.13405704
5.499779999999873,8.600317955,7.680225849,156.1255188,-0.246915087,-1.800677896,8.341312408,153.0678253,-27.6460743,13.36617947
5.508113000000094,9.8844347,7.549936771,156.2037354,1.467597723,-2.372465372,14.83666801,150.945755,-14.14973354,11.45397091
5.516446000000087,11.11161327,7.196784496,156.2260742,-1.45173645,-0.964337349,15.35447025,145.0795288,-41.41027451,10.10563278
5.5247790000000805,12.29913712,7.056300163,156.3154144,-2.806304455,-0.828116059,14.03616238,139.271286,-14.56167793,13.59427547
5.533112000000074,13.42650414,6.70958662,156.2979736,0.722119868,-2.407860279,12.22577,133.6948853,-41.25014114,7.008277893
5.541445000000067,14.51650715,6.572605133,156.3766022,-3.783767939,-3.670227528,10.58502579,127.813385,-13.90108967,12.820858
5.54977800000006,15.55382347,6.261168957,156.338623,0.992943704,-1.546071291,12.23466682,123.1472168,-37.49378204,5.09259367
5.5581110000000535,16.54659081,6.125442028,156.4105072,-4.852940559,-2.339419603,12.11421013,116.3088455,-13.49375629,12.50627613
5.566444000000047,17.47099495,5.875314713,156.3763733,2.630023479,-4.072725773,14.09425545,109.5148621,-30.11988068,4.655286789
5.57477700000004,18.30875587,5.746695995,156.4284515,-4.242621899,-1.901909113,13.19605446,98.01223755,-12.99164104,10.41939831
5.583110000000033,19.08491325,5.542361259,156.3966675,0.538998365,-2.603054047,16.92580795,91.66975403,-24.66861534,4.034786701
5.591443000000027,19.78756714,5.468558788,156.4633331,-2.658016682,-3.96283555,10.36365223,81.66938782,-5.916219234,10.21921921
5.59977600000002,20.39154243,5.330948353,156.4482117,-2.583083391,-3.690502167,15.6150322,70.8006897,-16.35475349,3.746457815
5.608109000000013,20.91832161,5.305662632,156.5278015,-0.798503757,-1.273447752,6.498907566,60.45171738,0.297151744,9.730470657
5.616442000000006,21.43029594,5.239198208,156.5524597,-1.958733201,-3.195262909,8.895952225,59.31464005,-6.59854269,5.399036884
5.624775,21.87195396,5.156433582,156.5965424,0.80923593,-1.267033458,18.69616699,50.64947891,-7.505436897,8.325080872
5.633107999999993,22.17601013,5.159337997,156.6341095,-1.945599914,-3.435886145,11.62292862,34.22864151,1.779806852,3.800106049
5.641440999999986,22.44391251,5.206528664,156.7226257,-3.40353775,-3.755578756,12.09784126,29.32056808,9.036685944,7.401881218
5.649773999999979,22.63599586,5.187301159,156.7495422,1.413200974,0.161383033,14.84365177,20.90355301,-1.124811172,3.624389648
5.658106999999973,22.79100227,5.254798889,156.8274078,-1.434545994,-2.217247725,4.453140736,15.8898716,10.84694099,5.22066927
5.666439999999966,22.95559502,5.265001774,156.8905029,-2.074759722,-3.402275562,10.92899227,17.20334435,3.831762552,6.241755009
5.674772999999959,23.01333046,5.295726299,156.9595642,0.760639191,0.403536022,18.48959923,4.30457449,6.397846222,5.923624992
5.6831059999999525,23.02450752,5.395250797,157.0500793,-3.080864668,-3.01936388,5.605978012,-1.526851892,14.99273014,5.052485466
5.691438999999946,23.11497116,5.443498135,157.1432953,-0.015672848,1.394124746,7.02110672,7.948251247,9.470710754,7.742646217
5.699771999999939,23.14274979,5.473899364,157.1884766,-0.070441097,-0.210496172,11.66825771,0.962531745,5.247870445,3.30121398
5.708104999999932,23.22593117,5.545232296,157.2640533,1.000283837,-1.92992425,9.009553909,7.26074028,11.20489788,4.696396351
5.7164379999999255,23.32758522,5.560958385,157.3175659,-5.476476192,0.480837584,13.6810751,9.720986366,4.03088665,4.894675255
5.724770999999919,23.37771988,5.561872005,157.3309479,6.903236389,-0.095914327,19.32348633,4.014212132,0.515230358,1.190959454
5.733103999999912,23.48915482,5.601956367,157.3822937,-8.578400612,0.703832984,6.965288639,10.91834927,6.624251366,3.483459473
5.741436999999905,23.63990974,5.561510563,157.3692932,6.152666569,-0.280067146,7.372008801,16.40131187,-5.287739754,0.285521954
5.749769999999899,23.81890869,5.526150703,157.380127,-3.679749489,0.270804405,10.3638382,19.4996376,-3.591360092,2.663113117
5.758102999999892,24.05002785,5.444470882,157.3460388,0.168198198,0.459044874,10.38620281,26.29077911,-10.82723522,0.022412473
5.766435999999885,24.24051285,5.42368412,157.3678284,-0.654879391,-1.831762314,10.5764761,20.75578308,-1.438892961,3.165817976
5.774768999999878,24.50082779,5.278623581,157.292984,-0.714379549,0.665678263,9.089259148,30.24332237,-19.76208115,-1.193048358
5.783102000000099,24.75810242,5.25851202,157.305069,-2.861289978,0.344272226,12.50247097,28.88739777,-1.820494771,2.086511374
5.791435000000092,24.97517967,5.139787197,157.2406006,4.089376926,-3.572780132,6.992033958,24.9200058,-16.38301659,-1.228344321
5.7997680000000855,25.25022316,5.0505476,157.2253418,-5.824797153,1.338645816,10.08489609,31.3150177,-10.69683456,2.66324234
5.808101000000079,25.46696472,4.908530235,157.1615753,1.413041949,-1.408652544,12.28858089,24.8477993,-18.8809185,0.180452421
5.816434000000072,25.65899849,4.881701946,157.1768494,-0.689787924,-2.159207821,5.461761951,21.03385544,-2.344869375,2.805733442
5.824767000000065,25.85404778,4.661166668,157.0828247,-0.846234381,0.073950902,12.12285995,22.52169609,-28.9372654,1.142805934
5.833100000000059,26.02856445,4.592342377,157.0816803,1.036509037,-0.360745132,11.04126644,19.097929,-7.712359428,3.261435986
5.841433000000052,26.20090103,4.410479069,157.0280914,-3.687777996,-2.844943047,11.01572609,19.36558151,-22.63315201,3.617475271
5.849766000000045,26.30322838,4.237571716,156.9730682,3.663790941,0.306613624,13.47329044,10.9209671,-21.74730301,3.043817997
5.858099000000038,26.41270447,4.125858307,156.9532928,-5.210887909,-2.338001251,8.506995201,11.49771976,-13.27874374,3.600516796
5.866432000000032,26.50798225,3.908346891,156.8571777,4.447404385,-1.195139885,13.63459778,10.38414669,-28.71827888,1.101899505
5.874765000000025,26.55195808,3.767292023,156.8186493,-6.612848282,-0.211256951,16.38935852,3.779484034,-17.42018127,3.201395988
5.883098000000018,26.58737755,3.566845179,156.707489,4.437833309,-0.8536641,10.32113934,3.246914148,-27.69401741,-1.375062823
5.891431000000011,26.63476753,3.417180777,156.6804504,-8.333845139,-0.332161933,9.319887161,4.076020241,-17.72337723,4.917370796
5.899764000000005,26.64073372,3.208826065,156.5680847,7.650521755,-2.153917074,13.28452778,-0.36142993,-28.61116028,-1.051887751
5.908096999999998,26.67459297,3.061355591,156.5220184,-9.929846764,-0.12304835,6.187149525,2.562474489,-18.50625229,2.776430368
5.916429999999991,26.68024635,2.899558067,156.4429779,6.913504124,-3.024037123,15.06306648,-0.685270727,-21.82770348,0.024717746
5.9247629999999845,26.6380825,2.644918919,156.3326569,-6.332085133,0.225308359,10.78431034,-6.218514919,-33.45800018,1.662058115
5.933095999999978,26.65709877,2.612484932,156.3128662,0.103569426,-0.204438657,7.625855923,0.534748435,-4.769255638,-0.603842795
5.941428999999971,26.64333153,2.387363434,156.2212982,-2.497070074,-0.321203262,16.51077271,-2.970548868,-29.2873497,2.076496363
5.949761999999964,26.62464142,2.255955696,156.1487427,1.239298463,-2.087582588,11.47267056,-3.748298645,-18.22254944,-0.935931683
5.9580949999999575,26.61512184,2.216593742,156.1408844,-6.404520988,0.866931975,11.00501156,-2.893627405,-4.864053726,1.04395926
5.966427999999951,26.6053791,2.028836489,156.0556488,3.01860714,-2.221519232,12.65242004,-2.647732019,-24.94892883,0.724831939
5.974760999999944,26.56022453,1.97436142,156.0413208,-2.854325294,0.332918316,11.46122265,-7.143797874,-6.836707592,1.156815648
5.983093999999937,26.56204033,1.871151209,155.9946747,-1.33424592,-0.562844038,6.503920555,-1.450624228,-13.80583382,0.307627082
5.991426999999931,26.56163406,1.879456997,156.0316315,-4.718099117,-0.568527758,15.0279398,-1.97643292,2.650561094,3.286921263
5.999759999999924,26.52159882,1.748491645,155.9763947,2.479494095,-1.863083482,13.61496735,-6.452111721,-17.24638748,0.868963063
6.008092999999917,26.48026657,1.806390882,156.0109558,-3.279118061,0.088113166,6.968695164,-6.866703033,7.843053341,0.380576342
6.01642599999991,26.45273781,1.756399035,156.0042725,-3.339489698,-1.222037077,13.90638351,-5.135232449,-5.955425739,1.725912929
6.024758999999904,26.39937019,1.808561802,156.046051,-0.26703316,0.116456836,11.43770313,-8.335654259,7.609375477,1.474457979
6.033091999999897,26.3558445,1.834486008,156.0644989,-2.104809046,-1.086663246,6.344656467,-7.150637627,3.541322231,0.369818389
6.04142499999989,26.31694794,1.856761575,156.0988922,1.149535418,-0.400850236,10.27908134,-6.57721138,3.998715401,2.283586264
6.049757999999883,26.26729202,1.88565433,156.1115265,-4.88876915,-1.333081484,12.09063244,-7.864863873,3.552079916,-0.405767888
6.058090999999877,26.22885895,2.023072958,156.1872406,-0.412626237,0.862490833,10.82103443,-6.690093517,18.57667732,0.623476267
6.066424000000097,26.19949341,2.098752975,156.2268677,-4.656801224,-1.493266702,12.55503654,-5.553692341,10.01818943,0.02156719
6.074757000000091,26.14983368,2.179418087,156.2683563,4.426249981,-0.728421986,12.15528107,-7.909022808,10.65165329,-0.028675139
6.083090000000084,26.10542297,2.316865444,156.3216095,-6.304993153,-1.098626971,8.959002495,-7.436826229,17.3914547,-1.759147525
6.091423000000077,26.07538986,2.412331343,156.3895416,2.617069006,-0.168442652,12.94578457,-5.703689575,13.6384058,2.051854372
6.09975600000007,26.01183891,2.567838669,156.4492645,-7.31410408,-0.410174638,15.42321491,-9.795284271,19.68201256,-1.990214229
6.108089000000064,25.95509338,2.706043005,156.5382538,4.113531113,-0.356828332,8.784882545,-9.058158875,19.34846497,2.100470543
6.116422000000057,25.89729691,2.839574575,156.5879974,-5.519523621,-1.224857926,9.893870354,-9.081055641,16.78936768,-1.874770403
6.12475500000005,25.81684494,2.894595623,156.6401215,5.665081024,-1.036852598,14.01901722,-11.72305965,8.432872772,2.519851923
6.133088000000043,25.76503181,3.066262722,156.7039032,-8.412614822,0.129697531,6.907675266,-8.473872185,21.64570236,-2.310443401
6.141421000000037,25.72114182,3.115061998,156.7781982,4.341751575,-0.268257767,14.49780083,-7.501244068,8.906941414,5.25350523
6.14975400000003,25.64132118,3.25356698,156.8232269,-7.259407043,-1.079540014,13.18513775,-11.73686981,17.08869743,-2.56960845
6.158087000000023,25.58449364,3.330219269,156.9097443,4.908562183,-0.210332528,7.160665035,-9.163507462,12.54198837,5.149666309
6.166420000000016,25.51564407,3.400972605,156.9138794,-7.007023335,-0.839301467,14.22506618,-10.1465292,7.645029068,-3.445639849
6.17475300000001,25.42118835,3.447373629,156.9989624,7.287298203,-1.570268393,12.16904545,-13.69243908,9.176533699,6.588290691
6.183086000000003,25.3537941,3.58334136,157.0154724,-9.62170887,-0.067691498,5.644127846,-10.06664085,15.35996532,-5.439427376
6.191418999999996,25.27182388,3.58075881,157.0990753,6.923334122,-1.246785998,16.26386642,-12.20670891,3.765651941,8.965213776
6.1997519999999895,25.18689919,3.749203205,157.116745,-9.173164368,-1.52874589,8.374583244,-12.18445492,18.95815468,-6.933225632
6.208084999999983,25.11730576,3.777799129,157.2181091,4.182380199,2.076626539,11.86384964,-10.8887043,8.030500412,9.311110497
6.216417999999976,25.03927612,3.906423092,157.2132416,-7.117650986,-1.248820066,14.80171108,-11.18180656,13.50490284,-7.299739361
6.224750999999969,24.96397781,3.995050669,157.3596649,3.460347176,-0.90713048,8.252106667,-11.9819231,16.81216621,11.17413807
6.2330839999999625,24.8915844,4.108148098,157.3256226,-5.439187527,0.605833888,12.48805618,-10.25718594,10.36049938,-9.64590168
6.241416999999956,24.81992531,4.216456413,157.4869385,1.421034098,-0.764861882,11.09287262,-11.73733234,19.6734333,11.83716393
6.249749999999949,24.75632286,4.371188641,157.464386,-4.016431808,-1.490504384,10.61050224,-9.287302971,15.4970541,-10.46437931
6.258082999999942,24.68230057,4.466730118,157.6104279,-0.094940096,0.786566973,12.82576466,-11.96722126,17.4854393,10.86126137
6.266415999999936,24.62989044,4.691593647,157.6051636,-2.609256983,-0.960857987,8.583996773,-8.097753525,24.03256989,-12.0591507
6.274748999999929,24.58259201,4.784564495,157.7525177,-2.100315094,-1.14987123,11.60715008,-8.868842125,17.24361038,11.16112423
6.283081999999922,24.52655029,5.037598133,157.7546234,0.060141448,-0.131369591,11.72871685,-8.604917526,27.49419022,-12.61954117
6.291414999999915,24.49099159,5.166394234,157.8830872,-4.762605667,-0.448019594,7.012249947,-7.367207527,20.19632149,7.346088886
6.299747999999909,24.47379684,5.430032253,157.9136505,2.256316185,-0.51359129,14.83619308,-4.259253502,30.07725716,-10.01777458
6.308080999999902,24.46149635,5.593996525,158.0484619,-5.164671421,-0.332635194,10.05649471,-4.758653164,24.34168053,6.293113232
6.316413999999895,24.43596077,5.861666203,158.1081238,4.595658779,-0.72654283,14.7692728,-5.634432793,31.95801544,-7.040245533
6.324746999999888,24.40798187,6.061277866,158.2137146,-6.642693043,0.170612648,9.250653267,-6.404292107,26.78628159,1.358810186
6.333079999999882,24.36853218,6.341498852,158.3141174,2.868976355,-1.640856028,12.04841995,-7.893149376,35.34224701,-3.205688715
6.341412999999875,24.34904861,6.498712063,158.3711853,-4.626633167,-0.571073532,7.190816402,-4.82924509,19.75762177,-1.793855071
6.349746000000096,24.3311348,6.764348984,158.4573059,2.395404339,-1.509907722,14.71767139,-5.201910019,33.04485321,-4.016482353
6.358079000000089,24.28766441,6.924102306,158.4974518,-3.760875463,0.613195956,14.68629074,-7.513746738,19.20604706,-3.74179244
6.366412000000082,24.22810555,7.211154938,158.5953979,0.430302262,-0.442027181,13.5059948,-10.45127392,35.96650314,-3.747430801
6.374745000000075,24.10466385,7.316044331,158.6009979,-3.632956028,-1.480833292,11.48760128,-16.6222744,11.52346325,-4.754759312
6.383078000000069,24.02894592,7.559304237,158.6849213,0.756082296,-1.82506144,6.588596344,-12.24811268,30.49682999,-3.014760256
6.391411000000062,23.87505531,7.643977165,158.6483154,-2.764240742,-1.232710719,18.98253059,-19.61281586,7.284793854,-8.312578201
6.399744000000055,23.70256996,7.844233513,158.7110291,0.403004825,-1.001593351,12.08173466,-23.57212639,24.76760864,-3.101259708
6.408077000000048,23.43104362,7.985549927,158.6648865,-1.716080546,-2.293882608,16.37479782,-33.54870987,13.11950016,-12.01400089
6.416410000000042,23.09859657,8.040389061,158.6597137,-0.551979601,-2.808518648,7.144999981,-41.6680603,5.575561523,-3.394416571
6.424743000000035,22.74510384,8.239455223,158.6159363,-0.805486381,-2.868637562,9.913693428,-43.40038681,19.7444458,-14.29844952
6.433076000000028,22.29932404,8.242261887,158.5762024,-0.990914643,-1.834488988,14.56723785,-54.6751709,-1.724162459,-4.718448639
6.4414090000000215,21.84827805,8.408583641,158.5155792,-2.751039267,-0.316869974,10.85034943,-54.79555893,15.55828667,-14.37827396
6.449742000000015,21.28085709,8.498844147,158.4877472,-0.790193677,-3.448903084,17.69966698,-69.46640015,8.631957054,-7.279994011
6.458075000000008,20.62290573,8.524871826,158.3746185,-0.013445356,-2.195925236,9.580971718,-78.67063904,-2.112609863,-13.86364174
6.466408000000001,19.96336937,8.725667953,158.3575287,-2.566158056,-2.016890526,7.085157394,-80.70315552,21.66762543,-10.48838997
6.4747409999999945,19.17172623,8.711214066,158.227066,0.470503837,-2.059851408,16.42410851,-94.35292053,-7.045956135,-14.20280933
6.483073999999988,18.40730476,8.954131126,158.1960907,-7.184822559,-1.116362453,9.417889595,-93.02902985,26.18424606,-13.09798717
6.491406999999981,17.51301765,9.056277275,158.1111145,2.871679306,-2.863886833,18.35692024,-107.4468231,8.322920799,-13.56504345
6.499739999999974,16.58540726,9.156795502,158.0054169,-3.124253511,-1.599213719,6.991961479,-111.1789932,7.632409573,-15.74000359
6.508072999999968,15.56878281,9.401165962,157.931076,-0.668841481,-3.740343094,13.3596344,-122.2882919,25.50972557,-16.78443527
6.516405999999961,14.4182806,9.467695236,157.7515564,-4.284203053,-1.516470432,14.25311852,-136.4053497,1.985649109,-22.8211689
6.524738999999954,13.20927048,9.905507088,157.6716614,-3.823494911,-5.11325264,11.09982586,-145.1978912,48.52974701,-21.92759132
6.533071999999947,11.81931019,9.962209702,157.4445953,3.532320261,-3.978824615,18.24187469,-163.9759521,0.599976897,-27.90364075
6.541404999999941,10.43386459,10.36177063,157.3429718,-8.889145851,1.507055402,5.882963657,-165.8368378,44.49990845,-21.23500252
6.549737999999934,8.959100723,10.69045639,157.1885834,3.272829533,-3.316255569,18.88061523,-175.4688873,35.58280563,-24.82801437
6.558070999999927,7.441218853,10.97764683,157.0988464,-7.044658184,1.927646041,8.057512283,-181.856781,32.37334824,-15.58456898
6.56640399999992,5.96258831,11.44373608,157.0042419,4.165888309,-1.463298559,13.49925327,-177.109726,54.01976395,-17.81679535
6.574736999999914,4.419247627,11.62490749,156.907608,-2.680362701,0.586646855,10.73914433,-184.6263733,20.39524269,-13.4835043
6.583069999999907,2.943300009,12.0649662,156.8082581,1.365739346,0.353434443,6.304793835,-176.5481262,51.7191925,-15.26178932
6.5914029999999,1.533834219,12.35247707,156.7177277,-4.993909836,3.894098997,10.89383507,-168.5868683,33.83224106,-12.1616621
6.5997359999998935,0.133793637,12.74594784,156.6139984,1.509500384,1.766570568,13.8810358,-167.1805267,46.80631638,-13.06369781
6.608068999999887,-1.206517458,12.99560261,156.4721527,-2.005219936,0.30490312,3.232630014,-158.7983093,29.8836422,-16.51166534
6.61640199999988,-2.496783257,13.20584011,156.3432922,2.687024832,0.505397022,12.72595406,-153.2069702,25.47344017,-14.4678297
6.624734999999873,-3.743918657,13.50946617,156.1572876,-1.129601359,2.85167098,7.152817249,-146.2565918,37.33602142,-19.90029907
6.633068000000094,-4.955838203,13.59592915,156.0186005,-0.993901551,1.589711905,17.44366837,-143.4077911,11.34621429,-15.57454967
6.641401000000087,-6.051950455,13.84057045,155.8242645,-3.143511057,1.681821585,4.252243996,-127.7656555,31.16793633,-19.93544769
6.64973400000008,-7.139332771,13.89822865,155.6690063,1.470267296,2.113073826,12.4007225,-127.8953323,8.723208427,-17.40180969
6.658067000000074,-8.138381004,14.0159111,155.4753876,-1.177637219,1.191246271,7.483038425,-116.0502853,16.77025986,-20.67290688
6.666400000000067,-9.084445,13.95895481,155.3381348,0.973380804,1.7306422,13.30319691,-111.4200592,-4.590954781,-17.05490494
6.67473300000006,-10.00163841,14.0484314,155.1309967,-1.595409513,-0.889896154,5.235350609,-106.1849213,14.12120152,-20.75882721
6.6830660000000535,-10.87260151,13.94976521,155.0032196,0.805702746,1.255143046,14.23208427,-102.6786499,-9.175375938,-17.00533676
6.691399000000047,-11.70604992,14.00716591,154.7898712,-4.192564011,2.205588818,7.878061295,-96.02781677,11.06749439,-21.55426979
6.69973200000004,-12.5268259,13.88472748,154.69487,0.483037621,-0.614353955,15.08136177,-97.61658478,-12.27059364,-14.13097286
6.708065000000033,-13.28533459,13.85565662,154.5192566,-2.379276991,1.309177876,4.010582924,-88.04719543,0.683290184,-19.75984764
6.7163980000000265,-14.06495667,13.68174839,154.4240112,2.497260571,0.319849789,13.96221256,-92.70389557,-17.87727928,-15.95022869
6.72473100000002,-14.77346706,13.54794121,154.2848206,-1.730705023,0.646486104,7.840058804,-83.21398163,-12.07297802,-18.57970238
6.733064000000013,-15.48054409,13.41683769,154.1996002,-0.043333143,-0.026676107,13.05437088,-84.33353424,-12.81715298,-13.93537426
6.741397000000006,-16.13514709,13.18500614,154.1025391,-1.575644255,2.015026569,8.725833893,-77.99023438,-24.2719593,-17.35917091
6.74973,-16.76467514,13.10516834,153.9961243,-2.626697302,-0.407350808,11.51574707,-74.50656128,-5.893518925,-14.86869049
6.758062999999993,-17.37862396,12.84631348,153.9330597,-1.186381459,1.527229667,11.19085503,-74.04328918,-28.08968544,-15.25022316
6.766395999999986,-17.96611786,12.78902435,153.8279877,-2.428646564,0.129050419,12.36812496,-69.5691452,-3.04494381,-14.03047657
6.774728999999979,-18.56719589,12.5011549,153.784256,1.530017495,-0.183578178,14.8608942,-73.07920074,-31.82675171,-14.64472866
6.783061999999973,-19.12893867,12.40685081,153.7065735,-3.521800995,-0.933279991,3.459311247,-67.26674652,-7.996143341,-12.49768353
6.791394999999966,-19.69246292,12.14434338,153.6808319,2.686532736,0.506829321,15.65986061,-69.04071045,-29.33255577,-12.35981369
6.799727999999959,-20.22203827,12.00307846,153.6122131,-4.480933189,-0.039669413,6.4896698,-63.69200134,-13.41044998,-13.58362865
6.808060999999952,-20.73367119,11.80526829,153.5849609,0.996545196,-0.311632395,16.44461632,-62.77993011,-21.7453289,-10.40460682
6.816393999999946,-21.22053337,11.64121056,153.5436707,-5.229747772,1.477849126,5.254999161,-59.28364563,-16.87208939,-11.80693531
6.824726999999939,-21.69086456,11.48471069,153.5071716,1.703800678,-0.341609567,13.7757349,-57.37995529,-16.12169266,-11.07805252
6.833059999999932,-22.11772156,11.29241753,153.4815979,-5.386154175,1.643507719,8.32124424,-52.48022079,-20.51267052,-11.62808895
6.8413929999999255,-22.52393913,11.19714832,153.4423523,0.335387021,-0.451933295,12.66880035,-49.65190887,-9.037837029,-8.827210426
6.849725999999919,-22.90759468,10.99729252,153.434082,-2.641650438,1.25982821,11.55159187,-47.707798,-21.96875763,-10.39181137
6.858058999999912,-23.26655388,10.91900826,153.3912354,0.310524613,-0.900402606,8.359705925,-43.92637634,-6.876525402,-8.542580605
6.866391999999905,-23.59423256,10.70396805,153.3940735,-2.526496649,1.456658125,11.78906918,-41.24697876,-24.03607368,-10.18627644
6.8747249999998985,-23.88482285,10.64700603,153.3557129,-1.50495851,-0.048162669,8.575438499,-35.84925079,-4.649181366,-7.108944893
6.883057999999892,-24.157938,10.45385265,153.3686981,-0.691381931,0.266326874,14.50256443,-34.92092514,-22.0202961,-8.265457153
6.891390999999885,-24.38830757,10.3669138,153.3512115,-1.175396204,0.682695091,6.817220688,-29.10037231,-8.873457909,-6.390257835
6.899723999999878,-24.60516548,10.22073841,153.3536987,-1.381055951,0.284148037,13.58907223,-27.9380722,-16.31163406,-7.233223438
6.908057000000099,-24.7749424,10.10567474,153.3659821,-2.327138662,0.691126287,7.443836212,-22.47349548,-13.36355686,-4.67084837
6.916390000000092,-24.94374275,10.03356171,153.3462982,-1.319288373,-0.507834852,15.77792263,-21.70391083,-7.101485729,-5.976456165
6.9247230000000854,-25.09417534,9.860713005,153.3928986,-1.537658215,0.329792023,9.090525627,-20.86343575,-21.33550835,-4.004058838
6.933056000000079,-25.21311569,9.83127594,153.3505249,-1.904858351,-0.081909299,9.522627831,-15.26230907,-1.294761419,-6.26479578
6.941389000000072,-25.35164833,9.638093948,153.4117432,-1.442861319,0.028438924,12.77384472,-19.71515274,-24.2661953,-3.575225592
6.949722000000065,-25.44572067,9.643367767,153.3622894,-2.687754154,-0.608832181,11.07545185,-12.15517235,2.852683067,-5.241352081
6.9580550000000585,-25.58284187,9.460479736,153.4100952,0.328321069,0.158106416,16.70658875,-19.26065063,-22.45443916,-4.57295084
6.966388000000052,-25.6684742,9.431322098,153.3901978,-4.18302393,-0.107958928,5.731742382,-11.74509048,-2.363771915,-3.864330769
6.974721000000045,-25.78070068,9.341694832,153.4075317,0.261243433,-1.264112592,10.74797916,-15.6646843,-10.79323959,-3.044931412
6.983054000000038,-25.85694122,9.223282814,153.4289246,-1.475472212,-0.090633109,11.38453293,-11.42158413,-14.12124729,-4.138454914
6.9913870000000315,-25.94480896,9.229696274,153.4028778,-3.022494793,-0.135730967,12.71534634,-11.90614986,1.825987697,-2.661613703
6.999720000000025,-26.02519989,9.089600563,153.4446564,-0.288661122,-0.804203331,13.43574715,-12.30368614,-17.50624657,-3.146363974
7.008053000000018,-26.08972549,9.137677193,153.4178314,-3.711292982,0.612605035,6.921687126,-9.099829674,6.364446163,-0.546236455
7.016386000000011,-26.17036438,9.041284561,153.4300842,2.025755167,-1.595278025,14.20157146,-11.76849937,-11.25009441,-4.02050066
7.024719000000005,-26.22524452,9.013850212,153.4431152,-4.232741833,0.448688269,8.578552246,-8.704935074,-3.849705219,-0.292424947
7.033051999999998,-26.2765255,9.036735535,153.4035339,-0.789782166,-0.883177638,13.28180599,-7.265440464,4.310671806,-3.221259356
7.041384999999991,-26.3355751,8.966716766,153.4471893,-2.099193096,-0.319092333,12.57324791,-9.779683113,-10.03905296,0.686461627
7.049717999999984,-26.37345314,8.994955063,153.4047241,-1.290142059,0.030699465,7.569113255,-5.609273911,5.041751862,-3.233297348
7.058050999999978,-26.41346169,8.977962494,153.411499,-1.068075299,-0.097845666,13.69510651,-6.808021069,-2.3966856,-0.414169431
7.066383999999971,-26.46614265,8.930992126,153.4155273,-2.623387814,-1.408455491,9.831889153,-8.254098892,-5.486378193,-2.312312603
7.074716999999964,-26.49603271,9.011563301,153.3670807,-2.060340405,0.400592506,12.64852428,-4.562805176,10.99765205,-1.055088878
7.083049999999957,-26.57496071,8.929695129,153.383606,-0.71343416,-1.624419689,13.33242607,-11.63822651,-9.890054703,-2.866015434
7.091382999999951,-26.59525871,8.98587513,153.3592224,-3.805823565,0.523920476,7.553792477,-3.86691761,7.105697155,0.205272511
7.099715999999944,-26.64841461,8.995215416,153.3352203,-0.207140446,-1.122398615,9.292168617,-7.785587788,2.049676657,-2.272405148
7.108048999999937,-26.69726563,8.94487381,153.3412933,0.155862376,-1.500555754,14.52710438,-7.865684509,-5.935984612,-2.297763586
7.1163819999999305,-26.75483322,8.975111008,153.3064423,-3.94667387,0.146471858,9.858164787,-8.114550591,4.871698856,-2.287543297
7.124714999999924,-26.80745888,8.978658676,153.288269,0.16899921,-1.91887784,11.91295624,-7.869141102,1.134889841,-1.960551858
7.133047999999917,-26.88620377,8.956624031,153.2999115,-2.6302104,-0.952969849,10.82621193,-11.52396202,-3.210091829,-0.191428021
7.14138099999991,-26.93582344,8.978769302,153.2792053,-0.156045124,0.177312747,9.200283051,-7.461412907,3.265558958,-1.216740251
7.1497139999999035,-27.00122261,8.972477913,153.2765045,-0.853043616,-1.610020041,11.48593426,-9.656732559,-0.75627315,-0.854811072
7.158046999999897,-27.07798958,8.919810295,153.3022614,-2.023330688,-0.162672386,11.9618597,-11.590765,-7.230989933,-0.386173069
7.16637999999989,-27.12971687,8.999490738,153.2542267,-3.447496891,-0.294241607,10.34878254,-7.168900967,10.87690735,-0.94008112
7.174712999999883,-27.21147537,8.966036797,153.2604828,0.248466194,-1.932475567,13.38505173,-11.83056355,-4.125979424,-1.404825687
7.183045999999877,-27.26359177,8.987509727,153.2615662,-4.794307709,1.184866905,11.18590736,-8.132481575,2.004877567,1.063708067
7.191379000000097,-27.32097816,9.059240341,153.2273865,-0.696269214,-1.201160192,7.067408562,-8.148132324,9.289386749,0.115571432
7.1997120000000905,-27.37396622,9.046987534,153.2266846,-0.047752991,-0.952844441,16.02952385,-8.203892708,-1.494475245,-0.979091287
7.208045000000084,-27.44145584,9.066946983,153.2120056,-3.864980459,0.428553998,9.670243263,-9.729351044,2.711011171,-0.672693908
7.216378000000077,-27.48432922,9.137738228,153.1686096,-1.132284403,-1.40709269,11.00318336,-6.179012299,9.681464195,-0.874662161
7.22471100000007,-27.55438805,9.129024506,153.1717682,-1.012703776,-0.364687294,13.53972721,-10.37690544,-1.315969944,-0.382945687
7.2330440000000635,-27.60045242,9.151562691,153.1539612,-0.949827552,-1.181681514,9.227030754,-7.045157433,3.145966053,-0.847920895
7.241377000000057,-27.64507103,9.185938835,153.1184845,-1.993009806,0.139037251,10.06532764,-6.588558197,5.387442589,-2.04431057
7.24971000000005,-27.70714378,9.14413166,153.1378021,0.739093959,-3.297717094,11.05517673,-9.675637245,-5.732504845,-0.532712102
7.258043000000043,-27.75802994,9.176370621,153.0931549,-3.851891756,0.707634568,11.23310661,-7.165595055,5.67111969,-3.114422083
7.266376000000037,-27.81881523,9.190016747,153.0784912,-0.140798658,-1.621847034,11.66918373,-8.873117447,2.031208992,-1.003015161
7.27470900000003,-27.87217712,9.170837402,153.0668793,-2.44527626,-0.896400869,12.1139698,-8.098593712,-1.60915029,-2.524526358
7.283042000000023,-27.91609001,9.20336628,153.0631409,-2.923974752,0.558576584,8.765796661,-7.055685997,3.43023324,1.206174612
7.291375000000016,-27.94293404,9.258343697,153.0154266,-1.176071882,-0.651044786,10.76096153,-4.222340107,8.259413719,-2.138110161
7.29970800000001,-28.00290489,9.214352608,153.0315399,-0.322888851,-1.73195827,12.17455769,-9.364142418,-5.783554077,-1.021508574
7.308041000000003,-28.02390099,9.249008179,152.9948883,-3.051374197,0.618539929,10.09024239,-3.735874414,5.493894577,-2.114186049
7.316373999999996,-28.0682869,9.273956299,152.9797058,-1.738725305,-1.938922882,11.08844566,-6.890267849,3.260538816,-0.408483028
7.324706999999989,-28.09700775,9.264148712,152.9689789,-0.070977986,-0.774805903,12.95037556,-5.163407326,-0.656915486,-1.910886049
7.333039999999983,-28.13031578,9.240787506,152.9719543,-2.521926165,0.191723615,8.364727974,-5.912111759,-2.865221262,-1.239383221
7.341372999999976,-28.12961197,9.270565987,152.9462128,-0.741683185,-2.231562138,10.05729961,-1.345221162,4.37071085,-1.237308383
7.349705999999969,-28.17110443,9.229885101,152.9654999,-0.655326843,-1.025392056,10.96983624,-7.20844841,-5.609684467,-0.519520819
7.3580389999999625,-28.19565201,9.22409153,152.9641266,-2.095407963,-0.317710042,12.0283823,-4.843613625,-0.750407517,-0.707862258
7.366371999999956,-28.23306274,9.237177849,152.943985,-2.542206526,-1.463318706,11.89171982,-5.961623669,2.283560514,-1.58881247
7.374704999999949,-28.25560188,9.231960297,152.9436035,-0.809156716,-0.534541368,13.69007492,-4.624432564,-0.745694458,-0.572029948
7.383037999999942,-28.2928791,9.203195572,152.9451904,-4.007799149,-0.358959973,9.632837296,-6.361564636,-3.356246471,-1.698083043
7.3913709999999355,-28.29669189,9.255425453,152.9286652,-0.664699316,-0.760213375,11.02740955,-2.069156408,6.228024006,1.010302305
7.399703999999929,-28.33835411,9.205667496,152.9263763,-1.209195018,-1.120789886,10.63849545,-6.814553261,-5.354284763,-3.30043292
7.408036999999922,-28.35593224,9.192162514,152.9526825,-1.540181279,-0.846753895,12.6954155,-4.545310497,-3.121747732,1.736030459
7.416369999999915,-28.39092255,9.195476532,152.9351501,-3.030772686,-1.764329672,9.852339745,-5.720286846,1.109480739,-1.869237304
7.424702999999909,-28.41289139,9.216411591,152.9350433,-0.107605904,-0.223808363,14.6716795,-4.566159725,1.999549627,0.94583118
7.433035999999902,-28.46639061,9.148857117,152.9516449,-1.906168461,-1.129092813,10.37065792,-8.59497261,-8.291493416,-2.361901522
7.441368999999895,-28.47276306,9.200019836,152.931427,-2.643193245,-0.481743693,9.748739243,-2.314156771,6.322361946,0.583979011
7.449701999999888,-28.49892616,9.187317848,152.9292297,0.754016876,-1.7088269,8.428434372,-4.953651905,-1.442760229,-1.183211088
7.458034999999882,-28.50676727,9.173521042,152.9389954,-1.788832068,-0.716208935,12.3244524,-3.061195612,-2.223686934,-0.013024839
7.466367999999875,-28.52576637,9.170785904,152.9391479,-1.390900254,-0.809976161,12.04900932,-4.141706944,-0.525027812,-0.369318873
7.4747010000000955,-28.52626991,9.224693298,152.9029083,-3.312439203,-0.452689081,10.78943443,-1.303418875,7.516831398,-0.918974876
7.483034000000089,-28.55348206,9.200615883,152.9187622,-1.255707741,-1.677897811,11.87732506,-5.427592278,-3.66187501,0.038523808
7.491367000000082,-28.5481739,9.258446693,152.8849945,-3.600571632,0.324297279,10.06224346,-0.653969944,7.79197979,-0.4367612
7.499700000000075,-28.55788612,9.291597366,152.8629761,-0.140245467,-1.405817032,8.375782013,-2.596271276,4.511870384,-0.617008448
7.508033000000069,-28.54441643,9.278139114,152.8587494,-1.308760405,-1.250383615,10.89805889,-0.243091881,-1.396654606,-1.450060248
7.516366000000062,-28.53602028,9.290719986,152.85672,-2.555918217,-0.258368045,10.33545113,-0.809422672,1.213986754,0.280373424
7.524699000000055,-28.50660706,9.349974632,152.8064575,-1.424002409,-1.562533021,10.93761349,2.562806845,8.87123394,-2.072973013
7.533032000000048,-28.51108551,9.33169651,152.8093414,0.115649387,-1.818455696,13.36305618,-2.450628996,-2.316717625,-0.976606727
7.541365000000042,-28.49666405,9.343140602,152.802887,-3.654802322,0.155109406,9.5894804,-0.086845063,1.355274796,-0.255258679
7.549698000000035,-28.47618866,9.394296646,152.7759247,-1.203594446,-1.358380318,9.236218452,1.125182152,6.688568115,-0.106439948
7.558031000000028,-28.45557976,9.415164948,152.7667999,-0.674950957,-0.992635727,11.98159695,0.708028734,2.500102997,0.002330896
7.566364000000021,-28.45866776,9.408460617,152.7615662,-2.004401922,-1.724593401,13.7209568,-2.125328064,-0.639164805,-1.156316161
7.574697000000015,-28.44376564,9.448517799,152.7488556,-3.180230856,0.059818074,11.25769138,0.094926357,4.725775719,0.726445258
7.583030000000008,-28.43969536,9.495550156,152.7104187,-1.372629404,-1.558495879,10.59094143,-0.611194015,6.900960922,-1.538813591
7.591363000000001,-28.44477654,9.504127502,152.7201691,-1.390196085,-1.903086066,11.87346268,-2.747882128,0.139264584,1.262013316
7.5996959999999945,-28.43832016,9.518111229,152.7059937,-1.147022128,-1.122135997,8.778083801,-0.800560057,2.048216581,-0.904605091
7.608028999999988,-28.42133713,9.554711342,152.6982269,-2.412726641,-0.390071541,8.457850456,0.244718418,4.082422256,1.04162848
7.616361999999981,-28.418293,9.556659698,152.6858826,1.899359465,-3.478512764,12.91608047,-1.245633006,0.67173326,-1.401418805
7.624694999999974,-28.43586922,9.540250778,152.714447,-3.79521656,-0.23107706,9.999258995,-4.623868942,-3.555140734,1.793406367
7.6330279999999675,-28.44352722,9.581110001,152.6753845,-1.020795465,-0.928626299,12.75567913,-1.997948766,6.284350872,-1.95909214
7.641360999999961,-28.47168159,9.583471298,152.6782379,-2.508067369,-1.440773368,9.870914459,-5.38279295,-0.127981529,0.191440791
7.649693999999954,-28.4803772,9.598021507,152.6737366,-1.021561265,-1.118338704,11.71342373,-2.811431408,1.560777903,0.134064913
7.658026999999947,-28.47993279,9.598999023,152.6765442,-4.631373882,0.574795306,8.302097321,-1.953251839,-0.270268559,0.106555216
7.6663599999999406,-28.45790672,9.664940834,152.6545715,-0.06485521,-1.733511329,9.896629333,1.226768136,7.966231346,1.258555412
7.674692999999934,-28.4848938,9.616962433,152.6555786,-0.999088407,-2.258735418,11.91140842,-5.2083354,-5.334383488,-2.883510113
7.683025999999927,-28.48334694,9.625666618,152.677887,-0.682263434,-0.500863373,11.93237495,-2.120359182,-0.567880452,2.589855671
7.69135899999992,-28.50361443,9.621999741,152.6586456,-3.265483618,-1.297374964,11.29218864,-3.998292446,0.482674688,-2.452729464
7.699691999999914,-28.51719856,9.658384323,152.6593018,0.277697653,-1.816753745,10.94031143,-3.501888514,3.572058678,1.923808217
7.708024999999907,-28.54937744,9.613974571,152.6442413,-1.893152833,-1.360861063,11.91441727,-5.508431911,-4.045602798,-4.353639603
7.7163579999999,-28.56567764,9.640707016,152.6639862,-3.079675198,0.318607658,9.45684433,-4.211043835,1.471435308,3.357514143
7.724690999999893,-28.56984329,9.666477203,152.6206055,-1.307622433,-2.666339159,8.930528641,-1.579617262,4.953280926,-3.271258354
