time,Euler_X,Euler_Y,Euler_Z,Acc_X,Acc_Y,Acc_Z,Gyr_X,Gyr_Y,Gyr_Z
0.0,22.2407341,0.181815252,-139.8618011,-6.330865383,0.809577823,13.60833931,-1.377265096,19.08796692,-8.552147865
0.008332999999993262,22.28457832,0.315880388,-139.7583771,1.090498567,-0.451092392,10.19781303,4.38807869,19.27059555,4.544812202
0.016665999999986525,22.29314613,0.509006858,-139.7207031,-3.081740379,1.934855461,7.236774921,-0.601691484,23.23509407,-5.163281441
0.024998999999979787,22.29623413,0.691974759,-139.6123962,-0.61376518,-2.295307636,13.02262211,-0.570160389,24.91434097,2.839211464
0.03333199999997305,22.34417152,0.879867673,-139.5550995,-3.896959543,1.148846626,11.03361416,4.060741901,23.54603767,-2.758244753
0.04166500000008,22.37556648,1.05784893,-139.4752502,1.29823041,-0.914290547,11.47308731,2.833614349,23.05047798,-0.11528971
0.04999800000007326,22.45225525,1.248706102,-139.3924866,-4.419015408,-0.405663669,11.2433548,7.406283379,25.03802681,-0.106670529
0.058331000000066524,22.51601982,1.397597432,-139.3434143,1.241571069,0.542567492,5.207181454,6.77202177,18.39912033,-2.25176096
0.06666400000005979,22.53012657,1.61120975,-139.2550354,-2.39404726,0.589773893,9.676850319,-0.182693645,27.81777,-0.579765797
0.07499700000005305,22.54547882,1.771772981,-139.1876526,-0.565927267,-1.389011025,11.59790993,0.868041039,20.53875732,-0.76418817
0.08333000000004631,22.55429459,1.950605989,-139.1314545,-2.889761686,0.457121819,10.93217182,-0.757579803,22.48036957,-2.562231541
0.09166300000003957,22.55930138,2.130564213,-139.0697327,-0.401936471,-2.447389364,13.75735188,-0.382279813,22.43367386,-2.261648178
0.09999600000003284,22.5936203,2.248645544,-139.0242462,-2.321549416,0.464681715,8.920601845,2.314502716,15.25289536,-0.959957719
0.1083290000000261,22.55757332,2.435733557,-138.9860382,-0.255356014,-0.164725676,8.951831818,-5.208567619,22.13014603,-5.21848011
0.11666200000001936,22.52994919,2.60357976,-138.919632,-3.326136112,0.470296651,12.35980225,-5.261845112,21.73345757,-0.922228158
0.12499500000001262,22.47841454,2.735570431,-138.9051208,0.54617697,-1.359915137,11.12932491,-6.952743053,14.92977238,-5.296961308
0.1333280000000059,22.47026825,2.866439104,-138.8269043,-3.618855476,-0.834768236,14.54658985,-3.031970739,18.17184448,2.102160931
0.14166099999999915,22.46854019,2.979725122,-138.8336792,0.374995261,1.381050944,5.327414989,-0.833141565,11.88277817,-6.790091991
0.1499939999999924,22.4124012,3.117246389,-138.7589417,-1.6676718,-0.13350077,9.794132233,-8.811081886,18.74844933,1.422307849
0.15832699999998567,22.36329269,3.223818064,-138.7596588,-0.80810225,-1.574011683,12.98096466,-6.564518929,11.434618,-5.782029629
0.16665999999997894,22.31258392,3.28527379,-138.725235,-1.553666472,0.33360225,9.814383507,-7.916131496,8.465210915,0.458174646
0.1749929999999722,22.27204132,3.405889988,-138.7328033,-0.650160491,-1.16040647,9.923801422,-5.479423046,12.67793465,-7.209024906
0.18332600000007915,22.19830513,3.426719427,-138.6982422,-1.481112838,-0.457914472,8.079523087,-10.69159985,3.954581738,2.328718424
0.1916590000000724,22.08238411,3.542468548,-138.7153473,-1.411893725,0.137739658,14.29899025,-14.46009827,11.75242901,-7.958589554
0.19999200000006567,22.0250721,3.544831276,-138.7077179,-2.804211855,-0.894773781,10.08588886,-8.530117035,0.681646049,0.18506287
0.20832500000005894,21.91315842,3.639725924,-138.7120667,0.438186824,-0.062474195,7.428688526,-14.06922531,10.02100945,-5.581048965
0.2166580000000522,21.80879974,3.669044495,-138.7098541,-3.578507185,0.012625083,14.42632866,-14.13634396,3.439876795,-1.621099472
0.22499100000004546,21.70849419,3.693943501,-138.7380066,-0.082937159,0.0253479,8.341428757,-12.4935627,1.169725418,-5.118454456
0.23332400000003872,21.60256386,3.753454924,-138.7357178,-1.314677835,-0.971714377,7.893280029,-14.3267746,6.814745426,-2.938375711
0.24165700000003199,21.49108124,3.739094496,-138.7649994,-1.35263133,1.738854647,10.44355774,-13.83771992,-3.236960649,-3.517872095
0.24999000000002525,21.37697601,3.75744462,-138.7892456,-1.018266797,-0.785924733,13.33940601,-15.09876156,1.064194798,-4.0625844
0.2583230000000185,21.27297592,3.791981459,-138.7818298,-2.419202328,0.430165172,9.134242058,-13.23934841,3.847105265,-1.577260971
0.2666560000000118,21.14469147,3.740400791,-138.8334656,-0.176260516,-0.62205106,9.044796944,-16.58259773,-7.931847572,-4.079926491
0.27498900000000503,21.02246857,3.763937235,-138.8155212,-2.803574562,0.577727079,15.46884346,-15.52612114,3.093060255,0.126521513
0.2833219999999983,20.92778206,3.746146679,-138.8726196,-1.371161103,0.140986025,7.007709503,-12.50989151,-4.365024567,-6.176027775
0.29165499999999156,20.78882217,3.691066265,-138.8680878,0.126592636,0.444259584,7.293978214,-17.44332504,-6.315294266,1.938421965
0.2999879999999848,20.67565727,3.678584099,-138.9347534,-2.555450678,-1.075843453,14.98400021,-14.66043758,-4.151837826,-7.492856979
0.3083209999999781,20.58675575,3.610105038,-138.9293823,-1.091486096,1.761810303,8.969060898,-11.45792961,-7.76097393,2.639061213
0.31665399999997135,20.45963287,3.577745676,-139.0062714,-0.995394707,-0.712596655,9.188824654,-16.27153587,-6.790373325,-7.819425106
0.3249870000000783,20.34966278,3.513719559,-138.9860535,-1.883867502,0.27844578,12.93679619,-14.12399864,-6.635086536,4.10569334
0.33332000000007156,20.24595451,3.46874404,-139.0738983,-2.635500669,0.067134932,11.05543327,-13.39738846,-8.637212753,-8.553145409
0.3416530000000648,20.10522842,3.383435488,-139.0594635,1.259095311,-0.51335901,6.412247658,-17.77865601,-9.305258751,4.262569427
0.3499860000000581,19.97673988,3.332164288,-139.1437225,-3.010219574,0.284494579,11.71608925,-16.42310715,-9.163879395,-7.932371616
0.35831900000005135,19.85895538,3.212655067,-139.15802,-0.081917539,0.431956023,10.58348083,-14.84887218,-14.32936287,2.434224129
0.3666520000000446,19.72245789,3.186151266,-139.2234192,-1.962506294,0.206578672,8.963124275,-17.536623,-5.57095623,-6.854280949
0.37498500000003787,19.5935173,3.076503754,-139.2367706,-1.266346216,-1.221045613,13.41643524,-16.22474098,-13.15758801,2.136151075
0.38331800000003113,19.4960041,3.012234211,-139.320694,-3.509383678,2.28820014,8.704453468,-12.76105309,-10.55797291,-7.453680515
0.3916510000000244,19.35825539,2.936649084,-139.322876,1.239845991,-0.664387345,9.363960266,-17.37264252,-8.89233017,1.909695745
0.39998400000001766,19.24172211,2.860006571,-139.3857574,-4.12442112,0.264427096,10.83838177,-15.19744301,-11.0963974,-4.630620003
0.4083170000000109,19.13617897,2.766164303,-139.4143677,0.950063944,0.023259616,7.403992653,-13.37402916,-11.9944973,-0.365348756
0.4166500000000042,18.99884224,2.689614773,-139.4605865,-2.923849821,1.16373086,12.57693291,-17.8119812,-10.41830063,-2.792938948
0.42498299999999745,18.87671471,2.617890835,-139.4854584,0.026249757,-1.28331542,11.27491474,-15.41611099,-9.349507332,-0.910765588
0.4333159999999907,18.74978447,2.519157887,-139.5483093,-3.856769323,0.904459119,7.201459885,-16.48934937,-13.56942654,-3.867571115
0.44164899999998397,18.5692234,2.417651415,-139.5937347,1.945419073,-0.528956831,9.038870811,-22.35131264,-13.5313797,-2.185753345
0.44998199999997723,18.39480209,2.32885313,-139.6385956,-4.269941807,-0.73897779,13.74246979,-22.30228996,-11.73602676,-2.277708769
0.4583149999999705,18.23478508,2.205513954,-139.7124939,0.210320622,0.646455944,8.268582344,-19.7877388,-17.05928612,-4.642006874
0.46664800000007745,18.02891541,2.102312565,-139.7513123,-2.064361811,0.0383595,7.965324879,-26.12398911,-13.1444025,-1.127885222
0.4749810000000707,17.78452873,2.006103754,-139.7973022,-0.786588967,-1.801840782,14.58705139,-30.08675194,-12.91956329,-2.655417442
0.48331400000006397,17.56190872,1.896444082,-139.8449402,-2.62891984,0.794220686,9.402283669,-28.1167469,-14.19783115,-2.007081985
0.49164700000005723,17.27045059,1.746600747,-139.8993835,0.686324775,-0.59852469,5.037734509,-35.74065399,-19.34770203,-1.827847481
0.4999800000000505,16.9342823,1.630583286,-139.9478455,-2.856958389,-1.181959033,13.00436974,-41.7634697,-14.94219112,-2.018789291
0.5083130000000438,16.62529182,1.535541534,-139.9928436,-1.15592587,-0.458159089,9.284690857,-37.92238998,-12.70962238,-2.881912708
0.516646000000037,16.25683403,1.369539261,-140.0435181,-1.02759552,-0.539726853,6.818847656,-45.65571976,-20.75325012,-0.750767708
0.5249790000000303,15.81598663,1.247546315,-140.0977783,-0.844488263,-1.530590892,11.2256918,-53.76745987,-16.08051682,-3.198855162
0.5333120000000235,15.37166023,1.134559274,-140.141571,-2.737711191,-0.670989692,10.25308895,-54.80512619,-14.39778805,-1.972058177
0.5416450000000168,14.86010838,0.982225478,-140.1968536,-1.239849925,-0.777749062,9.438269615,-62.29213333,-19.58738327,-2.652261734
0.5499780000000101,14.28035355,0.874505758,-140.2371368,-1.678760529,-1.55116725,9.942790985,-71.08797455,-13.65392017,-1.983357668
0.5583110000000033,13.66145897,0.776282847,-140.2714844,-0.991509795,-2.499606609,9.329860687,-75.25526428,-12.63408184,-2.196431875
0.5666439999999966,12.98592854,0.608802438,-140.317215,-1.944965959,-0.187581167,6.752427578,-82.59196472,-20.74604988,-1.263430119
0.5749769999999899,12.22612,0.501707673,-140.3609314,-1.861241579,-0.504702151,9.971039772,-92.19113159,-13.87337685,-3.354042768
0.5833099999999831,11.45387459,0.453582257,-140.3695374,-0.752898455,-2.679184198,11.24049759,-94.25606537,-5.789168835,-0.383985996
0.5916429999999764,10.65456867,0.300595671,-140.4108124,-2.165462732,-0.476936638,8.310175896,-96.96257782,-19.13904572,-2.396385908
0.5999760000000833,9.800042152,0.193570286,-140.437149,-2.650439739,0.369427294,8.300045967,-104.1242676,-13.12569427,-1.387062669
0.6083090000000766,8.867161751,0.141187415,-140.4349365,-0.161292836,-1.373235941,9.888730049,-113.0492249,-6.315287113,0.217275217
0.6166420000000699,7.947871208,0.07441131,-140.4424286,-2.611526489,-1.229965687,14.72384453,-111.9080887,-7.985146999,-0.27676484
0.6249750000000631,7.026082039,-0.004176234,-140.4635773,-1.328437805,-0.749452829,7.117591858,-111.7303085,-9.814458847,-2.335788012
0.6333080000000564,6.026877403,-0.074629873,-140.4510193,-2.36522913,0.29733628,4.199804783,-121.4983444,-8.154219627,1.901843548
0.6416410000000496,4.955965042,-0.067721657,-140.4784698,-2.222569704,0.121116132,9.789164543,-129.6541595,0.392505586,-4.440832138
0.6499740000000429,3.902028322,-0.061850585,-140.4635925,-0.341745645,-2.771390915,14.56850433,-128.0642853,0.915837348,1.167219043
0.6583070000000362,2.860337019,-0.05243836,-140.4697876,-3.505846262,-0.968897223,10.97918987,-126.1597137,0.989696562,-1.889447689
0.6666400000000294,1.803952813,-0.010912402,-140.4845886,-1.764558077,0.973905802,5.500305176,-128.3612366,4.981324196,-2.534552336
0.6749730000000227,0.68729651,0.042965375,-140.4742126,-2.086523771,1.390975475,7.498897552,-135.1765442,6.413152695,-0.014062443
0.683306000000016,-0.465323716,0.160550922,-140.4859924,-1.699404001,-0.504489183,11.52975368,-139.9051361,14.18455315,-2.001582384
0.6916390000000092,-1.635253429,0.19808875,-140.4682159,0.41705361,-2.027869225,12.59566498,-141.5965424,4.411002636,1.093644738
0.6999720000000025,-2.773715973,0.273623079,-140.4779663,-3.25979948,-0.849727213,13.49106312,-138.2049408,9.178683281,-1.37849164
0.7083049999999957,-3.887871742,0.372129887,-140.4677582,-0.025798675,1.041259527,7.179431438,-134.9180603,11.69770813,0.827314615
0.716637999999989,-5.046446323,0.445190459,-140.4644318,-2.165724516,1.209585428,5.680912971,-140.6264038,8.785823822,0.525728524
0.7249709999999823,-6.250689507,0.490477055,-140.4725189,0.138205945,0.374243349,7.980846405,-145.7355499,5.502757549,-1.576316714
0.7333039999999755,-7.455108643,0.519263506,-140.4597015,-1.735425115,-0.688838482,15.66649151,-146.1385651,3.321511269,1.381375909
0.7416370000000825,-8.607067108,0.575747848,-140.4697571,-1.595018148,-0.15413253,14.05495644,-139.4801025,6.888951302,-1.256835341
0.7499700000000757,-9.696715355,0.607810915,-140.4714203,0.190432966,1.012308836,10.48273754,-132.3501129,3.906115532,-0.141623288
0.758303000000069,-10.78643322,0.613204598,-140.4614258,-1.369146824,1.613156199,7.098343849,-132.0606842,0.37585631,0.720040083
0.7666360000000623,-11.90821171,0.619527698,-140.46492,-0.851584733,0.669824064,7.030702591,-136.2029877,0.902276099,-0.819271863
0.7749690000000555,-13.03658581,0.571453035,-140.4277344,-0.930649579,1.267225504,11.09799004,-136.7553406,-6.565305233,2.185160637
0.7833020000000488,-14.10254765,0.549826741,-140.4420471,-1.809154153,1.213245153,16.37073517,-129.4936829,-2.044007778,-2.836139441
0.791635000000042,-15.08691311,0.503647566,-140.4003296,1.050311565,0.117241867,12.32442951,-119.5020142,-6.587334156,2.562505722
0.7999680000000353,-16.04232025,0.445218831,-140.3789215,-2.410503149,1.368497372,9.595184326,-116.2638474,-7.369455814,0.036487911
0.8083010000000286,-16.9878273,0.362532616,-140.348526,0.166290581,1.179828644,7.336919785,-114.8411255,-10.57831573,0.067020424
0.8166340000000218,-17.92847633,0.245453417,-140.2940063,-1.962439299,1.607418776,9.964627266,-114.5076752,-15.291749,1.468596578
0.8249670000000151,-18.85196686,0.133675873,-140.263855,-1.100417256,1.378832817,11.6938591,-112.2071075,-13.94084454,-1.27287519
0.8333000000000084,-19.73240852,0.036723793,-140.2033386,-0.092747778,0.492709666,13.12673664,-107.2583313,-13.3052721,2.452857256
0.8416330000000016,-20.53626442,-0.097293526,-140.1620178,-1.821378708,1.051498413,14.84839249,-97.85955048,-16.92895699,-1.219273806
0.8499659999999949,-21.24905777,-0.218313873,-140.1066589,-0.02807967,2.239478111,11.59696484,-87.11113739,-15.8618784,0.470344663
0.8582989999999882,-21.9296093,-0.375854343,-140.0353088,-1.416220903,2.742602348,7.111783504,-83.04715729,-20.84686852,0.646955729
0.8666319999999814,-22.60978508,-0.510002434,-139.9779205,-1.472093225,2.348564625,7.293420792,-83.16413116,-17.43333817,-0.285703003
0.8749649999999747,-23.24261093,-0.671685159,-139.8864136,-0.276331991,1.422763705,13.38376617,-77.26907349,-22.29357719,2.251260757
0.8832980000000816,-23.78659248,-0.794403791,-139.8339386,-3.363268375,1.676773906,17.25624275,-66.79111481,-15.94231701,-0.659108281
0.8916310000000749,-24.23814201,-0.934869766,-139.7490387,0.415519953,1.284873366,10.67767715,-55.50087738,-19.7081089,2.166061163
0.8999640000000682,-24.64162254,-1.04691112,-139.6860657,-3.405702829,1.530084848,9.933891296,-49.88069534,-15.29273605,0.761269748
0.9082970000000614,-24.98301315,-1.156715751,-139.6378021,0.360011041,2.872226238,8.417970657,-42.34115982,-14.60114956,-0.464860767
0.9166300000000547,-25.29390717,-1.271900177,-139.5615387,-2.842169285,2.668468475,11.06236267,-38.709095,-16.32483292,1.853576779
0.9249630000000479,-25.55711365,-1.370574951,-139.5362549,-1.127169371,1.405157208,10.40352249,-33.01833344,-12.2135582,-2.530317783
0.9332960000000412,-25.79265976,-1.464206934,-139.4637299,-1.584376931,0.891155422,12.72036839,-29.64358902,-13.82273388,2.417281389
0.9416290000000345,-25.95668602,-1.542584658,-139.4503632,-2.886481285,1.071301222,15.02013874,-21.16057396,-9.392950058,-2.824611425
0.9499620000000277,-26.04960632,-1.606660843,-139.4139404,0.256662548,0.05814619,11.64973736,-12.62551403,-8.750798225,-0.003944593
0.958295000000021,-26.09778595,-1.673994064,-139.3904266,-3.384295464,3.049570799,9.217749596,-7.234920502,-8.754997253,-1.131432056
0.9666280000000143,-26.14665794,-1.700410843,-139.3823547,-0.744624555,1.380702376,4.866854668,-7.432021141,-3.197425127,-1.084685922
0.9749610000000075,-26.21203995,-1.754840732,-139.3509979,-2.320429325,0.685783505,11.1142664,-9.279167175,-7.751995087,0.322854638
0.9832940000000008,-26.24548721,-1.747007012,-139.3588715,-1.11285162,0.236708045,14.67703629,-5.637821198,1.337946773,-0.990758657
0.991626999999994,-26.20203018,-1.748039722,-139.3506012,-2.315997362,0.097683027,13.5591917,3.678216934,-0.801059544,0.706607103
0.9999599999999873,-26.13694191,-1.726408958,-139.3409271,-0.87977773,0.850266337,6.368301392,6.252421856,1.893391371,1.629590392
1.0082929999999806,-26.11101723,-1.724791884,-139.3469238,-3.270570993,1.838425636,8.07896328,1.514531255,0.238020271,-0.690073073
1.0166259999999738,-26.09751701,-1.667322278,-139.3419647,0.889242887,-0.781858087,13.89116383,0.042826999,6.007358074,3.012131691
1.0249590000000808,-26.05549431,-1.596909523,-139.3542023,-4.480297565,-0.211931184,12.48727608,3.410433292,8.009315491,2.21939683
1.033292000000074,-26.00952721,-1.574306488,-139.3516693,0.294151276,-0.451991737,7.798115253,3.928814173,2.379742146,0.906974554
1.0416250000000673,-25.99698257,-1.513715982,-139.3525391,-2.211877346,1.599964738,8.639838219,-0.101944655,6.402086258,2.816426277
1.0499580000000606,-26.01346397,-1.444603205,-139.3785706,0.004904639,-2.228281975,15.26169014,-3.65364027,8.899654388,0.273598462
1.0582910000000538,-25.97255707,-1.388101101,-139.3915558,-4.57994175,0.505066216,10.82765579,3.25747776,6.555823326,1.38551259
1.066624000000047,-25.98862839,-1.339912534,-139.4088135,1.5197047,0.571093917,5.055770397,-3.57305789,6.181343079,0.116634436
1.0749570000000404,-26.0396347,-1.241865039,-139.4307709,-4.28547287,-1.276321411,17.0851059,-7.813982487,11.71007442,2.191848993
1.0832900000000336,-26.03489113,-1.141172051,-139.4766998,-0.491202742,-0.315332919,8.504681587,-1.140243411,13.35350895,-0.204580918
1.0916230000000269,-26.11059952,-1.052356601,-139.4909668,-2.152600288,0.374073893,6.978269577,-10.74998856,10.13731003,2.889785528
1.0999560000000201,-26.18408966,-0.911675811,-139.539093,-0.47228995,-1.469577193,14.07252502,-10.51280403,17.7749157,1.700645089
1.1082890000000134,-26.23982048,-0.778717518,-139.5833435,-3.92929554,0.116354413,8.645637512,-8.407977104,16.44763565,2.076610565
1.1166220000000067,-26.36544228,-0.646822453,-139.6282959,1.189330935,-0.41161564,9.093090057,-16.73724937,16.65452766,1.621010661
1.124955,-26.44701958,-0.478933364,-139.6885376,-3.993175983,-0.388299316,13.82959652,-11.50707245,21.02562141,2.321687937
1.1332879999999932,-26.54952431,-0.339756101,-139.7419128,-0.672951639,0.213842586,8.350563049,-13.94367886,17.8819828,1.162131071
1.1416209999999865,-26.67543411,-0.166022509,-139.8099976,-1.391429782,-0.56058228,10.09697247,-16.80377007,22.1183548,1.757329822
1.1499539999999797,-26.77486801,-0.015140824,-139.8579865,-1.062024951,0.571525335,10.52456093,-13.53707886,18.8378334,2.44148612
1.158286999999973,-26.91136551,0.115333803,-139.904892,-1.117457628,-0.522183597,11.98099995,-18.04511261,16.31296158,1.805202842
1.16662000000008,-27.01511192,0.281434834,-139.9671173,-1.3894732,-0.029650893,9.328560829,-14.01839828,21.22797775,1.82712853
1.1749530000000732,-27.14621925,0.372801214,-139.9957733,-0.519411564,-0.502394557,9.797031403,-17.39132881,11.11377621,1.710327029
1.1832860000000665,-27.26113892,0.518304884,-140.0461578,-1.771141648,0.163175926,14.73478031,-15.33809185,18.36921692,2.050151587
1.1916190000000597,-27.36942101,0.60631609,-140.0830688,-1.443664193,0.083217591,8.197323799,-14.63691139,11.21744919,0.664279759
1.199952000000053,-27.49461174,0.747396767,-140.1323853,-0.708856761,-0.32573694,10.59450817,-16.54883003,17.82860756,1.991085529
1.2082850000000462,-27.60015869,0.807713807,-140.1552582,-0.236086264,0.319513857,9.869268417,-14.32271481,7.484262466,0.672360957
1.2166180000000395,-27.71703148,0.928124011,-140.1867371,-1.603144407,-0.9028005,15.03226185,-15.56247139,14.62718296,2.808742762
1.2249510000000328,-27.81985855,0.973234296,-140.2103577,-0.354049325,-0.359068662,5.593239307,-13.9952879,5.883244991,-0.18122074
1.233284000000026,-27.94931221,1.069491267,-140.2337341,-1.833447814,0.095910281,12.21876526,-17.07891273,11.59606838,2.367665529
1.2416170000000193,-28.05207443,1.092028975,-140.2374268,0.022673406,-0.299635887,10.27348995,-14.03235149,2.346149206,0.724127352
1.2499500000000126,-28.16172791,1.177710772,-140.2603607,-2.588733673,-0.544965684,13.99777317,-14.69799137,10.4421463,1.86209166
1.2582830000000058,-28.27069855,1.208111763,-140.2728882,-0.197153434,0.426559836,3.929614305,-14.76284409,3.685927391,0.223010376
1.266615999999999,-28.39756966,1.287027717,-140.3008423,-2.295959711,-0.373806894,15.06173038,-16.74748993,10.00583267,0.984342635
1.2749489999999923,-28.47359276,1.307572126,-140.3006439,0.363142401,0.13188298,10.67821789,-10.84673309,1.886936665,1.072583437
1.2832819999999856,-28.55957794,1.382312536,-140.3125763,-2.747715235,-0.812487483,12.67475224,-11.87993717,8.640669823,2.467740059
1.2916149999999789,-28.65840912,1.396132469,-140.3132477,0.207543135,0.503258407,3.325179815,-13.59004498,1.232365131,0.585708022
1.2999479999999721,-28.76209068,1.456263423,-140.325882,-2.901586294,-0.480025738,17.45054054,-13.99943638,7.132323742,1.581410289
1.308281000000079,-28.81417084,1.490204573,-140.3253326,0.107503101,0.040124141,10.60579395,-7.987825394,3.307374477,1.824156404
1.3166140000000723,-28.86883926,1.539245248,-140.3177643,-2.632599831,0.53610611,12.57452488,-8.179213524,4.792180538,3.076359034
1.3249470000000656,-28.93538666,1.583459258,-140.3345032,0.520849705,-0.701960564,4.222877502,-9.673215866,5.405487537,0.576409996
1.3332800000000589,-28.99056053,1.590608716,-140.3156586,-2.946060181,0.419055074,16.62869072,-8.280148506,-0.268834233,1.837334752
1.3416130000000521,-29.01914787,1.671667099,-140.3502655,0.391868412,-0.098484352,12.84470558,-5.062167645,10.29675674,0.877710283
1.3499460000000454,-29.04659462,1.643788338,-140.3018341,-1.193985581,-1.451152205,8.383047104,-5.057019711,-5.670018673,2.901107073
1.3582790000000386,-29.09871292,1.724975228,-140.3361664,-2.046079397,-0.400242656,9.270496368,-7.885957241,10.310256,0.897458792
1.366612000000032,-29.14404106,1.655358315,-140.2771606,0.246207938,0.464186281,9.68481636,-7.244577885,-10.66743374,1.560842037
1.3749450000000252,-29.16349411,1.736031771,-140.3180542,-3.825083017,-0.732361555,16.55385399,-3.949267149,10.60232162,0.261546969
1.3832780000000184,-29.18681335,1.729688048,-140.2874298,1.512956858,-0.376465023,4.213823318,-4.50373745,-2.380317926,2.280486107
1.3916110000000117,-29.21318054,1.746163964,-140.2913513,-3.570649385,0.645226359,13.07558727,-4.914385319,1.705626249,0.397353619
1.399944000000005,-29.24867058,1.785385966,-140.3039246,0.471164197,-0.883540094,8.74719429,-5.806261539,4.918971539,0.428436577
1.4082769999999982,-29.25131416,1.741772532,-140.2718506,-1.92042768,-0.181033522,14.14904881,-2.205308676,-6.628169537,0.52195406
1.4166099999999915,-29.26469994,1.848858595,-140.3258514,-1.942964911,-0.329923838,9.012466431,-2.999529362,14.45215416,0.072885312
1.4249429999999847,-29.28978539,1.773231268,-140.2720947,0.901452839,-0.74497962,7.056900501,-4.988372803,-11.25863552,0.918283165
1.433275999999978,-29.29417229,1.843083501,-140.3071136,-3.974874496,-0.279859155,17.5811367,-1.988176703,9.440395355,-0.115366526
1.4416089999999713,-29.32413673,1.832324386,-140.2988739,1.154878736,-0.673350334,5.324627876,-5.411007881,-1.853702307,0.058669411
1.4499420000000782,-29.34802628,1.822959781,-140.2832794,-2.697717667,-0.033091459,11.22646999,-4.522270203,-1.82181251,0.525770605
1.4582750000000715,-29.3670311,1.885819316,-140.3267822,-1.265720725,-0.458855212,15.89412498,-3.898691177,8.862436295,-0.971317351
1.4666080000000647,-29.35820198,1.823219538,-140.2815247,0.656505048,-0.471171737,7.652366161,-0.71222955,-9.132347107,0.492677093
1.474941000000058,-29.36961555,1.883383036,-140.313385,-3.828361273,-1.358061671,11.22647572,-3.03755331,7.909649372,0.066366486
1.4832740000000513,-29.40820694,1.879427075,-140.3015442,1.044690967,-0.693389535,6.513682365,-6.273311138,-1.036018968,0.450644106
1.4916070000000445,-29.43254852,1.834129333,-140.283432,-2.515036345,0.21110642,14.22377014,-4.781256676,-6.001263142,-1.022725463
1.4999400000000378,-29.4400425,1.922379136,-140.3227386,-2.387726307,-0.975193322,12.82471371,-2.340705633,11.61709499,0.541753948
1.508273000000031,-29.44908524,1.883252263,-140.3061523,0.689097285,0.111152023,5.468794823,-2.952424765,-5.304247379,-0.758539975
1.5166060000000243,-29.4490242,1.909853458,-140.3144836,-3.3221066,-0.69858408,13.49672413,-1.553426385,3.345359802,0.146244481
1.5249390000000176,-29.46755981,1.922744155,-140.331543,0.116112016,-1.327902436,6.948178768,-3.960319281,2.121383667,-1.210656762
1.5332720000000108,-29.48607635,1.866470933,-140.2929077,-0.825715184,-0.536812127,13.65487385,-3.971794844,-8.084417343,0.153621376
1.541605000000004,-29.49469757,1.918010235,-140.3460388,-3.110942602,-0.373850733,12.3609705,-2.625305653,8.346514702,-2.789288044
1.5499379999999974,-29.52557373,1.881859899,-140.3306885,0.52150631,-0.946985245,6.411206722,-5.363697052,-4.605234146,-1.092190862
1.5582709999999906,-29.53196335,1.858485699,-140.3242188,-2.076985836,0.315393865,14.39429569,-2.602047443,-3.038616419,-0.923777223
1.566603999999984,-29.54644585,1.912226796,-140.3552856,-1.462541699,-1.540003061,9.945631027,-3.209514618,7.523169041,-0.617482364
1.5749369999999772,-29.58653641,1.830685973,-140.3287201,0.588876665,-0.528151274,7.127020836,-6.726068974,-10.25568581,-2.354665756
1.5832699999999704,-29.6151638,1.828553915,-140.3281708,-2.744009256,-0.530697048,15.07075882,-5.032710075,-0.181092635,-0.624167681
1.5916030000000774,-29.63652611,1.833580732,-140.3555603,-1.310578108,-1.229890585,12.5029707,-4.275886536,1.902612567,-2.722767591
1.5999360000000706,-29.66284943,1.795754313,-140.3232727,-0.4287453,-0.816920042,2.380237818,-4.877335072,-5.784181595,0.564985991
1.608269000000064,-29.69574738,1.794926763,-140.3474579,-3.097363234,0.104284659,13.16926479,-5.676805973,1.126911163,-2.774380445
1.6166020000000572,-29.71649742,1.825738668,-140.3561554,-0.183062896,-0.83159703,12.04312134,-4.051865101,3.803291321,0.370497108
1.6249350000000504,-29.73127174,1.761148095,-140.3373108,-0.97129792,-0.671802163,10.86779881,-3.665781736,-8.052322388,-2.126545191
1.6332680000000437,-29.76181793,1.802905679,-140.3647003,-2.304154634,-0.613429904,8.451584816,-5.159885883,6.056934834,-0.924545944
1.641601000000037,-29.8187561,1.787871957,-140.3747406,-1.025558114,-1.10159719,8.555382729,-8.617063522,-1.176897168,-2.167988777
1.6499340000000302,-29.84148216,1.772875905,-140.361145,-0.828460634,-0.638802588,14.83624744,-4.37277317,-2.298378229,-0.034463953
1.6582670000000235,-29.87245369,1.824813366,-140.3937683,-3.12707305,-0.069447555,11.59941578,-5.421278954,7.091800213,-0.428833514
1.6666000000000167,-29.94200897,1.792355657,-140.3856506,1.911057234,-2.312641621,5.218281269,-9.973799706,-3.786245346,-1.655140877
1.67493300000001,-29.99843979,1.766674399,-140.3652954,-2.912772894,0.122979298,14.03363514,-8.669727325,-4.098764896,0.351926804
1.6832660000000033,-30.04474258,1.793183565,-140.3951874,-1.694031596,-1.157710791,15.15763569,-7.041224957,4.624304295,-2.068579912
1.6915989999999965,-30.09281731,1.800965905,-140.3860168,-1.393013597,-0.246234179,2.941252232,-7.632197857,0.049730044,1.187616944
1.6999319999999898,-30.14381027,1.773680568,-140.3815308,-0.429297209,-0.184009343,9.701758385,-7.730862617,-3.026834011,-1.734211683
1.708264999999983,-30.18692017,1.838174939,-140.3934174,-3.537121296,-0.347077787,15.13871861,-6.955239296,7.150151253,2.512616158
1.7165979999999763,-30.23060608,1.802033544,-140.3861237,1.898434043,-2.174659252,9.766973495,-6.867099285,-4.112570286,-1.981747627
1.7249310000000833,-30.27375603,1.810661793,-140.3713074,-3.327945948,0.153331593,8.483379364,-7.057439327,-0.197204009,1.812091947
1.7332640000000765,-30.3235054,1.817040324,-140.4109192,-1.74073422,-0.74185735,13.20313931,-7.414579391,3.133581877,-4.272096634
1.7415970000000698,-30.35390663,1.842322111,-140.4089508,-0.805220306,-0.720367908,9.123532295,-5.481523514,2.27650404,1.530642867
1.749930000000063,-30.37736511,1.816884518,-140.4243011,-0.352822781,-0.518875003,10.82637691,-4.351679802,-1.627630949,-3.687373638
1.7582630000000563,-30.42277718,1.882477403,-140.4386139,-3.231066465,-1.125924945,10.15690994,-7.220218658,7.397122383,2.369944572
1.7665960000000496,-30.48002625,1.860206127,-140.4684753,1.16042757,-1.349644542,11.06786919,-8.350035667,-0.413567424,-4.996671677
1.7749290000000428,-30.52730179,1.848627806,-140.4459229,-1.854675293,-0.673714936,10.05731869,-7.583260536,-2.793449879,1.430708647
1.783262000000036,-30.57566643,1.859901905,-140.4827423,-1.765347362,-0.622148514,11.9803772,-7.25728178,3.484957933,-3.670750856
1.7915950000000294,-30.63309097,1.908598661,-140.5008545,-2.09448576,-0.684847772,9.40722847,-8.638658524,5.910704136,0.911802948
1.7999280000000226,-30.65490723,1.879948974,-140.5034332,0.593326449,0.241314843,9.408296585,-4.205805779,-2.723279715,-2.575511217
1.8082610000000159,-30.68784142,1.906996131,-140.5023956,-2.414782286,-1.398439288,8.927949905,-5.773371696,2.52749753,1.532717347
1.8165940000000091,-30.73299026,1.941085577,-140.5157623,-0.492616147,-0.421065837,9.505017281,-6.960796356,4.410424709,0.154953301
1.8249270000000024,-30.78040504,1.926442981,-140.4898529,-1.596028805,-0.928154409,13.43181515,-7.608656883,-3.25818181,1.47329247
1.8332599999999957,-30.79512405,1.933394313,-140.4845276,-0.777393639,0.318616182,12.77067852,-3.383743286,0.464988083,0.419497162
1.841592999999989,-30.81259155,1.957693815,-140.4973297,-3.091153145,-1.178939581,10.39636421,-3.863292933,3.080355406,-0.035962388
1.8499259999999822,-30.82455444,2.003881454,-140.5142975,-0.145088166,-0.562560081,8.652657509,-2.95885396,5.877121925,0.53716892
1.8582589999999755,-30.85083771,1.988991857,-140.506134,-0.623470366,-1.171386003,9.954134941,-5.001358986,-2.195498705,-0.366309196
1.8665920000000824,-30.86406136,2.034344435,-140.5156708,-1.197356343,-0.303153187,13.9322834,-3.142687321,5.333153248,1.253855228
1.8749250000000757,-30.86882782,2.025377989,-140.5244293,-1.219593525,-1.123030066,10.69424152,-2.347698212,-0.589076102,-1.670022607
1.883258000000069,-30.88759041,2.036570549,-140.5133667,-0.982618928,-0.481408566,8.442578316,-3.893005133,0.546697378,1.275960207
1.8915910000000622,-30.89602661,2.008156061,-140.5075378,-0.605001211,-1.319181323,9.478234291,-2.848636389,-3.498674154,-1.349204183
1.8999240000000555,-30.90623474,2.054158211,-140.5180817,-2.707647085,-0.334583372,13.45027924,-2.776096582,5.460148335,1.194712162
1.9082570000000487,-30.88374138,2.068312883,-140.5499725,-1.211811662,-0.107570693,11.48718262,1.024402976,3.169210911,-2.541751862
1.916590000000042,-30.8619957,2.064646244,-140.5319061,0.343528479,-1.049090743,7.426203728,0.935521543,-1.412778616,1.079575896
1.9249230000000352,-30.83961296,2.063371658,-140.5443878,-1.489769459,-0.841769338,8.449871063,0.934957922,0.428410858,-1.566566586
1.9332560000000285,-30.83105469,2.060652971,-140.516098,-0.978795886,-1.597320795,12.53113842,-0.692275941,-1.942148328,2.19036293
1.9415890000000218,-30.8216114,2.075453281,-140.55159,-2.122131824,-0.617164254,12.71772194,-0.51450038,3.555947304,-3.038808823
1.949922000000015,-30.81492424,2.035624743,-140.511673,0.349729836,-1.511410117,10.38235188,-0.966002405,-6.483334064,1.107610703
1.9582550000000083,-30.80976486,2.021776438,-140.5133362,-1.92399621,-0.624661028,8.928356171,-1.174591899,-1.510727525,-1.248668313
1.9665880000000016,-30.81640625,2.008627176,-140.4919586,-0.483415514,-1.466925383,12.3828373,-2.484221697,-2.593543768,0.836368799
1.9749209999999948,-30.81505775,2.008512497,-140.4985046,-2.962991476,-0.307255745,14.3878212,-1.608855724,0.201545596,-0.901877165
1.983253999999988,-30.8055439,1.980124593,-140.4855957,1.029847383,-2.246388912,8.169346809,-0.507341146,-3.643803835,-0.969780385
1.9915869999999813,-30.82534027,1.923558831,-140.4533539,-1.651087761,-0.765248656,5.539958,-4.300835609,-7.959061623,-0.442050487
1.9999199999999746,-30.8260746,1.919380069,-140.453949,-0.930851579,-0.527047694,13.07852936,-1.683341861,-0.318743557,-0.873599052
2.0082530000000816,-30.82295418,1.896471381,-140.430603,-2.795963526,-0.938896298,12.68834496,-1.513263464,-3.975149632,0.764597774
2.016586000000075,-30.80013084,1.899633408,-140.4482117,-0.065309294,-0.496402562,9.377373695,1.213307977,1.481975675,-2.173572779
2.024919000000068,-30.78465271,1.826533675,-140.4039764,-0.611921787,-0.615340531,9.459091187,-0.104839079,-10.39356613,-0.228069201
2.0332520000000613,-30.77118111,1.792014122,-140.3966827,-0.705554843,-1.839754343,11.10056019,-0.007966028,-3.931964397,-1.924602628
2.0415850000000546,-30.74916458,1.740141153,-140.3617096,-2.199124813,-1.183387637,12.13820267,0.725356817,-7.683964729,0.212534159
2.049918000000048,-30.73330688,1.70272398,-140.3701782,-0.85990268,-0.283360511,10.76153183,0.337403536,-3.265225887,-3.723029375
2.058251000000041,-30.70587349,1.623842239,-140.3285828,-0.602106929,-1.331921577,9.62238884,1.356914163,-10.90304661,-0.706581533
2.0665840000000344,-30.6801281,1.553437591,-140.3081055,-0.719442904,-1.241934538,9.880281448,1.426981926,-8.446320534,-2.755502701
2.0749170000000277,-30.65447044,1.488941312,-140.2713013,-1.004808068,-0.967754602,11.90212727,1.179446101,-9.091876984,-0.366590947
2.083250000000021,-30.64774895,1.416927099,-140.2541046,-1.774077296,-1.09801662,12.07775402,-0.842657149,-8.41115284,-3.184746265
2.091583000000014,-30.61650085,1.325388551,-140.2209778,-0.29942131,-2.041091442,10.97179508,1.871901512,-11.66280365,-2.388707161
2.0999160000000074,-30.58371162,1.206245065,-140.1762238,-1.192451119,0.450849682,7.542953968,2.221253872,-14.96701431,-3.208926201
2.1082490000000007,-30.51634216,1.160491824,-140.1661224,-2.585409164,-0.345188677,11.88447189,6.28213501,-5.521148682,-1.964970469
2.116581999999994,-30.42634583,1.097645402,-140.1475372,-1.707862973,0.726127565,11.18132019,9.160161972,-7.556852341,-2.457134962
2.1249149999999872,-30.27767563,1.059016109,-140.1417999,-0.700754404,0.42236951,10.99545574,16.04997063,-4.516891479,-1.979519725
2.1332479999999805,-30.0822258,0.957386971,-140.0986328,-0.646560431,-0.38156572,8.523553848,21.76582336,-13.07082272,-2.207615376
2.1415809999999738,-29.85829544,0.955253959,-140.1111755,-2.365876198,0.318770409,10.14043427,25.12495041,0.333484679,-1.607550263
2.1499140000000807,-29.60383987,0.865557194,-140.0723724,0.409912318,-0.327374667,10.6157608,28.86295319,-11.5804615,-1.85157764
2.158247000000074,-29.29132462,0.812397182,-140.0702362,-2.666525126,0.495833248,13.43778038,35.72727585,-5.90844202,-3.020280361
2.1665800000000672,-28.92280579,0.77542001,-140.0728455,-0.973289013,0.58132869,11.35138035,42.62931442,-3.649675846,-2.988648176
2.1749130000000605,-28.52549934,0.725597262,-140.0901642,-1.645585537,-0.692613184,10.15237045,45.93305206,-4.464594841,-4.804291725
2.1832460000000538,-28.07644272,0.677228212,-140.089386,-0.174595937,0.317801774,9.116565704,52.28957748,-5.080928802,-3.224788904
2.191579000000047,-27.60079384,0.614356577,-140.0976868,-2.053047895,-0.847496748,12.03197479,55.32219315,-6.327449799,-4.679681301
2.1999120000000403,-27.09859085,0.603799939,-140.1238861,-0.965930879,-0.245348245,12.44769764,58.70228577,0.39329496,-3.928723574
2.2082450000000335,-26.56078339,0.480075687,-140.1070099,0.101889253,-0.494937927,9.698325157,62.75221252,-14.27512074,-5.171532631
2.216578000000027,-26.01321602,0.434672296,-140.1206665,-2.545123339,-0.576050699,9.100021362,64.12494659,-4.086868286,-4.436196804
2.22491100000002,-25.43317413,0.370088696,-140.1335449,-0.235324204,-0.756567776,10.08449078,67.85405731,-6.397309303,-5.070665836
2.2332440000000133,-24.82327271,0.276659608,-140.1137848,-0.837678611,-0.488551885,12.51617432,71.57988739,-11.08402157,-3.1668818
2.2415770000000066,-24.18307114,0.183819503,-140.1117706,-0.316534966,-0.813200712,8.139247894,75.0639267,-10.31482697,-4.721495628
2.24991,-23.55534363,0.047647402,-140.0775909,-1.200122118,-1.447271347,10.13344669,73.72296906,-16.52912712,-3.418262243
2.258242999999993,-22.92494202,-0.053089362,-140.0823669,-1.363529563,-0.761295199,10.92089844,73.89544678,-10.87542248,-5.790638924
2.2665759999999864,-22.30111694,-0.217979625,-140.039856,-0.030052952,-1.882247448,13.60074711,73.27548981,-20.15463257,-3.453481913
2.2749089999999796,-21.65203476,-0.342850655,-140.0371704,-1.455122948,-0.780303419,12.6511898,76.14367676,-14.03119373,-5.74481678
2.283241999999973,-21.02563477,-0.541014552,-140.0001678,-0.33193177,-1.407275438,7.733019352,73.60511017,-23.69226837,-5.070185661
2.29157500000008,-20.38319778,-0.715308905,-139.9777679,-1.149289131,-1.365673661,7.812893867,75.37713623,-20.48865128,-5.417336941
2.299908000000073,-19.73170662,-0.900962591,-139.9423828,-0.374728501,-0.926234663,10.04094982,76.64130402,-22.30884361,-4.206649303
2.3082410000000664,-19.09523964,-1.120553851,-139.9183044,-1.106613398,-1.166389823,11.63461113,74.68109131,-25.71919441,-6.759634495
2.3165740000000596,-18.4419899,-1.369133353,-139.883667,0.328012228,-1.50739491,10.66365719,76.88392639,-29.5070591,-6.217969894
2.324907000000053,-17.77234077,-1.579618216,-139.8653564,-2.37513876,-0.785861731,10.83911896,78.670578,-24.59959412,-6.484614849
2.333240000000046,-17.14998627,-1.805252075,-139.8513184,-0.378384411,-1.923973799,8.567515373,73.13680267,-26.2611351,-7.072768211
2.3415730000000394,-16.50460243,-2.091654778,-139.8156891,-1.441727519,-0.888009846,12.47650814,75.84737396,-34.02671814,-6.643143177
2.3499060000000327,-15.81867695,-2.275758982,-139.8153381,-1.41594708,-1.381760716,9.307743073,80.71659851,-21.15935707,-6.661894321
2.358239000000026,-15.19359207,-2.539708376,-139.7800903,-0.573206544,-2.946687937,6.297284126,73.44556427,-31.54001427,-5.217162609
2.366572000000019,-14.55848026,-2.851219654,-139.7625732,-0.118250698,-0.319895267,11.38882732,74.71559906,-36.59673691,-8.121734619
2.3749050000000125,-13.89004326,-3.019224644,-139.7711487,-3.494832516,-0.371265143,15.74475956,78.42520905,-19.20084763,-6.702950954
2.3832380000000057,-13.25132847,-3.34316802,-139.7552795,2.191807508,-3.334689379,5.178046227,75.15506744,-38.16363144,-7.827913284
2.391570999999999,-12.61036015,-3.583741903,-139.7414398,-4.169570923,-0.260461211,9.745391846,75.27675629,-28.39920235,-5.70235014
2.3999039999999923,-11.96266651,-3.768570662,-139.7777405,-0.079684757,-1.504391074,12.60918617,75.84809875,-20.67282677,-9.520863533
2.4082369999999855,-11.31139278,-4.123428822,-139.7416687,-0.677384138,-1.766665339,9.570695877,76.70420837,-42.46179581,-5.302977085
2.416569999999979,-10.63066483,-4.255514622,-139.7855225,-3.882220268,0.341869622,11.52548981,79.70677948,-14.48959637,-8.724388123
2.424902999999972,-9.990348816,-4.538518906,-139.765274,2.130926371,-1.957860589,3.948650122,75.27801514,-33.73371887,-4.665353775
2.433236000000079,-9.295203209,-4.784344673,-139.7674255,-3.596569061,-1.0549227,16.91224098,81.79901886,-28.96661377,-5.750357151
2.4415690000000723,-8.571386337,-4.856300831,-139.7684631,-1.754651427,0.380395204,7.375498295,85.10105133,-8.40440464,-2.443447351
2.4499020000000655,-7.860762119,-5.156914234,-139.784256,-1.192895412,-1.205001235,5.710811138,83.51249695,-35.36270905,-7.578794956
2.458235000000059,-7.082281113,-5.220396042,-139.7847137,-2.412081957,-0.166268513,17.0397377,91.6672287,-7.450801373,-2.031300783
2.466568000000052,-6.225728989,-5.353909969,-139.8209076,-0.322271943,1.082044244,6.85362196,100.7889938,-15.3388176,-6.707891941
2.4749010000000453,-5.375130653,-5.497926712,-139.8350525,-1.753402591,-0.596846759,10.63000393,100.1583939,-16.9327507,-4.50468874
2.4832340000000386,-4.461059093,-5.546076298,-139.8995667,-2.940396786,-1.043519974,11.68498707,107.3474808,-5.021415234,-8.729701996
2.491567000000032,-3.468012094,-5.574829578,-139.9243011,-0.4501324,1.275267959,8.29483223,117.1300583,-3.168468237,-4.241256714
2.499900000000025,-2.452400684,-5.646064758,-139.990097,-1.857248545,-0.133887812,11.87267303,119.5042038,-8.055778503,-8.843887329
2.5082330000000184,-1.354519367,-5.620753765,-140.0388031,-2.466901779,-1.17004323,13.28730488,129.4278564,3.280860186,-6.741943836
2.5165660000000116,-0.19939895,-5.561386585,-140.1014862,-0.690543234,1.161972761,6.862714291,136.2848358,7.300112247,-7.94546032
2.524899000000005,0.956624568,-5.556576729,-140.1681671,-0.978141248,-1.760449648,9.514472008,136.1999359,0.556747377,-9.077091217
2.533231999999998,2.133900166,-5.46367979,-140.2279205,-2.474851131,-0.562337518,14.11299706,138.9865875,11.0277319,-7.991995811
2.5415649999999914,3.376023054,-5.350266933,-140.3014679,-0.488188505,-1.023783803,10.03521729,146.4860229,13.18126202,-10.50368977
2.5498979999999847,4.613930225,-5.272434235,-140.3618011,-1.473402977,-1.806270123,9.353571892,146.2820129,8.890141487,-8.395457268
2.558230999999978,5.834770679,-5.124680996,-140.4253693,-1.070811987,-1.027887583,13.07885647,144.077652,16.95268631,-10.25537491
2.566563999999971,7.054372311,-5.058453083,-140.4999695,1.65763557,-2.922083139,8.807605743,143.9606018,6.971477985,-10.30949688
2.574897000000078,8.270879745,-4.987247944,-140.5700989,-1.979827523,-2.710127831,13.47366428,143.527298,7.324165821,-10.45675468
2.5832300000000714,9.505568504,-4.896758556,-140.6098785,0.227444798,0.505221546,7.383069992,146.1552429,10.07042599,-6.931022167
2.5915630000000647,10.65682507,-4.865354061,-140.6956024,-1.263014555,-1.942289352,8.604854584,135.5727234,1.881896019,-11.67813015
2.599896000000058,11.78718376,-4.730072021,-140.7086182,-0.912305593,-2.334444523,12.66905975,133.9142609,15.69816589,-5.241716862
2.608229000000051,12.89505768,-4.719270229,-140.7956696,-1.052702188,-2.552711725,11.61968422,130.4247284,-0.924623847,-10.98986435
2.6165620000000445,14.03284931,-4.626327991,-140.7868347,-0.822327435,-2.734495878,15.37104607,135.0254211,11.16847324,-2.123620987
2.6248950000000377,15.12407112,-4.618843555,-140.8582916,-0.975429833,-2.929901361,6.990315914,128.6035461,-1.246650338,-9.037641525
2.633228000000031,16.16418839,-4.543296814,-140.8546143,0.972157001,-1.468091965,8.90255928,123.2528,8.923632622,-2.575046778
2.6415610000000243,17.10035133,-4.541978359,-140.9179077,-0.987215221,-1.088887453,6.687937737,110.0450134,-2.136800289,-8.368988991
2.6498940000000175,17.99972725,-4.415746212,-140.9302826,-0.191321075,-3.993823528,11.75043011,106.2130814,14.07226944,-6.533629894
2.6582270000000108,18.84283638,-4.477534294,-141.0028839,-0.469221622,-1.112560272,11.2799139,98.80574036,-9.935669899,-7.016621113
2.666560000000004,19.63348198,-4.319935322,-141.0332794,-0.987766027,-5.407421589,14.27521992,93.00045776,16.73412895,-10.22010994
2.6748929999999973,20.36004257,-4.472953796,-141.1240692,1.53988111,-2.332088232,4.277701855,84.66809845,-21.14197731,-5.044295788
2.6832259999999906,21.00640488,-4.289934158,-141.1750336,-4.322041988,-3.403319359,16.30566978,75.50137329,18.46898842,-14.01865768
2.691558999999984,21.58236694,-4.34485817,-141.2201691,4.043517113,-2.516675472,3.816851616,67.03224182,-8.293346405,-3.763040781
2.699891999999977,22.09387016,-4.306752205,-141.3387299,-5.227294445,-3.298037052,15.78969193,58.71071625,-0.958820701,-15.42681217
2.7082249999999704,22.51241684,-4.188605785,-141.3000793,1.383753181,-2.923511028,7.160937309,48.90296555,14.68249798,-2.199281931
2.7165580000000773,22.85632324,-4.258606434,-141.4670563,-2.662954569,-3.585863113,6.590912819,38.19533157,-15.38260174,-15.75249958
2.7248910000000706,23.15636253,-4.015686035,-141.3509674,-1.639518738,-0.942706287,19.40002251,35.40172958,32.30327225,0.860268652
2.733224000000064,23.41149139,-4.094370842,-141.5130768,-0.396368921,-3.137131214,3.150538683,27.64306068,-16.27049828,-14.64965248
2.741557000000057,23.5812912,-3.91955018,-141.3978424,-0.482925624,-4.294187546,12.26807213,19.70388031,24.60850143,3.358170033
2.7498900000000503,23.67121887,-3.872489691,-141.5053711,-1.76408267,-1.950152516,3.907962084,8.318134308,0.088971056,-14.6153307
2.7582230000000436,23.71733856,-3.883736849,-141.4667206,2.339556694,-0.642210424,11.9026556,4.211633205,0.460095733,3.781416893
2.766556000000037,23.75088692,-3.635644436,-141.4708405,-5.521733761,-1.95378685,10.23727798,2.397263765,27.13097763,-12.99130726
2.77488900000003,23.73883247,-3.767118692,-141.5002594,4.298608303,-1.431352615,7.531853676,-3.301676035,-16.02737045,2.130144596
2.7832220000000234,23.7254982,-3.423412085,-141.4437866,-6.887288094,-1.075094342,16.88997841,-2.771528482,40.55756378,-10.96338272
2.7915550000000167,23.65662384,-3.603401661,-141.506485,6.011343479,-2.649105787,-3.145700216,-10.34857845,-22.95619392,0.818989933
2.79988800000001,23.57192993,-3.190314054,-141.4039459,-8.332942009,-0.083729059,20.20516968,-11.02737713,50.41699982,-9.158249855
2.808221000000003,23.45960236,-3.339271784,-141.477066,5.782610416,-1.548787832,2.745206833,-15.59642792,-20.0549221,-1.9104774
2.8165539999999964,23.35894394,-2.966518641,-141.3557739,-8.326414108,-2.22091198,24.13953972,-12.87441826,46.90121841,-4.989163876
2.8248869999999897,23.2113266,-3.084554672,-141.4285889,7.199198723,-0.809276521,-7.449095726,-19.78174019,-16.62117577,-3.408475399
2.833219999999983,23.07139587,-2.722145081,-141.2941589,-9.289216995,-0.126582757,23.49728584,-17.56939125,46.39930725,-2.833849669
2.8415529999999762,22.96310806,-2.767593384,-141.3460541,7.478712082,-1.61099422,0.21620436,-14.89602661,-7.622197628,-4.614086151
2.849886000000083,22.87843513,-2.485022783,-141.2338409,-8.172044754,-0.170180559,25.76252937,-11.13859558,36.54850388,-1.371721029
2.8582190000000764,22.79980087,-2.452518225,-141.2644043,6.079689503,0.80268681,-5.338024139,-11.19211674,1.987703562,-5.951725006
2.8665520000000697,22.6911335,-2.255445004,-141.212326,-7.054994583,-1.173445344,17.92627907,-14.37994194,24.30161095,-3.939036369
2.874885000000063,22.66919136,-2.067840338,-141.1462402,4.045985699,1.907104135,3.466548681,-3.925716639,23.66898727,-2.377949953
2.8832180000000562,22.56383324,-1.967054844,-141.1485748,-3.939460516,-2.195614338,12.33433151,-14.24796104,11.13189983,-5.467116833
2.8915510000000495,22.5195713,-1.735063314,-141.0261841,0.508195043,0.052082319,10.49046326,-6.424197197,31.1708622,1.845251203
2.8998840000000428,22.48451042,-1.62918973,-141.0341797,-1.155735731,-1.67787993,13.02902603,-5.83036375,11.44632435,-6.304483414
2.908217000000036,22.50945854,-1.449066401,-140.9307098,-0.393811524,-0.17556788,14.09593201,1.748492479,24.56766129,2.197612762
2.9165500000000293,22.58018494,-1.300489664,-140.9233093,-0.812268794,0.287418664,6.141887665,6.914167881,16.88269424,-6.572281837
2.9248830000000225,22.55690956,-1.138388991,-140.8488464,0.315037608,-0.163317055,5.193630695,-4.17603159,21.23333931,-0.230208039
2.933216000000016,22.53004456,-1.024901509,-140.8539124,-0.833243549,-1.382695794,11.66749096,-4.831574917,12.4213419,-6.33782053
2.941549000000009,22.54750633,-0.828294814,-140.7761841,-2.377750158,-1.604036808,19.68175316,0.678534269,25.23465919,-1.3826828
2.9498820000000023,22.56919289,-0.746317863,-140.8083038,1.826316357,-1.094385862,4.578368187,0.954821944,7.681402206,-7.889145851
2.9582149999999956,22.59696388,-0.565929234,-140.7167358,-3.303178549,0.169608131,10.46280098,1.89842546,24.06927299,0.867298365
2.966547999999989,22.57345772,-0.385051876,-140.712677,0.97107476,-2.926077604,6.382132053,-4.413244247,20.30471992,-8.441289902
2.974880999999982,22.5593605,-0.371630669,-140.704834,0.333157271,0.003881213,13.83422756,-3.233592272,1.885220408,-0.28946647
2.9832139999999754,22.56834984,-0.153979555,-140.6716614,-2.072368145,0.313708812,11.72240067,-0.499631554,25.72450447,-6.902118683
2.9915470000000823,22.50747108,-0.095505297,-140.662323,1.375968695,-2.234374523,6.047623158,-8.850383759,6.766577244,-2.636037827
2.9998800000000756,22.48743248,-0.007195178,-140.6696472,-1.752120852,-1.473299146,12.359972,-4.001942158,9.52940464,-5.422764301
3.008213000000069,22.47278595,0.120841511,-140.6097107,-0.353333265,-0.658840656,9.250427246,-3.310115576,16.79925346,-0.222088292
3.016546000000062,22.39571571,0.156410679,-140.6334381,-0.403776944,-1.524441481,10.03493214,-10.83760166,2.93390584,-4.817461491
3.0248790000000554,22.35949135,0.215949744,-140.6094971,0.985976398,-1.031515241,13.09682178,-5.895770073,7.550642967,-1.063644052
3.0332120000000486,22.29346466,0.252092451,-140.6123199,-2.993029594,-0.702249825,11.41713142,-9.517162323,3.958040476,-2.517713308
3.041545000000042,22.18766594,0.270077765,-140.6084442,0.496577322,-2.380485058,12.5154562,-14.2340498,2.030722141,-1.373396993
3.049878000000035,22.10976601,0.303895742,-140.6039276,-1.677602053,-0.543229461,6.953879356,-10.94582272,4.039007187,-1.583997369
3.0582110000000284,21.98431969,0.278197289,-140.598053,0.846152842,-1.635950208,8.840499878,-16.58903503,-2.79087615,0.691289902
3.0665440000000217,21.8661499,0.321487576,-140.5826569,-2.402261734,-1.72487998,12.40676403,-15.78506947,5.586286068,-0.779684603
3.074877000000015,21.71865845,0.289779693,-140.5798187,1.053775907,-0.050291672,7.984704494,-19.23131561,-3.620663166,0.556776881
3.083210000000008,21.56867981,0.268952459,-140.5662384,-2.126195431,-0.945301294,13.90538883,-19.60086441,-1.647456765,1.880303025
3.0915430000000015,21.41070366,0.356451124,-140.509964,-1.979905128,-2.364549398,10.86266136,-20.51865387,12.03293419,1.254304171
3.0998759999999947,21.20862961,0.313661754,-140.504715,0.795890152,-0.939259946,9.44169426,-25.84842682,-4.480483055,1.899296522
3.108208999999988,21.02847672,0.290595889,-140.4847412,-0.654670656,-0.731480181,8.344749451,-23.15196228,-1.949743748,1.988152146
3.1165419999999813,20.82099724,0.312188178,-140.4340057,-2.847583532,-1.79581368,13.37858105,-26.52533913,4.66947794,4.204656601
3.1248749999999745,20.58512497,0.375537157,-140.3899078,0.503524899,-0.554303229,5.497846603,-29.85401535,8.852286339,1.273668766
3.1332080000000815,20.32947159,0.27807942,-140.3775787,-0.095533222,-1.492316961,13.16185093,-32.28138351,-10.36607933,4.919064522
3.1415410000000747,20.08148575,0.33843872,-140.3188782,-0.908554494,-1.361425638,9.590858459,-31.31163979,9.10789299,3.125247002
3.149874000000068,19.78252602,0.340123236,-140.2721405,-1.754143238,-0.515067339,10.485219,-37.50291061,2.17585516,4.646658421
3.1582070000000613,19.51955986,0.333611816,-140.2377777,0.437114656,-0.757189274,10.56238079,-33.09077454,0.689830303,3.605423927
3.1665400000000545,19.31185532,0.330555648,-140.1841736,-3.301684141,0.794613957,14.68202782,-26.55898476,1.867445469,5.632330894
3.174873000000048,19.10849953,0.453904539,-140.1196747,0.227969348,-0.379665792,8.721123695,-25.96474838,16.39573669,1.416237831
3.183206000000041,18.90201569,0.370304316,-140.1026459,0.162916645,-0.487635314,8.972619057,-26.38853264,-8.744359016,4.644581318
3.1915390000000343,18.74530792,0.519052386,-140.0416718,-3.10970211,0.996302128,16.21658325,-20.36841774,19.11981201,0.106683373
3.1998720000000276,18.60438347,0.577775478,-140.0012054,-0.457755774,-0.253489196,9.836722374,-18.5546875,8.306698799,1.78715694
3.208205000000021,18.48540878,0.661315322,-139.9632263,-1.266055107,-0.147546723,6.33575058,-15.83257294,10.81378269,0.05185603
3.216538000000014,18.39934731,0.801142514,-139.8961639,-1.903159618,-0.0109617,13.49663639,-12.02545357,18.5394001,1.768855691
3.2248710000000074,18.32698059,0.971212804,-139.8400879,-1.362670183,-1.445337176,14.47164249,-10.29075527,21.34651947,-1.132764459
3.2332040000000006,18.31419945,1.076156735,-139.8028564,0.202002779,1.46541369,10.23284817,-3.208388567,13.43606472,-0.273636937
3.241536999999994,18.27704048,1.276952744,-139.7479858,-2.823802948,-1.105338335,8.9433918,-6.092246532,24.80185699,-2.410172701
3.249869999999987,18.26927376,1.481025815,-139.6758575,-0.133198291,0.495181322,8.941043854,-2.736088753,26.04325104,-0.019415602
3.2582029999999804,18.27497292,1.554639816,-139.6568451,1.290861487,-0.575013757,12.9983387,-0.871037841,8.965867043,-1.683751941
3.2665359999999737,18.30185699,1.778565526,-139.5715485,-2.927280664,-0.548365593,9.44395256,1.333516479,28.79983521,0.725049853
3.2748690000000806,18.31983757,1.864732981,-139.5489044,1.792274237,-0.594299197,9.240850449,0.580252111,10.53286934,-1.75137341
3.283202000000074,18.36147499,1.989403367,-139.5007782,-2.308852673,0.84533143,16.18832779,3.206237078,16.09186554,0.213392258
3.291535000000067,18.45637321,2.124746799,-139.4416962,0.393184751,-0.000873657,9.17878437,9.646951675,17.50701523,0.503819346
3.2998680000000604,18.5369091,2.24250102,-139.3925323,-2.246959209,0.223260954,12.1229372,7.843349457,15.34584045,0.551231325
3.3082010000000537,18.62669373,2.367979527,-139.3318176,2.41479373,-0.825769365,8.440765381,8.997502327,16.44696808,1.002067566
3.316534000000047,18.72700691,2.348158836,-139.3309021,-0.753033161,-0.809646726,12.35399055,10.43708611,-2.143476486,0.306499988
3.32486700000004,18.8230896,2.494751692,-139.2632904,-1.404941916,-0.188086793,11.26309681,9.703957558,19.12628746,0.930539966
3.3332000000000335,18.91197777,2.460146427,-139.2728119,1.496102571,-0.970529795,7.28786087,9.119436264,-4.22367239,-0.292937219
3.3415330000000267,18.99145699,2.459812641,-139.2491455,-0.655599236,-0.533906996,13.55429077,7.934497833,0.742710471,1.614901066
3.34986600000002,19.07574272,2.453998804,-139.2543335,-0.337693453,-0.204386383,9.653817177,8.54535675,-0.787202299,-0.916912794
3.3581990000000133,19.15995598,2.393126726,-139.2501221,-0.89392215,-0.737397075,11.24379826,8.610186577,-6.941560745,1.60664022
3.3665320000000065,19.242733,2.370188475,-139.2527313,0.029820696,-0.360602081,8.228694916,8.350561142,-2.627200842,0.053316034
3.374865,19.32020378,2.249796867,-139.2524414,0.713421166,-0.649829388,9.593605042,7.819566727,-13.82594013,3.55689621
3.383197999999993,19.37366104,2.207153797,-139.2656403,-2.242559671,-1.482590914,14.34750938,4.88102293,-5.278569221,-0.353924721
3.3915309999999863,19.43173409,2.102175474,-139.2749634,0.989608169,-0.206113398,9.944574356,5.534020424,-12.45384789,1.883222938
3.3998639999999796,19.48823738,1.972447038,-139.3192596,-2.014658213,-0.38088122,10.56194973,5.374008656,-16.37457085,-0.380781353
3.408196999999973,19.53534889,1.948020577,-139.2943268,-0.362792134,-0.683308065,6.804266453,4.071587086,-1.974998355,2.523027658
3.41653000000008,19.56458473,1.769080997,-139.3504791,0.357582688,-0.582703531,10.7186842,2.13184762,-22.41575432,0.281756639
3.424863000000073,19.61497116,1.684307694,-139.3507996,-0.989678144,-1.022780776,13.20403385,4.562766552,-9.800840378,2.117580175
3.4331960000000663,19.66942787,1.574440122,-139.3908081,-1.848654151,0.362184137,10.1905899,5.075974464,-13.95623875,-0.643314481
3.4415290000000596,19.69743729,1.499977946,-139.4137726,0.147380695,-0.927710414,9.092763901,1.952662706,-9.55013752,-0.84767735
3.449862000000053,19.74538422,1.382506251,-139.4538116,-1.100099325,0.389144093,10.74084854,4.278436184,-14.81683922,-0.321509957
3.458195000000046,19.7796917,1.336338401,-139.4674835,-2.080339193,-0.918572009,14.21718693,2.669003248,-5.980449677,-0.949148297
3.4665280000000394,19.83149719,1.296650887,-139.4759827,-0.733319461,-0.095812872,8.612938881,4.645474434,-4.75206852,0.097846381
3.4748610000000326,19.87117958,1.204475164,-139.5029144,-0.56467402,-0.624780953,7.23720932,3.345897913,-11.70752525,-0.534338593
3.483194000000026,19.90765762,1.251858234,-139.4673767,-2.853864908,-0.085590154,10.40782166,2.688995123,6.873362064,1.518655062
3.491527000000019,19.94975281,1.202140808,-139.4866638,0.984482765,-0.000352175,10.72385597,3.611927986,-6.607013702,-1.39897275
3.4998600000000124,19.9939003,1.218974233,-139.4590302,-2.747634172,-0.53712064,11.06383991,3.632367134,3.10589242,1.868443131
3.5081930000000057,20.04826164,1.258430839,-139.4588776,-0.778412282,-0.09821181,10.98433685,5.036105156,4.240577698,-2.87343049
3.516525999999999,20.08449173,1.291020989,-139.431778,-1.36086309,-0.748370767,10.32507801,2.679850817,4.864514351,1.154676914
3.524858999999992,20.13928032,1.340787411,-139.421463,-0.600680053,0.070132151,9.180150986,5.056596756,5.903402805,-1.929341316
3.5331919999999855,20.1597023,1.404225707,-139.3849792,-1.912745714,-0.691840589,10.23040009,0.749638975,8.729522705,0.927888453
3.5415249999999787,20.18195343,1.496182084,-139.3696899,0.115199208,-0.232199892,10.81934643,1.136273146,10.86676407,-3.102690935
3.549857999999972,20.21754265,1.506052732,-139.3586121,-0.826296389,-0.468967915,14.55833626,2.639559746,1.645676136,0.281103402
3.558191000000079,20.25719833,1.67267561,-139.3143921,-2.470059395,0.182598501,10.02121544,3.128639698,20.43964767,-3.047122002
3.566524000000072,20.27180862,1.711958766,-139.2845001,1.420306444,-0.996477842,3.044837713,0.051049173,5.740765095,1.173465014
3.5748570000000655,20.27830315,1.810366631,-139.2497406,-2.726336718,0.015258005,13.56964493,-0.833090305,12.37928391,-1.256724238
3.5831900000000587,20.30661201,1.940895438,-139.1975861,0.433531672,0.000911798,13.01286793,1.597636819,16.93539047,-0.121475533
3.591523000000052,20.3249054,1.992098331,-139.1890106,-0.992345035,-0.140088543,9.598780632,0.677855134,5.986046791,-2.215042353
3.5998560000000452,20.33972549,2.111341715,-139.1573944,-0.58627528,-0.393053234,6.609703541,0.046630729,14.81157589,-1.974089742
3.6081890000000385,20.34482574,2.201231956,-139.1320953,-1.726340055,-0.309312135,11.87526321,-0.983381748,11.02814579,-1.972988129
3.6165220000000318,20.35538101,2.336337328,-139.1034698,0.02479702,-0.524795651,13.27505875,-0.463643342,16.47006989,-2.978193283
3.624855000000025,20.38313293,2.397709131,-139.0748291,-0.149505407,0.462423861,8.529296875,1.71260643,7.942348003,-0.454268515
3.6331880000000183,20.38264084,2.508469343,-139.0687561,-1.088948607,-0.666904747,10.1375351,-1.68377769,12.78751278,-4.503931046
3.6415210000000116,20.3816433,2.601516962,-139.0331726,-0.340603113,0.313624173,9.015288353,-1.782623053,11.79782867,-0.997136772
3.649854000000005,20.40921211,2.654803276,-139.0469513,-0.586949587,-0.135119796,13.49679089,1.788001657,5.493612766,-4.333659649
3.658186999999998,20.43549538,2.840909481,-138.9741516,-3.23192811,0.223123938,11.73878956,1.263730288,23.81538582,-0.73657614
3.6665199999999913,20.4633503,2.893335342,-138.9903107,2.40029192,-0.280084252,5.480983734,1.846133351,5.292196274,-4.570604324
3.6748529999999846,20.48805046,2.955631733,-138.9611053,-2.024554968,-0.409431666,11.56454182,1.314151049,8.072338104,-0.443433642
3.683185999999978,20.49414253,3.085790157,-138.9479675,-0.552094042,0.096439391,8.03703022,-0.947406709,15.25937557,-4.549767971
3.691518999999971,20.5081768,3.095727205,-138.9399872,0.073187888,-0.17498,12.56860352,0.170283452,1.267238855,-0.703763962
3.699852000000078,20.54550552,3.223190308,-138.9237061,-2.922456503,0.64271158,17.67412949,2.775456905,15.08425236,-4.096370697
3.7081850000000713,20.59076309,3.329205275,-138.8861694,0.909525573,-0.386512041,4.39820528,3.713783503,13.31397533,-1.420399427
3.7165180000000646,20.59296799,3.342263222,-138.9075317,-0.163407654,-0.244898736,7.09876585,-1.181981564,0.642302513,-3.502605677
3.724851000000058,20.60675621,3.435530663,-138.8664856,-0.880907118,-0.774659336,13.40383816,-0.098243415,12.03234005,-0.489629
3.733184000000051,20.62065125,3.478996754,-138.8696136,-0.243929386,0.648821652,10.58920956,0.094990388,4.826452255,-2.743566513
3.7415170000000444,20.62091255,3.523524284,-138.8606262,-0.825364888,-1.273919106,10.9894352,-1.498560786,5.231976509,-1.964048266
3.7498500000000377,20.60871696,3.5947721,-138.8491058,-1.03281188,0.394482493,8.992107391,-3.146004915,8.564377785,-2.276094198
3.758183000000031,20.56742859,3.629447699,-138.858078,-0.443054408,-1.277806997,10.17994118,-6.346375465,3.365301371,-3.570074081
3.766516000000024,20.49616623,3.670158625,-138.8626862,0.002011641,-1.593791962,8.151573181,-10.11107922,4.456876755,-2.786560059
3.7748490000000174,20.37515831,3.701408863,-138.8719788,-0.601733029,-0.958007455,8.864029884,-15.90670109,2.969548941,-3.470832825
3.7831820000000107,20.19059563,3.726231098,-138.8851929,-0.506821573,-2.004034519,13.49486828,-23.64071846,2.321841717,-3.073120356
3.791515000000004,19.9666214,3.740669727,-138.9120789,-0.242245004,-1.563088417,10.74212933,-28.12036133,0.363747984,-4.758013248
3.7998479999999972,19.69874382,3.739610195,-138.9383087,-1.173108935,-0.841325641,9.643060684,-33.53463745,-1.110058069,-3.46902895
3.8081809999999905,19.35473633,3.789097786,-138.9524689,-0.787314713,-2.173450708,6.569246292,-42.62634659,4.897808552,-4.667164803
3.8165139999999838,18.93772125,3.764019966,-138.9760284,-0.005049961,-2.141592026,8.535122871,-51.44945908,-3.694452286,-2.236639977
3.824846999999977,18.46742821,3.781396389,-138.9958344,-1.121990204,-1.56146431,11.73087883,-57.72030258,1.026352525,-4.189501762
3.8331799999999703,17.94931984,3.7881639,-139.0087891,-0.483969748,-1.542457104,11.19939041,-63.66620255,0.361661524,-2.284977198
3.8415130000000772,17.33831215,3.790468931,-139.0361176,-0.803212464,-2.617665052,7.485563755,-74.54308319,-0.911307633,-4.510099411
3.8498460000000705,16.66807938,3.803775549,-139.0503693,-0.992447913,-1.333049774,9.062771797,-81.91046906,1.103608489,-2.654726028
3.8581790000000638,15.94044399,3.810519934,-139.0688934,-0.625640869,-1.443570614,9.442073822,-88.60486603,-0.012935277,-3.669034243
3.866512000000057,15.1686039,3.823789597,-139.0853882,-1.223667622,-1.735235691,11.26262569,-94.08487701,1.079930186,-2.887912273
3.8748450000000503,14.35005665,3.874364138,-139.0992737,-1.392287016,-0.983662724,10.05442905,-99.54866028,5.296865463,-4.490509033
3.8831780000000435,13.48926735,3.887831688,-139.111618,0.864775896,-1.994337678,6.772146225,-104.7892151,1.288254738,-2.380699635
3.891511000000037,12.5446806,3.91165328,-139.1182709,-2.191845179,-2.200235844,10.38061428,-114.7277679,2.480767727,-2.763795614
3.89984400000003,11.56375408,4.007441521,-139.1439972,-1.284291506,-0.61950016,13.00614262,-119.0923386,10.6743679,-5.97134304
3.9081770000000233,10.55261803,4.036975384,-139.1650543,0.036772583,-1.242489696,6.691109657,-122.5869827,2.895279169,-4.507370472
3.9165100000000166,9.492198944,4.131422997,-139.2003937,-2.00996685,-2.476125717,8.521450996,-128.543457,10.50079918,-6.695658684
3.92484300000001,8.368123055,4.275193691,-139.213623,-2.058692694,-0.643198729,8.242024422,-136.2004547,16.73112488,-5.592217445
3.933176000000003,7.237673283,4.37709713,-139.2610931,0.043812029,-1.08314836,11.87238789,-136.8192291,11.41997623,-7.844643116
3.9415089999999964,6.052188873,4.577676296,-139.2657166,-2.531266689,-2.489978552,11.93129921,-143.6347351,23.80530548,-4.729654312
3.9498419999999896,4.791213989,4.740947247,-139.3146667,0.143428802,-1.384633303,6.251173496,-152.435257,19.02760887,-8.238887787
3.958174999999983,3.515850067,4.891166687,-139.319519,-1.833408713,-0.248103082,10.15935516,-154.4086914,17.93350792,-3.305100679
3.966507999999976,2.230873346,5.151096821,-139.3768616,-0.774730861,-1.360530615,14.35441399,-155.189743,30.88716125,-8.970304489
3.974841000000083,0.883191824,5.268834591,-139.3917694,0.807513475,-2.326062918,5.513350964,-162.9680634,14.10965252,-3.596566677
3.9831740000000764,-0.488235384,5.474102974,-139.4473114,-2.280489922,-0.561229944,11.89556885,-165.5421143,24.68692017,-7.279528618
3.9915070000000696,-1.928842664,5.677635193,-139.4750061,0.047724213,-1.995461941,9.822646141,-174.0323486,24.55059052,-3.337011099
3.999840000000063,-3.370367289,5.748697281,-139.5461121,1.048479557,0.362358689,12.23940563,-173.7284546,8.98682785,-8.64585495
4.008173000000056,-4.782407284,5.93358326,-139.5790405,-2.794702291,-0.010096669,9.167182922,-170.4465332,22.53364563,-3.76369977
4.016506000000049,-6.238260746,6.125686169,-139.6636353,-0.162754983,-1.011427045,7.112766266,-175.2297363,23.99168396,-8.393349648
4.024839000000043,-7.710486412,6.190781593,-139.7192535,0.18463546,-0.247727394,12.83155441,-177.4407501,8.62177372,-6.18857193
4.033172000000036,-9.105068207,6.380870342,-139.8084259,-2.240683556,1.531185508,14.6143589,-167.7723541,24.19749641,-7.74530077
4.041505000000029,-10.51982403,6.483855247,-139.8881531,1.988744378,-0.851541936,6.361409187,-170.1929016,13.85887432,-7.810441971
4.0498380000000225,-11.91696644,6.555597782,-139.9639893,-1.48459661,0.843480289,11.8930788,-168.2176208,10.27995491,-7.75175333
4.058171000000016,-13.28816509,6.70086813,-140.0606842,-2.092765093,-0.350543082,14.25626183,-164.6347351,19.72657585,-8.600213051
4.066504000000009,-14.60918236,6.765749454,-140.1336365,1.404215217,1.687933922,7.978606701,-159.0908813,9.727724075,-7.119636536
4.074837000000002,-15.86820316,6.841601849,-140.2050781,-1.433812737,1.649397373,12.2028265,-151.5132904,11.21656036,-6.860913754
4.0831699999999955,-17.12637329,6.956751823,-140.3004913,-0.55712831,0.638683677,10.79020214,-151.1996765,16.55334473,-7.534940243
4.091502999999989,-18.31607437,6.910993576,-140.3426666,1.396380305,1.55153513,10.05782127,-143.641861,-3.580909729,-7.185101986
4.099835999999982,-19.42009354,6.997699738,-140.4188995,-2.594868183,1.9874475,16.69199562,-132.9692383,12.85797024,-5.785398483
4.108168999999975,-20.47212982,7.00069952,-140.4746857,1.928250313,1.151001334,8.12896347,-126.9635162,2.618208885,-6.533157349
4.116502000000082,-21.43544579,6.973885536,-140.4928589,-2.196491241,3.245134592,13.8187933,-116.9275513,-2.15674448,-3.72842741
4.1248350000000755,-22.33071327,7.013878345,-140.5717316,0.601671398,1.95434773,13.3995533,-107.8248749,7.955236912,-7.315680981
4.133168000000069,-23.11571693,6.893854141,-140.5518494,0.397295833,3.022141218,8.883449554,-96.08540344,-14.12416363,-3.937068701
4.141501000000062,-23.82398987,6.939311981,-140.6296844,-2.532657623,2.71751976,15.08427715,-85.42494202,8.688982964,-6.709078312
4.149834000000055,-24.43811226,6.832051754,-140.6103058,1.994889021,2.725619316,6.606809139,-75.56904602,-12.61766434,-3.71310997
4.158167000000049,-24.95881653,6.769808769,-140.6275787,-2.275381088,1.812489271,16.32353401,-63.81389236,-5.970238686,-5.29094696
4.166500000000042,-25.42103386,6.761506081,-140.6459961,0.116209865,2.157196283,9.565180779,-56.80114365,0.107656926,-2.967865467
4.174833000000035,-25.80386734,6.630175591,-140.6283722,-0.854916513,2.327972412,10.84126091,-47.76461029,-15.15958977,-5.244935989
4.183166000000028,-26.10359383,6.631174564,-140.6452637,-1.82430768,1.646288395,16.10996437,-37.3302269,1.0651052,-2.316759109
4.191499000000022,-26.33841515,6.537656784,-140.632843,0.283339202,1.957629204,9.299338341,-29.92856407,-10.7290678,-4.027841091
4.199832000000015,-26.52307701,6.499380112,-140.6205139,-1.515426517,1.02709806,11.50397015,-23.92278862,-4.693273544,-1.285451174
4.208165000000008,-26.68815422,6.471740723,-140.6425323,-1.114102483,1.084271908,9.726213455,-21.09599304,-1.791793227,-4.239617825
4.216498000000001,-26.79818344,6.387947559,-140.620697,-0.375084937,1.398362279,13.17006302,-15.09152508,-10.07710361,-2.759140253
4.224830999999995,-26.86453629,6.371818542,-140.6455231,-2.216706753,1.380894542,13.24504185,-9.226631165,-0.397225559,-3.913470984
4.233163999999988,-26.91267586,6.338635921,-140.657486,0.036468238,0.274934828,9.053162575,-7.212686539,-2.831499815,-3.631867647
4.241496999999981,-26.93584442,6.295787334,-140.648407,-0.496896952,0.527034402,9.541234016,-4.51584053,-5.14039278,-1.64548409
4.2498299999999745,-26.93980026,6.265244007,-140.6492004,-0.677834749,0.259924978,11.6797123,-2.059435844,-3.149654388,-2.301592827
4.258163000000081,-26.94065857,6.25434494,-140.6479797,-1.978741527,0.368223816,13.28979301,-1.738988757,-1.293019414,-0.75601697
4.266496000000075,-26.93374634,6.234970093,-140.654007,-0.44277373,0.031277623,12.15072155,-0.686602354,-1.673083305,-2.250658751
4.274829000000068,-26.90395737,6.247257233,-140.6576233,-1.742170691,0.568587542,11.6282959,2.005043983,1.491990685,-0.091263518
4.283162000000061,-26.88515091,6.249969959,-140.6769562,-0.827889919,-0.000958982,9.365531921,0.914005458,1.407489419,-2.4656775
4.2914950000000545,-26.87669945,6.257534504,-140.6727753,-0.517264962,-0.57528168,9.379179955,-0.657799184,0.581276715,0.448441237
4.299828000000048,-26.87189102,6.257899284,-140.6856842,-0.206453443,-0.192747831,11.73435497,-0.849265516,0.810344756,-1.910898685
4.308161000000041,-26.86801147,6.274983883,-140.6793365,-1.327486634,-0.124157682,12.06188965,-1.236860156,1.4959867,1.172632456
4.316494000000034,-26.88771248,6.28869009,-140.6980286,-0.78122431,-0.914779961,11.75301361,-3.714499474,2.550601721,-1.803831458
4.3248270000000275,-26.92601585,6.307266712,-140.6959381,-0.908225358,-0.267063975,10.70532894,-6.253996849,1.868084311,0.834473312
4.333160000000021,-26.96668434,6.318294525,-140.7118225,-0.596068978,-0.439741224,10.02825451,-6.265805244,2.114134789,-1.647328258
4.341493000000014,-27.02117729,6.342982769,-140.7184296,-1.819977641,-0.070116371,11.76700687,-8.096531868,2.941884279,0.340528458
4.349826000000007,-27.08614922,6.381801128,-140.7510834,-0.681711912,-0.741919577,10.35689354,-8.957579613,5.99464035,-1.906928658
4.358159000000001,-27.14073753,6.392291546,-140.7384644,-0.104090102,-0.187824935,9.091210365,-8.35482502,0.441909552,1.490453839
4.366491999999994,-27.20713425,6.42596817,-140.7618713,-1.704747915,-0.042007618,12.01591015,-9.249890327,4.944662094,-1.195954442
4.374824999999987,-27.30262947,6.475061893,-140.7770844,-0.538731635,-0.92627728,10.51838589,-12.89518261,6.069178581,0.671618164
4.38315799999998,-27.39010048,6.491803169,-140.7863464,-0.594067037,0.020468604,10.87673569,-11.96632957,2.367152214,-0.615714908
4.391490999999974,-27.47587776,6.502244949,-140.7940369,-1.250631809,-0.02395286,12.23228264,-11.83843994,1.525955439,-0.632287502
4.399824000000081,-27.58097076,6.572015285,-140.8340149,-1.742100835,-0.49649936,9.696577072,-13.66163731,9.703045845,-0.915939569
4.408157000000074,-27.67930412,6.596126556,-140.8451996,0.198348224,-0.634795308,9.505220413,-13.28915405,3.216213703,-0.318692356
4.416490000000067,-27.76916885,6.607956409,-140.8425751,-0.936605871,0.482782692,13.55900383,-12.41637516,1.186054468,0.379436553
4.42482300000006,-27.86274529,6.660337448,-140.8669891,-0.870551348,-0.594995618,11.51117611,-12.55130959,6.909914017,-0.034732908
4.433156000000054,-27.96110153,6.68269968,-140.8640594,-0.385680556,-0.199892268,7.998128891,-13.43920231,2.284649372,1.005166888
4.441489000000047,-28.06456375,6.673083305,-140.8637085,-0.281101286,0.37849021,12.43987751,-14.09029102,-1.071597219,-0.859306514
4.44982200000004,-28.15380669,6.69346571,-140.8639069,-1.298804402,-0.288712293,11.67041302,-12.3013916,2.24371767,0.574437678
4.458155000000033,-28.23070145,6.706040859,-140.8777008,-0.931938648,-0.356041402,10.2671032,-10.70111561,2.117669821,-1.168547034
4.466488000000027,-28.31630135,6.727741241,-140.8791199,-1.352051973,-0.216282338,11.05403996,-11.84755707,2.447683811,0.528562546
4.47482100000002,-28.39908218,6.741997242,-140.8927002,0.008515406,-0.69020772,10.60468102,-11.41075706,2.305831909,-1.085326314
4.483154000000013,-28.46676636,6.738473415,-140.8798218,-0.872907102,0.398804784,9.68362999,-9.899107933,-1.02659297,0.590139151
4.4914870000000064,-28.54634857,6.742567539,-140.8944855,-1.008839726,-0.57750392,10.12462711,-11.01581192,1.288562536,-1.756803632
4.49982,-28.63031578,6.744059086,-140.8882751,-0.466240287,0.077478267,9.914159775,-11.76134109,-0.120233223,0.175034896
4.508152999999993,-28.68789482,6.709409714,-140.8781281,-0.317630172,-0.057461679,13.05875969,-8.733071327,-4.216871738,-1.37130928
4.516485999999986,-28.73487854,6.734969616,-140.8860321,-3.12118268,-0.39903605,14.7419405,-7.124984264,3.218646526,0.088945441
4.5248189999999795,-28.78643799,6.768420696,-140.9192505,-0.484414011,-0.266705275,7.082038879,-7.409226418,5.414094448,-1.93764019
4.533151999999973,-28.83229828,6.747894287,-140.904007,-0.107359603,0.168952465,9.883584976,-7.315222263,-2.959136248,-0.152251035
4.54148500000008,-28.87085915,6.757674694,-140.9194336,-1.060445786,-0.764798284,13.01109314,-6.112452984,1.876690984,-1.388009667
4.549818000000073,-28.90542221,6.78164196,-140.9240417,-0.92078799,-0.255133122,9.699267387,-5.676652431,2.859099388,0.350671679
4.558151000000066,-28.94728088,6.772467613,-140.9225769,-0.522259712,-0.88054347,10.92464256,-6.747787952,-1.047007442,-0.795962334
4.5664840000000595,-28.98663712,6.791721344,-140.9214935,-1.562206149,-0.244459689,12.12411213,-6.333414078,2.033975363,0.673782408
4.574817000000053,-29.00406075,6.822778702,-140.943222,-1.135794163,0.031540312,11.11235046,-3.49449873,4.490751743,-0.826904356
4.583150000000046,-29.02060318,6.861317158,-140.9560394,-1.781046867,-0.237603053,10.00189114,-3.396780729,4.860134602,0.349519074
4.591483000000039,-29.04623413,6.910908222,-140.9861908,0.384703964,-0.704854488,7.698890209,-4.362872601,6.906532288,-0.595607758
4.5998160000000325,-29.05382156,6.914975643,-140.9708099,-0.590140879,-0.387366593,10.94982147,-2.727711201,-0.387645811,1.278649807
4.608149000000026,-29.07048798,6.981059551,-141.0108185,-2.143089056,-0.749062419,13.50359154,-3.142841101,9.221240044,-0.680928826
4.616482000000019,-29.09681129,7.035089016,-141.0306396,-0.371248096,-0.594331801,8.627446175,-4.46310091,6.889037609,0.531687438
4.624815000000012,-29.12099075,7.030856133,-141.0341644,-0.831158936,-0.287543476,11.71248341,-4.569656372,-0.230451286,-1.045752406
4.633148000000006,-29.13799286,7.112401485,-141.0741272,-1.726010442,-0.36330834,12.75618458,-3.046096325,10.94151878,0.046938095
4.641480999999999,-29.15400696,7.159704685,-141.1019592,-0.676923633,-0.502973914,7.886737347,-3.231645823,6.581923962,-0.562027574
4.649813999999992,-29.18198395,7.221047878,-141.131897,-1.025694847,-0.826209426,11.85437202,-4.502855301,8.240317345,-0.083937861
4.658146999999985,-29.1977005,7.272224426,-141.15625,0.162991554,-0.762701869,10.09161377,-3.239970207,6.800003529,0.006826194
4.666479999999979,-29.20669937,7.303977489,-141.1728821,-1.007183671,-0.10121043,9.719051361,-2.421902895,4.367188931,-0.427450389
4.674812999999972,-29.24944115,7.386482716,-141.2207947,-1.665872693,-1.037487626,9.462058067,-6.138990879,11.38081646,-0.47570768
4.683146000000079,-29.27298927,7.431361198,-141.2473145,-0.063275918,0.234298185,10.84819126,-4.009959698,6.316380024,-0.678751588
4.691479000000072,-29.29014397,7.463133335,-141.2603607,-0.959389985,-1.172499061,12.67355919,-3.597467899,4.065478325,0.133514196
4.699812000000065,-29.31839943,7.553575516,-141.3139648,-1.395829678,-0.360053003,8.942194939,-4.144947529,12.66207886,-0.809281886
4.708145000000059,-29.34025192,7.579375744,-141.3244934,-0.42302385,-0.307684898,9.629772186,-4.208341599,3.264086008,0.099114276
4.716478000000052,-29.36758041,7.638679504,-141.3655243,-1.532009363,-0.81892252,13.27265549,-4.223710537,8.669610977,-1.322334766
4.724811000000045,-29.38225746,7.6876297,-141.3849792,-0.037015621,-0.421867102,8.416169167,-3.199448109,6.222709179,0.509018838
4.733144000000038,-29.39666939,7.713405132,-141.3935852,-0.612767339,-0.753379703,11.38290501,-3.186590433,3.272692442,0.066430524
4.741477000000032,-29.41645432,7.796255589,-141.4315186,-1.843586802,-0.940159917,14.54400444,-3.524646997,10.80901623,0.659272075
4.749810000000025,-29.43210602,7.812117577,-141.4362335,0.973627865,-0.877276957,8.236862183,-3.397266865,2.009192944,-0.110755935
4.758143000000018,-29.46805573,7.804187775,-141.4321899,-1.449378729,-0.548111618,9.572421074,-6.119600296,-1.033841848,-0.517996728
4.7664760000000115,-29.50737,7.845011234,-141.4540863,-0.576420367,-0.924425483,9.745267868,-5.956948757,5.621492386,-0.411108464
4.774809000000005,-29.52076721,7.846096039,-141.4619751,-0.932086527,-0.006963546,13.29058838,-3.259514332,0.454767972,-0.953003407
4.783141999999998,-29.52874947,7.888785839,-141.4858246,-1.542355895,-0.703698993,12.41971397,-2.16150856,5.929631233,-0.500399709
4.791474999999991,-29.5420742,7.905091763,-141.5065613,0.222244799,-1.062480927,5.321874142,-3.020763636,2.880359411,-1.523765326
4.7998079999999845,-29.55366516,7.875741005,-141.4860229,-0.798229873,-0.5863446,10.30495071,-3.324548483,-4.194254398,-0.169976056
4.808140999999978,-29.56117821,7.92205286,-141.5250244,-1.258554339,-0.505054116,12.79209709,-2.011613846,7.122434616,-1.702987909
4.816473999999971,-29.5585556,7.949045181,-141.5276337,-0.639926076,-0.581101954,8.985137939,-1.23636055,3.045686245,0.771782398
4.824807000000078,-29.57655334,7.966341019,-141.5451965,-0.829532325,-1.041401148,12.64896202,-3.63457036,2.792463779,-1.125835299
4.833140000000071,-29.58398819,7.987313747,-141.544281,-0.226722598,-0.451826423,11.44464302,-2.503791571,2.21049571,0.780606627
4.8414730000000645,-29.58052254,7.956559181,-141.530899,-0.708085775,-0.751676857,8.896389961,-1.570972323,-4.017310619,-0.808359683
4.849806000000058,-29.59408379,8.005906105,-141.5469666,-1.80646348,-1.294943213,10.86689949,-2.953987122,6.168483734,0.704532325
4.858139000000051,-29.60490227,8.037410736,-141.5697632,-1.185737967,-0.209099516,9.471863747,-2.687650442,4.570642948,-0.803364933
4.866472000000044,-29.61178398,8.033770561,-141.5519104,0.087542199,-2.153621674,13.34574127,-2.721512556,-1.351637602,1.069740176
4.874805000000038,-29.63228416,8.049843788,-141.5702667,-0.947911322,-0.868168831,9.082080841,-3.914213657,2.741555691,-1.32622838
4.883138000000031,-29.64616013,8.026270866,-141.5439453,-0.041972358,-0.314281613,8.698768616,-3.702512026,-3.929838657,0.762062013
4.891471000000024,-29.66516495,8.037341118,-141.570343,-2.162672281,-1.090535402,14.01185417,-3.615334034,2.636934042,-2.352680206
4.899804000000017,-29.67300987,8.049775124,-141.5613251,1.024841189,-1.026828408,8.396840096,-2.688598633,0.84174788,1.111312032
4.908137000000011,-29.70571899,7.983593941,-141.5385895,-0.900945604,-1.172845125,9.845463753,-6.05844593,-8.213295937,-2.035294533
4.916470000000004,-29.74279594,7.986207485,-141.5316772,-0.218433708,-1.426219344,10.59320831,-6.162298679,-0.059271343,0.309688926
4.924802999999997,-29.74557686,7.933777809,-141.5166779,-1.388721228,0.886877537,11.02956486,-2.33232975,-6.319082737,-2.028186321
4.93313599999999,-29.76599503,7.933626652,-141.5146027,-0.564144731,-1.427981377,9.263710022,-4.080423832,-0.061704684,-0.352938503
4.941468999999984,-29.79595947,7.901505947,-141.5003662,-0.785811961,-1.332212448,7.0704422,-5.59737587,-4.206395626,-0.816248834
4.949801999999977,-29.82618713,7.818439007,-141.4537201,0.06304992,-1.643243432,12.96926689,-5.989403725,-11.33158588,-0.703828096
4.95813499999997,-29.83993149,7.824692249,-141.4611359,-1.885002136,-0.406827778,11.8911314,-3.285640478,1.091256142,-0.796577096
4.966468000000077,-29.84125328,7.757119179,-141.4275665,0.59018749,-0.377779812,8.489226341,-2.301593065,-8.946105957,-1.13004899
4.97480100000007,-29.88107109,7.728495121,-141.4154816,-1.789792061,-1.872514248,8.497649193,-6.721560478,-3.650848866,-0.942629635
4.983134000000064,-29.92902565,7.671676159,-141.3900452,-0.305753618,-1.109704852,10.7833519,-7.759781361,-7.343909264,-1.335756898
4.991467000000057,-29.95682144,7.597680569,-141.3477173,-0.917880237,-0.941289604,13.68008614,-5.767442226,-10.2059536,-0.475899726
4.99980000000005,-29.97736931,7.60938406,-141.3563995,-1.810458779,-0.352588117,9.016183853,-3.923511744,1.807827353,-0.750573933
5.0081330000000435,-29.98467064,7.526000977,-141.3240204,-0.407981992,-0.01244376,9.572930336,-3.164446831,-10.65602112,-1.961192369
5.016466000000037,-30.01989365,7.516052723,-141.3191986,-1.729919314,-2.308273792,10.59849739,-5.899074078,-1.244839072,-0.657683969
5.02479900000003,-30.0445652,7.464577198,-141.3015137,-0.424067467,-0.611044884,8.12260437,-4.98331356,-6.358618259,-1.749157548
5.033132000000023,-30.05486488,7.431250095,-141.2846985,-1.242673397,-1.187426448,15.68266296,-3.092816114,-4.390279293,-0.82757026
5.0414650000000165,-30.04238892,7.454807281,-141.3079071,-0.892733872,-0.49710238,9.684159279,0.090072446,3.795479059,-1.317442536
5.04979800000001,-30.04904175,7.383962154,-141.2710266,-0.300492883,-1.223958731,7.230861664,-2.966666222,-9.482902527,-1.015655637
5.058131000000003,-30.09370804,7.397406578,-141.283371,-1.629975796,-1.757636428,10.57175064,-6.947093487,2.060319662,-0.741890788
5.066463999999996,-30.11664009,7.333488941,-141.2523041,0.361486942,-1.105517149,11.46000862,-4.826131344,-8.415531158,-1.207582951
5.07479699999999,-30.13420486,7.329341412,-141.2407837,-2.333212376,-0.766476929,12.11715317,-4.053734779,-1.153050542,0.593033612
5.083129999999983,-30.15476608,7.335098267,-141.2486267,0.227993891,-1.369864106,7.000613213,-3.941031933,1.140025616,-1.016244888
5.091462999999976,-30.17630577,7.265022278,-141.2076874,-1.461194754,-0.380887508,11.16637421,-4.962016106,-9.704517365,-0.444176525
5.099796000000083,-30.21799278,7.295387268,-141.23703,-1.664613724,-1.47013092,10.40253639,-6.151899815,4.982290268,-1.74391973
5.108129000000076,-30.24752808,7.233095169,-141.1927948,0.324735999,-1.621065617,8.703080177,-5.983332157,-9.143615723,0.435864657
5.11646200000007,-30.2631073,7.246674538,-141.209137,-2.097668409,-0.058218651,15.64398575,-3.218633652,2.463026524,-1.416467309
5.124795000000063,-30.26425743,7.241020679,-141.2012482,0.86152339,-1.486123562,7.117017269,-2.025970697,-1.088976383,0.114470012
5.133128000000056,-30.29672241,7.188180923,-141.1946411,-1.797418952,-1.748693824,8.602793694,-5.590664864,-5.798447609,-3.075987577
5.141461000000049,-30.33921242,7.216034412,-141.213623,-1.249871731,-0.832826138,8.980611801,-6.599713802,3.906799078,-0.465846181
5.149794000000043,-30.35960007,7.144291401,-141.1930695,0.56210947,-1.489031792,12.86920738,-4.35234499,-8.592012405,-2.795102119
5.158127000000036,-30.36996269,7.180491924,-141.2209778,-2.118160963,-0.48306191,11.47078514,-2.604032993,5.345153809,-0.937596321
5.166460000000029,-30.39477921,7.137315273,-141.2167053,0.682654679,-1.568566442,5.625524521,-4.637059689,-4.652966499,-2.737252235
5.174793000000022,-30.43182564,7.119514465,-141.2263641,-3.150227547,-1.052841902,14.41725063,-6.066218853,-1.292443037,-2.422389507
5.183126000000016,-30.45529556,7.139569283,-141.2585144,-0.313964695,-0.804070711,8.126263618,-3.931938887,4.089709759,-2.640264511
5.191459000000009,-30.48966789,7.096118927,-141.242157,0.503162146,-2.424561501,10.76911449,-6.126130581,-5.492126942,-1.356145501
5.199792000000002,-30.50029945,7.123301506,-141.2772369,-1.736758471,-0.087345697,13.29352474,-2.352104425,5.00716114,-2.503330708
5.2081249999999955,-30.5251503,7.065738201,-141.2546387,-0.05883503,-1.156048775,6.498474598,-5.07418108,-7.328285217,-1.58057785
5.216457999999989,-30.56293869,7.070144653,-141.2836609,-2.647280216,-1.564834595,11.91759109,-5.70195961,2.286364794,-3.265866041
5.224790999999982,-30.56364822,7.068658829,-141.2896881,0.557565689,0.191286102,7.945898533,-1.767407775,0.13702336,-0.991706312
5.233123999999975,-30.57390022,7.004636288,-141.2677765,-0.333873153,-2.465590477,13.615942,-3.147323608,-7.868667603,-2.218039036
5.241457000000082,-30.57234383,7.005399704,-141.2772064,-1.394853234,-0.655281186,9.411235809,-1.438392878,0.606685936,-1.255225539
5.2497900000000755,-30.56912422,6.922821999,-141.2458344,-0.948594093,-0.757027209,10.34035397,-1.667589545,-10.35842419,-2.377590656
5.258123000000069,-30.55673599,6.954057217,-141.2750854,-2.205256701,-0.637272,13.92358971,0.122359209,4.846520424,-1.247451663
5.266456000000062,-30.5306282,6.896257877,-141.2559052,1.405619383,-1.23053062,4.867819786,1.259259701,-7.059743881,-2.114531517
5.274789000000055,-30.52463531,6.825467587,-141.2210541,-1.532125115,-2.481684923,14.64773369,-1.515773892,-9.360134125,-1.260399938
5.2831220000000485,-30.50267982,6.813200951,-141.2336273,-0.79289943,-0.602963865,10.00305271,1.216996431,-0.431727976,-2.59713006
5.291455000000042,-30.46509933,6.74740839,-141.2070465,-1.754617929,0.115110405,8.511211395,2.377679825,-8.430028915,-1.652194977
5.299788000000035,-30.41927147,6.747276306,-141.2197113,-0.503420889,-1.26991713,10.29023457,4.079400063,0.827058017,-1.868314981
5.308121000000028,-30.32980347,6.647626877,-141.166153,0.527328074,-0.148491502,9.767029762,8.233377457,-13.55777073,-0.92603159
5.3164540000000216,-30.22018623,6.575872898,-141.1407471,-2.244393349,-1.185838819,15.75930691,11.2073679,-8.887550354,-2.285225391
5.324787000000015,-30.07398987,6.57992363,-141.1584167,-1.481464863,0.383766413,8.223461151,16.04021263,1.508051157,-2.034974575
5.333120000000008,-29.89136696,6.478181362,-141.1233521,0.044757172,0.413147956,8.201026917,19.84114075,-12.5902977,-3.037670374
5.341453000000001,-29.64851189,6.43572998,-141.1115875,-1.617900252,0.08747106,15.07240009,27.21246529,-5.215778351,-1.549534202
5.349785999999995,-29.32872391,6.377852917,-141.0814514,0.466090024,0.356182754,9.175435066,36.37398529,-7.739606857,-0.849112988
5.358118999999988,-28.97191048,6.287447453,-141.0391083,-1.355621696,0.12294732,9.198324203,40.51268005,-11.90548897,-1.329995632
5.366451999999981,-28.56319237,6.227522373,-141.0080719,-0.990908623,0.814477861,10.63231564,47.04320526,-8.011021614,-0.773192823
5.374784999999974,-28.06347656,6.163149834,-140.9884033,-1.604173422,0.512115359,12.37889385,57.96056366,-7.897250175,-2.024965048
5.383118000000081,-27.48799706,6.120301247,-140.9703064,-1.039200068,1.325043201,9.714064598,67.23031616,-5.480956078,-1.043835521
5.391451000000075,-26.85647202,6.025409698,-140.9375458,0.546903968,-0.038467534,8.729046822,73.6129303,-11.91831207,-2.110444307
5.399784000000068,-26.14854622,5.948800564,-140.8979645,-1.083712578,0.572097898,12.81934547,82.86032104,-10.25964069,-0.432294071
5.408117000000061,-25.3746109,5.834600449,-140.8634796,-0.822764218,-0.409729689,11.95225906,90.70340729,-14.08703804,-2.724375963
5.416450000000054,-24.55020905,5.736889362,-140.8225708,-1.010185599,0.490552872,11.65026855,96.83789063,-12.61688328,-1.078701258
5.424783000000048,-23.67876053,5.644985199,-140.8018799,-0.840786994,-0.266532838,10.75035858,102.609581,-10.9020853,-3.001811743
5.433116000000041,-22.75561523,5.498943806,-140.7456818,0.078471377,-0.295735478,11.28137875,108.5270996,-18.67925453,-1.296299219
5.441449000000034,-21.77720833,5.364253998,-140.6973114,-1.634042859,-0.411568105,11.81815529,115.1385498,-16.99263573,-1.500909448
5.449782000000027,-20.75037003,5.27570343,-140.6544037,-0.894471884,-0.287120044,8.545955658,121.1472473,-11.6878767,0.366173059
5.458115000000021,-19.68898773,5.103885651,-140.5784607,-0.315414906,-0.144994736,10.35237694,124.8397293,-22.27368546,0.492376655
5.466448000000014,-18.58824348,4.94308424,-140.5101013,-0.688768148,-0.532818794,14.27424622,129.7739716,-20.83593559,0.836740196
5.474781000000007,-17.40748024,4.800895214,-140.4542694,-1.407777786,0.318751514,12.44054222,139.4172363,-18.09542656,0.183657259
5.4831140000000005,-16.19434357,4.607409,-140.3736267,0.442520261,-0.901596725,8.809812546,143.1850739,-24.94253159,1.964840531
5.491446999999994,-14.94248867,4.402624607,-140.2947388,-0.913193464,-0.54171443,9.758541107,147.7872009,-25.97373772,1.415073872
5.499779999999987,-13.64794254,4.188351154,-140.2217102,-0.876833081,-0.54540956,12.55544949,153.0927582,-27.00243568,1.56105423
5.50811299999998,-12.32652187,4.001518726,-140.1569672,-1.121453285,-1.02327013,9.019304276,156.3269501,-23.36144066,1.354036689
5.5164459999999735,-10.98010731,3.725231647,-140.0932465,-0.136213243,-1.051608801,12.8854351,159.4571381,-33.94114304,0.218148753
5.5247790000000805,-9.555152893,3.578655958,-140.0464783,-3.416008711,-0.353579104,16.23948097,168.9467163,-18.10688019,1.19384563
5.533112000000074,-8.117956161,3.33765626,-139.9942932,1.235610366,-1.883622885,5.929393768,170.489563,-29.46467781,1.177325249
5.541445000000067,-6.67090559,3.117287636,-139.9394836,-2.248449326,-0.303908259,8.920478821,171.5925293,-26.88344193,1.781504631
5.54977800000006,-5.178782463,2.979092598,-139.9217377,-0.818620324,-1.420615911,14.5779705,177.3450317,-16.64077759,-0.153433546
5.5581110000000535,-3.682995558,2.688598156,-139.8705139,-0.355995625,-2.175087214,10.11241341,177.5060577,-35.08600998,2.087709904
5.566444000000047,-2.183114767,2.62537694,-139.8589325,-3.562829733,-2.010448456,13.78436661,178.3242188,-7.573254108,0.439834356
5.57477700000004,-0.734402537,2.318335772,-139.8366241,2.721955061,-2.907684088,3.598608732,172.0453644,-36.79957581,0.37692371
5.583110000000033,0.748933613,2.206791639,-139.8286133,-4.071732044,-1.135511398,17.3615036,176.3662415,-13.31188107,0.405779094
5.591443000000027,2.193359137,1.978532553,-139.8029785,1.829305053,-3.336460114,5.2047019,171.53862,-27.2416153,2.424362183
5.59977600000002,3.647638559,1.784671307,-139.7931671,-3.106627226,-1.540884733,17.71024513,172.8780212,-23.10141563,1.80170238
5.608109000000013,5.058356762,1.572219253,-139.7813873,2.218577385,-2.912707329,4.346377373,167.5626526,-25.29056168,1.998934269
5.616442000000006,6.417386055,1.344955325,-139.7706146,-2.779449463,-2.411561251,14.13431644,161.4539185,-26.93370819,3.457029343
5.624775,7.755239487,1.070295691,-139.7855682,2.295256376,-2.947334528,8.71508503,158.8987732,-32.94364166,0.956906021
5.633107999999993,9.106115341,0.769268334,-139.8081055,-0.869536638,-2.337028503,12.8439579,160.5519409,-36.05871201,2.063673258
5.641440999999986,10.39400482,0.495356649,-139.8426208,0.159953803,-2.56478858,10.08735752,152.9126282,-33.14062119,0.194890141
5.649773999999979,11.61354065,0.125732362,-139.9310608,-0.320291847,-2.124762774,4.08849144,144.8046265,-45.49451447,-2.510438442
5.658106999999973,12.7889576,-0.091860965,-139.977951,-2.283443928,-2.189173222,16.80377388,139.372467,-26.77732658,-1.227135658
5.66644000000008,13.96575069,-0.462842584,-140.0966492,-0.167301893,-3.523383856,11.28694057,139.5496979,-46.53542328,-4.115466595
5.674773000000073,15.10522175,-0.694330096,-140.1404724,-2.657372952,-4.145254612,13.69096279,135.0039978,-28.296278,0.680146217
5.683106000000066,16.16217613,-0.993583262,-140.2827606,0.311988831,-1.618763924,5.321833134,124.98629,-39.11112213,-7.321582317
5.691439000000059,17.11766052,-1.269091845,-140.3585815,-2.308069706,-4.707214355,12.01236343,112.7998886,-34.40169907,-0.472204268
5.699772000000053,18.04162216,-1.4327811,-140.4716034,-0.386626899,-0.418396443,8.770065308,108.9595184,-22.74810982,-7.55188942
5.708105000000046,18.85203743,-1.702271104,-140.5529633,-2.551133633,-5.797940254,10.92318726,95.30786133,-33.91041183,-0.24378565
5.716438000000039,19.58461189,-1.78465879,-140.636322,-1.277417183,-3.56504178,9.329235077,86.00832367,-12.55401707,-6.747051716
5.7247710000000325,20.2546978,-2.015465975,-140.7095337,-0.981129706,-2.730786324,10.05028248,78.45075226,-29.20024109,-0.047809262
5.733104000000026,20.84664345,-2.03440547,-140.7549286,-2.221330404,-1.591421604,8.658326149,69.24424744,-3.964907885,-4.85769558
5.741437000000019,21.34371567,-2.234619856,-140.8249512,1.889938712,-4.742417812,3.575705051,57.66759491,-25.63548279,-0.446406454
5.749770000000012,21.75677299,-2.171001911,-140.8215027,-5.37174654,-1.512964249,17.8144207,47.98736572,7.326557159,-2.979159355
5.7581030000000055,22.12367439,-2.305097818,-140.8875427,1.389942884,-2.847411156,4.830483437,42.05958557,-18.09387589,-2.583815098
5.766435999999999,22.39962578,-2.205655098,-140.8417816,-4.747929096,-3.108537912,12.10548496,31.73554802,13.19807053,-0.000794042
5.774768999999992,22.65270805,-2.195270061,-140.8336182,1.947074056,-2.462755442,7.394394875,28.75646973,1.313025117,-0.81122905
5.783101999999985,22.80721474,-2.052644253,-140.7435455,-5.728661537,-1.5482198,16.07666016,17.34545898,20.03669739,2.792235136
5.791434999999979,22.94464684,-2.072111607,-140.7596741,4.243192673,-2.649083853,-1.386037588,14.78320694,-3.102947474,-2.060627222
5.799767999999972,23.0234642,-1.852641225,-140.6161957,-5.048443317,-0.188922241,11.61559391,8.451463699,31.0414753,4.999250412
5.808101000000079,23.10525322,-1.823889136,-140.6238098,1.624291658,-2.611161232,14.18378735,8.153153419,2.623422861,-3.357155561
5.816434000000072,23.135355,-1.667385936,-140.4886322,-2.568588495,-0.754514217,7.067593098,2.509607553,23.71710396,6.980574131
5.824767000000065,23.14289856,-1.548730016,-140.4823456,-0.250306666,-2.343469143,8.999527931,-0.694952726,13.20467663,-6.046355724
5.833100000000059,23.11403656,-1.32318759,-140.3254395,-1.567138076,-0.791134298,15.08857918,-4.587141991,32.36026001,6.119476318
5.841433000000052,23.08296585,-1.254286408,-140.3423157,-1.519862533,-2.678547621,8.922468185,-5.383831501,6.628286362,-6.24252367
5.849766000000045,23.04035187,-0.976569593,-140.1911621,2.050404549,0.233969852,6.572445869,-6.356154442,37.84442902,3.073110342
5.858099000000038,22.9786644,-0.870219231,-140.2016907,-4.657619953,-1.339908123,11.91258144,-9.02443409,11.08055305,-7.267630577
5.866432000000032,22.91306114,-0.665545702,-140.0657349,4.03776741,-0.320261061,7.171494484,-9.248860359,29.05502129,4.890427589
5.874765000000025,22.88457298,-0.565449476,-140.054657,-3.495514631,-0.706556141,9.648336411,-4.998657227,11.39641571,-4.603403568
5.883098000000018,22.81297493,-0.345758677,-139.9004059,2.402541876,-1.179468274,12.46164131,-10.04044437,31.55809784,6.261354446
5.891431000000011,22.74123383,-0.38448748,-139.9435425,-1.775834322,-0.739714563,5.810470104,-10.22608757,-6.45172739,-4.068603992
5.899764000000005,22.69371796,-0.103424489,-139.7939911,0.908979714,-0.259116262,19.04588699,-7.222250462,38.11978149,2.969782114
5.908096999999998,22.65718842,-0.190065324,-139.8884888,-1.048119068,0.093730234,4.621929169,-5.991375923,-14.14200592,-7.586117744
5.916429999999991,22.62986946,-0.005259673,-139.7790985,1.179866791,-1.237295985,15.78056335,-4.850903511,25.59779167,3.018652201
5.9247629999999845,22.66656685,-0.050485771,-139.869278,-0.576601446,0.914352655,4.822318554,2.825250149,-9.381866455,-9.10246563
5.933095999999978,22.68380547,0.007828251,-139.822113,-0.388102531,-2.000742674,13.78594017,0.474683046,8.714654922,1.966276765
5.941428999999971,22.76630402,0.017087853,-139.8720093,0.184442848,0.578040421,8.121592522,8.336345673,-1.462906003,-7.076625347
5.949762000000078,22.83992195,-0.038035192,-139.8621674,-0.63502568,-0.998152912,14.17817497,7.239134789,-5.565155029,3.094955921
5.958095000000071,22.89338684,-0.013536582,-139.8879242,1.637637019,1.062067628,-0.328048438,4.850081444,1.347257733,-5.079521179
5.9664280000000645,22.92429924,-0.143329516,-139.9281158,-0.437934875,-1.867249131,12.77085781,2.109242916,-16.15005875,1.062158465
5.974761000000058,22.92157364,-0.130332083,-139.9368439,-0.48983711,0.844185531,8.923746109,-1.891149998,0.943820536,-2.482198715
5.983094000000051,22.97519875,-0.290658653,-140.0342712,2.236403942,-3.615842581,11.75610924,4.796422005,-22.20211029,-3.823989391
5.991427000000044,23.01515579,-0.294128448,-140.0190735,-6.542058945,-0.306119263,15.34454918,3.249114752,0.24656263,0.935201347
5.9997600000000375,23.06172371,-0.473286271,-140.155838,7.25962019,-2.378498316,1.083165765,3.884157419,-26.13544846,-7.248653412
6.008093000000031,23.16420555,-0.490468681,-140.1312866,-10.07683754,0.856743813,24.02544594,10.76731586,-0.847165406,2.553291321
6.016426000000024,23.20229912,-0.546512663,-140.2282562,6.152824879,-0.126201451,-4.783761024,2.870344877,-10.68856621,-8.606719017
6.024759000000017,23.24880028,-0.627639115,-140.2232361,-6.076458931,0.429702401,15.66695213,4.034370899,-8.828344345,3.408281565
6.033092000000011,23.22231293,-0.538144827,-140.2319794,1.964167595,-3.073659897,7.056772709,-4.785212994,9.528726578,-5.760551929
6.041425000000004,23.23973083,-0.670914471,-140.2490082,-1.5155617,-1.309028268,14.4224205,0.522069395,-15.55497742,3.456155062
6.049757999999997,23.22711182,-0.622382879,-140.25914,-3.738170147,-2.814316273,14.78765965,-3.122259855,4.946185589,-3.974266052
6.05809099999999,23.27050591,-0.639431298,-140.2353973,3.194017649,-0.718045652,10.07010269,3.698836565,-0.852288127,2.506058216
6.066423999999984,23.28510475,-0.712832689,-140.2863922,-4.590164661,0.417928964,10.11619759,0.084731899,-10.43520355,-2.699728012
6.074756999999977,23.26133728,-0.535101891,-140.1784821,-0.372292966,-0.63787514,4.45851469,-4.244882584,24.62597275,2.579252243
6.08308999999997,23.18148232,-0.699286163,-140.2700806,-0.22920987,-0.497276634,6.181492805,-11.29738235,-22.36711693,-2.89163065
6.091423000000077,23.15528488,-0.481971562,-140.1315155,-2.386315584,-3.038441896,25.23305893,-4.501628399,30.4226265,4.11122942
6.09975600000007,23.15247345,-0.517603934,-140.1683807,0.662871361,-1.496747136,5.89205122,-1.972219229,-5.597248077,-2.945790529
6.108089000000064,23.15693283,-0.45571503,-140.0925598,-0.442239732,0.278816432,5.462765694,-0.907115281,10.37914467,4.690965652
6.116422000000057,23.06655693,-0.340635478,-140.0547333,-3.222559929,-0.725794733,10.16989899,-12.41014957,14.55873585,-1.805496454
6.12475500000005,22.98629951,-0.318564236,-140.0239105,4.85983181,-4.08235836,7.667515278,-11.1275425,3.824346781,1.545422196
6.133088000000043,22.90727043,-0.292610824,-140.0197754,-4.475953102,1.008814335,14.25909901,-11.07590294,3.135221004,-1.318339109
6.141421000000037,22.76738739,-0.174972236,-139.9676819,0.876871288,-2.358540058,7.507782936,-18.273386,15.39737892,-0.49873504
6.14975400000003,22.63920212,-0.182570428,-139.9931946,-1.559148431,-0.984284341,14.44023323,-16.98698235,-1.948296309,-3.033008337
6.158087000000023,22.50564003,-0.170421571,-139.994339,3.370150328,-2.2994349,5.636398792,-17.53317642,1.247400522,-1.485343933
6.166420000000016,22.34597588,-0.116287895,-139.9849701,-5.422451973,0.152982712,12.60949802,-20.75327492,6.509488583,-1.998269677
6.17475300000001,22.13681793,-0.107474804,-140.0067291,3.311744928,-2.734798908,7.648433208,-26.60676575,-0.037204701,-3.574430466
6.183086000000003,21.96705246,-0.215525851,-140.0433807,-1.198990583,-0.784238219,16.75937462,-21.98029137,-13.59457016,0.233473912
6.191418999999996,21.77748489,-0.165324971,-140.0245514,-0.256252557,-0.28085053,4.962861061,-24.23775291,6.398746967,-0.926480293
6.1997519999999895,21.52711487,-0.280329227,-140.0685425,-2.054981947,-0.152605698,9.322904587,-31.66027641,-14.70089436,-0.372149557
6.208084999999983,21.35916901,-0.236815274,-140.0467987,1.471195817,-1.351017118,9.629865646,-21.63827133,5.746465683,-0.349660039
6.216417999999976,21.12077141,-0.377775818,-140.0901031,-1.717671394,-1.096551538,9.475946426,-30.22987556,-17.57445717,0.725946665
6.224751000000083,20.93813515,-0.289158583,-140.0584412,-2.594288826,0.037081107,16.86842537,-23.39028168,11.21827412,-1.151399016
6.233084000000076,20.71267319,-0.471692711,-140.1011505,3.976381302,-2.367059469,-0.127190635,-28.68452644,-22.22315025,2.437504053
6.2414170000000695,20.51691437,-0.47523421,-140.0789642,-7.440304756,0.978444278,23.45163727,-24.96361923,0.466819704,1.739412427
6.249750000000063,20.30223274,-0.411725223,-140.038681,2.586196423,-2.004709244,1.335425138,-27.32151604,8.904500008,1.315791249
6.258083000000056,20.03241348,-0.626968443,-140.0804138,-2.229402781,-2.195974112,12.97593689,-33.91604233,-26.05112648,3.29339385
6.266416000000049,19.84635353,-0.49010241,-139.9982605,-1.275640845,-0.387293786,14.27199459,-23.82640457,18.87638474,3.10707283
6.2747490000000425,19.5681839,-0.585335195,-139.9815216,-0.217312545,-1.622826338,6.146947384,-34.8497467,-10.16471481,4.812805653
6.283082000000036,19.29071617,-0.656489909,-139.9756317,1.939120531,-1.289887428,9.31545639,-34.88586044,-7.741603851,2.948496342
6.291415000000029,19.02689743,-0.651976526,-139.9319305,-5.47088623,0.853960812,15.03903103,-33.08658218,2.154940605,3.842433453
6.299748000000022,18.78575897,-0.624918401,-139.8762665,3.495455027,-0.516621172,6.597477436,-30.45840263,5.312768459,4.708707333
6.308081000000016,18.5184536,-0.731466532,-139.8573303,-3.082747698,-1.4057163,7.76159668,-33.53617859,-11.43993282,5.379866123
6.316414000000009,18.29176331,-0.689049959,-139.8028107,0.395750493,0.674166441,12.61430836,-28.71708679,6.970650196,4.04061079
6.324747000000002,18.09015846,-0.711780429,-139.7618256,-2.659225702,0.506137431,11.62690544,-25.62039566,-1.108046889,4.653455734
6.333079999999995,17.9503727,-0.698278189,-139.7142792,1.082400322,0.117612638,11.09140587,-18.29878807,3.380247116,4.365038395
6.341412999999989,17.79105949,-0.682992816,-139.6581268,-3.562355042,-0.796263099,12.2507658,-20.52408218,3.7709167,4.99999094
6.349745999999982,17.66188049,-0.6192469,-139.6181488,2.058712482,-0.883525848,8.607025146,-17.04352379,8.822594643,1.680729747
6.358078999999975,17.53393936,-0.732440352,-139.6099548,-1.496281624,-0.12601839,7.549929619,-16.82698441,-12.71080112,4.142054081
6.366412000000082,17.41706848,-0.584958613,-139.5421448,-1.247700691,-0.210231736,12.03800011,-15.52691078,19.40130806,1.886899352
6.374745000000075,17.33794022,-0.666213334,-139.5345917,0.831055462,0.965030432,10.19082069,-10.97425365,-9.124214172,2.781706095
6.383078000000069,17.28175926,-0.64829272,-139.4954987,-2.008207321,-1.230062723,14.19066143,-8.283940315,3.523905039,3.279186487
6.391411000000062,17.26227379,-0.593946815,-139.4498596,-1.519337177,0.676063299,7.643629551,-3.766253471,7.759960651,2.279026747
6.399744000000055,17.24619865,-0.631047606,-139.4346313,0.446309239,-0.199565321,12.32086468,-3.50418067,-3.634044886,2.508081675
6.408077000000048,17.30657578,-0.554079592,-139.3758392,-3.298266649,0.500609994,12.08782959,5.827969074,10.8067112,2.933124781
6.416410000000042,17.36509895,-0.537414372,-139.342926,0.609860301,-0.324896425,8.68406868,5.465130329,3.161231995,2.617646694
6.424743000000035,17.44991684,-0.406468838,-139.2800293,-2.524244308,0.322810888,13.16342258,8.751489639,17.1396389,1.42681551
6.433076000000028,17.58027267,-0.434699595,-139.2631531,1.680703759,0.043753743,12.60262108,14.06139565,-2.547194958,2.392088175
6.4414090000000215,17.70611191,-0.263736725,-139.192276,-4.414435863,-0.370768756,13.31319237,13.66773796,22.07159424,0.996471167
6.449742000000015,17.82398415,-0.204571858,-139.1440887,3.295900583,-1.45803535,2.915448666,12.57198143,8.60051918,2.782372236
6.458075000000008,17.92578316,-0.157004073,-139.1071625,-2.861710548,-0.835018992,14.29342365,10.74284267,6.699557781,1.466978788
6.466408000000001,18.05880928,-0.052455436,-139.0428619,1.30763483,-0.487515122,11.83291435,14.38357735,14.39167118,2.906243563
6.4747409999999945,18.18807602,-0.003312642,-139.0139313,-1.950459242,-0.869963288,11.29428577,14.02913666,6.560357094,0.382766366
6.483073999999988,18.29479599,0.124039747,-138.9552155,0.43515569,-1.157393098,7.369836807,11.20404148,16.79701424,1.35067749
6.491406999999981,18.38617134,0.088880442,-138.961731,0.545268059,-1.102322936,8.871355057,9.484210014,-4.376769066,-0.49188301
6.499739999999974,18.46752739,0.191317379,-138.914917,-2.141291618,-1.280999184,15.94296932,8.153012276,13.51376629,0.884408414
6.508073000000081,18.54834557,0.259525061,-138.8946838,-1.013741016,0.201886073,10.35948753,8.210554123,8.395796776,-1.402354002
6.5164060000000745,18.59995651,0.296950668,-138.8771515,0.172251508,-1.904091358,10.89909363,4.588277817,5.003023624,0.00586566
6.524739000000068,18.64915466,0.330752939,-138.8629913,0.501264036,-1.003298998,7.114110947,4.417405605,4.247967243,-0.793465078
6.533072000000061,18.65911484,0.291292608,-138.863678,-0.865643978,-1.854717255,11.37793159,-0.398429453,-4.438383579,0.876634479
6.541405000000054,18.65706825,0.399992347,-138.828125,-1.863217115,-0.409753978,12.15181541,-1.74666059,13.58362865,-1.246568203
6.549738000000048,18.64617729,0.32699877,-138.8468781,1.925061584,-0.823196709,9.915030479,-2.889670134,-8.942442894,0.112817921
6.558071000000041,18.61615562,0.324007571,-138.8465576,-1.17696023,-0.969181478,7.902274132,-5.075127125,-0.52066052,-1.119931221
6.566404000000034,18.58078575,0.291541904,-138.8483734,-0.508825421,-0.347961515,9.567345619,-5.838765621,-3.687194824,0.475669146
6.574737000000027,18.53789139,0.283117175,-138.8471832,-1.639704347,-0.122838199,14.38292313,-6.624314785,-1.144354343,-0.933293045
6.583070000000021,18.53306198,0.249421805,-138.8526917,1.351108074,-0.578742862,9.518768311,-2.172983646,-3.969438314,0.099088669
6.591403000000014,18.50811195,0.165670753,-138.8755798,-1.618344665,-0.802710712,10.32028675,-4.459233761,-10.64402103,-0.836791456
6.599736000000007,18.46936226,0.18508181,-138.8703308,-0.604823411,-0.381798655,9.461088181,-6.247759819,2.483940363,-0.700331569
6.608069,18.44232559,0.053704508,-138.9081573,0.757101953,-0.399784476,8.631157875,-4.710907459,-16.60787773,-0.662576437
6.616401999999994,18.426651,0.087477252,-138.901062,-3.245998383,-0.22936295,13.67816448,-3.477017403,4.189285278,-1.033291101
6.624734999999987,18.4160881,0.044048753,-138.9128876,1.433662057,-0.129168287,6.400781155,-2.743399858,-5.621646404,-1.083187699
6.63306799999998,18.41186523,-0.044229325,-138.9529114,-1.157630086,-0.655377686,11.99862576,-2.102250099,-11.49522114,-1.77026391
6.6414009999999735,18.42409134,0.000383771,-138.9367371,-1.975814342,0.113945305,9.30880928,-0.010719557,5.479781628,-1.198656559
6.64973400000008,18.42552567,-0.060643122,-138.9667511,0.405511677,-0.405035645,9.890733719,-1.425252795,-8.013053894,-1.663362741
6.658067000000074,18.45768166,-0.049018141,-138.9584808,-2.542616606,0.454699457,15.00936222,2.380548477,1.417273879,-0.865171969
6.666400000000067,18.51470757,-0.028295767,-138.9608459,-0.100538507,0.187108502,10.07888126,5.24696064,2.343356848,-1.616565704
6.67473300000006,18.5705471,-0.025397208,-138.9576569,-1.116890311,-0.551440001,7.560091972,5.220219612,0.262200147,-1.01908803
6.6830660000000535,18.64143372,0.015816582,-138.9452057,-0.524215698,0.322003424,7.403681278,6.911911964,5.239559174,-0.718684256
6.691399000000047,18.71930313,0.069428049,-138.927063,-1.620340466,-0.14562729,13.24153614,7.8658638,6.589070797,-1.298616171
6.69973200000004,18.81801796,0.149911299,-138.9061584,-0.449355125,-0.011985953,12.60186291,10.24414539,10.02652645,-1.29349339
6.708065000000033,18.94569588,0.201227188,-138.8943787,-1.139531732,0.596379101,10.4532032,13.84189701,6.1219697,-1.829573989
6.7163980000000265,19.07151985,0.318518549,-138.8685455,-1.871118903,-0.446891159,10.49774265,13.48927975,14.39238739,-2.213954449
6.72473100000002,19.19643402,0.425676674,-138.8312988,0.115590602,-0.441212296,5.057006836,13.48487282,13.41671371,-1.25457263
6.733064000000013,19.33205223,0.494852066,-138.8113861,-0.799818933,0.100480571,12.40227604,14.6591711,8.701580048,-1.039682031
6.741397000000006,19.45894814,0.680758357,-138.7520752,-1.783476114,-0.787841141,14.85169792,13.68371105,23.23572731,-1.873144865
6.74973,19.58652687,0.748039365,-138.7361603,1.645145297,-0.513850927,7.467319012,13.68922329,8.324012756,-1.457437277
6.758062999999993,19.68717194,0.84480381,-138.71521,-2.692714214,-0.600087821,12.62148857,10.57255936,11.60179138,-2.731592178
6.766395999999986,19.78822899,1.025694847,-138.6525879,-0.359072834,-0.815021276,8.853052139,10.40849113,23.04607391,-0.817658007
6.774728999999979,19.86555862,1.089353323,-138.6325989,0.672200441,-0.80189234,8.76591301,7.768708706,7.834152699,-1.482628942
6.783061999999973,19.90305519,1.201279163,-138.5906525,-1.066628218,-2.05069375,9.790732384,2.804131269,14.41829205,-0.393255383
6.79139500000008,19.91595459,1.281469226,-138.5624847,0.114047296,-0.779681444,11.4426918,0.012230798,10.009058,-1.314573884
6.799728000000073,19.88997841,1.373297453,-138.5368347,-1.130915642,-1.778921843,12.11638737,-4.783958435,11.4852972,-1.417325377
6.808061000000066,19.8061161,1.46238625,-138.5116577,0.829333246,-1.684878111,5.231020927,-11.6003418,10.93261909,-1.892623186
6.816394000000059,19.65346336,1.457095623,-138.5191956,-0.076967172,-2.445167303,11.18852425,-19.8908062,-0.828505516,-1.197299361
6.824727000000053,19.46037674,1.592419028,-138.475296,-2.540563345,-1.176569939,14.61952209,-24.76932907,16.91316986,-1.604668975
6.833060000000046,19.22582436,1.656123757,-138.465332,0.146517411,-1.859218836,7.2628088,-29.77484703,7.684353828,-1.964344501
6.841393000000039,18.89018631,1.717209101,-138.4571838,-0.775746524,-3.000555277,7.200516224,-41.76064301,7.094450474,-2.61823988
6.849726000000032,18.49319649,1.796385288,-138.4479828,-0.424075276,-2.37912631,10.37492561,-49.26770401,9.429300308,-2.558816671
6.858059000000026,18.00658035,1.879448652,-138.4407959,-0.520308375,-3.082271338,8.724047661,-59.86980438,9.552001953,-3.57450366
6.866392000000019,17.42668533,1.948774219,-138.4506989,-0.516278207,-3.277569532,9.697248459,-71.14365387,7.639672756,-4.223012447
6.874725000000012,16.77014732,2.070267677,-138.4395142,-1.675370336,-1.667776227,11.28099728,-80.27420044,14.11958408,-4.408184528
6.8830580000000054,16.03438187,2.182139635,-138.4309387,-0.006207526,-3.007291317,8.152144432,-89.92391205,13.24397469,-3.362814665
6.891390999999999,15.18663597,2.264069796,-138.4320526,-0.406303555,-3.224421024,5.769503117,-103.1680832,9.292675972,-4.019129276
6.899723999999992,14.2919035,2.408593893,-138.4176025,-2.304223061,-1.075456977,16.36277199,-109.0328217,17.28974152,-3.297803879
6.908056999999985,13.34631729,2.579545498,-138.3952179,0.211917564,-2.622695208,7.891260147,-115.0261765,20.45390511,-3.505670547
6.9163899999999785,12.29304695,2.687532425,-138.3900909,-1.537174582,-3.386702538,8.769215584,-128.0153809,12.84805679,-2.837253332
6.924722999999972,11.20506859,2.901443481,-138.3795929,-0.961311758,-1.328187823,7.590497971,-132.0483551,25.27257347,-5.363936424
6.933056000000079,10.03988552,3.053873539,-138.3735352,-1.321404099,-3.140542984,11.24930477,-141.4546661,18.18971062,-3.216885567
6.941389000000072,8.813724518,3.321821451,-138.3768005,-2.87178731,-2.260472775,14.54735184,-148.5345154,31.56011963,-7.11197567
6.949722000000065,7.54570961,3.568870068,-138.379364,0.404529244,-0.228734806,5.271858692,-153.7387695,29.37974167,-5.080258369
6.9580550000000585,6.22649765,3.768402815,-138.3996582,-0.848717213,-3.025894642,9.687057495,-159.5577698,23.41528893,-6.812466621
6.966388000000052,4.873062134,4.138847351,-138.4125824,-3.293503523,-0.908021688,12.34441757,-163.8976135,44.1748848,-6.399444103
6.974721000000045,3.508719206,4.430300713,-138.4181976,1.323572159,-1.451845169,7.332981586,-165.0699463,34.81525421,-4.745834827
6.983054000000038,2.079165697,4.686742306,-138.4477234,-0.48560822,-1.889842272,7.815443039,-172.8585358,30.64262962,-5.588371277
6.9913870000000315,0.634286284,5.079479218,-138.4917755,-3.854580402,-0.029897332,18.57236481,-174.4014435,47.05046844,-6.930603504
6.999720000000025,-0.805556178,5.359438419,-138.5415497,3.818948269,-1.300831318,4.687279701,-173.8310852,33.68214798,-6.45855093
7.008053000000018,-2.283370256,5.517573357,-138.5792084,-0.699952483,-1.727515221,9.997572899,-178.302124,19.17040253,-5.444383144
7.016386000000011,-3.758036613,5.965970516,-138.6697388,-4.232595444,-0.199081451,17.10535622,-177.4675293,54.38368988,-8.519144058
7.024719000000005,-5.23434782,6.12785244,-138.7333221,3.817239523,-0.706919968,3.865136147,-177.7414703,20.08571243,-7.462264538
7.033051999999998,-6.725395203,6.304680824,-138.8184204,-1.657351494,-0.462198317,9.29139328,-179.4147491,22.23905945,-8.447766304
7.041384999999991,-8.16561985,6.606268883,-138.9124756,-0.76310724,0.676719964,14.70699501,-172.9703827,37.47987366,-7.597392082
7.049717999999984,-9.62444973,6.73539114,-139.0054932,1.357483506,0.244369894,10.10455132,-175.3581238,17.09972572,-9.116945267
7.058050999999978,-11.01784515,6.871924877,-139.09021,-1.332012296,0.449519813,12.32637405,-167.4168091,18.10778236,-8.200140953
7.066383999999971,-12.3758297,7.071361065,-139.207077,-0.951942503,0.871062517,11.6125021,-162.8493652,26.33500099,-9.339688301
7.074717000000078,-13.6940155,7.180074215,-139.2819214,1.787380934,0.240287095,7.74725914,-158.4934082,14.91387558,-6.866483688
7.083050000000071,-14.98454189,7.240115166,-139.3676453,-1.601166844,1.089668036,13.02258015,-155.1650391,9.582401276,-8.664969444
7.091383000000064,-16.23725128,7.40677166,-139.4861908,-0.425356805,0.126949534,13.28247452,-149.990036,23.17798233,-8.949718475
7.099716000000058,-17.413311,7.385455608,-139.5460968,1.998543143,2.489127636,8.484890938,-141.7963257,-0.310911119,-8.123826981
7.108049000000051,-18.55648994,7.457798481,-139.6483002,-2.967207193,0.646289945,16.24662018,-137.1002502,12.09400177,-9.490411758
7.116382000000044,-19.6485672,7.469138145,-139.7260437,2.654453039,1.140011668,5.008038998,-131.4328461,4.387900352,-8.854002953
7.124715000000037,-20.64447021,7.395580292,-139.7662506,-0.635254741,1.759431958,13.46548367,-120.4353027,-6.666139126,-7.82450676
7.133048000000031,-21.55644226,7.453968048,-139.8567505,-1.798889756,3.038492441,15.19102859,-109.6276932,10.48792362,-8.086039543
7.141381000000024,-22.40210915,7.314252377,-139.872406,3.077684402,0.94614923,6.583628654,-102.7925949,-14.86446571,-8.351550102
7.149714000000017,-23.15320015,7.234872818,-139.8994446,-2.058638573,2.625381708,15.57473469,-91.31637573,-7.461762428,-7.219553471
7.1580470000000105,-23.83050156,7.18651247,-139.9541779,-0.821333051,1.991967201,11.48083591,-82.04490662,-2.846142769,-8.399162292
7.166380000000004,-24.40933609,7.001373291,-139.9202423,1.554782152,1.950929523,8.524102211,-71.55935669,-21.85522652,-5.951625347
7.174712999999997,-24.896698,6.906105518,-139.9404602,-2.027963161,2.846094847,15.42352867,-59.78691483,-9.499581337,-7.102159023
7.18304599999999,-25.33739281,6.766075611,-139.9319,0.466661513,1.049555898,9.170810699,-54.60025024,-15.57403851,-6.769938946
7.1913789999999835,-25.70388794,6.597046852,-139.9150391,-0.855786264,1.721409202,12.79334736,-45.81067276,-19.25024033,-7.162677765
7.199711999999977,-26.00066948,6.476043224,-139.9120331,-0.787962854,1.707417607,12.95331383,-37.2492981,-13.14947033,-6.568395615
7.20804499999997,-26.23676872,6.317486763,-139.8964386,0.013061987,0.905190408,9.815678596,-30.15861893,-18.042099,-6.828173637
7.216378000000077,-26.42271423,6.150493145,-139.8623047,-1.083441854,0.825093985,9.683480263,-24.35334396,-19.69436836,-5.797812462
7.22471100000007,-26.58743286,6.05413866,-139.8752289,-1.983030677,1.290600181,13.23518372,-21.23559189,-9.859050751,-6.54118681
7.2330440000000635,-26.70473289,5.914446354,-139.8621368,0.019469453,0.447711557,11.48501396,-15.83547115,-15.60870743,-6.684730053
7.241377000000057,-26.77292633,5.785690308,-139.8554382,-1.917299986,1.172295451,11.60783672,-9.8872509,-14.28457451,-6.397054672
7.24971000000005,-26.82506371,5.695822239,-139.8606567,-0.759171605,0.843749225,9.615455627,-7.790390968,-9.269920349,-5.976211548
7.258043000000043,-26.8558445,5.593191147,-139.859787,-0.562714279,-0.368570924,10.05828571,-5.339646339,-11.19529152,-5.562234402
7.266376000000037,-26.85298729,5.493847847,-139.8401489,-0.192706227,0.379854143,10.48711586,-1.479913592,-11.62153625,-3.851330757
7.27470900000003,-26.84790039,5.418438435,-139.8441925,-2.081495285,0.278263658,11.85642433,-0.980717957,-8.007983208,-4.626186848
7.283042000000023,-26.84193802,5.357178688,-139.8377686,-0.798749328,-0.857191026,12.56411457,-0.952465296,-6.830907345,-3.194735527
7.291375000000016,-26.83032608,5.304255009,-139.8483887,-1.160498023,0.340989858,11.79815388,-0.123127632,-5.197692394,-4.203193665
7.29970800000001,-26.81336594,5.255496502,-139.8384094,-0.556622922,-0.688362837,10.83112717,0.329258174,-5.685080051,-2.135792017
7.308041000000003,-26.80551147,5.218942642,-139.8487854,-1.256506801,-0.298698783,9.716202736,-0.575590312,-3.412239075,-3.379631996
7.316373999999996,-26.81747437,5.181237221,-139.8404236,-0.029907616,-1.132107973,9.090753555,-3.120761395,-4.415612698,-1.709212184
7.324706999999989,-26.82101631,5.156356812,-139.8434753,-1.141866088,-0.120566003,10.51970863,-2.030081749,-2.579507113,-1.924013138
7.333039999999983,-26.83119011,5.143558979,-139.8500977,-0.746976972,-0.926173031,12.4383564,-2.745795012,-0.938966691,-1.956364036
7.341372999999976,-26.87148857,5.146755695,-139.8635406,-1.211128473,-0.966767669,10.59795189,-6.323795319,1.052066207,-1.636518836
7.349706000000083,-26.92683983,5.122534275,-139.8728485,-0.219805673,-0.970282078,9.036188126,-8.13807869,-2.0130229,-2.868948221
7.358039000000076,-26.98058701,5.105197906,-139.8703766,-1.381647468,0.061991889,11.82160759,-8.108185768,-1.981645107,-1.099234819
7.366372000000069,-27.04025078,5.134030342,-139.9163513,-2.135456562,-0.809920371,13.94882488,-8.262153625,5.653203011,-3.885910273
7.374705000000063,-27.105896,5.162536144,-139.9288483,0.457670242,-0.741357803,7.065522671,-9.383955002,3.718405724,-0.169156432
7.383038000000056,-27.18935585,5.13098526,-139.9316559,-0.066149205,-1.249905467,9.239144325,-11.58034897,-3.140843153,-2.587960005
7.391371000000049,-27.28919411,5.15544796,-139.9363403,-1.410216451,-0.859901369,13.66083241,-13.57031059,2.881884098,0.407189637
7.3997040000000425,-27.39023399,5.183166027,-139.9708557,-1.004083633,-0.377907127,10.7569046,-13.3466568,4.9235816,-2.696871758
7.408037000000036,-27.49075699,5.189059258,-139.9694214,0.072353199,-0.200250641,8.048128128,-13.7251606,0.552793741,0.058259591
7.416370000000029,-27.60593987,5.170019627,-139.9849243,-0.59679389,-0.383555472,10.07630825,-15.24994946,-1.093932986,-3.259693623
7.424703000000022,-27.70944023,5.180528164,-139.9825134,-0.40275529,-0.799776196,12.05828571,-14.09948635,0.961289704,0.473364025
7.4330360000000155,-27.80362892,5.18811512,-140.0080261,-2.012175083,-0.156251341,12.18843269,-12.62069988,2.300299644,-2.833088875
7.441369000000009,-27.90682983,5.206287861,-140.009552,0.249815196,-1.110747695,9.672062874,-14.0234127,2.022948742,0.426054448
7.449702000000002,-28.0275116,5.209191322,-140.026413,-0.772643328,-0.650462925,9.058635712,-15.8935585,1.327342629,-2.177287102
7.458034999999995,-28.13821793,5.195612907,-140.00737,0.254656196,-0.88814497,11.24971867,-15.14803123,-2.488807678,0.78903389
7.466367999999989,-28.26161957,5.203438759,-140.0253754,-2.514304638,-0.442909062,12.55967522,-16.20828247,1.9189291,-2.013996601
7.474700999999982,-28.38334084,5.22488451,-140.0301208,0.518235743,-0.382617742,8.784486771,-16.22580338,2.498605251,0.373032987
7.483033999999975,-28.48450089,5.209172249,-140.0259552,-0.961460292,-0.172910914,11.6556654,-13.77943802,-1.82012248,-1.019754171
7.491367000000082,-28.58177376,5.226243496,-140.0266418,-0.896217644,-0.856202006,13.39039803,-13.34299564,1.801077962,0.560836613
7.499700000000075,-28.68593407,5.258880615,-140.049942,-1.626740694,-0.239231884,8.306248665,-13.83850098,4.847045898,-1.125899434
7.508033000000069,-28.78691864,5.248148441,-140.03508,0.803618908,-0.807739556,7.690859318,-13.95188618,-1.965496063,0.487234116
7.516366000000062,-28.87252426,5.245097637,-140.0318451,-1.796918511,0.619412601,14.03099537,-11.9047308,-0.432112217,-0.398096472
7.524699000000055,-28.93575096,5.278806686,-140.0432281,0.376847714,-0.787180841,12.02664948,-9.141412735,4.187273979,0.368294269
7.533032000000048,-29.00047874,5.271977425,-140.0329437,-0.950486481,-0.688141584,7.775196075,-9.477063179,-1.236501694,0.117505312
7.541365000000042,-29.07946587,5.266539097,-140.0301819,-0.605593264,-0.93189925,12.33425426,-11.1919117,-0.74002099,-0.429832548
7.549698000000035,-29.14549637,5.286651134,-140.0393829,-1.3866328,0.100203626,12.57950592,-9.419634819,2.719398975,-0.347892523
7.558031000000028,-29.18366432,5.291754723,-140.0448456,-0.528169692,-0.049538288,10.7241106,-6.209019184,0.848663688,-0.682850003
7.566364000000021,-29.22232246,5.315168858,-140.0560455,-1.576674581,-0.094391987,9.937097549,-6.109071732,3.180762768,-0.355935395
7.574697000000015,-29.27153778,5.329198837,-140.0697174,0.252507061,-1.230706811,8.826533318,-7.444164276,2.279116869,-1.04693079
7.583030000000008,-29.297575,5.328896046,-140.0576172,-0.487885654,-0.682775438,10.38901138,-4.853975296,-0.665227354,0.685244799
7.591363000000001,-29.32122421,5.338176727,-140.061203,-1.134999752,-0.346773386,12.77050591,-4.501727581,1.151500702,-0.191005364
7.5996959999999945,-29.35254097,5.411998272,-140.0888519,-1.294730544,-0.888444245,10.1834898,-5.043392181,9.417189598,0.900302052
7.608028999999988,-29.39010239,5.402509212,-140.0841064,0.729225159,-0.953642845,8.604044914,-6.265779495,-1.283785343,-0.458110571
7.616361999999981,-29.43378448,5.407099724,-140.0736237,-0.990156829,-0.366076648,11.8967371,-6.954597473,-0.060833808,0.800329566
7.624694999999974,-29.48134041,5.429635525,-140.0905762,-0.725087047,-1.372510433,10.12982559,-7.22544384,3.329325914,-0.809947848
7.633028000000081,-29.51513672,5.463833332,-140.0944519,-1.35901773,-0.106099911,10.86445808,-5.605496407,3.874832153,1.055754781
7.6413610000000745,-29.54851913,5.50235939,-140.1219177,-1.187564731,-0.380655974,12.883605,-5.41146946,5.575130939,-0.882051945
7.649694000000068,-29.59393311,5.552026272,-140.1363525,-0.449562699,-1.859858274,9.08417511,-6.878780842,6.111159801,0.880322993
