time,Euler_X,Euler_Y,Euler_Z,Acc_X,Acc_Y,Acc_Z,Gyr_X,Gyr_Y,Gyr_Z
0.0,22.70130157,-1.400013447,164.1822052,-5.195486546,1.6611619,15.1427927,-1.261142612,15.0121603,-3.410843134
0.008332999999993262,22.69315147,-1.239478707,164.2855072,0.728397965,-0.863408029,10.85381126,-2.580583811,22.33775902,3.7906394
0.016665999999986525,22.70979881,-1.035022378,164.3184509,-3.750585079,0.205672249,6.995663166,1.057343364,23.59529686,-5.902778149
0.024998999999979787,22.74352646,-0.896638751,164.4179535,-1.173918486,0.235263944,11.89943123,2.361799479,19.71219635,4.38627243
0.03333200000008674,22.78046989,-0.711872995,164.4469604,-0.951279104,-0.595931947,13.25179482,3.48096323,21.21237183,-5.439159393
0.04166500000008,22.83083344,-0.533225477,164.5697632,-2.739140987,0.988230169,10.38279629,4.31721735,25.25527763,5.065179348
0.04999800000007326,22.86969948,-0.343077987,164.5856018,0.333427906,0.455723852,16.62423897,3.701297522,21.17595291,-7.168609142
0.058331000000066524,22.88663483,-0.158642858,164.711731,-3.480627298,-0.489001542,12.90722561,0.212534219,26.05818367,5.132083893
0.06666400000005979,22.8965435,0.066951446,164.7628021,-0.810468435,-0.438615888,3.924918175,0.2481893,26.72510529,-4.93491888
0.07499700000005305,22.94540977,0.187394053,164.8316498,-2.379522324,-0.724570572,11.46806717,3.959257126,16.31364441,1.771621704
0.08333000000004631,22.98692513,0.39992404,164.8807068,-1.432592392,-0.486290187,11.83928776,4.01635313,25.17928505,-4.568071365
0.09166300000003957,23.0107975,0.53387475,164.9620819,-0.380952716,0.299385965,13.88253593,0.898150563,18.39180756,2.495352268
0.09999600000003284,22.98704338,0.725716352,164.9790344,-1.099081755,-0.879586995,14.66439247,-3.790063143,21.38872719,-7.156415462
0.1083290000000261,22.95613861,0.919629276,165.0832977,-3.222546101,-0.148210451,5.997693539,-5.775092125,26.0890007,2.22822237
0.11666200000001936,22.92568588,1.053821445,165.0752716,-0.443014801,-1.102971435,10.41283226,-4.544581413,13.85109138,-7.18973732
0.12499500000001262,22.92454147,1.19703269,165.1505127,-1.40329814,-0.286423802,10.57875633,-2.201236725,19.12703896,1.411716223
0.1333280000000059,22.9073925,1.336563587,165.1553192,-0.151355997,0.539724052,15.31433773,-2.968050241,15.04817581,-6.012251854
0.14166099999999915,22.86236382,1.459213376,165.2220306,-2.660326481,0.682177007,14.76810741,-7.485761166,16.45498657,1.442785978
0.1499939999999924,22.80770874,1.623285532,165.2581177,-0.603775918,-0.694410801,4.59364748,-7.561170578,19.2315464,-3.671955347
0.15832699999998567,22.78657722,1.670892715,165.2582855,-1.352158189,-0.906214356,12.25618553,-4.423194408,5.057594776,-2.40233326
0.16665999999997894,22.76912689,1.812335014,165.2884064,-0.47389397,-0.069946021,14.22892857,-3.09273982,16.46125984,-3.259898663
0.17499300000008589,22.69898224,1.871164083,165.3083954,-1.784819722,0.918922424,13.5205965,-10.38168144,7.220436573,-0.726880908
0.18332600000007915,22.58930779,1.976976037,165.3104553,0.011961875,-2.516233683,8.313511848,-14.05758286,11.23472691,-4.678441525
0.1916590000000724,22.54496956,2.026252508,165.3041534,-2.335481405,0.053827342,7.230949402,-7.181413174,4.953780651,-3.175499439
0.19999200000006567,22.46720695,2.086713314,165.3170929,0.509302497,0.40753749,17.89333344,-10.28063202,6.725696087,-1.364931345
0.20832500000005894,22.35457611,2.156562328,165.3003235,-2.466476917,-1.246623397,7.903909206,-15.32930279,6.764707565,-5.262983322
0.2166580000000522,22.26459312,2.194034815,165.304657,-1.998214722,0.61586833,10.05526066,-11.71193027,3.796529055,-1.250896811
0.22499100000004546,22.18345833,2.241318464,165.2761078,-0.416586339,0.590281427,15.078125,-11.49239063,3.741407394,-5.523325443
0.23332400000003872,22.07275963,2.278686047,165.2919769,-2.777026892,-0.57283479,11.20410728,-14.26262569,4.316883087,0.044812117
0.24165700000003199,21.94856262,2.288103342,165.2271576,-0.83259362,0.3434003,12.63927555,-16.48250771,-2.080337286,-7.836344242
0.24999000000002525,21.84874916,2.341059923,165.261261,-1.382672429,-0.285722315,5.788116455,-13.05519295,6.874977589,1.392531037
0.2583230000000185,21.74413109,2.310588598,165.1832428,-0.351640284,0.067363605,12.9837513,-14.06170464,-7.083387375,-7.534480095
0.2666560000000118,21.60469437,2.316601276,165.2095947,-1.73677063,-0.590959251,11.49929714,-17.78993607,1.300012469,2.626778841
0.27498900000000503,21.49724388,2.320263624,165.1442566,0.335199296,0.012795632,7.436671734,-14.46477127,-2.684014082,-7.652330399
0.2833219999999983,21.37151909,2.270748138,165.15625,-2.738485575,0.592119157,13.62516499,-16.09358406,-5.528912067,3.463519812
0.29165499999999156,21.25219917,2.252028942,165.0832672,0.801463604,-0.258199483,10.96502972,-15.86179829,-5.489516258,-7.544443607
0.2999879999999848,21.14323425,2.233905554,165.1003265,-4.178011894,0.822469532,10.26298237,-14.11913109,-1.798606157,2.641634703
0.3083209999999781,21.02462959,2.162270069,165.0167084,1.260457277,0.087191708,12.36469173,-15.73559856,-11.84489727,-6.471387386
0.31665400000008503,20.91658974,2.146547556,165.0259857,-3.894780397,-0.014316869,9.232376099,-13.98762894,-1.867303729,1.654359818
0.3249870000000783,20.8062191,2.084153891,164.9593201,0.522114336,0.218146339,13.0624342,-14.83863735,-10.05925179,-5.010657787
0.33332000000007156,20.67988396,2.026644468,164.9465332,-2.318202734,0.289998472,10.24173355,-16.10931015,-7.494394302,0.942668259
0.3416530000000648,20.58091354,1.965384603,164.8957062,0.197700977,-0.479786336,11.80081367,-13.5526228,-9.241413116,-3.318734646
0.3499860000000581,20.43893242,1.881348729,164.8536072,-3.224956989,0.610018253,12.48717022,-17.89162827,-11.70274067,-1.271337509
0.35831900000005135,20.32399559,1.804727077,164.8132935,0.861008346,-0.132859886,9.986165047,-15.52612495,-10.51795101,-1.536931396
0.3666520000000446,20.20965958,1.739185333,164.7627106,-3.214175463,0.520072579,7.71843338,-14.57583523,-9.957535744,-3.048914194
0.37498500000003787,20.09882164,1.634110451,164.7146759,-0.109439842,-0.488876402,14.59733009,-15.01865578,-14.03827,-1.273283958
0.38331800000003113,19.96135712,1.58723557,164.6694641,-1.66340673,0.678743482,11.29345226,-17.40746307,-7.614524841,-3.257414579
0.3916510000000244,19.84000969,1.493625045,164.6363831,-0.887119353,-0.318145037,6.200043678,-16.34275818,-12.12934303,-0.114777423
0.39998400000001766,19.75190735,1.420578122,164.563446,-2.456029415,1.433466792,15.61738682,-11.43962669,-11.67430496,-5.358089447
0.4083170000000109,19.61360168,1.332943678,164.5634766,-1.766667724,-0.462737143,11.51952934,-18.48457336,-10.11650085,3.336985826
0.4166500000000042,19.492733,1.274389505,164.5002289,-0.594109893,0.222039342,7.013777733,-15.44082737,-9.620632172,-4.900901318
0.42498299999999745,19.38200378,1.173291922,164.4672699,-1.831259966,0.713798046,12.582201,-15.09109116,-12.97258949,0.101163447
0.4333159999999907,19.22168922,1.085016608,164.407135,-0.097907536,-1.044972897,12.67596149,-20.23194885,-12.83399296,-3.416018248
0.44164899999998397,19.07522202,0.988787711,164.3763733,-1.239798546,-0.327061236,7.849983692,-19.39797974,-12.33566856,0.092249721
0.44998199999997723,18.92946243,0.885308266,164.2917328,-1.071066737,0.385807216,10.42723942,-18.47827148,-15.48870564,-5.672608376
0.4583150000000842,18.77614975,0.741271734,164.2506866,-2.013776064,0.474799603,15.99750233,-20.21627998,-18.16457748,0.714855313
0.46664800000007745,18.56185532,0.688791633,164.1962891,-1.723424554,-0.243640602,8.515422821,-26.80811119,-8.491229057,-4.288697243
0.4749810000000707,18.35890579,0.556553543,164.1469421,-1.461366534,-1.211571217,8.372763634,-26.17758942,-17.14323807,-0.799984455
0.48331400000006397,18.13646507,0.429281026,164.0844727,-0.189684004,0.63677156,14.76866817,-27.8241539,-17.28416824,-2.466704369
0.49164700000005723,17.84773445,0.304982185,164.04039,-1.292264223,-1.242935896,10.12970924,-36.50494766,-16.03599548,-0.630674601
0.4999800000000505,17.57738304,0.199074179,163.9745026,-0.884915948,-0.957555652,8.710816383,-33.62228394,-14.93493652,-3.80469203
0.5083130000000438,17.2818737,0.045001987,163.9285431,-2.14767909,0.843654752,15.23306561,-37.34043503,-19.5073967,0.069760479
0.516646000000037,16.90568542,-0.065875053,163.8676605,-1.640579343,-1.413792133,11.09844017,-46.37702942,-15.28386879,-3.215694666
0.5249790000000303,16.522892,-0.183083951,163.8250732,-0.631498039,-1.243386865,8.25008297,-47.83885956,-15.1568203,-1.058510661
0.5333120000000235,16.08452606,-0.355080336,163.7542114,-0.842800379,-0.038606226,13.4518404,-53.89505005,-22.60883141,-2.517323256
0.5416450000000168,15.5892868,-0.491968781,163.6985168,-2.106001139,-1.333789587,11.56948662,-61.37322617,-17.84214592,-2.154497623
0.5499780000000101,15.06826878,-0.564829946,163.6571655,-1.725660205,-1.299496651,8.892528534,-63.83790588,-10.15416145,-2.634177685
0.5583110000000033,14.48696423,-0.746784568,163.6005859,-0.80019176,-0.669239163,14.75471306,-71.72815704,-23.05950928,-1.201006174
0.5666439999999966,13.81634808,-0.896157563,163.5358429,-1.163268209,-1.672931433,13.11262989,-81.87439728,-19.68632889,-3.319369555
0.5749769999999899,13.1216259,-0.973420441,163.5021973,-2.464448929,-0.551972568,6.828670502,-85.32994843,-10.1727581,-1.973948121
0.5833099999999831,12.39562988,-1.097145438,163.4561615,-1.445360065,-0.721778333,11.65217113,-88.52846527,-16.10306931,-2.284960032
0.5916430000000901,11.5900259,-1.266066074,163.4017181,-1.235521436,-0.915794969,15.78205013,-98.7065506,-21.399786,-2.383195639
0.5999760000000833,10.72461414,-1.353750348,163.3787994,-0.530771315,-0.434405327,8.31138134,-105.2418823,-11.25600529,-0.847993255
0.6083090000000766,9.864141464,-1.430123806,163.3520966,-3.083814383,-1.28905046,6.802896023,-105.234787,-9.805303574,-1.720883846
0.6166420000000699,8.983258247,-1.533838868,163.3233032,-1.708268166,0.239947617,14.98708534,-107.1472092,-13.24013424,-1.559513092
0.6249750000000631,8.028057098,-1.653006434,163.3118286,-0.176677451,0.567593098,14.27452374,-116.5644608,-14.56176853,0.54585886
0.6333080000000564,7.010968685,-1.718247175,163.2797089,-1.21976614,-1.73750186,7.889377594,-123.5713348,-8.774171829,-3.869287252
0.6416410000000496,6.032397747,-1.714468598,163.2763062,-5.240362167,-0.17761074,7.548951149,-119.3432007,0.186947823,-0.66556859
0.6499740000000429,5.034043789,-1.761272192,163.2681732,0.58345753,-0.375987202,13.43991947,-121.2619934,-6.159253597,-1.447171926
0.6583070000000362,3.972733974,-1.794631958,163.2357788,-2.718521357,1.766683936,17.08773422,-129.3808136,-4.511040211,-3.764784575
0.6666400000000294,2.834564924,-1.789775729,163.2446136,-1.049948096,0.111307785,12.27332973,-138.0087433,0.203956768,-0.034989629
0.6749730000000227,1.692470312,-1.722589254,163.2152863,-2.14210844,-1.005733728,4.865767479,-139.063797,7.700013161,-4.044017792
0.683306000000016,0.610022902,-1.652701378,163.2173004,-1.750142217,0.27983135,7.730041504,-131.3693848,7.989624023,-0.887162507
0.6916390000000092,-0.468402654,-1.633412838,163.2005005,-0.642774045,0.11090944,13.02026939,-131.3723755,2.095314741,-2.225526571
0.6999720000000025,-1.599225879,-1.566291928,163.1961823,-1.14610076,1.222433448,14.79675007,-137.2226868,7.695783615,-1.341388583
0.7083049999999957,-2.785753489,-1.522679687,163.1872559,-1.854143858,1.667180181,13.25696564,-144.3176117,5.053410053,-1.077713013
0.716637999999989,-4.000400543,-1.431653738,163.1759186,-0.959429264,-0.370954841,8.803040504,-147.3319702,10.65666294,-1.735833406
0.7249709999999823,-5.178335667,-1.40445137,163.1831818,-0.149779946,-1.240367174,5.68468523,-143.2355347,2.965810299,0.92224437
0.7333040000000892,-6.324737072,-1.389286876,163.1691437,0.098269358,1.453418732,9.327937126,-139.150238,1.613711357,-1.726121426
0.7416370000000825,-7.438284397,-1.349818826,163.1493988,-2.839463711,2.225731373,15.41641521,-135.5860443,4.768641472,-1.991129279
0.7499700000000757,-8.605698586,-1.335553288,163.1516571,-1.136624932,2.346163273,16.01655579,-141.6565704,1.297166228,0.268429101
0.758303000000069,-9.782079697,-1.321250796,163.1281738,-0.761452079,2.052800655,9.605618477,-143.136322,1.927877426,-2.714312792
0.7666360000000623,-10.92058659,-1.369131565,163.1490631,1.278937936,-0.585233092,6.468123436,-138.1664429,-6.457253456,1.19247818
0.7749690000000555,-11.98627663,-1.403684616,163.1364594,-1.027204156,0.50796783,9.014600754,-129.8222961,-3.980485678,-2.511564493
0.7833020000000488,-13.01329517,-1.426971436,163.1505585,-2.872208595,3.008000374,10.55029106,-124.8249054,-3.438399553,0.800929725
0.791635000000042,-14.02345753,-1.467469692,163.1587677,-0.108264208,1.610937834,12.76912975,-123.0972672,-5.171967983,-0.385243237
0.7999680000000353,-15.04766846,-1.553186059,163.1669159,-1.302596688,2.348688364,14.05503559,-124.5346375,-10.54211807,-1.883286834
0.8083010000000286,-16.0616169,-1.660626769,163.2174072,0.65471828,1.128301024,11.34674072,-123.4051514,-14.26173782,2.16869688
0.8166340000000218,-17.04172897,-1.772073746,163.2379456,-0.43705979,0.157346725,7.089573383,-119.2241898,-13.85417271,-1.699833393
0.8249670000000151,-17.9375515,-1.883002043,163.2896881,-0.908718467,0.971675396,6.818940639,-109.2003555,-14.77757359,1.711087465
0.8333000000000084,-18.7772274,-2.014186144,163.3275909,-1.849742413,2.0665977,12.4982357,-102.3076019,-16.69915199,-0.896173656
0.8416330000000016,-19.59077835,-2.141568184,163.3706818,-2.074132919,3.102307081,15.76416492,-99.33846283,-16.35122299,-0.351660997
0.8499659999999949,-20.40854073,-2.294780493,163.4391022,-0.604824543,2.515283346,11.23758602,-99.54499817,-20.40748024,1.166290522
0.8582989999999882,-21.18466949,-2.438554287,163.4861145,-0.552252591,1.535867453,8.963345528,-94.80101776,-18.34462929,-1.06614995
0.8666319999999814,-21.88140297,-2.607505798,163.5670013,-0.449661702,1.039478302,8.270718575,-84.93174744,-22.73803902,1.321665049
0.8749650000000884,-22.48999596,-2.763705969,163.6293793,-1.293382168,1.548816442,9.153235435,-74.57646179,-20.39636612,-0.36293003
0.8832980000000816,-23.02947617,-2.904643297,163.7022552,-1.742462993,2.927856445,9.872695923,-66.07463074,-19.28952217,1.255115628
0.8916310000000749,-23.519804,-3.055877209,163.7815857,-0.376724005,2.095866442,14.30157089,-60.23926544,-20.64353371,1.352628469
0.8999640000000682,-23.99203873,-3.184774637,163.8333282,-2.457718134,3.392981052,14.35991287,-58.12259674,-16.96587181,-0.815636694
0.9082970000000614,-24.40667152,-3.311178446,163.917923,-0.988307834,1.763935924,11.02166939,-51.07361603,-18.2060833,2.818738937
0.9166300000000547,-24.75882339,-3.437324762,163.9657135,-1.980924964,1.803349733,6.012245655,-43.73649216,-16.45871353,-1.349975109
0.9249630000000479,-25.01974869,-3.526870966,164.0332947,-1.278270125,0.568431795,8.676682472,-32.70738983,-13.37105465,2.611694098
0.9332960000000412,-25.23788643,-3.653189898,164.0774994,-1.041523814,1.13404274,10.56990814,-27.67146683,-16.2808075,-1.901346445
0.9416290000000345,-25.38578033,-3.715819359,164.1066284,-2.73456502,2.767189503,13.80027771,-19.41259956,-8.502289772,-0.267207772
0.9499620000000277,-25.54464912,-3.817527294,164.1686096,-0.395905465,1.177436352,12.20800591,-20.42323875,-14.519104,1.19494307
0.958295000000021,-25.66807175,-3.865982294,164.1677551,-2.638286352,1.895516515,11.79713249,-16.70458412,-5.415567398,-2.81426239
0.9666280000000143,-25.76674843,-3.92547369,164.2182922,-0.70265609,1.006334186,9.524100304,-13.2902298,-9.366589546,2.098433733
0.9749610000000075,-25.79644012,-3.960448027,164.2113342,-2.619604111,-0.595958769,8.999551773,-5.506446362,-3.634403944,-2.78316617
0.9832940000000008,-25.77266312,-3.957195997,164.2329254,-2.004464865,1.40445137,9.708482742,1.159850955,-1.081791639,2.241821766
0.991626999999994,-25.75580978,-3.989901543,164.2466888,-1.08172071,1.427445054,14.55516243,0.252082527,-4.467583656,-0.429729998
0.9999599999999873,-25.75441551,-3.969069958,164.2499237,-1.993405819,1.56265378,15.98759842,-1.691820145,1.775668263,1.181520462
1.0082929999999806,-25.76455307,-3.947653055,164.2464294,-2.170754194,-0.764899075,7.053393841,-3.132569075,2.280370712,0.531277597
1.0166260000000875,-25.69916344,-3.893194675,164.2576599,-0.269536048,-0.440884888,6.850279808,6.043282032,4.994788647,3.796990156
1.0249590000000808,-25.63965416,-3.867590427,164.2387085,-3.272462606,1.237377763,13.35097599,5.103213787,3.534700632,-0.92354691
1.033292000000074,-25.62738991,-3.833993196,164.2804871,0.689539433,-0.724126041,16.99279976,-0.097103581,1.161925912,6.004553318
1.0416250000000673,-25.63522911,-3.741298914,164.2320557,-2.042804718,-0.202927575,7.068650723,-3.211333752,12.32020569,-0.625576615
1.0499580000000606,-25.60520935,-3.708819151,164.2534943,-1.041802645,-0.024241088,6.964670658,1.85584116,2.097485781,3.751652956
1.0582910000000538,-25.56579781,-3.678530693,164.2311401,-0.817592561,0.298392028,19.4254303,2.670501471,4.217422009,-1.053257346
1.066624000000047,-25.61505318,-3.589701653,164.2239838,-2.436131716,-0.907743633,8.97638607,-7.887314796,9.679376602,3.581267118
1.0749570000000404,-25.61095238,-3.513736725,164.1753845,-1.089734435,0.097529747,7.5735116,-1.754959583,10.51873016,-1.513545513
1.0832900000000336,-25.62369156,-3.449690819,164.1816254,-2.390305519,0.173606843,17.23126602,-3.411278963,6.301832676,3.749169111
1.0916230000000269,-25.69817352,-3.329961777,164.1308441,-1.245348811,-1.289908171,9.25998497,-11.18514919,15.36753178,0.5297153
1.0999560000000201,-25.73541069,-3.214889288,164.0953979,-1.694508076,0.220024973,10.99954987,-6.646280766,13.98075199,1.919339061
1.1082890000000134,-25.82301331,-3.098235369,164.0652466,-1.149992943,-0.268736184,14.12885094,-12.59946632,13.95762348,2.627367973
1.1166220000000067,-25.90923882,-2.962763548,164.0126343,-1.213639736,-1.44691658,7.477592468,-12.6243124,17.07567024,1.172735333
1.124955,-25.97752953,-2.794532776,163.9532623,-2.183516979,1.094064355,13.67430973,-10.43967438,21.04869843,2.225327253
1.1332879999999932,-26.10028458,-2.671153545,163.9024658,-0.482521117,-0.686186433,11.98205853,-16.97212791,15.67357349,0.782502472
1.1416209999999865,-26.18634033,-2.485289574,163.8412476,-2.111850262,-0.204052836,9.647449493,-12.54427052,23.03672409,3.033482552
1.1499539999999797,-26.32341385,-2.35568285,163.7870636,-0.79348284,-0.051167853,14.51319027,-18.67565727,16.521101,0.805196702
1.1582870000000867,-26.43634033,-2.183880806,163.7283478,-0.775100112,-0.766927838,6.60154295,-15.71877384,21.37917709,2.646733046
1.16662000000008,-26.5477581,-2.079960346,163.6901093,-0.323909909,0.6346187,14.73436832,-15.4961319,12.90838814,1.212642312
1.1749530000000732,-26.69412422,-1.936145186,163.6467743,-1.059443831,-1.05502975,10.69070911,-19.63442802,17.53883553,2.878286362
1.1832860000000665,-26.80269241,-1.821487069,163.5978699,-0.885396481,0.98980552,9.507059097,-15.18150902,14.62974072,0.710654378
1.1916190000000597,-26.93087959,-1.701725125,163.5606384,-1.810266733,-0.214834496,12.34810257,-17.40815544,14.61959839,2.303143263
1.199952000000053,-27.03050041,-1.601748586,163.5263062,-0.712230027,-0.264785469,11.7797699,-14.03962517,12.26597977,1.527031422
1.2082850000000462,-27.17066383,-1.493893743,163.4931641,-1.85216248,-0.077730224,12.42636776,-18.81533051,13.11504555,2.149329901
1.2166180000000395,-27.25841522,-1.404250741,163.4510803,0.267900079,0.478796184,8.028944016,-12.63063812,11.58251667,0.183999896
1.2249510000000328,-27.3746109,-1.331872106,163.4387207,-1.906616092,-0.595938504,15.09710407,-15.86584473,8.178614616,2.462463617
1.233284000000026,-27.47833061,-1.265509367,163.4133148,0.27986449,-0.406179756,11.18204784,-14.49112892,8.181637764,0.718005657
1.2416170000000193,-27.61130905,-1.193815112,163.4014587,-1.78677392,0.147684053,11.61839104,-17.87584686,8.069345474,2.507954597
1.2499500000000126,-27.70166206,-1.143869638,163.3759155,-0.304252386,-0.525068998,7.153993607,-12.88513947,6.443479061,-0.176482096
1.2582830000000058,-27.80827141,-1.07978344,163.364212,-2.370060682,0.231317699,16.45988464,-14.70723438,7.240416527,2.130656719
1.266615999999999,-27.92035866,-1.042553067,163.3565826,-0.981176674,-0.607802689,9.745859146,-15.45248222,4.091067791,1.035289168
1.2749489999999923,-28.0282135,-0.972835362,163.3344269,-0.923213303,0.24914895,10.84400558,-14.87618637,8.41818428,1.368658662
1.2832819999999856,-28.12109184,-0.954348505,163.3314972,0.006405837,-0.21258226,8.722776413,-13.13994884,1.836425543,0.491524369
1.2916149999999789,-28.21751976,-0.890307188,163.3210602,-2.014845848,0.002550738,17.37387085,-13.47967339,7.148076057,2.316308737
1.2999480000000858,-28.33086777,-0.888254464,163.3415375,0.271790355,-0.609200835,7.743927002,-15.5553236,-1.230584979,2.03762579
1.308281000000079,-28.39693451,-0.800561249,163.3127441,-1.904680967,0.23765786,8.459054947,-9.864964485,10.68294239,1.750028729
1.3166140000000723,-28.46508026,-0.811374485,163.3368378,-0.153166711,0.058613252,11.57698345,-10.13230038,-2.797458887,1.680870295
1.3249470000000656,-28.51312065,-0.709036708,163.3014069,-3.163304806,0.593910158,15.18246078,-7.707709789,12.60293674,1.914856791
1.3332800000000589,-28.59727287,-0.734383762,163.3457642,0.213662311,-1.229005456,11.96032524,-12.03034019,-5.497993469,2.977616787
1.3416130000000521,-28.61263275,-0.636080265,163.3113861,-1.822010994,0.713686228,4.731215477,-3.779842615,12.11577797,1.816472173
1.3499460000000454,-28.66445732,-0.693861663,163.3599396,1.146769047,-0.572095752,15.9227581,-8.150373459,-9.158831596,1.549443603
1.3582790000000386,-28.67570686,-0.611210227,163.3219147,-3.042519331,-0.625925422,12.9697113,-3.288381815,10.67469501,0.545775414
1.366612000000032,-28.7443943,-0.62846452,163.3692017,0.786073685,-0.40308699,14.1613102,-10.18442726,-4.820779324,3.740998268
1.3749450000000252,-28.75803757,-0.584666252,163.3557587,-3.018028021,0.278316557,5.53840971,-3.540912151,5.166481018,0.905245543
1.3832780000000184,-28.78851318,-0.574444771,163.3642273,0.543698132,-1.190941453,13.12042999,-5.653189659,0.308638752,1.239280701
1.3916110000000117,-28.80787277,-0.595017672,163.3867645,-3.011206388,0.400917202,13.98885918,-4.181959152,-3.682635307,0.973430574
1.399944000000005,-28.83595657,-0.495601743,163.3465729,-1.488151193,-0.615886271,9.876720428,-5.424558163,12.49855709,1.284925461
1.4082769999999982,-28.86432457,-0.567998469,163.3984375,0.539720476,-0.289290786,13.41232395,-5.23342371,-10.82859707,1.051425934
1.4166099999999915,-28.86957359,-0.489376068,163.36586,-3.43972373,-0.265091926,7.69333744,-2.676098585,9.872226715,0.891209066
1.4249429999999847,-28.90864944,-0.529935062,163.3906708,2.256568909,-0.785298944,16.4278717,-6.548509598,-5.914378166,0.045145091
1.433275999999978,-28.93670464,-0.492818803,163.3842773,-4.003569603,-0.193672255,5.565464973,-5.3886199,3.994987965,1.245274425
1.441609000000085,-28.93613052,-0.457610458,163.3637543,0.655534029,-0.849668682,12.52388954,-1.838308096,4.672203541,-0.319947422
1.4499420000000782,-28.97762108,-0.511208236,163.4076691,-2.357531071,0.140593514,15.97653484,-6.951473236,-8.453927994,1.258773208
1.4582750000000715,-28.98283577,-0.421498209,163.3694916,-1.945927739,-0.783767045,5.292144775,-2.549487591,11.41922569,0.999710917
1.4666080000000647,-28.99032784,-0.463254541,163.3964539,1.201758862,-0.019690348,14.29707623,-2.891514301,-6.225821018,0.161869153
1.474941000000058,-29.01162529,-0.4648076,163.39151,-2.784511328,-0.460362524,11.14232063,-4.446708202,-0.091596514,-0.818579793
1.4832740000000513,-29.02201653,-0.420384467,163.3691101,0.064475775,-1.274185658,14.55886269,-3.288739443,5.691494942,-0.002561423
1.4916070000000445,-29.06884766,-0.472982973,163.4141388,-1.411190987,-0.457309812,8.971504211,-7.464526653,-8.358078957,1.450137258
1.4999400000000378,-29.04295921,-0.373068422,163.3583527,-1.654107332,-0.141775995,7.734341621,1.034751296,13.45916748,-0.267438263
1.508273000000031,-29.06575775,-0.420045048,163.3883362,-0.22096622,-0.901575983,14.48968315,-4.597806454,-6.892713547,0.198497489
1.5166060000000243,-29.07456589,-0.428531349,163.3910217,-2.319847584,0.120109312,11.89957333,-3.078933954,-1.317417026,-0.451169163
1.5249390000000176,-29.08620453,-0.353562742,163.3534698,-1.020081758,-1.122985005,12.06022835,-3.312766314,9.834086418,0.226032868
1.5332720000000108,-29.12326813,-0.441332996,163.4015961,1.227168322,-0.988349259,11.4852562,-6.436321735,-12.2820034,-0.316412747
1.541605000000004,-29.12233925,-0.390944302,163.371933,-4.501943588,0.724538028,7.35859108,-1.799271822,6.796929359,-0.374710679
1.5499379999999974,-29.14525414,-0.407984316,163.3760376,1.655626535,-2.536215782,13.69099617,-4.775492668,-2.299134016,-0.804082096
1.5582709999999906,-29.17404747,-0.444354802,163.3897858,-2.407564163,0.876630425,13.21093273,-5.329630852,-4.831280708,-0.894218624
1.566603999999984,-29.18612671,-0.411635995,163.3589783,-2.134777069,-0.285606056,7.82797718,-3.509201527,4.959005356,-1.552299619
1.5749369999999772,-29.2010231,-0.453974545,163.3744812,-0.29458189,-1.319441319,15.42335987,-3.661349773,-5.559057236,-1.060326815
1.583270000000084,-29.23836708,-0.46871528,163.3872375,-1.128811121,-0.374229223,9.214063644,-6.502455235,-2.562832355,0.234587967
1.5916030000000774,-29.2316494,-0.456433535,163.3654327,-0.254603684,-0.644348323,7.62475872,-1.101565838,2.346993923,-1.771275759
1.5999360000000706,-29.26288414,-0.509659827,163.3868256,-0.671160161,-1.100869417,16.20040512,-5.759924412,-7.096270561,-1.119111657
1.608269000000064,-29.30146027,-0.515393019,163.3819275,-4.120131969,-0.392658591,12.59408474,-6.521640778,-0.528985202,-1.058841348
1.6166020000000572,-29.32846642,-0.461751789,163.3527222,0.493778229,-0.005418492,8.68650341,-5.306834221,7.055915356,-0.140673384
1.6249350000000504,-29.37144661,-0.557700157,163.3869019,-0.89996618,-1.425772071,9.790780067,-7.008388042,-12.26102257,-2.277643681
1.6332680000000437,-29.37303734,-0.512450874,163.3753357,-1.764016509,-0.203366175,11.83269024,-2.24175787,5.140995026,1.217047572
1.641601000000037,-29.42221832,-0.519800544,163.3560181,-0.829983294,-1.817891955,11.73171806,-7.808704376,0.153518915,-2.660191774
1.6499340000000302,-29.46761894,-0.53774184,163.3840179,-0.21603182,-0.388040483,10.79929066,-7.45689249,-3.795773983,1.628463387
1.6582670000000235,-29.49379158,-0.522166967,163.33815,-3.475509644,0.221293867,9.159081459,-5.077741146,4.117911816,-4.078119755
1.6666000000000167,-29.53064156,-0.49842611,163.351532,0.325766116,-1.522040606,15.51385403,-6.445822716,1.419016004,2.563844204
1.67493300000001,-29.61377716,-0.544606328,163.3556671,-1.254861593,-1.379479766,10.42921257,-11.85959721,-5.282424927,-2.510707617
1.6832660000000033,-29.63625336,-0.508561254,163.3600311,-0.261831015,0.2876966,6.255664825,-4.732896328,3.23496294,2.355677366
1.6915989999999965,-29.67959976,-0.523823559,163.3346405,-1.512546778,-1.129717469,13.23775196,-7.116353035,-0.301402777,-3.761194944
1.6999319999999898,-29.75215149,-0.539613187,163.3829956,-1.411268473,-1.327154636,15.73680782,-10.69138241,-4.787326336,3.862050772
1.708264999999983,-29.80038834,-0.499131382,163.3327332,-2.056519508,0.547727525,7.039397717,-7.730453491,6.993340015,-3.028550625
1.71659800000009,-29.83539009,-0.499667138,163.3653412,1.00674963,-1.799642324,9.747052193,-6.205432415,-2.268319607,3.125922441
1.7249310000000833,-29.88589859,-0.543702304,163.3669891,-1.920579433,-0.408022463,13.75145149,-7.945432663,-4.897748947,-2.66713357
1.7332640000000765,-29.92141914,-0.50417906,163.3722534,-2.373199701,0.034058277,10.97664165,-6.295390606,3.529962063,2.676393032
1.7415970000000698,-29.96383476,-0.48921141,163.3407898,0.080435395,-1.334021091,10.0481472,-7.009695053,3.224743128,-2.584220409
1.749930000000063,-30.00988197,-0.519741416,163.3658447,-2.09132576,-0.388420135,13.02480125,-7.537705421,-4.940499783,0.540089011
1.7582630000000563,-30.0383625,-0.485573411,163.3229218,-1.569839358,-0.240042239,11.61581898,-5.34853363,5.909934044,-2.616084099
1.7665960000000496,-30.08193588,-0.465650707,163.313446,-1.038305044,-1.711798191,10.73265171,-7.276108265,2.373018265,-0.022899128
1.7749290000000428,-30.13267708,-0.487379104,163.3117828,0.45526275,-0.771386743,11.03506088,-7.976529121,-2.372134209,-1.689002633
1.783262000000036,-30.16604614,-0.470367551,163.2955017,-2.467669487,-0.479005545,11.96378517,-6.056587696,2.482544184,-0.896779954
1.7915950000000294,-30.20572281,-0.438543856,163.2716675,-0.448757023,-0.387236565,10.80049133,-6.672278881,4.522667885,-0.760307491
1.7999280000000226,-30.25444221,-0.459465325,163.2736053,-1.153131843,-0.939633191,12.16089153,-7.882523537,-2.548667431,-1.298052549
1.8082610000000159,-30.31463051,-0.43879059,163.2756805,-1.408125639,-0.909855187,10.97829437,-9.107321739,1.80061698,1.257236481
1.8165940000000091,-30.34752464,-0.404110223,163.2463379,-0.458669752,-0.514570415,12.95920181,-6.010841846,5.10800457,-1.171467185
1.8249270000000024,-30.40676689,-0.430447698,163.2828674,0.148015335,-1.015027404,9.407593727,-8.962576866,-5.161679268,1.976074696
1.8332599999999957,-30.41716576,-0.425104648,163.2855988,-2.539562225,0.286064982,10.07290173,-3.28131175,0.127238721,0.373314679
1.841592999999989,-30.43691826,-0.386159658,163.2935486,-1.51893127,-0.6820153,10.23029613,-4.250938416,3.32996583,2.980280399
1.8499259999999822,-30.43824005,-0.346050233,163.2679749,-1.38779366,-0.854180515,13.0192728,-2.213659286,5.443729401,-0.440564871
1.8582590000000891,-30.4856472,-0.362867326,163.2898865,0.224661335,-1.057418346,14.24453163,-7.559708118,-3.287996769,1.033649564
1.8665920000000824,-30.49886513,-0.347236156,163.2695618,-2.485539913,0.084005162,8.623258591,-3.636735201,2.594530106,-1.380863428
1.8749250000000757,-30.50769615,-0.319316,163.2742004,0.30773887,-1.54472363,10.05004597,-2.942409992,2.387054682,1.97146368
1.883258000000069,-30.51184273,-0.326089472,163.2650146,-1.011043787,-0.452690065,12.0306654,-2.536859274,-0.400401711,-1.592923641
1.8915910000000622,-30.52638054,-0.323874831,163.2831116,-1.171638131,-1.0141294,14.34460926,-3.618599653,-1.089859962,1.796262264
1.8999240000000555,-30.52181816,-0.308386207,163.2707214,-2.432374477,-0.034761094,9.624712944,-1.495077372,2.098971367,-0.569250822
1.9082570000000487,-30.49893379,-0.256469756,163.2466583,-0.532284617,-0.409780145,10.29941273,0.845487535,6.614171982,0.46929121
1.916590000000042,-30.50605965,-0.287878722,163.265625,0.283235192,-2.044287443,10.86005783,-2.876555443,-4.6587677,-0.186446026
1.9249230000000352,-30.49829483,-0.277024597,163.2660217,-1.317510724,-0.588364244,13.54215527,-0.954924285,0.88173157,0.493547887
1.9332560000000285,-30.50156975,-0.311762512,163.2843018,0.565644681,-0.770079434,11.17648602,-2.411913395,-4.96188736,-0.45534429
1.9415890000000218,-30.47254372,-0.279804051,163.2617798,-3.180541992,-0.52942127,8.41954422,1.584406972,4.458119392,-0.592482924
1.949922000000015,-30.4620285,-0.311284393,163.2906342,0.421749234,-2.148201704,10.92092705,-0.74995929,-5.26669693,0.836035788
1.9582550000000083,-30.4491272,-0.312124997,163.2901917,-3.332545042,-0.049855061,14.34353256,-0.338338405,-0.276147097,-0.304169029
1.9665880000000016,-30.45553398,-0.305438101,163.3031769,0.601674974,-1.244762301,12.88385868,-2.791490555,-0.353194654,1.518245339
1.9749209999999948,-30.44780922,-0.339459389,163.3083649,-2.056537867,-0.146926075,7.319528103,-0.954514563,-4.052710056,-1.740922809
1.983253999999988,-30.43240738,-0.34137103,163.3285675,1.929859042,-2.249707937,11.58080196,-0.165749714,-1.680216908,1.743983507
1.9915869999999813,-30.45739937,-0.422856182,163.3591766,-2.266825914,-1.532687068,14.3606863,-4.861941338,-10.50880527,-1.995477557
1.9999200000000883,-30.46601868,-0.40224126,163.3635712,-1.508277059,-0.190914601,12.31397247,-3.057340622,1.612941027,1.478235841
2.0082530000000816,-30.46686554,-0.444595605,163.3695526,-1.052350163,-0.123085462,8.789960861,-1.983361721,-4.960709095,-2.168091297
2.016586000000075,-30.44021797,-0.424553484,163.3708344,-1.769954324,-1.093942523,10.86277008,1.17145431,1.741037846,1.122940898
2.024919000000068,-30.44695854,-0.491074383,163.3970947,-0.099188499,-1.863624454,12.18346596,-2.669285536,-8.694190025,-1.536239505
2.0332520000000613,-30.42874527,-0.516942203,163.4234161,-1.66388154,0.066304572,11.15573692,0.186023399,-4.529185772,0.921715498
2.0415850000000546,-30.41082001,-0.571360707,163.4405823,0.992105663,-1.860054851,11.13117695,0.285355359,-6.891048908,-1.737618446
2.049918000000048,-30.37635422,-0.615265071,163.4656677,-2.502577066,0.040400412,9.399751663,2.140363693,-6.317801952,-0.297253191
2.058251000000041,-30.35753441,-0.675928652,163.487854,0.021622777,-1.989779234,12.0554781,0.402284473,-7.844949722,-1.591592073
2.0665840000000344,-30.34100914,-0.745160282,163.524353,-2.47501874,-0.474340618,12.72472858,0.013716422,-9.631489754,-0.647835255
2.0749170000000277,-30.32034683,-0.797980309,163.5451508,0.476533204,-1.431032896,11.96328545,0.627279758,-6.948655128,-1.253688693
2.083250000000021,-30.29250336,-0.903004467,163.5784912,-1.373782635,-0.515278637,8.869785309,1.376009583,-13.14917088,-3.131852865
2.091583000000014,-30.26300812,-0.969167769,163.6101837,0.063228197,-2.14980197,11.78944588,1.715270281,-8.990674973,-0.928003967
2.0999160000000074,-30.24207306,-1.080779433,163.653717,-2.242950916,-0.378339916,12.99097729,0.582096338,-14.45047569,-2.462860107
2.1082490000000007,-30.18623352,-1.110419035,163.6599731,-1.910560489,0.693077207,12.97872734,4.829371929,-3.668343067,-1.350612998
2.116581999999994,-30.11353683,-1.186992049,163.6818695,-1.039856315,-0.269152045,8.978636742,6.751311779,-9.516150475,-2.569517851
2.1249149999999872,-29.98619461,-1.236130595,163.7032776,-0.68640095,-0.163962364,8.673125267,13.45143509,-6.606400013,-0.936636031
2.1332479999999805,-29.84452629,-1.335969806,163.7454834,-0.970365584,-0.445523918,12.21221638,15.09074783,-13.15911293,-1.813181043
2.1415810000000874,-29.63873482,-1.347462535,163.7460327,-1.800908327,1.017926216,11.00519943,22.81287766,-1.448869824,-0.834998727
2.1499140000000807,-29.4102459,-1.416749001,163.7596588,0.675003111,-0.639845669,11.55671406,25.43632507,-8.290771484,-2.899098158
2.158247000000074,-29.12772179,-1.49289,163.7986145,-2.836250067,0.934395432,7.460600853,32.14011765,-10.47111034,-0.59980917
2.1665800000000672,-28.76576614,-1.495731115,163.7830811,-2.379724264,0.665933728,10.64170361,41.36698151,0.352439582,-2.019736528
2.1749130000000605,-28.39491653,-1.539440036,163.7922516,-0.010467004,-0.590772271,9.405215263,42.65208817,-5.349747181,-1.751222491
2.1832460000000538,-27.9739933,-1.576821923,163.7821503,-1.687756062,0.304478407,13.01543236,48.46025085,-3.632080793,-3.408800602
2.191579000000047,-27.53410721,-1.643340826,163.7844696,-0.389599383,0.121793628,11.86476994,50.9141655,-7.410677433,-3.679775238
2.1999120000000403,-27.03293991,-1.652842522,163.7500458,-2.167160034,-0.193752691,7.904837608,58.00515747,0.627896369,-4.415650845
2.2082450000000335,-26.51210403,-1.733519435,163.769928,1.284570932,-1.094907641,11.65875244,60.6930542,-9.933744431,-2.440045357
2.216578000000027,-25.95147514,-1.768112898,163.7540894,-3.465992928,-0.025211871,10.7002039,65.20523834,-3.135143042,-3.760772705
2.22491100000002,-25.37336731,-1.794181466,163.7456055,1.008636594,-0.065264583,14.25038815,67.46405029,-2.596064568,-2.480057001
2.2332440000000133,-24.79216957,-1.906895995,163.7592773,-0.928742588,-0.925824404,7.517756939,67.78314972,-13.19515228,-4.469472408
2.2415770000000066,-24.16428185,-1.974001527,163.7729797,-0.261247814,-0.266714662,11.27554607,73.52662659,-8.227023125,-2.04925108
2.24991,-23.54769707,-2.10447669,163.8006897,-1.060881972,-1.024752617,11.45721531,72.09973907,-15.91353512,-3.512804031
2.258242999999993,-22.90652657,-2.15695262,163.8017426,-1.42917192,-0.47392568,11.72545242,75.06881714,-6.053185463,-2.575908422
2.2665759999999864,-22.28778267,-2.310903072,163.8274078,-0.070308991,-1.46044755,9.747267723,72.36357117,-18.48859596,-4.476135254
2.2749089999999796,-21.62078285,-2.424319267,163.8547211,-1.391137958,-0.422355562,7.695787907,78.29967499,-14.06480312,-2.259777069
2.2832420000000866,-20.97228432,-2.584408998,163.8877563,0.488373727,-1.990281105,11.14610672,75.99007416,-19.58795357,-3.502868176
2.29157500000008,-20.32968903,-2.754962444,163.9217682,-0.299007565,-0.513929367,14.92832279,75.42349243,-20.8043766,-3.612010241
2.299908000000073,-19.70637703,-2.932478666,163.9494324,-1.060582876,-1.771716714,11.91820526,72.96147919,-21.40031815,-4.390712738
2.3082410000000664,-19.05512428,-3.135322809,163.9758148,-0.427032828,0.058921296,8.730773926,76.4417572,-24.22585297,-5.305276394
2.3165740000000596,-18.42086983,-3.346455097,164.0171051,-1.634678006,-1.797060132,8.533913612,74.39163208,-25.83086967,-3.66900301
2.324907000000053,-17.74737549,-3.537400007,164.0361176,-1.564791322,-0.153804705,13.55717468,79.08010101,-22.70492554,-5.155048847
2.333240000000046,-17.10048103,-3.742311954,164.0628052,-0.007523686,-1.497931957,9.765280724,75.83439636,-24.66872025,-4.52344799
2.3415730000000394,-16.44087982,-4.022527695,164.0876007,0.766829014,-2.009250879,10.88673019,77.47694397,-33.26692963,-7.071187019
2.3499060000000327,-15.78291607,-4.20340395,164.1139984,-3.350967884,0.056440622,11.51571655,77.19169617,-21.9793644,-3.19785285
2.358239000000026,-15.13927174,-4.448577404,164.1206207,2.311043739,-2.118872404,13.71777534,75.42021179,-28.78234291,-7.286958218
2.366572000000019,-14.50400639,-4.737787724,164.166214,-2.868093967,-0.552223921,11.96945667,74.68084717,-35.19490814,-3.813624144
2.3749050000000125,-13.84262371,-4.910947323,164.1592102,-2.95152235,-0.728625894,4.123338699,77.41856384,-20.15639305,-6.109517097
2.3832380000000057,-13.16115665,-5.17509222,164.1920776,2.777119637,-1.712022066,13.33411789,80.13878632,-31.99074936,-3.789624691
2.391570999999999,-12.52432823,-5.472427845,164.1891937,-2.167933226,-1.455466866,13.58008575,74.51029205,-34.92511749,-8.474981308
2.3999039999999923,-11.87273216,-5.607603073,164.1864777,-2.957841396,-1.142055273,7.087618351,76.17815399,-16.03759384,-3.951913357
2.4082369999999855,-11.22956276,-5.956822872,164.193512,3.990229368,-1.045504332,13.44727612,75.38840485,-41.44033432,-7.775892258
2.416569999999979,-10.55463314,-6.140024662,164.1927032,-6.61850071,-0.348323822,6.771113396,79.00284576,-21.81958961,-4.453317165
2.4249030000000857,-9.890032768,-6.315324306,164.180542,2.474819899,-1.975259542,12.93824673,77.71835327,-20.6606636,-5.370772362
2.433236000000079,-9.213121414,-6.634902954,164.2039795,-1.679605722,0.36044094,10.78014755,79.57171631,-38.5330658,-3.810194969
2.4415690000000723,-8.497144699,-6.678389549,164.1765594,-3.117655993,-0.290264547,8.036693573,83.66065216,-4.868988514,-4.241179466
2.4499020000000655,-7.814270973,-6.956502438,164.2033234,1.118784547,-2.028220177,15.29428864,80.35428619,-33.74167633,-1.780969501
2.458235000000059,-7.049856186,-7.052443981,164.1909637,-2.198652267,1.34591639,7.805552483,89.67474365,-11.44129467,-3.156977177
2.466568000000052,-6.253145218,-7.175923347,164.1702576,-2.990958214,0.795001984,9.737146378,93.33080292,-14.68529415,-4.367185116
2.4749010000000453,-5.396665096,-7.304612637,164.1632843,-0.439541787,-0.130513489,8.616430283,100.8000946,-15.49595928,-2.599458933
2.4832340000000386,-4.461840153,-7.356026649,164.1210785,-1.779940248,0.452334613,12.91109943,109.5707321,-5.970613956,-5.735882282
2.491567000000032,-3.541393042,-7.393260479,164.0830841,-0.773037076,-0.153848141,10.9060812,107.9972916,-4.358537197,-5.03066206
2.499900000000025,-2.544687986,-7.447475433,164.035202,-2.294910431,0.563206434,5.273891449,116.9043045,-6.449512482,-6.233351231
2.5082330000000184,-1.452072859,-7.44652319,164.0036469,-0.844567478,1.066310167,12.70226192,128.7547607,0.028445026,-3.956202269
2.5165660000000116,-0.356641918,-7.367114544,163.9374084,-3.314786911,0.270780742,12.68618965,128.4723053,9.39422226,-7.931025982
2.524899000000005,0.748828411,-7.334107876,163.8985138,0.038187347,-0.311811745,8.185016632,130.190979,3.72829771,-4.848668098
2.533231999999998,1.973027349,-7.267195225,163.8229675,-1.644049883,-0.441267014,8.624667168,143.8019257,7.556350231,-9.378671646
2.5415649999999914,3.221941233,-7.127113342,163.7867126,-2.351658821,1.082081318,15.94442844,147.4595947,16.37794495,-5.281450748
2.5498979999999847,4.400661945,-7.032692432,163.7158051,1.441684723,-1.723546147,11.11471558,138.4520569,10.48486519,-9.37402153
2.558230999999978,5.637660027,-6.908849239,163.6649628,-2.606914759,-0.700005889,6.023013115,145.8331451,14.05772877,-7.540563107
2.566564000000085,6.906180859,-6.77650404,163.6083374,-0.185919479,-1.252282381,14.81258774,149.4717865,14.79035091,-8.637830734
2.574897000000078,8.136303902,-6.711436272,163.5544434,-0.277045071,-0.505724192,14.8322525,144.9897614,6.681917191,-7.598449707
2.5832300000000714,9.319212914,-6.551934242,163.5075836,-0.413879871,-1.538544059,11.24839306,139.2708435,17.69750404,-9.373230934
2.5915630000000647,10.4610815,-6.503391266,163.4657135,0.262951642,-1.713595629,6.391966343,134.5855255,4.663773537,-6.127253532
2.599896000000058,11.6522007,-6.37942934,163.4285889,-1.46227169,-2.003288984,10.03822708,140.3970337,13.31424332,-8.299848557
2.608229000000051,12.84213448,-6.359174252,163.3917389,-0.578978002,-1.259839654,14.5583744,140.4345856,1.224445939,-5.020760059
2.6165620000000445,13.98182964,-6.267232895,163.3652039,0.845634937,-0.407087743,17.43552589,134.4863434,9.740878105,-5.831481457
2.6248950000000377,15.04513073,-6.198112488,163.3329773,-1.566047907,-1.321582198,15.89612293,125.3071442,6.848022461,-6.008106709
2.633228000000031,16.04973602,-6.101247311,163.3548126,-0.387440026,-1.951972842,11.73559475,118.9102097,11.63865376,-0.797893465
2.6415610000000243,17.02160072,-6.064555168,163.295517,-0.907554865,-2.567550182,8.785403252,113.9992905,1.990902185,-8.244088173
2.6498940000000175,17.96391487,-5.9306674,163.3401794,-0.217460245,-3.688194752,7.58918047,111.7194901,16.66640854,0.062204868
2.6582270000000108,18.86360931,-6.00381422,163.2085266,0.646380842,-1.847172022,14.84287643,104.4501343,-13.50708389,-12.34157276
2.666560000000004,19.71981812,-5.828452587,163.2735291,-2.947395563,-1.190776706,9.760228157,101.6352386,22.16870308,0.178161517
2.6748929999999973,20.48571396,-5.906309605,163.1147919,2.891869068,-4.089075565,21.37137413,88.08579254,-15.50420666,-14.78982067
2.6832259999999906,21.15965462,-5.782923222,163.1652374,-4.452350616,-2.119283676,6.414504528,79.58018494,15.72434711,0.174728498
2.691558999999984,21.77500534,-5.768050671,163.039566,3.644455433,-3.868514061,16.2972641,70.44812775,-4.047297478,-14.82486916
2.699891999999977,22.28767586,-5.813785076,163.0070038,-3.182763577,-1.985179663,9.058347702,59.22366333,-6.801214695,-1.735523462
2.708225000000084,22.80398941,-5.627828121,162.9458923,0.270515323,-2.946010828,12.10552692,59.34797287,17.59247208,-15.50432777
2.7165580000000773,23.16015625,-5.738193035,162.8796539,-0.023468668,-3.147533417,22.07158279,40.05372238,-15.53541756,-2.299316883
2.7248910000000706,23.53978157,-5.513795853,162.8789825,-2.844249964,-1.959630847,3.219540596,43.66592407,24.4711132,-10.95615482
2.733224000000064,23.80077934,-5.57695961,162.8355103,2.048461676,-1.319110632,18.18531418,28.92360115,-9.283321381,-1.901320457
2.741557000000057,24.03457451,-5.458621502,162.8060455,-2.243240118,-3.722139597,7.351831436,25.83306694,11.33680534,-9.181276321
2.7498900000000503,24.16314697,-5.356557369,162.832016,-0.30898419,-3.486279726,19.94981194,13.83111477,12.18929291,-2.361658812
2.7582230000000436,24.2288456,-5.381987572,162.758667,1.306245446,-2.05618453,6.454353333,5.17536974,-6.591594219,-6.949809551
2.766556000000037,24.29331207,-5.132623196,162.8487091,-4.590463161,-0.602837861,7.429246426,6.842734814,31.44185066,-2.680020094
2.77488900000003,24.27626419,-5.283856869,162.7285309,4.197838306,-3.62914753,14.26668167,-5.240751743,-22.66325378,-5.832312584
2.7832220000000234,24.30615044,-4.97647953,162.8280945,-6.200211525,0.942284107,6.725617886,2.776957989,38.25656128,-4.522352695
2.7915550000000167,24.22542572,-5.031828403,162.7626648,5.421576977,-3.303444147,19.87273407,-12.26002502,-9.486105919,-4.608155251
2.79988800000001,24.17201996,-4.774936676,162.8457031,-6.457000732,-1.239409328,0.95341152,-7.428647995,31.92841911,-3.77308321
2.808221000000003,24.03508186,-4.788041115,162.7879486,4.121718407,-2.040750504,16.4379406,-18.89969826,-4.472554207,-5.872346878
2.8165539999999964,23.97016716,-4.58980751,162.8544769,-4.604200363,-0.328123182,1.580965996,-9.006047249,24.70915985,-2.600486755
2.8248869999999897,23.83047676,-4.511078358,162.8390656,2.590677738,-1.964575648,23.92900276,-18.79816437,7.672298431,-5.721504688
2.833219999999983,23.70812607,-4.357652187,162.8982239,-1.82224679,0.350800723,6.061198711,-15.99945164,19.44455719,-1.136632323
2.84155300000009,23.53862572,-4.204542637,162.9114685,1.02575922,-2.245235205,14.76698112,-22.10958481,17.24988174,-6.119040012
2.849886000000083,23.44264793,-4.142763138,162.9377441,-0.090666905,1.479934096,3.392299652,-13.14840412,7.793580532,-0.265363544
2.8582190000000764,23.34339523,-3.882849455,162.9836578,-3.659822941,-0.372463793,18.83559799,-13.41400909,30.59004784,-7.548061848
2.8665520000000697,23.21352196,-3.862798214,162.9985657,3.379225254,-0.44404453,8.694807053,-17.32139969,2.655978918,0.495930105
2.874885000000063,23.14529419,-3.533795595,163.0604401,-4.835886955,-1.176424384,7.012866974,-9.596000671,38.9896698,-8.939944267
2.8832180000000562,23.05852509,-3.54869175,163.079422,4.020186424,-0.349218518,6.865538597,-12.12590885,-1.010712266,2.600190878
2.8915510000000495,23.05558395,-3.256659269,163.1263733,-6.083926678,-1.120571733,11.0461216,-1.90549624,34.22774124,-8.760950089
2.8998840000000428,23.04416466,-3.192520857,163.2002411,3.390350819,0.268696308,15.30502129,-2.723510742,10.28748512,4.937720776
2.908217000000036,23.03882217,-2.989764929,163.2217712,-1.202985764,0.769400716,11.74569321,-2.388016462,23.18129158,-7.358922005
2.9165500000000293,22.99346161,-2.846851349,163.2950439,-0.187599704,-0.09666276,14.52753448,-6.84274292,18.95870399,1.183928728
2.9248830000000225,22.96460152,-2.643087626,163.3365021,-0.932156026,-1.866718054,1.310110927,-5.111810207,24.2322197,-5.180738449
2.933216000000016,22.98444176,-2.568444252,163.3469696,0.221561208,-1.567245722,12.5754137,0.593340993,8.477760315,-2.535348415
2.941549000000009,23.06055641,-2.370788336,163.4022675,-3.258357525,-0.668312848,9.093334198,7.534981251,24.20534897,-3.383411646
2.9498820000000023,23.05976105,-2.248823881,163.4295197,3.778164148,-0.135928199,15.99262619,-1.804651499,14.48540401,-2.920868874
2.9582149999999956,23.03586197,-2.138427973,163.427002,-3.904707432,-0.754876018,8.444638252,-4.766630173,11.85512829,-5.671171665
2.966547999999989,23.04554558,-1.899501443,163.5122528,-0.358228832,-2.414964676,11.87203407,-0.315157831,30.12639999,-2.007287025
2.974880999999982,23.01661682,-1.882497311,163.4706421,2.926128626,-0.328782409,16.01625061,-5.522660255,-0.292565852,-5.5998106
2.983214000000089,23.00274849,-1.682200432,163.5261841,-5.923947811,-0.111503616,3.050961733,-3.288485289,24.46935654,-3.46043396
2.9915470000000823,23.01101875,-1.571570516,163.5519409,4.522735119,-2.153558969,10.94254303,-0.805977583,13.21009445,-2.551843882
2.9998800000000756,23.00387955,-1.519958973,163.5245972,-1.961483836,-0.41952461,16.5272541,-2.778196812,4.162761688,-5.635055542
3.008213000000069,22.9448967,-1.410972834,163.5529175,-1.273896098,-1.208577156,11.08158493,-8.877485275,13.1479311,-2.185816526
3.016546000000062,22.90651131,-1.327419996,163.5542145,1.103613138,-1.149653316,8.598269463,-6.428738117,9.037432671,-3.956144571
3.0248790000000554,22.87056732,-1.27436769,163.5752716,-0.145446941,-0.677594066,15.17621231,-6.144240379,6.630360603,-0.358650535
3.0332120000000486,22.78582954,-1.237202048,163.5534515,-2.126828909,-1.123004556,8.229995728,-12.04819393,2.83963275,-4.33528614
3.041545000000042,22.7495575,-1.194555759,163.5861816,2.340983868,-2.028606415,9.613436699,-6.156611919,6.020049572,1.430721402
3.049878000000035,22.65504456,-1.164997458,163.5713196,-1.050986767,-1.094530106,14.45044518,-13.19635296,2.329858303,-3.20662117
3.0582110000000284,22.51662445,-1.204532146,163.5695801,-0.190933257,-1.437588334,11.94835186,-18.50370216,-4.677211761,1.42086041
3.0665440000000217,22.41793633,-1.137286067,163.572998,-1.584463239,-0.361825943,11.54547215,-13.65005875,7.357908249,-2.901529551
3.074877000000015,22.24333572,-1.17794323,163.5843811,0.319738775,-2.169559956,9.383002281,-22.813097,-4.210674286,2.908792019
3.083210000000008,22.11623383,-1.177343369,163.578186,-1.573101163,-0.071083687,13.14058685,-17.07811546,-0.469176054,-0.910586298
3.0915430000000015,21.9665184,-1.127787352,163.6345978,-2.698102474,-0.893499613,10.33882332,-19.71833038,7.834897995,3.83321023
3.0998759999999947,21.79392433,-1.149206877,163.6302948,3.530013084,-3.308836937,11.57925701,-22.532444,-2.833575964,0.284356564
3.108208999999988,21.58094978,-1.176862359,163.6539764,-1.187917948,0.106922209,13.93339443,-27.3888588,-2.25141573,3.657343626
3.1165419999999813,21.37611198,-1.171077728,163.6686249,-1.824275136,-1.432109833,8.684596062,-26.3530426,1.036365509,1.186874747
3.124875000000088,21.17931175,-1.093833089,163.7286224,-1.800956726,-0.76641643,13.28548622,-25.36097908,11.03084183,3.13458252
3.1332080000000815,20.90188408,-1.17722106,163.7214813,0.995466053,-2.928900957,11.91710472,-35.11293411,-9.90196228,2.597760677
3.1415410000000747,20.66847992,-1.124510646,163.7971802,-1.894662142,0.099132083,9.356989861,-29.71627426,8.918998718,6.036652088
3.149874000000068,20.3916111,-1.141084671,163.8100891,1.720252752,-1.709651947,12.0466156,-34.99297714,-1.575123549,1.953663826
3.1582070000000613,20.12591171,-1.177111506,163.849884,-1.432356954,0.407245547,14.70393181,-33.67783737,-2.619006872,5.767728806
3.1665400000000545,19.85802841,-1.176771283,163.8851624,-2.530561447,-0.317379326,8.760066986,-33.85851669,1.229266763,3.763157606
3.174873000000048,19.65979385,-1.07815063,163.9670105,-1.592570782,1.135635018,10.11829567,-25.4835968,14.23920918,5.033316612
3.183206000000041,19.41766548,-1.105656028,163.9694977,0.651169837,-1.757462978,16.03022003,-30.84722137,-3.266560316,1.189743638
3.1915390000000343,19.2496624,-1.057533741,164.0255585,-3.536790848,1.862218738,7.138609409,-21.92302704,7.458496571,4.225697517
3.1998720000000276,19.10002327,-0.947473705,164.0728455,1.256265283,-0.968436241,8.489907265,-19.65153122,14.07857609,0.821666598
3.208205000000021,18.95734406,-0.933893919,164.0907745,-1.188967943,-0.606042564,14.66580582,-18.97480011,2.024588108,1.295120239
3.216538000000014,18.86266136,-0.779368877,164.1515961,-1.979912758,0.788655043,13.59797668,-13.04487324,19.64944267,0.696720302
3.2248710000000074,18.7848587,-0.645587087,164.1907349,-1.007972598,0.336284339,8.264696121,-11.16501713,16.49297333,-0.943474948
3.2332040000000006,18.75181198,-0.491331905,164.2462921,-1.326519489,-0.685973644,11.23501492,-5.689615726,19.41251183,0.160178691
3.241536999999994,18.7099781,-0.354832083,164.2919769,-1.782115817,0.574615479,12.79058647,-6.866717339,17.05466843,-0.277530342
3.249869999999987,18.69838333,-0.087168626,164.3739777,0.495604455,-1.002121091,13.81917477,-3.141051292,33.31970978,-1.176181197
3.2582029999999804,18.65968323,-0.045907844,164.3730927,1.833182573,-0.640906274,8.866687775,-6.530504227,4.438140869,-1.893840075
3.2665360000000874,18.69702148,0.1900969,164.4461975,-4.162939548,0.876308024,10.43155003,2.682055712,29.38261032,-0.956666708
3.2748690000000806,18.70658302,0.286831826,164.4745636,3.296945333,-1.692062616,15.08768654,-0.7526232,11.8676281,-0.706568718
3.283202000000074,18.73062325,0.41533035,164.5228729,-3.09611392,0.868024886,5.427995205,1.064105153,16.20988083,0.345343977
3.291535000000067,18.81545258,0.563901842,164.5816803,0.342749834,0.399450213,13.87317467,8.233992577,18.93149948,0.73391217
3.2998680000000604,18.87555504,0.663538754,164.6261444,-0.799908221,-0.014545312,10.35571289,5.369321823,12.78385067,0.991873026
3.3082010000000537,18.97304153,0.800660908,164.6826172,1.150979042,-0.290693849,11.20502663,9.726381302,17.54584694,0.864006937
3.316534000000047,19.04106712,0.788222432,164.6923981,-0.002483232,-1.247066379,11.70451832,6.360795498,-1.281864285,1.400522351
3.32486700000004,19.16415215,0.949785173,164.7521057,-1.95178175,0.200584978,8.566248894,12.77790928,20.44581795,0.216350734
3.3332000000000335,19.25349045,0.985284448,164.7750549,1.925139666,-1.00089395,16.59508896,8.888895035,4.676198959,1.003399253
3.3415330000000267,19.31900597,0.946657598,164.758728,0.003511282,-0.679526031,8.380123138,6.010573387,-5.239238739,-0.525219977
3.34986600000002,19.42885971,0.988657713,164.7961273,-1.656691074,0.466526538,9.852326393,11.32314682,5.992797375,2.366153955
3.3581990000000133,19.49959183,0.906403661,164.7743073,2.353677273,-1.61511445,10.95708084,6.645113945,-10.39492321,0.612474799
3.3665320000000065,19.57772064,0.908278883,164.7978973,-2.788155317,0.05838076,11.74842072,7.547887802,0.90988183,2.39486742
3.374865,19.63668823,0.799581766,164.7740936,2.201435566,-0.741396189,14.53402328,5.233411312,-13.46204853,1.478159189
3.383197999999993,19.70778465,0.73797524,164.7666016,-2.787157059,-0.302369416,7.255406857,6.761633396,-7.509685516,1.446986675
3.3915309999999863,19.79226303,0.674380898,164.758728,1.913914442,-0.897349,12.60358429,8.265753746,-7.719644547,1.481540322
3.3998639999999796,19.84088707,0.534641027,164.7262878,-2.609134197,-0.416818231,11.50631237,4.092015743,-17.34099579,1.825181365
3.4081970000000865,19.91423035,0.515175641,164.747345,0.218308493,-0.819758892,12.94908714,6.893239498,-1.553682804,2.961121082
3.41653000000008,19.9277153,0.341896147,164.6885071,1.637517214,-1.143122911,11.47379684,-0.10886053,-22.20037842,0.252774179
3.424863000000073,19.97121429,0.226908013,164.6734924,-1.486283898,0.270231336,7.370949268,3.342158318,-13.80141163,2.805949926
3.4331960000000663,20.03697205,0.140386149,164.6390686,-1.702924371,-0.327958435,11.86863518,6.121508598,-11.41419125,-0.527397156
3.4415290000000596,20.07272148,0.048727427,164.6264191,-1.020917892,-0.655089915,11.55546856,2.406624079,-11.06939602,2.136265755
3.449862000000053,20.11374283,-0.035473656,164.584671,-0.812071264,-0.345122844,13.61522865,3.141061306,-11.45486641,-1.430683374
3.458195000000046,20.1511116,-0.144661874,164.5631409,-0.638287306,0.138033643,7.761877537,2.593377829,-13.40792656,1.875103116
3.4665280000000394,20.21887016,-0.166098699,164.5423737,-0.525649428,-0.690460205,11.20220947,6.344966412,-3.519114256,-1.649838567
3.4748610000000326,20.23843193,-0.290225178,164.5204315,-1.091124773,-0.662570179,13.78274822,0.450387955,-15.1039238,2.472529888
3.483194000000026,20.29129791,-0.227647811,164.5318451,-2.906419992,0.114291325,11.16269207,4.570949554,7.274224758,-1.516004086
3.491527000000019,20.32213974,-0.268546939,164.5324097,0.371859819,-0.336527109,12.02445507,1.816676855,-4.797034264,1.55879271
3.4998600000000124,20.36907959,-0.270559072,164.5286102,-1.920937657,0.139841229,10.03150845,3.849781036,-0.629700363,-0.541587353
3.5081930000000057,20.42469025,-0.244373843,164.5545502,-0.461647719,-0.55702424,11.31479836,4.801836491,3.813229322,1.612659335
3.516525999999999,20.45308113,-0.228433952,164.5542297,-0.19708398,-0.970055819,9.257278442,1.628156066,1.533101559,-0.901697993
3.524858999999992,20.49601936,-0.185235724,164.5716553,-1.437704682,-0.003643137,13.66163731,3.275202751,5.369576454,-0.064471029
3.5331919999999855,20.5191555,-0.131541014,164.578125,-1.233273029,-0.092478156,11.70607376,0.998353183,6.062031269,-1.727987647
3.5415249999999787,20.5627079,-0.023613887,164.6196594,-2.301301003,0.06518802,10.94689846,3.34692359,13.65919209,-0.084142782
3.5498580000000857,20.58474159,-0.020509139,164.6225739,1.49336338,-0.750569284,10.61359596,0.865645945,0.224188611,-0.003150551
3.558191000000079,20.64933205,0.116253741,164.6733246,-3.385912418,0.806038558,7.614098072,5.859526634,17.28790855,-0.28698194
3.566524000000072,20.66451454,0.187939823,164.6973572,2.613552809,-1.993869424,17.43112373,0.036743619,8.819685936,-0.53579855
3.5748570000000655,20.65034676,0.25078851,164.7046661,-3.009721279,0.115473032,11.08581638,-3.588784695,7.148612499,-2.048344612
3.5831900000000587,20.68229675,0.414962798,164.7757721,-0.35959208,0.516767204,7.477032661,2.007426739,21.19848824,0.832757533
3.591523000000052,20.69866562,0.456725091,164.7650452,-0.058645491,-0.764077067,9.75359726,0.089227185,4.016503811,-3.180698872
3.5998560000000452,20.71649361,0.575485528,164.8264618,-1.755842209,-0.051798832,14.21330166,0.292373717,15.69160366,1.655025601
3.6081890000000385,20.71121788,0.672471523,164.8259888,0.67305845,-0.478496939,11.81020546,-2.518135786,10.64700603,-4.378805161
3.6165220000000318,20.71169853,0.773771465,164.867569,-1.310016155,-0.005051702,7.875152588,-1.783417106,12.89160824,0.171295226
3.624855000000025,20.7285614,0.860691965,164.8652802,0.447341681,-0.024497902,13.58168221,0.142658487,9.440524101,-4.155858517
3.6331880000000183,20.73352051,0.941636384,164.8977203,-2.27519083,0.180452585,10.71551037,-1.244109154,10.21822357,0.003214587
3.6415210000000116,20.75404549,1.095358849,164.918396,-0.145009175,-0.141112223,12.43826866,0.532635331,17.91217995,-4.421120644
3.649854000000005,20.75786591,1.12724483,164.9270935,0.072929099,-0.362496585,11.03506184,-1.337805748,3.704061508,-0.577959597
3.658186999999998,20.80268288,1.293563366,164.9586334,-1.829681039,0.714844108,6.7739048,3.41223979,19.78558159,-3.751487494
3.6665199999999913,20.82183456,1.361897469,164.9721222,1.196833253,-0.723814011,15.80341434,0.483250946,7.995008945,-1.599045396
3.6748529999999846,20.81911469,1.406894326,164.9635162,-0.983276188,-0.462935656,10.02652454,-2.188480377,4.46296072,-3.093277454
3.683185999999978,20.85244179,1.580307484,165.0125122,-2.232742071,0.760478556,11.11904144,2.069054842,21.29733849,-2.104466438
3.691519000000085,20.847435,1.604584098,165.0020294,2.215192795,-0.984064639,12.80408287,-2.450872421,2.057399273,-2.42031455
3.699852000000078,20.87316704,1.681416273,165.013443,-3.227540731,1.118055105,4.58555603,1.271221876,8.862437248,-2.201108456
3.7081850000000713,20.93659019,1.803497195,165.053833,1.414718509,-0.132466406,12.97241497,5.579126835,15.1964798,-0.910765529
3.7165180000000646,20.92698479,1.802254319,165.0234833,-0.538192689,-0.930735826,15.68063545,-2.818718672,-1.680345178,-3.543345451
3.724851000000058,20.94482994,1.91683495,165.0665131,-1.480040789,0.561601281,8.839504242,0.088561229,14.46870041,-0.302248001
3.733184000000051,20.97757149,1.99799943,165.065918,-0.19265981,-0.225172862,9.945901871,2.153913736,8.830136299,-3.744493723
3.7415170000000444,20.97895622,2.026278019,165.073822,0.212403774,-0.567680776,11.66413689,-1.754242063,3.290545225,-0.540229797
3.7498500000000377,20.97757149,2.094966412,165.0770111,-1.354810596,-0.210861191,11.23189831,-1.956210375,7.594940662,-2.79046607
3.758183000000031,20.94381523,2.110902309,165.073761,1.000221968,-0.894629061,10.80542088,-5.923036575,1.429108024,-1.256096721
3.766516000000024,20.87626457,2.153016806,165.0595398,-1.474137783,-1.355081201,11.24025345,-9.820703506,3.873833179,-3.593370199
3.7748490000000174,20.77886581,2.202045441,165.059906,-0.819488645,-0.833075643,15.40394402,-13.57610893,5.296832085,-2.260686874
3.7831820000000107,20.62771034,2.229212046,165.0291901,0.218402892,-1.079593778,10.04359913,-19.77532005,1.510868907,-4.796292305
3.791515000000004,20.45601654,2.253258705,165.0147552,-0.812832594,-1.465851665,9.384901047,-22.42381287,1.877229452,-2.841362715
3.7998479999999972,20.2148838,2.250577688,164.9791565,-0.429550916,-2.031970739,13.32562447,-30.54728127,-2.020324469,-4.087036133
3.8081809999999905,19.91425514,2.290014744,164.9697266,-0.850453436,-1.270236135,12.78987598,-37.92103195,3.83974576,-2.89292717
3.8165139999999838,19.52587891,2.263726234,164.9224091,1.644594908,-2.417909622,13.17108822,-48.16172791,-5.119604588,-4.473638058
3.824846999999977,19.07621384,2.244636059,164.8875427,-2.352779388,-1.425415039,9.41724205,-55.68854141,-3.761486053,-3.397276402
3.833180000000084,18.58987045,2.273595095,164.8698425,-0.563071191,-1.324992657,11.47825909,-60.05820084,2.369695902,-3.328913689
3.8415130000000772,18.03085136,2.265767097,164.8365479,-0.688814044,-2.056513548,11.8090601,-68.82009888,-2.361616373,-3.701707363
3.8498460000000705,17.41025162,2.284387827,164.8074646,-0.326138884,-1.833585501,14.85355282,-76.114151,0.831813633,-4.200755596
3.8581790000000638,16.69547272,2.277835131,164.7696838,-1.086578965,-1.057550311,12.30341148,-87.4912262,-2.297074318,-4.307446957
3.866512000000057,15.96196461,2.275202513,164.749115,-0.255590349,-1.426280141,9.143199921,-89.70429993,-1.229876161,-2.478143692
3.8748450000000503,15.16743374,2.291161299,164.7189026,-1.19599092,-1.142870307,9.020508766,-97.09804535,0.65459007,-4.211732864
3.8831780000000435,14.31164742,2.304259539,164.6976471,0.189623863,-1.456943631,15.49781418,-104.3786545,0.638556182,-3.064337254
3.891511000000037,13.39840889,2.292922497,164.6458435,-0.588635862,-1.028437853,12.06522369,-111.2401581,-3.025176764,-5.912086964
3.89984400000003,12.47228527,2.378546715,164.6369171,-2.417660952,-1.047095776,9.200120926,-112.8773041,9.540706635,-3.545332193
3.9081770000000233,11.47020721,2.406959057,164.5841522,-0.24520117,-0.720947087,12.83986187,-121.8877487,1.805840135,-7.103433132
3.9165100000000166,10.4370575,2.446675777,164.5580902,-1.689181089,-1.268239617,12.67661572,-125.6355362,3.852421761,-4.174512386
3.92484300000001,9.347359657,2.552168846,164.5039368,-0.666470468,-0.556858778,10.85160637,-132.3841095,11.13794899,-8.779467583
3.933176000000003,8.205269814,2.635098219,164.4648743,-1.867310524,-1.14397645,12.47524929,-138.6317291,8.887022972,-6.34431839
3.9415089999999964,7.039096832,2.794210672,164.4123077,-1.196067929,-0.487140685,7.665325642,-141.5464478,17.86997604,-8.987939835
3.9498419999999896,5.842544556,2.968351126,164.371048,0.005133675,-1.502135038,14.83255196,-145.1339874,19.97626686,-7.458545208
3.958174999999983,4.559218407,3.074235201,164.3138123,-1.496598721,0.41831851,14.5840559,-155.5448303,11.81521702,-8.191788673
3.96650800000009,3.291415215,3.310017824,164.2982025,-1.692910552,-0.242177859,5.782177448,-153.7667542,27.78019714,-5.220652103
3.974841000000083,1.966636658,3.414949179,164.232193,3.081573248,-1.204437375,11.82582378,-160.4165344,11.99783993,-8.687162399
3.9831740000000764,0.588173747,3.57405138,164.1910553,-3.088991404,-0.697432697,15.80610657,-166.8448029,18.71715736,-6.819087505
3.9915070000000696,-0.81675756,3.775671005,164.1273499,0.868320525,-0.322674304,10.28054714,-170.0112457,23.99210739,-7.789618969
3.999840000000063,-2.241632938,3.844777584,164.0733795,0.047856908,0.009662978,9.793674469,-172.2891693,8.25966835,-7.592899323
4.008173000000056,-3.668780327,3.993012667,164.0226746,-2.603546381,1.67675674,11.70904541,-172.7510834,17.86011505,-5.354055405
4.016506000000049,-5.116727829,4.178411007,163.9484558,0.370825231,-0.586752474,13.2196703,-174.8435059,22.72927475,-8.644324303
4.024839000000043,-6.62133503,4.192290783,163.882019,2.414976597,0.264467895,10.7625761,-181.8817596,2.252235889,-7.948022366
4.033172000000036,-8.028196335,4.353466511,163.7894287,-4.081546783,2.839247942,8.440393448,-169.7248993,20.52164078,-9.941422462
4.041505000000029,-9.432301521,4.490582943,163.7059174,0.258610576,0.801409483,12.31591892,-169.6296082,17.56212044,-7.584134579
4.0498380000000225,-10.85033321,4.530360222,163.6215973,0.339693606,0.663461208,13.82492065,-171.1011047,6.453380108,-10.45905209
4.058171000000016,-12.22294521,4.637259007,163.5282593,0.188925281,1.555271864,8.30805397,-165.7268677,14.58380604,-8.582284927
4.066504000000009,-13.56723309,4.700688839,163.4363251,-0.52033782,1.746323586,12.14103603,-162.1534424,9.901324272,-10.34785461
4.074837000000002,-14.86686802,4.726944923,163.371994,-1.70322001,2.397089481,11.66673088,-157.2295532,4.72609663,-6.890431404
4.0831699999999955,-16.1333313,4.85500288,163.252594,0.390610516,0.728470266,8.568476677,-152.6129303,18.39712906,-9.858664513
4.091502999999989,-17.37680626,4.813960552,163.2018738,1.720380425,1.49783504,13.71747875,-150.6100464,-3.184912205,-7.43665266
4.099835999999982,-18.51362419,4.849310398,163.128479,-1.778949857,3.770699263,5.84842968,-137.5139313,6.514334202,-7.2442379
4.108169000000089,-19.59739113,4.874548435,163.0588531,1.196414113,0.96253407,12.00397396,-131.24646,5.362998962,-7.088719845
4.116502000000082,-20.63840675,4.796118259,163.0273285,0.113843441,2.947351694,13.94377613,-126.4459305,-7.764526844,-6.984305859
4.1248350000000755,-21.54777908,4.861122131,162.9509583,-2.739060879,4.077644348,6.623663902,-110.2534332,10.34581661,-5.922280312
4.133168000000069,-22.39558601,4.73431015,162.9513702,2.315471649,2.218629837,14.32710648,-103.589386,-14.35461235,-5.855137825
4.141501000000062,-23.14139557,4.717830658,162.915802,-2.558870554,2.968506336,7.701737404,-91.04543304,-0.393821746,-4.896196842
4.149834000000055,-23.81710052,4.662863255,162.8868713,2.359998703,2.346507072,12.34449577,-82.65429688,-4.894423485,-6.010057926
4.158167000000049,-24.39810562,4.544528961,162.8956299,-2.404940844,3.107844114,8.103335381,-71.70027924,-13.60519218,-5.052534103
4.166500000000042,-24.86725616,4.574884892,162.8445129,-0.710501432,2.399867535,9.906579971,-57.66626358,5.636441708,-4.250361919
4.174833000000035,-25.30370903,4.425872326,162.8774719,0.753343642,1.856077671,15.39315224,-54.57927704,-18.08247185,-4.218625546
4.183166000000028,-25.64321899,4.407716274,162.8644714,-0.889312029,2.041253567,6.176597595,-42.48381424,-1.519387603,-2.549260855
4.191499000000022,-25.91090775,4.321674824,162.8639832,-0.049055349,2.015150547,11.30283451,-34.00841522,-9.488650322,-4.752854347
4.199832000000015,-26.13179588,4.249682903,162.8865509,-1.573834062,1.887131333,12.27780819,-28.57743645,-9.168646812,-1.572817564
4.208165000000008,-26.30161476,4.24145174,162.8516083,-1.692152858,1.23466754,12.30489922,-21.95653152,0.743261456,-4.395711899
4.216498000000001,-26.43729401,4.160394192,162.8832703,0.509205043,0.758343756,12.11141777,-18.43310928,-10.6186657,-1.136657715
4.224830999999995,-26.51932144,4.115116596,162.8683624,-1.786336184,1.1358881,7.810400009,-11.60102177,-4.284007072,-4.228808403
4.233163999999988,-26.56954956,4.093803406,162.8727112,-0.132053331,0.862119794,12.21913624,-7.943128586,-2.741133213,-0.890197217
4.241496999999981,-26.62166023,4.031690598,162.8600922,-0.436424971,0.107187547,13.23729324,-8.033084869,-6.206687927,-4.893778801
4.249830000000088,-26.64498138,4.008605957,162.8714752,-1.209256172,0.949303627,11.80279827,-4.778104782,-3.307386637,-0.234242141
4.258163000000081,-26.64760208,3.992178917,162.8467865,-0.361028343,0.550940454,10.61472225,-1.994452596,-0.652727544,-3.73363328
4.266496000000075,-26.63794899,3.976233006,162.8629761,-1.049179912,0.063045219,11.09074783,-0.864711046,-2.799610376,0.661116242
4.274829000000068,-26.61017609,3.967037916,162.8542633,-0.729295075,0.215179786,11.65074539,1.518936872,-0.735820055,-1.636288524
4.283162000000061,-26.5860672,3.967154503,162.865036,-0.295834422,0.238761902,13.05706406,0.906526327,-0.785486102,0.949173927
4.2914950000000545,-26.58066559,3.961939573,162.8547363,-0.757418394,-1.042782903,12.23887825,-1.151026845,-0.224226996,-1.594050646
4.299828000000048,-26.58196259,3.974878073,162.8547974,-1.671127915,0.375147134,11.36749458,-2.057386637,1.164768934,0.491626829
4.308161000000041,-26.57727814,3.990510702,162.838028,-0.607707739,-0.129015118,11.54149914,-1.183966875,2.359135151,-1.166011333
4.316494000000034,-26.58572197,4.010608196,162.8323822,-0.655640125,-0.551184058,11.84644413,-2.869716406,2.238799334,0.264146775
4.3248270000000275,-26.60686874,4.023127079,162.8228302,-0.73390913,-0.297398984,12.6164217,-4.344584465,1.637812614,-0.557288885
4.333160000000021,-26.63501358,4.036534309,162.8236847,-0.81100744,-0.425239921,12.93148422,-5.292849064,1.173016667,0.597925901
4.341493000000014,-26.68011284,4.049770832,162.8193817,-0.235945761,-0.54454565,11.1408205,-7.261379719,1.433641672,0.04406929
4.349826000000007,-26.73578262,4.091642857,162.7928925,-1.626407862,-0.429527164,10.92759705,-8.36883831,5.693724632,-0.786254644
4.358159000000001,-26.80419922,4.099770546,162.791626,0.322018206,-0.717871487,13.541749,-10.0869379,0.722974658,0.092659496
4.366491999999994,-26.87871742,4.124177933,162.7709656,-2.056310415,0.261035085,11.5505228,-10.68336582,3.510187864,-1.093907356
4.374824999999987,-26.9595623,4.185446739,162.7475128,-0.400915504,0.073712632,11.9940815,-11.38550472,7.608928204,0.617162287
4.38315799999998,-27.04383659,4.19013834,162.7336578,-0.124285087,-0.830175817,11.82435989,-11.91454029,1.035801411,-1.436344028
4.391491000000087,-27.12963867,4.20249033,162.7465363,-1.120568752,-0.293662965,10.07958698,-12.29711342,0.400260895,1.839345574
4.399824000000081,-27.21747398,4.264844894,162.7036743,-1.552895308,0.165922716,11.47523403,-12.08436394,8.779474258,-1.358886838
4.408157000000074,-27.31873703,4.296886444,162.6993408,0.614807487,-0.964373648,14.15429592,-14.00010014,3.437776327,1.091025591
4.416490000000067,-27.43448067,4.289923668,162.6880035,-0.387630641,0.035165172,10.14023685,-15.71653843,-0.335623384,-1.80198729
4.42482300000006,-27.52758598,4.340883255,162.6754303,-2.004402876,0.631529689,10.24138546,-12.94643497,5.900969982,1.279418349
4.433156000000054,-27.61662292,4.367221832,162.6567688,0.055786591,-0.613815606,14.2447691,-12.45121002,3.618177891,-0.731004775
4.441489000000047,-27.71621704,4.366145134,162.6759186,-0.722819567,-0.125287697,11.16956806,-14.01390934,-1.395976186,1.759839177
4.44982200000004,-27.79750061,4.393456459,162.6602783,-1.106732249,0.326559246,9.578163147,-11.54917908,3.554423571,-0.345433652
4.458155000000033,-27.86729431,4.41620779,162.6646729,-0.400760204,-0.486871541,12.2342205,-10.30368519,1.95161283,1.531513691
4.466488000000027,-27.95376205,4.416526794,162.6488953,0.238852859,-0.365826845,11.81910896,-12.17385674,0.699870527,-1.864229679
4.47482100000002,-28.04348755,4.428511143,162.6495819,-1.67694509,-0.174681485,11.26686954,-12.66122246,1.015643001,0.537758231
4.483154000000013,-28.12486267,4.420026302,162.6443939,-0.110433631,0.095599987,13.60652637,-11.66308498,-0.824189305,-1.240395188
4.4914870000000064,-28.2115612,4.428824425,162.6458282,-2.002502918,-0.295229495,10.67914963,-12.30433559,0.632197797,0.4416022
4.49982,-28.29367828,4.448345184,162.6288452,-0.110771313,-0.420906663,11.52653027,-11.64592361,2.808562994,-0.896933854
4.508152999999993,-28.36468887,4.421096802,162.6460266,-0.241545066,-0.377552956,10.73507023,-10.56707668,-4.070793629,0.04844933
4.516485999999986,-28.41532516,4.414241791,162.6454315,-1.104992628,0.487300158,8.709219933,-8.028194427,-0.904822946,-0.66947943
4.5248189999999795,-28.44881248,4.454500675,162.6248627,-1.277966499,-0.375726253,13.55049992,-5.715100288,5.201342583,-0.0710539
4.5331520000000864,-28.51628304,4.419156551,162.6374512,0.238955274,-0.760463476,14.49029636,-10.16772556,-4.662611008,-0.915785909
4.54148500000008,-28.57373428,4.430657387,162.6316376,-1.85857892,0.089422524,8.834211349,-8.728128433,1.327521801,-0.159090027
4.549818000000073,-28.5985527,4.465565681,162.6108398,-0.865460157,-0.121181861,11.5161972,-4.748468876,4.651941776,-0.396508306
4.558151000000066,-28.63869476,4.453524113,162.6128845,0.780498624,-0.479300141,13.70653725,-6.723556995,-1.60240078,-0.685129523
4.5664840000000595,-28.66972923,4.460139751,162.61409,-2.152420044,-0.227723464,9.799495697,-5.700858116,0.412888706,0.290401399
4.574817000000053,-28.67765236,4.497135639,162.6030579,-1.103372812,0.155373871,11.42762184,-2.733627796,4.309889317,0.763214529
4.583150000000046,-28.69308472,4.528617382,162.5950623,-0.736345828,-0.792087555,10.75487328,-3.744698524,3.557855129,0.757707417
4.591483000000039,-28.71413231,4.582392216,162.5706329,-0.758759737,-0.548430502,12.34016705,-4.179347515,6.845520973,0.326389462
4.5998160000000325,-28.74689674,4.5787673,162.5718689,0.295829892,-0.728336275,12.88767338,-5.916656971,-0.668198466,-0.295690686
4.608149000000026,-28.76929665,4.619307518,162.5496063,-2.28343153,-0.055662535,7.986744404,-4.35954237,5.328797817,-0.202326834
4.616482000000019,-28.77325058,4.690230846,162.5134583,0.310126364,-0.583798409,12.83966446,-2.098497629,9.324159622,0.091148272
4.624815000000012,-28.81031799,4.680783749,162.5209503,-1.028720379,-0.775138795,11.99815655,-6.408297062,-1.643025041,0.029827777
4.633148000000006,-28.82303238,4.766848564,162.4862518,-2.393718958,-0.091134056,8.223121643,-3.163383722,10.83263111,1.127115965
4.641480999999999,-28.83114433,4.82712841,162.4541016,0.269355774,-0.744428694,13.40447235,-2.53580904,7.974005222,-0.09131474
4.649813999999992,-28.86953354,4.856664181,162.4421082,-0.179033101,-0.625725389,11.73516369,-6.468465805,3.58229208,0.235510096
4.658146999999985,-28.89018822,4.911108017,162.4062958,-0.843283892,-0.426327914,10.69212723,-4.000200748,7.570197582,-0.798856795
4.666479999999979,-28.90846443,4.930954933,162.4002838,-0.87842983,-0.479247093,11.83654881,-4.116592407,2.217232227,0.301671654
4.674813000000086,-28.92773056,5.025071621,162.3447571,-1.762925506,-0.833933771,11.36219692,-3.620213747,12.87800694,-0.557007194
4.683146000000079,-28.95166588,5.092547417,162.3084869,-0.431022674,0.115207724,13.57751656,-4.477496147,8.967504501,-0.093005285
4.691479000000072,-28.98459816,5.110228062,162.2932434,-0.217921779,-1.009402037,9.160424232,-5.676627159,2.521478176,-0.77506125
4.699812000000065,-28.99517822,5.196784019,162.2495575,-2.306574106,0.009872194,11.72455215,-2.791618824,11.40188408,0.247984275
4.708145000000059,-29.02397728,5.233382702,162.2314911,1.483911872,-0.796899974,13.13445473,-5.145131588,4.670025349,0.031364631
4.716478000000052,-29.05810738,5.26773262,162.2110596,-1.04010129,-1.060334802,7.277486801,-5.869860649,4.57625246,-0.350274682
4.724811000000045,-29.07753372,5.34397316,162.1760712,-0.944608629,-0.500480294,12.68027687,-3.827740431,9.810573578,0.58004725
4.733144000000038,-29.10871315,5.352196693,162.170105,0.088529602,-0.77937448,13.960392,-5.674552441,0.992923081,-0.3598544
4.741477000000032,-29.12751961,5.428708076,162.1318512,-2.203359365,0.340355456,8.248420715,-3.711068153,10.02929497,0.264095634
4.749810000000025,-29.13580894,5.45846796,162.1196442,1.504466891,-1.385397196,12.18801594,-2.858907461,3.61520648,0.245089814
4.758143000000018,-29.1591568,5.446404934,162.1311951,-1.140068769,-0.862461805,12.76785946,-4.820855141,-2.154413223,0.292040706
4.7664760000000115,-29.18477631,5.516736507,162.0957184,-1.915566325,-0.378643751,12.10837269,-4.670602322,9.222880363,0.193682045
4.774809000000005,-29.20565033,5.528770447,162.0927124,0.161460668,-0.327913642,11.83888054,-4.357391357,1.219967604,0.182130039
4.783141999999998,-29.21829224,5.543320656,162.0746613,-0.698249936,-0.541296005,7.487084389,-3.312228441,2.362285852,-1.248258591
4.791474999999991,-29.22056389,5.563711166,162.0610199,0.352602512,-0.900411487,14.03018475,-2.00039506,2.714686394,-0.437516779
4.7998079999999845,-29.25458527,5.514589787,162.0825195,0.054023713,-1.418166399,12.87914085,-6.341496944,-6.608166695,-0.856719494
4.808140999999978,-29.27188683,5.565191269,162.0582123,-3.497430563,0.158585131,7.151298046,-3.680305004,6.498754978,0.22516194
4.816474000000085,-29.26755524,5.600619793,162.0302429,0.186560243,-0.647160411,13.56541824,-1.162194729,5.129468441,-1.053923368
4.824807000000078,-29.28837395,5.604918957,162.0283051,-0.648020029,-0.5679757,11.26835918,-4.362206936,0.34603554,-0.159141243
4.833140000000071,-29.28300285,5.628496647,162.0151215,-0.345178187,-0.339655846,9.887699127,-1.212398648,3.027026415,-0.209421992
4.8414730000000645,-29.278965,5.616502762,162.0312195,-0.604751348,-1.218720913,12.08840561,-1.591873527,-2.413014412,0.763368309
4.849806000000058,-29.27511406,5.658828735,162.015976,-1.865402937,-0.777066231,10.8738842,-1.370822668,5.110744476,0.675767481
4.858139000000051,-29.27609253,5.727315903,161.9844513,-0.257659256,-0.957940936,12.3306303,-1.628962874,8.792022705,0.528101563
4.866472000000044,-29.30649185,5.68051815,162.0107269,1.856187105,-1.827553988,9.326340675,-5.975263596,-6.642155647,-0.232295513
4.874805000000038,-29.31928062,5.6886549,162.0098419,-1.294740558,-1.032641053,9.564291,-3.410561323,0.685424149,0.176827908
4.883138000000031,-29.33738136,5.665527821,162.0285034,-0.185868993,-1.102342129,14.43867302,-4.408005238,-3.719289541,0.364810765
4.891471000000024,-29.36942863,5.682206154,162.0166473,-2.618217945,-0.0730891,9.731503487,-5.591254711,2.221253633,-0.463131011
4.899804000000017,-29.37564659,5.717083931,162.0013733,0.242709368,-1.33949697,10.82946301,-2.579763412,4.331969261,0.245602101
4.908137000000011,-29.40515709,5.633996964,162.0318451,1.1755476,-0.844383836,13.90247822,-5.789559841,-10.6895895,-1.934489489
4.916470000000004,-29.42203712,5.640715599,162.0331879,-2.58538866,-0.610168815,9.621150017,-4.058395863,0.416064858,0.318013549
4.924802999999997,-29.43450546,5.61701107,162.0376129,-0.704302132,-0.415951073,11.88012028,-3.434407949,-2.953372478,-1.145186901
4.93313599999999,-29.44826126,5.61139822,162.0559998,-1.212419987,-0.769536376,9.371498108,-3.883451462,-1.873117924,1.358361483
4.941468999999984,-29.47145462,5.592302322,162.0507813,1.179876685,-1.497709513,13.20480537,-4.609717369,-1.906108975,-1.877011299
4.949801999999977,-29.51306343,5.48278141,162.1165161,1.282976627,-1.665813684,10.11804771,-7.772693157,-15.51157665,0.14591153
4.958135000000084,-29.53182983,5.480080128,162.1091156,-3.912437201,0.522069275,8.554392815,-4.053120136,-0.063523307,-1.139603019
4.966468000000077,-29.55056763,5.43386364,162.1449127,0.025099957,-1.804800391,13.70861149,-4.674136639,-7.139839649,0.766774952
4.97480100000007,-29.58950043,5.393395901,162.1535187,-0.595217168,-0.938310325,10.4360342,-6.656549931,-4.948465347,-1.710339308
4.983134000000064,-29.62145233,5.364442825,162.1694489,0.030770026,-1.104072213,12.54310608,-6.03102541,-4.167205811,-0.28175658
4.991467000000057,-29.656353,5.267277718,162.2103882,-0.334613293,-0.999973834,9.073680878,-6.530400753,-12.76974773,-1.724196792
4.99980000000005,-29.65650749,5.281829357,162.206665,-3.436076164,0.067746848,10.88777924,-1.996347785,1.530027866,0.261841506
5.0081330000000435,-29.68921661,5.218286991,162.2404633,0.726168692,-1.350332499,12.79338551,-6.182765484,-8.841035843,-0.475784481
5.016466000000037,-29.7109108,5.195547581,162.2552338,-0.449592322,-1.451421618,8.48700428,-4.78345871,-3.450647116,-0.037909068
5.02479900000003,-29.72852898,5.150772095,162.2642517,0.751948237,-0.943033516,15.18426132,-4.099610329,-5.41733408,-1.936513186
5.033132000000023,-29.76585197,5.070889473,162.3091278,-2.061066628,-0.469712794,7.881607533,-6.979393959,-11.19042492,-0.315797925
5.0414650000000165,-29.7518158,5.112244129,162.2726593,-2.282980204,-0.697339535,9.682126045,0.187047943,6.254317284,-1.530758023
5.04979800000001,-29.76879311,5.046836376,162.3144836,0.891825318,-1.541600466,13.82893562,-4.498167038,-9.502293587,0.226109684
5.058131000000003,-29.79296875,5.050961018,162.2968292,-1.18242085,-1.160075784,10.98712349,-4.60064888,1.260335565,-1.795019865
5.066463999999996,-29.81048393,5.01454258,162.3248901,0.905255854,-1.848754406,12.83405685,-4.420197487,-5.665613174,0.520289183
5.07479699999999,-29.82937622,4.961857796,162.3409576,-2.945833921,-0.033477042,8.89426899,-4.320328236,-6.657140255,-1.685724378
5.083129999999983,-29.83958435,5.021947384,162.3266907,-1.368246078,-1.316243172,13.76267815,-3.097171307,6.89513588,1.889677763
5.09146300000009,-29.88764191,4.928376198,162.3718262,1.288200259,-1.725499749,9.658902168,-8.123044014,-12.64008999,-1.121545076
5.099796000000083,-29.90423203,4.965105534,162.3611755,-1.931752324,0.108698234,9.201706886,-3.90217495,4.247954845,0.878376186
5.108129000000076,-29.93245125,4.890183449,162.3905029,1.583302498,-2.498887539,15.09028816,-5.577141285,-9.757538795,-1.655268669
5.11646200000007,-29.96197128,4.882731915,162.402832,-4.147500992,0.382694781,7.576088905,-5.690048695,-1.716742992,0.614626408
5.124795000000063,-29.96992111,4.899046421,162.3843536,0.658514202,-1.207685709,11.75131989,-2.650637865,2.583336115,-1.146467447
5.133128000000056,-30.00387383,4.83209753,162.4214935,-0.587816238,-1.919117451,11.47079849,-6.474203587,-9.384851456,-0.387056768
5.141461000000049,-30.02840042,4.875652313,162.3818817,-1.142659187,-0.034560174,13.29948425,-4.428009987,6.676465034,-1.694074273
5.149794000000043,-30.06026459,4.809794903,162.4064941,0.26512298,-2.368417025,10.85723972,-6.09585619,-8.520270348,-1.627375245
5.158127000000036,-30.06657219,4.82182312,162.384079,-3.127671242,0.124133699,7.368408203,-2.41782999,2.374324322,-1.805239916
5.166460000000029,-30.08249283,4.810589314,162.3832092,0.509047925,-1.59217608,14.77466583,-3.924895287,-1.322821617,-0.981050909
5.174793000000022,-30.1213131,4.759557724,162.3968506,-0.634484351,-1.542537332,7.955564976,-6.682549953,-6.331429482,-1.871350646
5.183126000000016,-30.1346817,4.821967602,162.3517456,-1.398953795,-0.250465482,12.39777088,-3.175755501,8.977162361,-1.123030543
5.191459000000009,-30.18224335,4.736543655,162.3768005,1.093258858,-2.247501612,11.23113346,-7.844974995,-10.58516121,-2.767695189
5.199792000000002,-30.1938591,4.762607574,162.3548584,-3.370522261,-0.175612569,8.166514397,-3.201190233,3.815893173,-0.912225366
5.2081249999999955,-30.21974564,4.720913887,162.3577881,2.030287027,-1.665211558,12.63990116,-5.022464275,-4.717911243,-2.422133207
5.216457999999989,-30.24724388,4.714370728,162.3472443,-2.46711731,-0.987562299,10.56401253,-5.221231461,-0.248688638,-1.701963425
5.224790999999982,-30.26049423,4.743958473,162.3093414,-0.315828413,-0.720849335,13.85443401,-3.101320267,5.133951187,-2.336223125
5.233124000000089,-30.28573608,4.652810097,162.3493347,0.245512143,-1.44343555,8.613853455,-5.445509911,-12.06392193,-1.601632595
5.241457000000082,-30.26630974,4.663097858,162.3337097,-1.934886694,-0.822627664,9.866024017,0.597413599,1.789576888,-1.200872183
5.2497900000000755,-30.26992607,4.604135036,162.3644409,0.188085809,-0.97757858,13.58344555,-2.75506711,-8.171172142,-0.606698811
5.258123000000069,-30.2607975,4.61525774,162.3522034,-1.717383623,-0.859056771,6.9539814,-0.672450483,1.673211455,-0.801879227
5.266456000000062,-30.23937607,4.596168995,162.3551483,0.511243701,-1.198302507,15.16573143,0.517932594,-2.364116907,-1.065731406
5.274789000000055,-30.24514389,4.482450008,162.4037476,0.649694681,-1.590510726,9.119761467,-3.039564848,-14.93276978,-2.061510801
5.2831220000000485,-30.2069664,4.481738091,162.3936768,-2.371572733,-1.643069863,8.117049217,2.652213097,0.326005191,-1.299999237
5.291455000000042,-30.17785263,4.41768837,162.4120331,-0.411785543,-0.329840302,13.35891819,1.436228395,-7.965693474,-2.176134109
5.299788000000035,-30.14253426,4.416544437,162.407608,-1.574467182,-0.729835391,11.15851307,2.256165981,-0.0597324,-0.741813898
5.308121000000028,-30.08874893,4.346187592,162.4349518,1.438214898,-1.149641871,12.50482655,4.317958355,-9.160932541,-1.616565943
5.3164540000000216,-30.00489807,4.243388653,162.4888153,-1.011437297,0.424933136,6.96922636,7.553780556,-14.11298561,-0.812509298
5.324787000000015,-29.84610748,4.25753212,162.470047,-2.682082891,0.098142169,8.565084457,17.3375988,2.37447834,-1.310296297
5.333120000000008,-29.6851368,4.175891876,162.5049896,0.733251393,-1.17811203,14.02723503,16.98791695,-10.78677368,-1.451738596
5.341453000000001,-29.48918915,4.120833397,162.5250092,-1.437295318,0.907053232,8.380741119,21.45635223,-7.14542675,-1.387037158
5.349785999999995,-29.20947456,4.078089237,162.5456543,-0.068684667,0.540938199,9.634980202,31.36907768,-5.890920639,-0.576756299
5.358118999999988,-28.89001083,3.98632431,162.5896606,0.374139309,-0.146414459,11.72671604,36.08231735,-12.40063477,-0.952159107
5.366451999999981,-28.50491333,3.934681654,162.6096497,-1.9635005,1.083757401,10.28301144,44.02652359,-6.791650772,-1.091962337
5.374785000000088,-28.0419693,3.88992691,162.6426392,-2.001703262,0.95981288,9.626538277,53.40480423,-6.818655491,0.725281715
5.383118000000081,-27.49989891,3.853806734,162.6585846,-0.320700616,0.206546292,8.747028351,62.89797592,-4.93426609,-0.546122909
5.391451000000075,-26.92157173,3.787361622,162.6986237,0.241125867,-0.094587229,10.82624817,67.2004776,-9.498719215,0.406256229
5.399784000000068,-26.27099037,3.712472439,162.7292633,-0.415801406,1.633743525,10.46018982,75.81365967,-9.886787415,-0.958002985
5.408117000000061,-25.53587914,3.626920223,162.7691803,0.107677586,0.231160551,9.70316124,86.03187561,-11.5404911,-0.395178974
5.416450000000054,-24.73713684,3.531225681,162.8061981,-1.471465826,1.027246833,11.20574379,93.55701447,-12.48755074,-1.080186367
5.424783000000048,-23.8748455,3.476211548,162.8383026,-2.128932476,0.646653295,10.51745033,101.3658981,-7.817920208,0.580487788
5.433116000000041,-22.96294403,3.350451708,162.8920135,1.646965981,-0.502344847,9.925736427,107.032074,-16.6142807,-0.313009173
5.441449000000034,-22.01459503,3.233160257,162.9424591,-1.353563428,-0.245925546,8.505259514,111.5819397,-15.53213406,-0.009118768
5.449782000000027,-21.00817299,3.17402935,162.9807434,-0.690683484,0.667279243,12.98532009,118.5063248,-8.493659019,1.450334668
5.458115000000021,-19.98701286,3.029846191,163.0379944,0.485399842,-0.829189241,12.22153282,120.2975311,-18.8257885,0.156569064
5.466448000000014,-18.90538406,2.878166914,163.1201477,-0.543435395,1.112317562,7.488847733,127.2807159,-20.65055084,3.008653641
5.474781000000007,-17.73971558,2.766950369,163.1828918,-1.506462336,0.650065303,9.384688377,137.6415558,-15.25022984,2.734225035
5.4831140000000005,-16.56643486,2.613035202,163.2692413,0.106357321,-0.354635,12.03830338,138.3032837,-20.91120911,4.22738266
5.491446999999994,-15.34716225,2.447507381,163.3439789,0.284923494,0.340150356,12.14942551,144.0496674,-21.77667999,2.944962025
5.499779999999987,-14.07880688,2.256962776,163.4236908,-0.845720649,0.395681918,10.67506504,149.8107147,-24.75340843,3.222630501
5.50811299999998,-12.75557995,2.103596687,163.4913788,-1.138018608,0.17174831,11.8325386,156.612793,-20.00110817,3.414080858
5.516446000000087,-11.41310406,1.852789402,163.5796967,1.024032354,-0.321759999,11.15239334,158.7341919,-31.85744095,3.844208956
5.5247790000000805,-10.0253582,1.703945994,163.6374817,-3.492487907,0.489608407,6.64142561,164.4499359,-19.05537224,3.277612209
5.533112000000074,-8.595898628,1.517680883,163.6942139,1.989819646,-0.524710655,14.2399807,169.3521729,-23.37056732,2.885863304
5.541445000000067,-7.154386044,1.272999406,163.7522736,-2.438770294,0.417615056,14.14443398,170.9485626,-30.25577164,2.665987253
5.54977800000006,-5.665435791,1.19524622,163.803833,-2.244284153,-0.805031121,7.695046425,176.5549622,-10.17656136,4.894900322
5.5581110000000535,-4.175080299,0.942887366,163.854126,2.777174234,-0.636297822,10.75051975,176.8674316,-30.90481377,3.203625441
5.566444000000047,-2.673411846,0.829213202,163.8826141,-4.640954494,-0.871755242,8.312869072,178.164978,-14.03310204,2.386711836
5.57477700000004,-1.188364983,0.643282413,163.91745,2.524312019,-1.786675334,19.75626755,176.2894287,-22.65555382,3.216738462
5.583110000000033,0.280740857,0.486600548,163.9625549,-2.961168051,0.30208528,10.16318893,174.2703552,-19.04421425,3.516814232
5.591443000000027,1.736516714,0.336142689,163.9843445,2.196293831,-2.288517714,9.692440033,172.8122101,-18.2235508,2.723339558
5.59977600000002,3.20840764,0.104150243,164.0268402,-2.576059818,-0.729256868,12.37299919,174.6348419,-27.87248421,4.510213852
5.608109000000013,4.621479511,0.021643536,164.0588989,0.931897461,-1.501898289,12.77487373,167.7012482,-9.833266258,4.304284096
5.616442000000006,6.024769306,-0.285517484,164.0828857,0.891178668,-2.408767223,10.11148071,166.4239655,-36.7965889,4.459412098
5.624775,7.419974327,-0.461801678,164.1067505,-0.979922175,-1.786828756,12.24976921,165.5795441,-20.88992119,5.110357761
5.633107999999993,8.756443024,-0.737553,164.1252899,0.662548661,-0.769097567,14.45442677,158.4115753,-32.89427567,5.005687237
5.641440999999986,10.06234264,-1.008508205,164.0886078,-1.17308104,-1.018323183,9.110107422,154.7758942,-33.01332474,0.760977268
5.649773999999979,11.30352879,-1.289489508,164.0665283,0.352970541,-3.680235624,12.57949543,146.9306335,-33.83766937,3.440099239
5.658107000000086,12.56229115,-1.587684393,163.992218,-1.165011406,-0.948465466,10.01183701,148.9617767,-37.06899643,-1.530354261
5.66644000000008,13.77161217,-1.882172823,163.9397888,-0.196124509,-1.527995348,14.57294655,142.9755859,-36.05636597,1.71929884
5.674773000000073,14.93639755,-2.170882702,163.8501129,0.698505163,-2.37174511,13.04976273,137.5260315,-36.44517517,-2.038263559
5.683106000000066,16.00688362,-2.399205446,163.786438,-3.805001974,-1.942471743,17.33382988,126.2066269,-28.65750313,-0.256146133
5.691439000000059,16.99176598,-2.70267868,163.6847229,3.171967745,-2.835151434,11.0619154,115.7720108,-38.59636688,-1.556802392
5.699772000000053,17.96404076,-2.828074217,163.610611,-5.298195362,-3.933701038,6.557237148,114.3057861,-17.23607254,-4.160030842
5.708105000000046,18.84475327,-3.182398081,163.5063782,3.185677528,-1.478531122,17.90739822,103.1570435,-44.50292206,1.363396764
5.716438000000039,19.66238403,-3.203700542,163.4346619,-6.119348526,-4.819664478,10.35095692,95.70469666,-5.465302467,-7.473704815
5.7247710000000325,20.37252426,-3.506587744,163.3655701,3.995458841,-2.242354155,18.79241753,82.85644531,-37.19882965,4.456205368
5.733104000000026,21.0079174,-3.509220123,163.2950439,-7.294098377,-2.109626293,6.436418533,73.80419922,-3.500432491,-7.994855404
5.741437000000019,21.50790787,-3.684016705,163.2821503,5.285473347,-4.657622337,16.40382385,58.02299881,-20.32403755,5.954931736
5.749770000000012,22.00273323,-3.651513577,163.2112274,-7.825346947,-3.593792915,2.706734896,56.91778564,0.252288163,-9.539077759
5.7581030000000055,22.39202881,-3.767707825,163.2264404,3.511428356,-0.164860666,21.76801491,44.95433426,-12.43844986,6.745790958
5.766435999999999,22.71946907,-3.673893452,163.1890869,-3.816480398,-3.152169704,6.534946442,37.09039688,8.457306862,-8.653550148
5.774768999999992,22.98701477,-3.711149931,163.2397308,0.839205146,-3.225940704,17.56991386,30.61510086,-1.981621861,7.114323139
5.783101999999985,23.22491646,-3.625063658,163.2299347,-2.587865591,-0.750498831,6.516232491,26.56962204,8.813876152,-5.336139679
5.791434999999979,23.3657589,-3.605738878,163.3064728,0.167929113,-2.340331793,18.47387505,15.59665394,5.538426876,7.293002129
5.7997680000000855,23.47306442,-3.409235716,163.358139,-1.138870478,-2.997746468,5.350023746,11.35801029,23.86590958,-3.899487495
5.808101000000079,23.53494072,-3.409306049,163.4172668,-3.81671524,-0.583782613,12.61432266,5.961726189,2.600267887,6.289204597
5.816434000000072,23.58249283,-3.15956378,163.4986572,4.288753033,-1.865014315,7.88659668,4.374543667,31.13511467,-3.244916201
5.824767000000065,23.57554817,-3.080823183,163.5766296,-5.482693672,-1.722206354,15.01054955,-2.210687637,12.1794529,4.571948528
5.833100000000059,23.59215736,-2.906593561,163.6428986,4.135644913,-0.908954859,8.24078083,0.520929694,22.10487366,-1.291239738
5.841433000000052,23.53603363,-2.818794012,163.687027,-4.194369316,-0.201348826,16.88851738,-8.356440544,11.55405712,0.427514493
5.849766000000045,23.50373268,-2.541406155,163.7941132,1.248170376,-1.768603563,7.862124443,-5.160736561,35.4101181,-1.719536781
5.858099000000038,23.43682098,-2.479644299,163.8033905,-3.684865952,0.799542606,17.72624016,-9.867165565,7.023487091,-2.140120506
5.866432000000032,23.37998581,-2.221342802,163.9099884,3.856083155,-2.606304169,5.761356831,-8.172971725,33.28889465,-0.789124072
5.874765000000025,23.30691338,-2.125520706,163.9497528,-3.359271526,0.084134817,12.03810024,-10.47343063,12.2283287,-0.387953252
5.883098000000018,23.27753639,-1.953919291,164.0387573,1.923696399,-0.647020876,8.652133942,-5.018573284,22.90029716,1.455388427
5.891431000000011,23.17687225,-1.85076952,164.0881042,-0.407790124,-1.815999985,16.14240456,-13.77008915,13.49031639,0.347879827
5.899764000000005,23.15101814,-1.685363054,164.1737518,-0.159858346,-0.623709917,-1.119069099,-4.650343418,22.05549431,1.431157708
5.908096999999998,23.08498955,-1.663426757,164.1546173,0.649037123,-0.576555371,16.91827774,-9.878464699,1.302138329,-3.354440928
5.916429999999991,23.09497452,-1.579862595,164.1841278,1.649589181,0.194155484,4.578081608,-0.562078834,10.38031101,-0.880438209
5.9247629999999845,23.11687088,-1.525642395,164.1600342,-3.772671223,0.749145925,18.64499283,0.663805783,4.633397579,-5.419409275
5.933095999999978,23.14140511,-1.587949276,164.1418152,4.672023296,0.469212145,10.46877861,1.027118087,-7.968614578,0.722436786
5.941429000000085,23.18847466,-1.420318484,164.1539459,-5.915500164,-1.26463151,11.68581581,3.802242041,18.84948349,-6.784213066
5.949762000000078,23.19535446,-1.601737142,164.1142883,7.181924343,7.80126E-05,10.7469635,-1.152845979,-22.11774826,3.998012066
5.958095000000071,23.24748993,-1.391389728,164.1275024,-7.109521389,-0.810590625,5.456983566,4.41255331,23.6040535,-8.704386711
5.9664280000000645,23.2544384,-1.663728714,164.0892944,6.592597961,-2.203306437,13.62467957,-1.139501691,-32.06700897,8.485479355
5.974761000000058,23.34629631,-1.517296076,164.0641022,-5.375748158,-0.349786013,-0.326962471,9.054826736,14.72397518,-9.938146591
5.983094000000051,23.39491272,-1.752853751,164.033905,4.759344578,-2.556997061,15.57445431,3.884517193,-27.61572647,7.685364723
5.991427000000044,23.50446701,-1.79415822,163.9204407,-3.387717247,0.797966719,11.64700699,10.84021473,-10.17861176,-10.71963501
5.9997600000000375,23.51319695,-1.865995765,163.9446564,0.879949272,-0.474552602,21.49398613,-0.698756456,-6.978112221,5.896385193
6.008093000000031,23.53978348,-1.99970758,163.8090363,-2.485798359,0.073029563,6.204264164,0.756503999,-21.42042732,-8.715299606
6.016426000000024,23.57310104,-1.918246031,163.8747559,0.754227757,-1.942378998,7.536497116,2.432084799,11.87682343,3.109811783
6.024759000000017,23.57988548,-2.123547077,163.7385101,-1.151070356,-1.082483411,10.7596159,-1.64761138,-29.33049965,-5.327226162
6.033092000000011,23.66823387,-2.00261569,163.8007355,-1.978185534,-1.345814466,3.563072205,9.043401718,16.05237961,0.815057933
6.041425000000004,23.72250748,-2.161897898,163.7123413,1.064270973,-2.073252439,20.10390472,4.242499828,-21.97876167,-2.233971834
6.049757999999997,23.7586689,-2.160122633,163.7305298,-0.990242541,0.844215214,13.60070133,2.598423243,0.840210915,1.706996679
6.05809099999999,23.75999832,-2.105228662,163.7471619,-0.810687184,-1.9343611,15.21739292,-1.652579188,6.614017963,-1.03891325
6.066423999999984,23.68015099,-2.250388384,163.7024994,1.562012792,0.108997159,10.33522034,-11.60686588,-18.33626556,1.89959085
6.074756999999977,23.67562485,-2.040428877,163.7698059,-4.398161888,-1.616464257,3.101372004,-2.127237797,26.09824181,-2.93628931
6.083090000000084,23.62675476,-2.187712908,163.7278442,3.012307167,-2.832193851,16.47846985,-7.866288185,-18.44366646,2.277964354
6.091423000000077,23.67395401,-2.019955635,163.8054199,-4.413575172,0.957724869,4.524492264,4.12011528,21.95288086,0.234255075
6.09975600000007,23.67470551,-2.02303791,163.8115387,2.307424784,-0.811828017,17.83503914,-1.693997383,-0.280475885,0.618596613
6.108089000000064,23.57752228,-1.961352825,163.871109,-2.072488546,-1.770498037,12.28347015,-13.30239868,9.428411484,3.368644476
6.116422000000057,23.50851822,-1.924107432,163.875824,-0.035888795,0.533601284,8.886089325,-10.06534386,4.085355282,-1.469027519
6.12475500000005,23.44837952,-1.794282556,163.95578,-2.072141409,-3.969017029,10.09548378,-8.792499542,17.89140701,2.378397703
6.133088000000043,23.37712288,-1.834786892,163.9277496,1.094462633,0.177203119,16.36790657,-10.46011162,-6.034636974,-1.358143687
6.141421000000037,23.25870705,-1.6490798,164.0162354,-2.693689823,-1.208975673,6.628831863,-15.77430534,24.44592094,0.712985456
6.14975400000003,23.13130569,-1.706044316,163.9746094,3.737607479,-2.625258923,11.77971554,-17.23210907,-8.48763752,-2.098728657
6.158087000000023,23.00088692,-1.622483969,164.0070648,-0.970638812,-1.668727756,12.42086983,-17.42539406,10.53264046,-0.556853592
6.166420000000016,22.84098053,-1.675047994,163.9433441,-2.316753149,0.162824512,12.41674995,-21.20078087,-9.02392292,-4.787250996
6.17475300000001,22.66350365,-1.563166499,163.9925385,0.604034483,-2.471170187,8.840482712,-23.01929665,14.44662857,0.041789651
6.183086000000003,22.46941948,-1.710339904,163.8977203,2.838747025,-0.559578061,14.87742138,-25.40460777,-20.91104507,-3.928791523
6.191418999999996,22.27366447,-1.614058971,163.9477692,-5.440680027,-1.316655636,5.201720715,-25.20555115,12.7515049,0.942053854
6.1997519999999895,22.08040047,-1.7576648,163.8905334,4.019121647,-0.469498605,14.68095779,-25.17709923,-18.78933716,-0.055557322
6.208084999999983,21.87234306,-1.677491069,163.9245605,-3.570910215,-1.296848416,10.07761955,-26.73477364,10.23270226,-0.025025126
6.21641800000009,21.63904953,-1.917033076,163.8278351,3.997122049,-1.387864351,9.738704681,-30.13847733,-31.2349472,-0.321894616
6.224751000000083,21.50444031,-1.787135124,163.8738251,-8.2843647,0.980138481,10.64949703,-17.863554,16.30535126,-0.81335479
6.233084000000076,21.24585533,-1.912750721,163.8521423,8.146824837,-2.129358292,16.81133652,-32.89191818,-15.22624588,2.869783878
6.2414170000000695,21.05860329,-1.999604106,163.8167419,-6.940912724,-0.472113252,4.639841557,-24.5044632,-11.4691658,-0.407189786
6.249750000000063,20.88345718,-1.895661354,163.9040985,2.014387131,0.067469791,13.08119297,-22.43395805,15.15470791,5.112360477
6.258083000000056,20.60523605,-2.144305229,163.807251,0.784519076,-4.139933109,11.93526936,-35.68576813,-32.23188782,-0.499606639
6.266416000000049,20.40517426,-2.023999453,163.9111023,-2.900296926,1.310581088,10.14811707,-25.32154083,17.64262962,6.400119781
6.2747490000000425,20.12911797,-2.079204321,163.8918762,0.598550975,-1.550172329,12.46606445,-35.10132599,-7.230112076,-0.077816136
6.283082000000036,19.87343025,-2.174237251,163.9176025,1.40828681,-1.566066384,12.92560863,-32.33113861,-9.899526596,6.595915318
6.291415000000029,19.6003685,-2.151865005,163.9458618,-5.635028362,-0.104435779,7.435116768,-34.53017426,3.45376277,2.072846889
6.299748000000022,19.36681175,-2.131069422,164.0181885,2.721222162,-0.432855129,11.81854534,-29.46796989,5.001708508,7.139218807
6.308081000000016,19.05690384,-2.248006105,163.988739,0.129457384,-2.284532309,12.44526386,-39.21440125,-14.62982273,1.075299978
6.316414000000009,18.83837318,-2.265582561,164.0545807,-1.220612288,1.883279204,11.86951542,-27.67269325,0.32618472,7.942942142
6.324747000000002,18.60135078,-2.220912218,164.0821228,-3.017525673,-0.178265288,6.956348896,-30.20446014,5.919466972,1.199221015
6.333079999999995,18.44406509,-2.266321659,164.1459656,-0.411456972,0.584009826,12.85731888,-20.33586311,-2.978757143,8.78236866
6.341412999999989,18.28190613,-2.222507,164.1737518,-0.572180867,-0.068179056,10.98413563,-21.21679306,5.821823597,1.294966578
6.349745999999982,18.13797379,-2.203005075,164.2354431,0.969566822,-0.877675831,8.934267998,-18.7469101,4.289527893,6.089415073
6.358079000000089,17.98334122,-2.277676821,164.2266846,-0.238979504,-1.068985701,12.9106741,-20.4844799,-9.061961174,1.570934296
6.366412000000082,17.88780212,-2.177104473,164.2965546,-3.273272038,0.738791347,9.49389267,-12.89825726,13.81810284,4.047677994
6.374745000000075,17.78871155,-2.164582491,164.3187561,1.382128477,-0.995987773,14.03076553,-13.67705822,2.028148413,1.865626097
6.383078000000069,17.70518494,-2.236290932,164.3193512,-1.707145572,1.296420813,7.7289114,-11.77496719,-8.419630051,2.484875679
6.391411000000062,17.69592667,-2.110128164,164.3983917,-0.569592893,-0.871192276,13.49136353,-2.637370348,17.08765602,4.216629505
6.399744000000055,17.63057709,-2.212164164,164.3891449,2.214691401,-0.846743524,8.682663918,-9.642506599,-12.24885845,2.453857183
6.408077000000048,17.65790749,-2.128810406,164.4505005,-3.731419325,1.833058834,10.18166256,1.672929764,11.54350471,3.767841101
6.416410000000042,17.70373917,-2.135959387,164.4641266,0.466645002,-0.521965146,13.44972706,3.804725409,-0.568584681,1.614682794
6.424743000000035,17.78837013,-2.006185055,164.529007,-4.492488384,1.267232656,9.606231689,8.551660538,16.98545647,2.45039916
6.433076000000028,17.87823296,-2.004496813,164.5559082,1.758877635,-1.105715275,13.71660614,9.141940117,0.931910157,2.80782032
6.4414090000000215,18.01516914,-1.887249112,164.620636,-2.816963434,0.770692587,6.453101158,14.81262589,15.55912971,2.838454962
6.449742000000015,18.1514225,-1.768609047,164.6800842,2.217545748,-1.75068748,18.43634605,14.82123566,15.49691391,2.155272245
6.458075000000008,18.221241,-1.787554026,164.6919861,-0.103054829,-1.170713305,11.32542992,6.536971569,-1.931210995,1.855354548
6.466408000000001,18.35728455,-1.632197499,164.7649994,-2.554423094,0.458123982,8.767254829,14.83537579,20.19997406,2.260444641
6.4747409999999945,18.48114014,-1.590078712,164.8006744,0.590529144,-1.09840548,11.31793118,13.09905624,5.929324627,2.254526615
6.483073999999988,18.6107502,-1.453040481,164.859787,-2.107700348,-0.400224477,13.39880562,13.98559475,17.59825325,1.289024115
6.491406999999981,18.68426704,-1.441522837,164.8655243,2.899861574,-2.210187674,15.71172523,6.955609322,1.311769009,0.001319133
6.499740000000088,18.7672081,-1.3970052,164.8900909,-3.896918297,-0.493533671,4.144889355,8.273463249,5.75901556,0.871793449
6.508073000000081,18.88404846,-1.280315757,164.9361267,1.114824653,-0.570668101,13.41872406,12.26600742,14.8183651,0.500130951
6.5164060000000745,18.92625427,-1.277186871,164.9436493,-0.178010121,-1.789075375,11.19426632,3.333577633,0.398237348,0.52968961
6.524739000000068,18.98330498,-1.209349394,164.9682465,0.629592836,-0.79283607,14.75866699,5.023604393,8.440133095,-0.063805059
6.533072000000061,18.98439217,-1.263246775,164.9467621,-0.013605606,-1.095701814,11.90196896,-1.675350308,-7.200417042,-0.534056842
6.541405000000054,19.0184269,-1.147663832,164.9844971,-3.027290583,-0.283982247,8.142180443,2.293153048,14.3694973,-0.446865976
6.549738000000048,19.01303482,-1.185049415,164.975769,2.729583025,-2.046165943,12.99472523,-2.42057085,-4.828975201,0.271293193
6.558071000000041,18.98962593,-1.207605243,164.9699097,-2.286221266,-0.014305555,10.78189564,-4.710175991,-3.0063169,0.005929695
6.566404000000034,18.96538353,-1.213333249,164.9770813,0.729923189,-0.973552823,13.90969658,-4.642912865,-0.616099179,0.835318625
6.574737000000027,18.91674614,-1.256035089,164.9567413,-0.546772242,-0.270011067,6.820503712,-7.775840759,-5.855926514,-0.854670107
6.583070000000021,18.90115929,-1.269796014,164.9611664,-0.366237193,-0.387634695,11.24366665,-3.609480619,-1.635776043,0.835318506
6.591403000000014,18.86278343,-1.359068513,164.925415,-0.337651134,-0.600489914,11.78109074,-6.590184689,-11.74125862,-0.801290154
6.599736000000007,18.8539238,-1.325533748,164.9402161,-1.238999605,-0.167983115,9.991638184,-2.77286911,4.135661602,0.175265402
6.608069,18.81485176,-1.423007727,164.8945618,1.363102794,-0.874450564,15.35365772,-6.706831932,-13.05419254,-1.614798307
6.616401999999994,18.79984474,-1.456526756,164.8911438,-3.426635504,0.378635734,6.814510345,-3.560045958,-4.185110092,0.702790618
6.624734999999987,18.80158234,-1.439367294,164.8872223,1.990423083,-0.598979652,12.61156559,-1.689130902,1.580974579,-1.316776633
6.63306799999998,18.75521088,-1.586993933,164.8370972,-0.882051945,-0.835872889,9.420222282,-7.474107742,-18.95302773,-0.194309622
6.641401000000087,18.77072334,-1.520211458,164.8462372,-2.191569567,0.702131033,10.42214489,0.005340569,7.723423481,-1.74914515
6.64973400000008,18.76764297,-1.575308323,164.8172302,0.982239187,-1.088641882,13.9539938,-2.21491456,-7.625640869,-1.370643377
6.658067000000074,18.78462219,-1.58961165,164.8083344,-2.572570324,0.993411005,8.287750244,0.122858666,-2.185944557,-0.666328728
6.666400000000067,18.84750366,-1.57993722,164.8159485,0.43935892,-0.313491046,9.3763237,5.821718216,1.146762133,0.286277503
6.67473300000006,18.89639854,-1.596544862,164.804245,-0.638677537,-0.602334857,11.66095257,3.943247557,-2.556121588,-0.892707407
6.6830660000000535,18.96125412,-1.548095107,164.8196106,-1.645942092,0.705691993,14.78535652,6.085391045,5.850329399,-0.348327965
6.691399000000047,19.03105164,-1.48988378,164.8233337,-0.826532006,-0.15462622,10.47412395,6.502315521,6.53289938,-2.058846951
6.69973200000004,19.12644577,-1.409473062,164.8470001,-1.538906693,0.085997164,7.888780594,9.771333694,9.799843788,-0.674730361
6.708065000000033,19.245224,-1.366286874,164.8526306,0.351743519,0.366512269,11.89913082,12.3851881,4.89832592,-1.274385095
6.7163980000000265,19.3593998,-1.289532423,164.878479,-1.421006322,-0.361134022,8.776507378,12.02538681,9.471031189,-0.321586788
6.72473100000002,19.48352242,-1.158852816,164.9117432,-0.390776098,-0.371386528,14.585742,13.09580803,15.89805794,-1.659675002
6.733064000000013,19.58086777,-1.106064558,164.919342,-0.804992199,-0.234769151,12.68962574,9.950554848,6.028169155,-1.460856676
6.741397000000006,19.71535301,-0.929821074,164.9672241,-2.485175371,0.614630818,5.888400078,14.35746384,21.63016891,-1.910592437
6.74973,19.85488129,-0.817649186,165.0005798,1.676309466,-1.276353359,13.89478779,15.05253029,13.77235413,-0.992679954
6.758062999999993,19.96448517,-0.752620101,165.0144653,-1.335847139,-0.462812066,11.61545658,11.29205036,7.686794758,-1.299897075
6.766395999999986,20.08628082,-0.55316627,165.0835724,-1.283776045,-0.292575866,10.47995186,12.95918369,25.07866859,-0.607160211
6.774728999999979,20.16317558,-0.485230774,165.0974884,2.328961372,-1.852094889,13.68602371,7.358009815,8.01222229,-1.446512818
6.783062000000086,20.20554352,-0.389681548,165.1192169,-1.111263037,-0.86759603,10.67183399,3.359013081,11.41476727,-1.708034396
6.79139500000008,20.2407341,-0.289792269,165.1493378,-0.409278303,-0.780456305,12.12398052,2.357777834,12.27968407,-0.962429464
6.799728000000073,20.23280334,-0.205104187,165.1757507,-1.04287672,-1.539822459,9.416694641,-2.685575962,10.38597202,-0.740610123
6.808061000000066,20.18289566,-0.089859501,165.2110138,-0.56325978,-1.533899307,14.32356358,-7.865389824,14.22055244,-1.017397523
6.816394000000059,20.054842,-0.072064929,165.2089996,1.394939303,-2.87340188,13.94525433,-17.11377335,1.676721334,-1.159787297
6.824727000000053,19.90731239,0.029114323,165.2304535,-2.804621935,-0.260243773,6.969189167,-19.59169579,12.07244205,-1.938460469
6.833060000000046,19.7093277,0.111611553,165.2525787,1.242215633,-2.696969032,13.21421623,-25.51087379,9.96872139,-1.058227181
6.841393000000039,19.39832878,0.13707903,165.2433319,0.305176258,-2.990124226,12.41812897,-39.20737839,2.291106939,-2.278210163
6.849726000000032,19.03837204,0.209948108,165.2495728,-0.612532973,-1.943270922,13.20707893,-44.94173813,8.259721756,-2.369961023
6.858059000000026,18.58599091,0.27085498,165.2351685,-2.049978971,-1.986256361,12.85794735,-56.17165756,6.1426301,-4.202128887
6.866392000000019,18.06897736,0.363111109,165.2317047,-0.421504289,-2.740539551,13.16525745,-63.78708267,10.13422012,-4.075675011
6.874725000000012,17.45278549,0.461184144,165.2247925,-1.118004799,-2.44914937,10.23480797,-75.83177185,10.73701859,-4.59058094
6.8830580000000054,16.76563454,0.568747222,165.2107697,0.090025634,-2.251294613,13.80066681,-84.19094086,11.59762383,-5.605710983
6.891390999999999,15.96504784,0.624921679,165.1934967,-0.879693806,-3.40533638,14.15196705,-97.94654846,5.666313648,-4.096646786
6.899723999999992,15.1147871,0.747961521,165.1930389,-2.763647079,-1.154773235,10.26326561,-103.7800827,13.96728325,-4.206820488
6.908056999999985,14.19732094,0.932782114,165.2232361,0.202117667,-1.28372097,10.63895512,-112.0500031,22.1542244,-2.317756414
6.9163899999999785,13.19292164,0.991982341,165.1824493,2.261413336,-3.392739534,13.24626255,-122.1951752,5.499872208,-6.636787415
6.9247230000000854,12.12796497,1.174214602,165.1899261,-3.671441555,-1.093147397,14.62898254,-129.7148132,21.3151722,-4.125850677
6.933056000000079,10.96398544,1.321857929,165.1703491,-0.035045028,-2.109972954,11.16507721,-141.3802795,16.64398193,-6.049499989
6.941389000000072,9.787698746,1.521555185,165.1554413,-0.673714638,-0.959011197,8.491334915,-143.0153961,23.03250313,-6.285414219
6.949722000000065,8.537036896,1.75991559,165.1296387,-2.325429678,-1.485531449,13.84340096,-151.7459259,27.50105858,-7.812608719
6.9580550000000585,7.247847557,1.934701443,165.1014709,-0.650449932,-0.360617995,15.33725739,-156.5007782,20.09322929,-6.434897423
6.966388000000052,5.926969528,2.257268429,165.0807343,-2.539752007,-0.135242879,7.789811134,-160.1743622,37.92366409,-7.111474991
6.974721000000045,4.559930801,2.53775692,165.0347137,1.042707801,-1.626474619,14.94567966,-165.7211914,32.79481888,-8.781882286
6.983054000000038,3.115935087,2.760915995,165.0154724,0.077472456,-0.71950227,11.73108673,-174.8568726,26.1974659,-6.133677483
6.9913870000000315,1.686254025,3.08928895,164.9595337,-1.6213094,-0.221640259,6.102270126,-173.1280823,38.8708725,-8.556647301
6.999720000000025,0.254635602,3.426302433,164.9202118,0.640282631,0.598111331,15.14901161,-173.2087097,40.08563995,-7.229076385
7.008053000000018,-1.222426772,3.541231871,164.8453674,1.732957482,0.017216742,13.98299503,-178.6121216,13.64886475,-9.055783272
7.016386000000011,-2.653931618,3.931857347,164.7818604,-5.464521885,1.42158854,5.503190517,-172.9613953,46.91806793,-7.768352509
7.024719000000005,-4.165876389,4.15089941,164.6849213,5.91609621,-2.513297558,14.7022028,-182.5241241,26.71075249,-10.22922325
7.033051999999998,-5.686830997,4.252054691,164.6150665,-1.377904296,1.857028842,12.50126076,-183.5657959,12.71360874,-9.12329483
7.041384999999991,-7.136399269,4.552271843,164.500824,-1.993840694,1.880552053,10.71884632,-174.8053131,37.10942841,-9.770954132
7.049717999999984,-8.593661308,4.696723461,164.4116974,1.242019892,0.862142026,9.512846947,-175.6691284,18.61702728,-10.02591896
7.058050999999978,-10.00658417,4.804399014,164.3124084,1.06978941,1.434666038,12.30282307,-170.4733734,14.45342159,-9.837733269
7.066384000000085,-11.37263775,4.988476753,164.2121277,-2.606828213,1.859314561,7.113550663,-164.5593414,23.99657822,-9.487897873
7.074717000000078,-12.73230076,5.114382267,164.1006622,2.502697945,0.26584214,14.06719303,-163.8890686,17.33934402,-10.08315754
7.083050000000071,-14.07701302,5.113945484,164.0262604,0.797701478,1.629324317,10.90536976,-162.2415924,2.127785683,-10.33253574
7.091383000000064,-15.32606316,5.265920639,163.9071198,-2.88694644,2.81636858,6.469715118,-150.4981384,21.03510666,-9.352869034
7.099716000000058,-16.53969002,5.277738094,163.8261871,0.917197883,0.777518213,15.29459667,-146.5532837,3.786508799,-9.114768028
7.108049000000051,-17.70947266,5.299672127,163.7444153,0.185905665,2.207591295,8.331489563,-141.3735504,5.174820423,-8.772954941
7.116382000000044,-18.81318474,5.341669083,163.6366425,1.304253697,0.658305824,10.0055275,-133.0613403,8.592161179,-10.85484314
7.124715000000037,-19.87148666,5.244922638,163.5922699,-0.404357553,2.863475084,12.8905201,-128.4084167,-9.41434288,-9.056789398
7.133048000000031,-20.83559227,5.290448666,163.4899445,-1.731852412,3.031313419,7.475175381,-116.3899918,9.147966385,-9.768746376
7.141381000000024,-21.72971344,5.194328308,163.4499359,3.403757572,1.545033097,13.18813133,-108.7553635,-9.229546547,-8.852499962
7.149714000000017,-22.52779388,5.05495882,163.436264,-1.600606799,2.865821838,8.123069763,-97.45432281,-15.10028648,-8.019861221
7.1580470000000105,-23.22206497,5.025829315,163.3829193,0.085982122,2.349098921,8.749367714,-84.64743042,-0.95872122,-7.444620132
7.166380000000004,-23.87372971,4.824433327,163.3986511,2.02327466,1.606873274,14.10793686,-80.20013428,-23.12895012,-8.139945984
7.174712999999997,-24.41507912,4.701448917,163.3989563,-2.717532635,3.220911741,7.393309593,-66.85951996,-13.69803619,-6.212399006
7.18304599999999,-24.87306976,4.601088047,163.3779297,-0.475802392,1.908475161,9.888584137,-56.59629822,-10.12105846,-7.517081738
7.1913789999999835,-25.28742409,4.421404362,163.4125061,0.013192032,1.162262321,13.22095776,-51.94161987,-21.49757576,-5.603027344
7.199711999999977,-25.61663055,4.294023514,163.4152832,-0.768918097,1.943669915,7.882627964,-41.38332748,-14.16613007,-6.477748394
7.208045000000084,-25.88420486,4.126418114,163.4376068,1.335939169,1.397513509,11.01800346,-34.19517899,-19.49212646,-6.543036938
7.216378000000077,-26.11010361,3.943048239,163.4654236,-1.636638045,0.805069149,12.55063057,-29.20261765,-21.45540619,-6.863932133
7.22471100000007,-26.28178024,3.840258121,163.4585266,-1.559705257,1.534730792,10.7478466,-22.4327774,-10.92078781,-6.394058704
7.2330440000000635,-26.41108131,3.713563204,163.4674225,-0.948863029,1.022842646,10.73095322,-17.45252228,-14.31677532,-6.002672672
7.241377000000057,-26.49627495,3.56228137,163.4903259,-0.399839818,0.146162584,11.51105118,-12.28477192,-17.69119644,-5.842276573
7.24971000000005,-26.55241394,3.467814207,163.4946442,-1.427910328,0.847739041,10.97139454,-8.639246941,-10.59445763,-4.812018394
7.258043000000043,-26.6043644,3.356408358,163.4995117,0.549182236,-0.203654215,11.35754871,-8.155752182,-12.43279266,-5.670762062
7.266376000000037,-26.63332367,3.252994061,163.5169373,-1.297096848,0.270000875,11.19905186,-5.470997334,-12.2487812,-3.906274796
7.27470900000003,-26.63580704,3.172933102,163.510849,-0.362108707,0.797973454,11.78699398,-2.144961834,-8.478671074,-5.166801453
7.283042000000023,-26.62586594,3.111275434,163.5145264,-1.171607852,-0.450410455,10.72396088,-0.713049173,-7.030750275,-3.135694981
7.291375000000016,-26.60605049,3.052011013,163.5136719,-1.280282259,0.24426654,12.0142374,0.497133881,-6.528275013,-3.48755765
7.29970800000001,-26.57993698,2.995796919,163.5308533,-0.405828267,-0.32935676,12.30336189,1.136234522,-7.174674988,-1.39121151
7.308041000000003,-26.56192589,2.942550421,163.53508,-0.184354797,-0.809444726,12.17512417,0.248522088,-6.158353329,-2.614854813
7.316373999999996,-26.56707573,2.911530495,163.5419922,-0.660959363,-0.802304089,11.73438549,-2.553329468,-3.919464827,-1.136708617
7.324706999999989,-26.5755291,2.881421804,163.5320282,-0.736706495,-0.313530952,12.0868082,-2.839850426,-2.914541483,-2.894536734
7.333039999999983,-26.5885849,2.875496626,163.5307007,-1.309512377,-0.843191862,10.7671423,-3.460560322,-0.784922659,-0.673270166
7.34137300000009,-26.61060715,2.860197783,163.5063782,-0.057273708,-0.483629316,11.78913212,-4.383108139,-0.553754151,-3.637862206
7.349706000000083,-26.646595,2.844095469,163.509079,-1.208519816,-0.950052142,13.03677845,-6.239756107,-2.092913628,-0.788764775
7.358039000000076,-26.69976807,2.806251764,163.5090332,-0.219122171,-0.641405046,11.69092751,-8.268174171,-4.273044109,-2.254360199
7.366372000000069,-26.75258255,2.843892336,163.4875793,-2.512934685,-0.444667727,8.01535511,-8.122684479,4.972223759,-0.479293644
7.374705000000063,-26.81410789,2.871358871,163.458374,0.861830354,-1.079173684,13.09405231,-9.095385551,4.300745487,-1.84937346
7.383038000000056,-26.90843201,2.838142872,163.4686279,0.291461051,-1.520293713,14.07002449,-13.29453278,-4.330958366,-0.917245984
7.391371000000049,-27.00677109,2.837833643,163.4537354,-0.835426986,-0.077875428,9.61531353,-13.60082817,0.558070242,-1.815844655
7.3997040000000425,-27.08691025,2.875606537,163.4233093,-1.957943916,-0.301827967,10.83415222,-11.35484409,5.475876808,-1.402200341
7.408037000000036,-27.1810894,2.87719059,163.4143066,0.511311889,-0.702127934,14.55247021,-13.13536358,0.443574488,-1.083584666
7.416370000000029,-27.30353546,2.873698711,163.4044342,-1.377025723,-0.947843194,10.94656563,-16.56237602,-0.050639361,-1.457706571
7.424703000000022,-27.40919685,2.888619423,163.3984222,-0.150387213,0.103302315,9.679976463,-14.52975273,1.703846216,-0.027432848
7.4330360000000155,-27.50215912,2.890789747,163.3825684,-0.447216421,-0.433339298,10.27212715,-12.98805904,0.886624098,-1.780164123
7.441369000000009,-27.60869026,2.893362045,163.3820648,0.482380927,-1.209457517,12.14930534,-14.66860676,0.084693477,-0.120335691
7.449702000000002,-27.72684288,2.891536474,163.3680267,-1.49934721,-0.051872484,13.52922153,-16.02874947,0.367320955,-1.805701375
7.458034999999995,-27.84519958,2.873042583,163.3829193,0.698053062,-1.147869468,12.13598537,-16.18118286,-3.01090312,0.334662855
7.466367999999989,-27.95573616,2.88190484,163.3638611,-1.652827382,-0.587224245,9.17564106,-15.08701706,1.788988113,-1.7363379
7.474700999999982,-28.06510925,2.919323921,163.3509674,-0.715804219,-0.050459996,12.3301754,-14.93484211,4.47341156,0.535580933
7.483034000000089,-28.1851387,2.90832901,163.3470001,-0.083911434,-1.054224372,12.80901051,-16.32772255,-1.158378601,-1.255968809
7.491367000000082,-28.29109383,2.907067776,163.3585663,-0.567070067,0.070266709,8.425451279,-14.67327023,-1.007023692,0.938518465
7.499700000000075,-28.37200546,2.927062273,163.3395386,-0.80744642,-0.017414406,11.68715286,-11.54195499,2.975875139,-1.082662702
7.508033000000069,-28.47684288,2.913359642,163.3615417,0.80245775,-1.371891856,15.76083565,-14.6037302,-2.919332027,1.325754762
7.516366000000062,-28.58787155,2.899936438,163.3637543,-1.7016114,-0.151500165,8.405362129,-15.29026699,-1.759442091,-0.75006175
7.524699000000055,-28.66480827,2.946573973,163.3585663,-1.675482392,0.246099353,8.616088867,-11.08883667,4.991894722,1.924999356
7.533032000000048,-28.72922134,2.944390774,163.3513947,0.939240456,-0.716136754,13.90024662,-9.645475388,-0.035117116,-1.095648885
7.541365000000042,-28.80903435,2.930292368,163.364624,-0.576382935,-0.587702692,12.3043108,-11.54561806,-2.463474751,0.365937799
7.549698000000035,-28.86644554,2.953653336,163.3430176,-1.473794341,0.001334782,9.270935059,-8.720701218,3.485675335,-1.131099343
7.558031000000028,-28.90583992,2.962656498,163.3473663,-0.756496608,-0.358345866,12.29371738,-6.639568329,0.477487743,0.766826153
7.566364000000021,-28.94900513,2.976050615,163.3409119,-0.186687708,-0.702473402,11.41717243,-7.109513283,1.562455654,-0.113752827
7.574697000000015,-28.99995613,2.993248463,163.3345337,-0.395124674,-0.93879813,10.84056854,-7.960571289,1.957657576,0.119477592
7.583030000000008,-29.04345322,2.985302925,163.3392029,0.771112978,-0.47164166,12.31947136,-7.220653057,-1.322770476,-0.188443944
7.591363000000001,-29.08387756,2.980208397,163.346283,-1.787002444,-0.34269172,10.18593407,-6.781931877,-1.164525628,0.235561326
7.5996959999999945,-29.1056385,3.040012121,163.3166809,-1.8511765,0.024865452,11.53855324,-4.402446747,7.778594971,0.172857672
7.608028999999988,-29.13875961,3.056878328,163.3152924,0.222506836,-1.182798624,14.33850002,-5.852136135,1.631921411,0.628867924
7.616361999999981,-29.18126297,3.051426649,163.3239288,0.010901422,-1.073792696,10.11871433,-7.136971474,-1.293032169,0.36862728
7.624695000000088,-29.21563911,3.097468376,163.3055725,-2.24234724,-0.635858238,10.09334755,-5.892349243,5.677740574,0.566164196
7.633028000000081,-29.2442131,3.137402296,163.2923431,0.020994924,-0.481024086,13.31818199,-5.327914715,4.737493992,0.740289867
7.6413610000000745,-29.29102707,3.164331198,163.2764435,-0.667793989,-0.514836729,9.230908394,-7.399158478,3.534495354,-0.29430756
7.649694000000068,-29.32614136,3.1968894,163.2658081,0.915055871,-1.110393167,10.83311272,-6.133533478,3.811769485,0.58496505
7.658027000000061,-29.37360764,3.181263447,163.2755737,-0.381681234,-1.311231613,13.76867962,-7.648565292,-2.425258636,-0.109219119
7.666360000000054,-29.42547035,3.204008341,163.2717896,-1.359660625,-0.131192222,10.48025608,-8.190971375,2.383161068,0.727585137
7.6746930000000475,-29.46680641,3.276164532,163.2304382,-2.241272449,-0.445106983,9.94316864,-6.566158295,9.757679939,-0.266413689
7.683026000000041,-29.50359917,3.303320408,163.2260132,1.664862752,-1.06069088,13.66442204,-6.383989334,2.87918067,0.92460978
7.691359000000034,-29.55118561,3.292048454,163.2266998,-0.51948607,-0.180899411,10.04098034,-7.602280617,-1.434064269,-0.806412995
7.699692000000027,-29.58358765,3.337895632,163.2090454,-1.656687975,-0.908962131,11.8634119,-5.767225266,5.613322258,0.657812059
