time,Euler_X,Euler_Y,Euler_Z,Acc_X,Acc_Y,Acc_Z,Gyr_X,Gyr_Y,Gyr_Z
0,0.274911531,24.77152586,-63.42570498,-1.703095824,0.282643773,11.6682117,45.15200615,-12.32169877,12.77844691
0.008333,0.768856391,24.61283207,-63.28525543,-2.054805175,0.07892824,9.73724699,51.57444477,-19.17477923,15.17155099
0.016666,1.288499475,24.49781132,-63.14065363,-2.951356515,0.882897565,9.927615226,54.48532677,-13.88046217,15.61207366
0.024999,1.843390033,24.35025978,-62.99729155,-0.984075606,0.001346197,10.88294315,58.80628491,-17.54730786,15.82349611
0.033332,2.45157212,24.20579958,-62.84295848,-3.412827388,0.416415744,8.193143845,64.70354653,-17.01759505,17.11594963
0.041665,3.120237708,24.08614922,-62.68638038,-1.68948181,1.325467266,12.03669739,71.88244057,-13.8217721,17.42258525
0.049998,3.810634494,23.92235899,-62.53114128,-2.770868093,-0.086549027,7.262794972,74.60239411,-18.94286108,17.79332757
0.058331,4.550032973,23.83372784,-62.36940955,-1.721696493,-0.130544253,10.43300712,80.19746018,-9.609566213,17.98106527
0.066664,5.328125119,23.69254685,-62.2170639,-2.76989305,1.480139643,10.20089769,85.32299423,-15.80678439,17.73633504
0.074997,6.146812678,23.61181688,-62.04882238,-2.979233593,-0.513262272,9.924016118,89.47286797,-8.082980142,18.88068247
0.08333,6.990847826,23.49617338,-61.9041748,-1.830104225,-0.466854301,10.53002214,93.68995094,-12.27175379,17.05070377
0.091663,7.867592693,23.41813469,-61.73654175,-3.000350535,1.153390691,10.29531396,96.49525644,-7.271157548,19.0167203
0.099996,8.748933196,23.31749106,-61.5993271,-1.331338011,-1.434814707,10.36764908,98.54997254,-10.13661086,16.37965656
0.108329,9.661983969,23.22353793,-61.4407997,-3.28273052,-0.055423305,10.87579775,101.3692818,-8.62477833,18.63391733
0.116662,10.56417727,23.12670374,-61.30977823,-1.234927565,-0.29325933,9.120898247,101.3934822,-9.28007877,15.92595959
0.124995,11.48976636,23.01735926,-61.16046525,-2.746647418,-1.393096358,10.87862849,103.380146,-9.997110249,18.26948166
0.133328,12.39686561,22.90554428,-61.04223825,-1.581873439,-0.460923847,9.881298781,102.6233978,-10.79868573,15.21224165
0.141661,13.29551101,22.79726982,-60.90836525,-2.965351462,-1.293316454,12.83478928,100.9246635,-9.68126595,16.91368485
0.149994,14.17618942,22.66974068,-60.79890633,-2.476842116,-1.997276127,9.291519284,99.88973616,-12.41637576,15.03585482
0.158327,15.06029153,22.57797194,-60.67545128,-1.744933456,-0.740679279,12.7094059,99.7575264,-7.46165675,15.5400331
0.16666,15.88128543,22.43118334,-60.58992578,-2.305384368,-2.269364089,9.499766112,93.844944,-14.91276431,13.47306752
0.174993,16.69557476,22.33824396,-60.48682975,-2.497226395,-2.25804019,11.8128711,92.37408066,-7.749085664,13.66019678
0.183326,17.44386673,22.19993878,-60.4089813,-1.283477932,-1.438621014,12.34932184,85.55649376,-13.71925211,12.73217321
0.191659,18.15847492,22.07436514,-60.34296418,-2.496649057,-3.009720147,8.332479358,82.09986115,-12.39973414,11.22559714
0.199992,18.85701275,21.97349644,-60.25401305,-1.451706469,-1.932652712,14.84992886,79.13310242,-8.787809133,12.7265122
0.208325,19.45923472,21.82715655,-60.21294023,-2.500996813,-2.139724016,7.820045352,69.79839802,-15.3206737,9.7300812
0.216658,20.03887892,21.7037015,-60.15180398,-1.04193594,-2.776198268,11.19930935,66.14203644,-12.09480846,10.92823708
0.224991,20.56073714,21.59007549,-60.11463168,-3.000274152,-1.997602105,14.45270133,60.36371803,-11.59277272,8.207107662
0.233324,21.0086689,21.43632222,-60.06994058,-1.486738279,-2.609540224,7.110463203,51.12067604,-15.85613823,10.77101111
0.241657,21.40772295,21.29711437,-60.0694828,-1.926020682,-3.700901508,12.32751918,47.19534111,-15.86239576,5.702609897
0.24999,21.75879049,21.15517283,-60.03002168,-1.608016444,-1.99111338,12.47085762,39.69984722,-14.63318014,9.944789053
0.258323,22.00329971,20.99727488,-60.05293653,-2.39656575,-2.420257777,8.213261127,29.69218111,-18.79450822,4.269440949
0.266656,22.21497965,20.83484888,-60.05015375,-2.141443491,-2.857719541,13.59587336,24.60068345,-18.34219003,7.181211948
0.274989,22.36329747,20.71042061,-60.07206155,-2.496733695,-1.949001253,13.78872347,18.12246919,-14.99932504,2.974093735
0.283322,22.43738175,20.5401969,-60.08143238,-0.908683144,-2.130859971,8.693715931,8.683875919,-19.63859463,6.352522612
0.291655,22.48082209,20.40031004,-60.11733248,-2.50263536,-2.556894809,10.46111035,6.087418794,-17.35411215,2.263332367
0.299988,22.50123549,20.27101946,-60.1095581,-1.6337667,-1.532920242,12.69356275,1.503471255,-14.39436996,6.350183368
0.308321,22.4418726,20.12181854,-60.14871788,-1.91741085,-1.759547949,8.920253158,-6.069737375,-18.47207117,2.353942577
0.316654,22.37961722,20.03078699,-60.13848495,-3.13559866,-1.95286499,12.21833277,-8.497223659,-10.05658012,4.826562017
0.324987,22.26176071,19.91159582,-60.1564083,-2.50454332,-0.703684166,12.41810036,-13.99749076,-14.23263001,3.156395555
0.33332,22.1310916,19.83444882,-60.1405506,-3.35399364,-1.896612525,10.11616826,-16.89139152,-8.23621893,4.751103342
0.341653,21.95935011,19.77708006,-60.13749885,-1.412703336,-1.234575316,12.96194863,-21.34143257,-6.527578652,2.546051983
0.349986,21.7558651,19.67715454,-60.1366825,-2.398852989,-1.028278845,6.100050569,-25.12518788,-11.49368292,4.086661518
0.358319,21.53543902,19.64607716,-60.13191985,-1.494378932,-1.927670837,11.2174089,-27.18198395,-3.483548344,1.523858547
0.366652,21.27356148,19.54066754,-60.1519451,-1.703484595,-0.91394838,12.04465246,-31.31800175,-12.9899689,2.056175675
0.374985,20.99120045,19.5158453,-60.14134025,-1.42357263,-0.618908403,6.186804891,-34.85438586,-2.556971074,1.83454451
0.383318,20.70875073,19.41080189,-60.17574503,-2.561969191,-0.351798263,12.77688324,-33.16240645,-13.48538366,0.412975691
0.391651,20.43262863,19.36176348,-60.17490578,-1.492325015,-0.716005702,10.17823792,-33.78411436,-5.746281564,1.761451319
0.399984,20.12798881,19.29017973,-60.1992264,-2.541113779,0.427323707,12.33013463,-36.21468067,-9.414072275,-0.0055103
0.408317,19.83212853,19.20193625,-60.21793365,-0.932876904,-0.103225347,9.098244071,-35.33395958,-10.89250159,1.198731616
0.41665,19.57242442,19.1388607,-60.23849485,-3.035061479,-0.195060535,11.76722384,-30.97925282,-8.299016833,0.00380005
0.424983,19.30987692,19.02353668,-60.25229455,-0.438876701,-0.009897403,10.49228942,-31.49725771,-13.80787027,2.708160639
0.433316,19.0449543,18.97358847,-60.2837696,-3.334465623,-0.387465149,9.356948494,-31.11586571,-7.171617867,-1.83045572
0.441649,18.80318117,18.85775376,-60.2975502,-1.187553838,-0.229858592,10.38837588,-29.10010576,-13.93460787,2.58294493
0.449982,18.56829357,18.79708338,-60.34326743,-3.088984877,0.174762525,11.54582632,-27.04229212,-8.947490693,-3.042883716
0.458315,18.34036875,18.71483183,-60.37724683,-2.076119185,0.364218578,11.58873153,-26.61536265,-10.78981245,-0.972569793
0.466648,18.10685015,18.62376595,-60.44691085,-2.628112033,-0.00385572,10.11412644,-26.06200027,-13.19690847,-4.539325908
0.474981,17.90076542,18.54066372,-60.51225663,-1.734282792,0.289335046,12.30186272,-22.78601885,-11.98947692,-4.38100037
0.483314,17.71729899,18.4528122,-60.6012745,-2.610732526,0.19834831,11.41002345,-19.24026871,-13.43099451,-6.830081224
0.491647,17.53999329,18.34341908,-60.69093133,-0.652022996,0.2441683,9.093197228,-18.47153401,-15.88977027,-6.161216259
0.49998,17.36171675,18.22403479,-60.802475,-1.231515288,-0.014441928,10.18118727,-17.86080742,-17.83705068,-8.194053173
0.508313,17.22201872,18.10227108,-60.89177323,-2.42943357,-0.757704018,7.755851627,-13.91060806,-17.20809722,-5.764918268
0.516646,17.10794545,17.98547507,-61.0000458,-2.110438943,1.030303523,11.05553007,-10.31799472,-17.40020013,-8.033633113
0.524979,17.01562548,17.84983778,-61.07658388,-3.378288031,0.564793348,14.35392678,-8.71769321,-18.35117269,-3.936628059
0.533312,16.8971448,17.77513457,-61.14938355,-2.578021526,0.210441716,9.90756476,-12.07864213,-11.30141044,-5.652541638
0.541645,16.79282665,17.67136431,-61.21639253,-2.030306973,-0.389397435,7.244551002,-10.61159301,-14.4221406,-4.079096794
0.549978,16.71204186,17.63474894,-61.25769995,-3.221780673,-1.326836586,8.574350357,-8.819357721,-5.924487838,-3.567151189
0.558311,16.6515255,17.60170984,-61.30456925,-4.035579294,0.179459527,10.62080955,-6.039840937,-5.551998943,-4.342205882
0.566644,16.60110784,17.65876961,-61.30055235,-4.839827061,0.357518092,11.95114446,-6.796530902,6.333350183,-1.795683116
0.574977,16.49817252,17.7192359,-61.32482148,-2.113176741,-0.63405925,7.128780365,-11.92985034,5.947740465,-5.03988719
0.58331,16.40958405,17.84317112,-61.28905488,-3.593020588,-0.461024434,4.860545993,-12.47626912,15.11038351,-0.628131455
0.591643,16.32433415,18.02785969,-61.26509668,-3.104183406,-0.042625803,10.30118489,-11.66232598,21.7512908,-3.950066686
0.599976,16.27367639,18.23295259,-61.19985583,-4.119369209,-1.099246964,8.203556298,-9.153890729,25.34298754,-0.065190524
0.608309,16.21600676,18.45837116,-61.13402368,-1.193445504,-0.153161928,4.581939816,-9.8790431,27.84181595,-0.730143845
0.616642,16.18375659,18.70855904,-61.07531355,-3.395129979,0.411530927,9.570916771,-6.737568021,30.3018403,-2.423419282
0.624975,16.17538977,18.93571186,-60.9726963,-1.030802459,-0.661902572,8.540958733,-5.461878359,29.20091248,3.230902076
0.633308,16.13260842,19.1461382,-60.9322815,-2.100967675,0.622144306,6.518550634,-7.270813704,25.20705509,-3.071965337
0.641641,16.09912658,19.32627249,-60.84342003,-0.67780815,-0.57468848,8.262087942,-8.111725031,23.28003073,3.270229057
0.649974,16.08817601,19.49949122,-60.80875588,-2.566817164,-0.872649267,8.711997984,-3.33886084,20.67905736,-2.439940035
0.658307,16.09744787,19.60190821,-60.76040268,-0.331887916,0.66497767,8.805148303,-1.346262291,13.10375071,1.44759839
0.66664,16.09891105,19.68536949,-60.76187515,-2.148427144,-0.761320844,9.757820606,-0.396771178,9.187867911,-3.408041866
0.674973,16.12650132,19.71860647,-60.7400036,-0.669708833,0.6106885,9.81780696,1.904171676,4.295313179,0.858685285
0.683306,16.13025022,19.71970558,-60.78028868,-1.713575523,-0.320337836,7.610459447,1.512315869,-1.462998749,-4.873752415
0.691639,16.1800847,19.67210913,-60.78931235,-1.089124389,-0.269364934,10.05610418,5.757808506,-6.05507207,0.204881966
0.699972,16.2004621,19.58766556,-60.85496903,-2.537510634,-0.338505967,9.797272683,4.515694767,-12.12416688,-4.762834102
0.708305,16.24703407,19.47692871,-60.89320753,-1.35546857,-0.39392034,9.373544811,6.555142611,-14.25161493,-0.831460536
0.716638,16.27620626,19.33221579,-60.97701075,-2.459907532,-0.427555937,10.72867131,6.181726217,-19.70868111,-4.680443346
0.724971,16.33549404,19.16486502,-61.03948978,-1.123390958,-0.107175507,11.0620029,9.102038502,-21.48087907,-1.531274133
0.733304,16.35584402,18.97703791,-61.13688088,-3.493094683,-0.608242489,11.43540907,5.606872618,-25.11816406,-4.692079544
0.741637,16.39370394,18.77629995,-61.21077155,-1.451841801,-1.112137631,8.855624199,6.951012611,-25.69386149,-1.625998974
0.74997,16.41407061,18.57804394,-61.31826403,-3.238522887,0.115209799,11.59242559,6.015292943,-26.58826542,-5.418891013
0.758303,16.4320507,18.37179327,-61.39529038,-2.238402009,-1.428263515,9.175975919,4.548227235,-26.50360346,-1.785665687
0.766636,16.43325066,18.17024517,-61.49781038,-3.860157251,-0.874403842,10.87606096,3.364979386,-26.87169933,-4.749109864
0.774969,16.41344953,17.99910784,-61.57187843,-2.116107375,-0.526703041,11.79701114,-0.04461199,-22.31020284,-2.636936143
0.783302,16.37938953,17.83451844,-61.6690483,-4.589032173,-0.65035402,9.127223015,-1.145717979,-22.43924093,-5.430623472
0.791635,16.34493828,17.6923995,-61.73203085,-3.058168709,-1.033901453,11.77194262,-2.262115017,-18.62078309,-2.444159355
0.799968,16.28786445,17.60075665,-61.80771258,-3.680180013,-0.515251175,11.44465256,-4.64110151,-13.27623206,-5.505784184
0.808301,16.2237072,17.51676464,-61.86398315,-3.902556062,-0.239004079,9.647729515,-6.186987758,-11.77331984,-3.711147905
0.816634,16.15990257,17.46125698,-61.91392325,-3.876024306,-0.59477561,11.01995993,-6.48653999,-8.349963426,-3.941644132
0.824967,16.08421493,17.45249558,-61.94823263,-2.609951288,-0.785049587,11.59411955,-8.262128591,-2.345816673,-3.794768498
0.8333,16.00366187,17.45177364,-61.98139573,-3.412340164,0.135010868,8.387061716,-9.084909558,-1.520652592,-4.052249521
0.841633,15.91714668,17.45926094,-61.99084285,-3.265390277,-1.491919875,10.33869517,-10.48216689,0.31249693,-1.624486774
0.849966,15.82249427,17.5059638,-62.00831033,-2.019177467,-0.551680571,11.08431554,-11.23842955,4.499528675,-3.885472059
0.858299,15.7251823,17.57984543,-62.00801088,-4.414245367,-0.276992813,9.328411221,-12.2422204,8.234744729,-2.737870693
0.866632,15.61165857,17.64151907,-61.98898888,-2.862240613,-0.59784101,10.46878314,-14.91675401,7.310272038,-0.365153507
0.874965,15.5010221,17.75502825,-61.99372103,-3.045075327,-0.414352622,9.918951274,-13.56557632,12.71668231,-4.496756554
0.883298,15.39297557,17.86572218,-61.96694375,-2.195044726,-0.60422647,8.913968922,-14.55740714,13.21864063,-1.047244855
0.891631,15.26654983,17.95541239,-61.95405388,-2.859228179,-0.666073549,8.207779288,-16.13218427,10.50403738,-1.786183834
0.899964,15.11397242,18.06220055,-61.953331,-1.557887346,-0.411830694,11.79080331,-18.8848393,12.03825998,-3.728358329
0.908297,14.97087097,18.18708134,-61.93203923,-4.124311447,0.098344825,10.64077854,-18.54794622,14.78975344,-1.91665338
0.91663,14.82120443,18.28672982,-61.91530038,-2.160960615,-0.951541496,9.196123719,-19.1997633,11.63355172,-1.711521626
0.924963,14.64622164,18.3766036,-61.92409135,-1.635979042,-0.69401392,9.133663178,-21.17108345,9.903413356,-4.081729949
0.933296,14.47159315,18.47154284,-61.91189193,-1.091570903,-0.689177106,8.828359485,-22.04964256,10.9800278,-1.971093424
0.941629,14.26072407,18.53566837,-61.93473245,-3.532423824,-0.635383442,9.711712719,-24.95854521,6.535043387,-4.837949276
0.949962,14.05259657,18.59670019,-61.94883348,-0.904164337,-0.610383816,10.62484551,-25.02517796,6.365150869,-3.799608292
0.958295,13.83129692,18.6563654,-61.9866829,-3.296451122,-0.444297157,9.541905045,-25.70426178,5.59999548,-6.275347352
0.966628,13.57928062,18.66182089,-62.0148163,-0.497080387,-0.64110744,7.184199214,-29.81942511,-0.515613079,-3.747081161
0.974961,13.29311085,18.66869593,-62.1030369,-2.447628319,-1.466265962,9.43926537,-31.5042758,-1.798234224,-10.35502684
0.983294,13.0073514,18.65748072,-62.1577797,-2.501990011,-0.084317104,12.44861722,-32.87247896,-3.105467826,-6.240240425
0.991627,12.65512252,18.65257883,-62.2604904,-3.353302986,-1.436882779,11.14257383,-38.86373806,-3.437163457,-11.60724008
0.99996,12.26623702,18.61957693,-62.3660698,-1.26130195,-1.88062191,8.170159459,-43.25852108,-6.77215901,-11.25332046
1.008293,11.82160807,18.57467604,-62.49802398,-2.566282451,-1.668097168,9.156923533,-48.95229912,-8.687314303,-13.98974872
1.016626,11.34516549,18.54936886,-62.61501313,-2.071436286,-0.854360007,12.03277254,-53.37711716,-6.024966837,-12.7881012
1.024959,10.78330493,18.47996616,-62.78140065,-2.939946473,-2.264555007,9.064361454,-61.64797592,-12.08115065,-17.41720796
1.033292,10.18126082,18.42540979,-62.91529465,-1.610987555,-1.846769184,5.993754506,-67.8319931,-9.6009413,-14.16797781
1.041625,9.529178858,18.30304193,-63.0938854,-1.480933026,-0.661171209,10.1763134,-72.06436348,-18.23326206,-18.02812219
1.049958,8.849300503,18.23179579,-63.24606135,-3.298843414,-1.686622381,12.16311312,-76.4768219,-11.57401657,-16.0733161
1.058291,8.106491208,18.10008144,-63.41909408,-2.24054198,-1.599259049,10.33469129,-83.2793045,-18.88016486,-17.65775085
1.066624,7.31853807,17.94796467,-63.59121133,-1.037094675,-1.380562157,8.328473093,-88.84219551,-21.12730074,-17.44868803
1.074957,6.513946056,17.78800583,-63.7669773,-2.882637426,-0.3029425,11.82497478,-90.66828155,-21.74739409,-18.11337829
1.08329,5.66479826,17.61249066,-63.9258766,-2.452893801,-2.000851661,11.09009445,-96.74595643,-23.33276463,-16.20018935
1.091623,4.779525101,17.40399814,-64.10746953,-1.748908654,-1.137538213,6.329048753,-100.2483425,-27.11086893,-18.84534168
1.099956,3.857663691,17.16059756,-64.271677,-1.820743844,-0.649959795,9.198595166,-105.3695831,-30.93505859,-17.04412437
1.108289,2.907895535,16.93925381,-64.4389,-3.177788675,-1.176051855,12.26507616,-108.7061501,-27.99655151,-17.94516993
1.116622,1.943582587,16.7140398,-64.596344,-3.252804637,-0.613367755,10.28085804,-110.8958073,-28.20159912,-17.20788098
1.124955,0.945906498,16.46968818,-64.76133155,-2.267437041,-0.524617895,10.86878991,-114.6650124,-30.07495213,-18.59854126
1.133288,-0.080931544,16.22620178,-64.91546058,-2.64932254,-1.718581468,9.564602134,-118.6391449,-29.82132435,-17.84464955
1.141621,-1.121898145,16.01601839,-65.07755855,-3.627810896,-0.053436622,10.45327842,-120.1335697,-25.29005194,-19.24565149
1.149954,-2.172291277,15.79988742,-65.22499653,-3.410127848,-0.258961029,11.24183536,-121.7954674,-25.87055206,-18.02263212
1.158287,-3.254203588,15.56559682,-65.37177278,-1.353153974,-0.795732841,9.387700557,-125.7166195,-27.61219311,-18.59921789
1.16662,-4.368207455,15.35137463,-65.52211,-2.910745919,-0.66310798,6.51943791,-129.5159149,-24.95915222,-19.35690594
1.174953,-5.466761112,15.1412015,-65.66271593,-3.698059022,-0.027117346,10.23377097,-128.0024147,-24.03192091,-18.76228809
1.183286,-6.573186755,14.92368626,-65.80057335,-2.792330027,0.136335321,14.87130475,-129.1176701,-24.7691021,-18.92677021
1.191619,-7.712365151,14.71805859,-65.9328575,-2.005771891,-0.024539054,8.970930695,-133.2093468,-22.88878489,-18.73881531
1.199952,-8.841693402,14.51454401,-66.05810355,-2.233700246,-0.64045007,6.164267063,-132.3320274,-22.52820015,-18.24773407
1.208285,-9.939469814,14.27963758,-66.16177748,-2.803881764,0.883471452,13.30419493,-129.1921158,-26.25675559,-17.1531508
1.216618,-11.0457344,14.06220699,-66.27110673,-2.214030638,1.042814195,11.82311773,-130.1852913,-23.81320715,-17.64132905
1.224951,-12.15247774,13.83308959,-66.35137178,-1.841085107,-0.245013695,6.372113824,-131.0344525,-25.43277121,-15.19279408
1.233284,-13.22003412,13.56376934,-66.43206023,-1.213034839,0.773632692,8.100222588,-126.4497681,-29.90500593,-16.82766771
1.241617,-14.2452004,13.27879238,-66.50015068,-3.029590175,1.527198814,12.60868681,-121.7426739,-31.70594073,-16.2691412
1.24995,-15.26404953,12.96590018,-66.54556275,-1.768109952,1.078019336,13.00272203,-121.6436329,-35.35211277,-15.17358685
1.258283,-16.26885152,12.67096949,-66.6126213,-2.49208203,0.480277782,10.14188969,-119.4686566,-32.3658309,-17.3904872
1.266616,-17.22551513,12.35932493,-66.65776825,-2.092378914,0.618417129,10.92673159,-114.3048783,-34.67514896,-16.31576347
1.274949,-18.145473,12.00546503,-66.69067765,-3.137171626,0.895607949,12.71549273,-110.1555519,-39.75822258,-16.87969518
1.283282,-19.07147026,11.66635371,-66.72338678,-0.659840912,1.612159416,13.19059467,-110.9734497,-37.77034855,-17.03491331
1.291615,-19.97884369,11.32092333,-66.7515049,-3.091918826,0.221948154,9.367783904,-108.8921471,-38.45245266,-17.03948999
1.299948,-20.81901837,10.98443961,-66.75839808,-2.410698086,0.263625881,8.245187759,-101.2887306,-37.99952889,-15.19687772
1.308281,-21.59741593,10.64128566,-66.77427293,-2.801250577,2.044679601,12.09590745,-93.73855019,-38.26923847,-16.67742729
1.316614,-22.35110378,10.30147743,-66.7529354,-2.393271923,2.434536308,10.8307693,-91.55543519,-39.22879219,-13.28389502
1.324947,-23.06991625,9.986635208,-66.7523651,-2.902517796,2.07706444,10.76135826,-86.91239929,-35.34649468,-14.73907399
1.33328,-23.72059298,9.685709238,-66.70806885,-2.284115166,1.633018226,11.37781716,-79.61876679,-35.73090363,-9.849874855
1.341613,-24.30327988,9.392983198,-66.68686488,-2.98333019,1.721104801,8.881339551,-70.99654389,-33.58278513,-12.21481538
1.349946,-24.7980156,9.118831039,-66.63054655,-2.228372008,1.574247509,10.16041207,-61.07648182,-33.17170477,-7.919667542
1.358279,-25.2513895,8.87664616,-66.59615135,-3.345500648,2.129341662,11.32089639,-55.79158306,-28.5295558,-8.756591559
1.366612,-25.64033031,8.630940198,-66.54841993,-2.264119134,1.735389411,9.667045117,-48.21645165,-29.50634289,-7.909003617
1.374945,-25.96646548,8.428940892,-66.50580213,-3.594737172,1.876127243,12.59271145,-40.65275478,-24.47675085,-6.157568336
1.383278,-26.2480402,8.242895365,-66.4916439,-2.498658568,1.34176828,8.709245683,-34.74415541,-21.22487736,-8.644588588
1.391611,-26.46359825,8.058622599,-66.4497051,-2.088767067,1.510349512,9.491250039,-27.33176708,-22.47006655,-5.579567194
1.399944,-26.63345575,7.904765368,-66.46467973,-3.147152126,1.325889751,10.62895477,-20.85501647,-16.13022661,-10.18778801
1.408277,-26.76145935,7.777001977,-66.43725205,-3.12796408,1.255345628,10.44643808,-16.55917239,-15.65088439,-4.183901906
1.41661,-26.85742045,7.643744826,-66.47281455,-2.978577376,1.086698001,9.735477685,-11.66215366,-12.79044175,-11.36082053
1.424943,-26.89432192,7.553010702,-66.46775628,-2.616986662,0.25182551,8.583692671,-5.222791522,-10.47415602,-4.581638277
1.433276,-26.91884089,7.475432873,-66.50516508,-2.713453442,0.753247487,11.58643269,-3.083384335,-6.720362484,-8.558849931
1.441609,-26.92810488,7.401832104,-66.53524973,-2.982998193,0.78777414,10.77961957,-1.337245815,-6.741065383,-7.403763056
1.449942,-26.92318488,7.339357495,-66.54531098,-2.485610455,0.829793204,11.59142208,0.038760677,-6.56642735,-4.829679608
1.458275,-26.9212246,7.295263291,-66.59426498,-2.67376715,-0.359990921,11.95371008,0.280456755,-2.580964535,-7.7931391
1.466608,-26.89775849,7.239758372,-66.61268425,-1.736766398,-0.462327689,7.789065839,2.365042504,-5.375643551,-5.360102177
1.474941,-26.86652041,7.171742201,-66.63144495,-3.58582288,-0.371300333,11.12229061,3.359701544,-6.771143586,-5.882793903
1.483274,-26.85384607,7.128881812,-66.65881155,-0.353269101,0.563234307,10.73017478,1.193415374,-3.547005087,-5.608413041
1.491607,-26.85605288,7.076148033,-66.70337868,-4.303602487,-1.068409976,8.457877397,-0.344255209,-3.741615593,-7.806815744
1.49994,-26.85241032,7.023904085,-66.70693588,-1.224316835,-0.666088067,10.0078578,-0.200428337,-5.829980135,-3.587735057
1.508273,-26.86406708,6.959799051,-66.7592964,-2.670245767,-0.127832323,10.87889219,-1.354653537,-4.542195201,-9.257469059
1.516606,-26.88751078,6.909384251,-66.77290725,-1.705680519,-0.403847453,9.727360965,-3.343307704,-5.093019039,-4.564892113
1.524939,-26.92131233,6.82301569,-66.79823305,-2.93176192,-1.085710727,9.739630104,-4.367659835,-8.379342734,-7.599997163
1.533272,-26.96668243,6.759381056,-66.81097985,-0.904684834,-0.110375245,12.02384663,-5.966823843,-6.555634797,-5.185592771
1.541605,-27.01729918,6.677068949,-66.8393936,-4.157703191,-0.233084057,10.1283896,-6.409040332,-7.745809555,-7.758590579
1.549938,-27.07762432,6.596580267,-66.82544708,-1.720845312,-0.742902987,11.20709586,-8.084994732,-9.79580885,-3.293940216
1.558271,-27.14941121,6.523743272,-66.86354448,-3.372706413,-0.313100199,11.4503696,-8.827025653,-6.199164628,-8.268846631
1.566604,-27.21253968,6.435401082,-66.84460643,-1.427001685,-0.227836549,9.961458206,-8.524105191,-10.89967906,-3.234277904
1.574937,-27.2896905,6.313059688,-66.83758735,-3.072828174,-0.521363601,11.56529498,-10.02800238,-13.91192919,-6.251412273
1.58327,-27.37365055,6.232077837,-66.8197956,-0.355655,-0.841672555,11.21315622,-10.98875809,-10.05527258,-2.949463353
1.591603,-27.45405722,6.090335011,-66.80560493,-3.259694875,-0.564204335,9.619539976,-10.55478454,-16.35255647,-6.614481688
1.599936,-27.52907562,5.975507498,-66.74474145,-2.107635141,0.243350905,11.80627585,-10.40280259,-16.02076816,-0.302939534
1.608269,-27.59970474,5.846966863,-66.73127938,-2.478298545,-0.658796802,10.41027928,-9.397091032,-14.89848637,-5.978953302
1.616602,-27.65507221,5.743370176,-66.68156625,-3.135774605,-0.087182641,10.90897656,-7.957204461,-14.2033267,-0.887949631
1.624935,-27.69721412,5.623063445,-66.6373577,-3.085302055,0.133368447,11.84798288,-6.31288308,-15.71186853,-2.323467791
1.633268,-27.73148632,5.524923444,-66.60031703,-2.326954901,0.433958371,12.59208441,-5.248655677,-12.92428935,-1.925246805
1.641601,-27.76283312,5.447039842,-66.5730343,-3.48267597,-0.475912996,12.52846742,-4.86271596,-10.25583327,-1.75267674
1.649934,-27.79033995,5.386101365,-66.53990938,-3.360461086,-0.68116279,9.416084528,-4.362713237,-8.753764868,-0.289591372
1.658267,-27.81458044,5.30813241,-66.51660155,-1.467118182,-0.209628919,11.40973044,-3.925164134,-10.04641986,-2.191611782
1.6666,-27.84962463,5.263559103,-66.48534585,-3.247076452,-0.990374178,12.17203307,-5.263146073,-6.912302375,0.44095549
1.674933,-27.91787434,5.256068826,-66.48788838,-1.996487301,-1.077460125,7.990262508,-8.945513608,-1.119703889,-0.977983803
1.683266,-27.98054934,5.245170117,-66.49466513,-4.307664156,-0.313498883,10.3784647,-8.171671509,-1.21143204,-1.706763297
1.691599,-28.03579283,5.28851974,-66.49239923,-3.492112369,-0.75757879,12.45332193,-7.428394914,3.993212252,2.397854373
1.699932,-28.11539078,5.322860718,-66.54753495,-2.490164399,-0.557865351,11.19594765,-9.686744929,6.302671999,-4.232423186
1.708265,-28.19888544,5.417698383,-66.57313918,-2.856536627,0.36973767,10.80314541,-10.50330543,11.00816292,2.396058381
1.716598,-28.28335286,5.52317822,-66.65311433,-2.196506023,-0.880798504,9.776693581,-9.948475719,15.2315228,-2.788539216
1.724931,-28.34104538,5.63791132,-66.71725655,-3.199329257,0.17597205,9.719354867,-6.935958743,15.29260516,-0.52376312
1.733264,-28.38867951,5.768785596,-66.78454973,-3.40624249,0.350470625,11.64607525,-5.621394396,17.19532466,0.005033136
1.741597,-28.45329142,5.90981555,-66.878973,-1.674911678,-0.000114083,10.99921846,-7.357800366,19.7767129,-2.148868591
1.74993,-28.51341295,6.071873904,-66.95156863,-2.198675737,-0.473928794,7.706421614,-7.036469817,20.78708792,1.298152435
1.758263,-28.57029343,6.230531216,-67.04572295,-1.688410737,-0.477577612,7.014382601,-6.349294484,21.61480856,-1.095031419
1.766596,-28.60323143,6.368675947,-67.12733075,-2.44739683,-0.533650521,10.72027731,-3.581021518,18.77855945,-1.01167601
1.774929,-28.62244845,6.528405667,-67.1987877,-2.062357515,0.111151696,12.03191233,-2.087624997,20.43531275,1.383630177
1.783262,-28.66601992,6.698140621,-67.30360028,-2.231358022,-0.679732555,11.2954719,-4.491689086,23.42363453,-1.573002912
1.791595,-28.69684887,6.812390924,-67.36192705,-0.858181551,-0.300202575,7.992720127,-3.607112984,14.89272523,0.15054822
1.799928,-28.71624088,6.921589255,-67.4296417,-2.670090437,-0.752989851,11.85199165,-2.035413414,14.93008733,-1.169504874
1.808261,-28.72791338,7.0300349,-67.48547363,-1.561126985,0.129553159,12.85519553,-1.320234634,14.13582611,0.089643471
1.816594,-28.74410296,7.08216393,-67.5376053,-2.349801233,-0.367914855,8.654753208,-1.867959928,8.033970149,-2.833312571
1.824927,-28.75550556,7.143642068,-67.5624733,-1.155109778,-0.98640627,9.187389374,-1.734775566,7.417287634,0.65730612
1.83326,-28.75962019,7.17182517,-67.59913445,-1.634100914,-0.126667225,8.381332398,-0.640531921,4.623021067,-2.598365605
1.841593,-28.76477671,7.163095355,-67.61487008,-1.410717417,-0.261036333,8.88281703,-1.115474351,-0.493214965,-2.458240062
1.849926,-28.74580383,7.168885469,-67.63079263,-2.757755458,-0.901134513,12.03148389,1.821319342,1.084372373,-1.72913371
1.858259,-28.73441792,7.153630734,-67.63277243,-1.922416807,-0.207807806,11.95992911,0.673673481,-1.97601974,-1.389005442
1.866592,-28.72207833,7.122912169,-67.6383686,-1.916104779,-0.50133425,10.62597954,0.907429129,-3.353521586,-2.733948141
1.874925,-28.68202448,7.088806152,-67.62052915,-1.692305174,-0.333624192,10.695472,3.796324074,-5.096073628,-0.401032468
1.883258,-28.66413355,7.04033494,-67.59882928,-2.643449456,-1.025568124,11.29612231,1.171953865,-6.785518229,-0.900167584
1.891591,-28.64620733,6.985742331,-67.57021903,-1.521470256,-1.255676091,8.075155734,0.975002855,-7.865181326,-0.46113953
1.899924,-28.62737275,6.936534643,-67.53881453,-3.47730875,-0.559663065,12.25050926,1.08659113,-7.413352132,0.065364316
1.908257,-28.61981249,6.903274775,-67.50709725,-2.623021305,-1.273053304,10.62415409,-0.323786259,-5.798742653,1.114830848
1.91659,-28.61716127,6.847685933,-67.47786713,-2.549632758,-0.455969702,9.479541302,-0.804187849,-7.965131641,-0.524624452
1.924923,-28.62197113,6.80805397,-67.45129203,-1.826428861,-1.178303614,10.36430669,-1.733216107,-6.175816715,0.217925817
1.933256,-28.63418436,6.775393486,-67.43162348,-2.945444584,-0.798290249,10.64690685,-2.470515445,-5.001563788,-0.206566014
1.941589,-28.65897274,6.709427595,-67.40070533,-2.121285349,-0.871758007,10.27067006,-4.154274046,-9.206320404,-0.848567674
1.949922,-28.68698216,6.693730831,-67.39286993,-2.73372817,-1.448225379,9.901124717,-4.205047041,-2.540663681,-0.462900542
1.958255,-28.71304751,6.646024585,-67.37304495,-2.466961682,-0.395217868,11.97877979,-4.163324893,-6.652343931,-0.967785839
1.966588,-28.75213051,6.625717282,-67.36386873,-3.482190252,-0.924410649,10.8643533,-5.52208963,-3.103494454,-0.584792122
1.974921,-28.77619552,6.597165227,-67.3456974,-2.450607777,-0.735155746,11.26501846,-3.882855714,-4.55459559,-0.029731721
1.983254,-28.82283831,6.585092306,-67.33891298,-2.331497245,-0.798421942,11.03751612,-6.399787426,-2.102493704,-0.356883079
1.991587,-28.85674334,6.564411521,-67.31510735,-2.205671102,-0.513890298,9.992522239,-5.149527699,-4.05097446,1.02586604
1.99992,-28.89834738,6.544306398,-67.29000283,-3.11921227,-1.276246354,10.20747328,-6.025288344,-3.996810425,1.05498007
2.008253,-28.95675135,6.555532813,-67.27508545,-1.446588993,-1.001209959,11.14768529,-7.990636678,-0.197460413,1.977393374
2.016586,-29.01004076,6.534130096,-67.25333978,-3.613440514,-0.445765868,8.83106804,-7.402577996,-3.939981729,0.629466706
2.024919,-29.05717373,6.559049368,-67.22737123,-2.969744057,-1.178058982,11.88501477,-6.795642733,0.590523541,3.933776737
2.033252,-29.10879898,6.575507522,-67.23833083,-2.933161586,-0.237772577,10.76149869,-6.759955347,1.920462653,-0.567499463
2.041585,-29.16291332,6.59336257,-67.21295168,-2.454260707,-0.332224584,10.00325239,-7.647047281,-0.113320425,3.441048704
2.049918,-29.20751286,6.624676228,-67.23105813,-3.468874991,-1.156499475,11.23772526,-5.814714088,3.892720983,-0.429403752
2.058251,-29.25430059,6.672946215,-67.22157673,-1.535947323,-0.323930923,11.04086995,-6.516537309,3.969300508,3.596008331
2.066584,-29.30704451,6.678276777,-67.24228668,-2.761128239,-0.88241816,8.822483539,-6.749159455,1.327902869,-2.220299661
2.074917,-29.33302879,6.750195622,-67.24440958,-2.224042073,-0.936254345,10.10195243,-3.86658442,7.120293381,3.782428741
2.08325,-29.35703945,6.772668004,-67.25144765,-2.722374946,-0.69203379,10.81830931,-3.485232741,2.315068916,0.206332281
2.091583,-29.38959837,6.843853235,-67.27713778,-2.363928721,-0.434404101,9.704495786,-4.309864044,8.4181824,1.288949967
2.099916,-29.39776325,6.88670671,-67.28066828,-3.485509023,-0.574452389,10.760746,-1.660609232,4.246225268,1.761119627
2.108249,-29.40333366,6.968742728,-67.30446053,-2.035393823,-0.544707816,12.17577481,-1.056251213,9.438181163,2.137853809
2.116582,-29.40092039,7.02422297,-67.32352638,-3.555563107,-0.643786401,10.31763053,-0.157521173,6.476399302,0.891589917
2.124915,-29.39644289,7.09293592,-67.33599283,-1.632265851,-1.08531661,9.396243096,-0.021541633,7.388170718,2.519384295
2.133248,-29.37242127,7.152986407,-67.35851668,-2.500355467,-0.894861214,11.35326004,2.481030464,7.156252861,0.815371707
2.141581,-29.35913229,7.194680095,-67.36522293,-1.821668752,-0.509982608,10.72816944,0.963428452,4.236408978,1.496627011
2.149914,-29.35533333,7.251567841,-67.38946725,-2.594006047,-1.677442882,7.752363443,0.06407395,6.926345856,0.450253338
2.158247,-29.31942844,7.290880322,-67.39647865,-1.928292945,-0.32355468,11.97544956,3.692887403,3.993064046,1.336829334
2.16658,-29.29744768,7.339176535,-67.43013955,-3.789407671,-1.126844704,10.46500278,2.398501277,6.582036436,-1.042099134
2.174913,-29.26800204,7.386698723,-67.4322834,-2.160844267,-1.030074382,8.805853129,2.851959374,4.572006836,2.30778186
2.183246,-29.2328043,7.431736231,-67.46999935,-2.186856747,-0.974972409,11.81547236,4.041741148,6.469500661,-1.646134372
2.191579,-29.19659901,7.471426725,-67.48110773,-2.73107335,-0.288610205,11.26426744,3.785953552,4.280074744,0.910835832
2.199912,-29.18144226,7.524264693,-67.5111065,-3.243618071,-1.96953091,9.162639976,1.536969304,6.835341572,-0.392736524
2.208245,-29.14241219,7.549530864,-67.5217228,-0.321698085,-1.117804922,10.46640491,4.140647104,2.748590074,0.107531548
2.216578,-29.12089777,7.588534713,-67.54972838,-3.384239197,-0.860675859,9.233269931,2.279100098,5.272119999,-1.006914899
2.224911,-29.09038639,7.622549415,-67.56324385,-2.168611974,-1.8644315,9.355159522,3.156339705,3.834614316,0.29805994
2.233244,-29.06399918,7.660412312,-67.5854988,-3.038185954,-0.775563825,11.93144822,2.782205701,4.815505698,-0.476517662
2.241577,-29.03883171,7.696291447,-67.60945703,-2.414482474,-0.894094996,11.76201713,2.675195575,4.633989931,-0.680650326
2.24991,-29.03167963,7.751168728,-67.62596133,-2.932886541,-1.577845454,8.834567428,0.362108462,6.269247948,1.110758093
2.258243,-29.00065899,7.779962778,-67.6586132,-1.642428338,-0.808635905,11.36278725,3.540992111,4.387347368,-1.987741589
2.266576,-28.99297142,7.819658279,-67.6643753,-2.769757688,-1.743199647,9.912042141,0.281487703,4.060973645,1.345266029
2.274909,-28.98166657,7.85345912,-67.69837955,-1.8182626,-1.299006015,7.161060809,1.175546259,4.992509328,-1.855248749
2.283242,-28.96881247,7.887177825,-67.71079448,-1.958787933,-2.083510205,11.43689966,1.008534908,3.815503418,0.306980193
2.291575,-28.94873143,7.908191443,-67.7344971,-3.08818245,-0.38290669,10.03048611,2.049577594,3.056815922,-1.533412427
2.299908,-28.95823908,7.959618926,-67.76506998,-2.369854182,-1.871825598,9.829154372,-1.379009709,6.719174801,-0.553376325
2.308241,-28.94561005,7.969472885,-67.7799473,-2.446567476,-1.066536822,11.51381314,1.040097952,1.390734614,-1.284771562
2.316574,-28.94950056,8.023413777,-67.81976698,-2.108812541,-1.02526027,9.099097251,-0.546754897,7.519123555,-1.366369076
2.324907,-28.94415426,8.01704371,-67.82526205,-1.905517161,-1.568715945,8.689818262,0.02336327,-0.855954052,-1.257604391
2.33324,-28.93476057,8.057298661,-67.86144448,-2.110010654,-2.095493466,10.54827273,1.000354484,5.86940384,-1.786474445
2.341573,-28.93330383,8.023984313,-67.84914588,-1.850273967,-0.354801381,10.56712973,-0.742899328,-4.708021998,-0.962787929
2.349906,-28.93210411,8.068037033,-67.8869629,-3.394209147,-2.717129737,7.429961443,0.045945346,6.359212102,-1.757901881
2.358239,-28.91249991,8.048618317,-67.8730698,-1.899762794,-0.7514681,14.56428981,1.410877228,-3.3456707,0.036852524
2.366572,-28.9095645,8.088585973,-67.9057293,-3.82117109,-1.269148007,7.898923055,0.176257968,5.637805849,-1.470939204
2.374905,-28.91128779,8.070570588,-67.88503075,-1.567660991,-1.795677215,11.33927369,-1.282629632,-3.592611135,0.849745799
2.383238,-28.89999962,8.094852686,-67.9087143,-2.665615589,-1.272187438,10.94431055,1.035378546,3.470940024,-1.452800961
2.391571,-28.91639471,8.074295759,-67.8712368,-1.717402923,-1.580785096,9.426466419,-3.345036805,-4.81132754,2.443591595
2.399904,-28.93031692,8.094336391,-67.89656448,-3.211374939,-2.136849016,8.958766817,-1.948817521,3.118770302,-1.89017693
2.408237,-28.94846726,8.100250602,-67.8733692,-2.433125608,-0.891952479,13.48782229,-3.336564899,-1.21854645,2.517098084
2.41657,-28.9572587,8.110593081,-67.89394185,-3.594447941,-1.105943203,7.339507043,-1.419963718,1.833937883,-1.966289953
2.424903,-28.98265887,8.150110841,-67.89125633,-1.917113706,-2.205494792,9.832367421,-3.912212998,3.487486959,2.358446986
2.433236,-28.98979044,8.16421175,-67.91623305,-3.172783464,-0.772467293,10.26600528,-1.126338631,2.47535783,-2.19077307
2.441569,-29.02718878,8.232334257,-67.9355831,-2.112031102,-2.149901778,9.45608473,-4.966040433,7.773237229,1.705236047
2.449902,-29.05019856,8.24329257,-67.96258163,-1.779416412,-0.794231474,9.53649831,-2.980386406,2.260326416,-2.58310619
2.458235,-29.06695414,8.338925004,-68.00896073,-3.265559398,-1.972844571,9.444680096,-1.991007805,12.20920634,0.498946458
2.466568,-29.08388376,8.338428974,-68.02330208,-0.953995123,-0.678512298,10.44481763,-2.45927754,0.336057545,-1.924135428
2.474901,-29.10727596,8.455996037,-68.09658053,-4.749011472,-2.207291186,8.148018688,-2.320954093,16.04796272,-1.002617747
2.483234,-29.14051247,8.495579124,-68.12666703,-0.714296032,-1.289076496,12.62262941,-4.161067784,5.445231527,-1.181940392
2.491567,-29.14812851,8.602259874,-68.19422343,-4.605724708,-1.605281323,7.727656095,-0.470223278,14.57948089,-1.065289229
2.4999,-29.1808219,8.677486897,-68.24415208,-0.335849613,-1.01981152,12.19167292,-3.769324437,10.33348158,-1.126482367
2.508233,-29.21232605,8.757766485,-68.29787448,-4.381934322,-2.835937739,6.37801093,-3.500077009,11.0143733,-1.187981844
2.516566,-29.24644709,8.871210575,-68.3527794,-0.83139357,-1.178745724,12.44933319,-3.829501688,14.61959791,0.631231142
2.524899,-29.27001429,8.952272892,-68.38977813,-4.589394316,-1.21111431,8.042989076,-2.827239514,10.12802921,0.58247447
2.533232,-29.28931999,9.110519648,-68.43844603,-0.89965865,-1.286977286,8.124415279,-2.155883283,18.94008998,3.923046351
2.541565,-29.27075625,9.202650071,-68.4590683,-5.046900779,-0.489983764,10.25349045,1.940223456,10.3372792,2.941538811
2.549898,-29.24182081,9.398668288,-68.49353788,-1.455770905,-0.932763344,8.161310563,3.365023613,22.07529575,7.57849586
2.558231,-29.16270017,9.514830351,-68.50566483,-4.343484534,-0.18769072,9.321224572,9.063840747,12.38778839,5.209802567
2.566564,-29.04659748,9.748594761,-68.52960208,-1.070163325,-0.3147254,8.350998758,13.65509707,25.44703782,10.79194188
2.574897,-28.87877941,9.881699084,-68.5329094,-4.177585334,-0.056928929,9.724404454,19.52324903,13.72110784,7.008020878
2.58323,-28.6803608,10.13825441,-68.54675295,-1.414808028,-0.519344684,10.12903976,23.35430384,27.33579278,12.98859978
2.591563,-28.44467974,10.28173995,-68.54279708,-3.484866917,-0.007489718,9.757076561,27.50619507,14.45647001,8.258690954
2.599896,-28.15024853,10.55394244,-68.54787065,-2.173600927,-0.68770954,8.148301003,34.70171642,28.62088943,14.52890158
2.608229,-27.80299473,10.74482894,-68.5393448,-2.99345988,-0.404641867,11.17450345,40.78959274,19.33297944,11.22910833
2.616562,-27.41953993,11.0300963,-68.52936173,-3.156121575,-0.170794356,7.047092407,45.07595349,29.3938942,16.46609664
2.624895,-26.97026157,11.29301524,-68.5252304,-3.619002015,-0.007793091,12.4130559,53.10863113,27.43182803,14.36379099
2.633228,-26.47069884,11.58839273,-68.4924507,-2.0955429,0.016118261,9.079876066,58.46681118,29.54405117,18.99841332
2.641561,-25.91315842,11.92521214,-68.49600223,-5.995878756,0.671380997,11.5999434,66.22167492,35.93390465,17.06701899
2.649894,-25.3005352,12.25755382,-68.45957568,-2.020574927,-0.288799953,10.9272387,71.89436626,33.75097895,20.75499964
2.658227,-24.6252594,12.61957669,-68.4518204,-5.105266899,0.061855121,9.0358004,80.08436966,38.46676731,18.68972802
2.66656,-23.90749216,13.01895762,-68.43070985,-2.091446713,-0.856437042,12.94518232,84.85705376,42.29449082,21.55638838
2.674893,-23.15059662,13.3777237,-68.41674043,-3.799008846,-0.082279604,6.603110194,89.71447182,38.25231791,18.28145719
2.683226,-22.36450911,13.8261323,-68.41095353,-3.323223248,-1.67754297,12.52529359,93.44647788,49.026927,20.96545172
2.691559,-21.54911661,14.18827319,-68.38875583,-1.60156991,-1.099112541,9.407062769,96.48039627,38.7662468,18.34652186
2.699892,-20.7266717,14.66256499,-68.37665558,-3.208957851,-2.210299015,9.215513108,97.59601593,52.26838398,21.33690787
2.708225,-19.89864588,15.01327419,-68.341568,-0.794508558,-0.805760153,9.681848413,97.57995796,37.48390579,18.26083851
2.716558,-19.05909491,15.47634554,-68.32136155,-4.0758515,-2.820608288,9.646609663,99.39302064,51.33476639,20.2781024
2.724891,-18.22484207,15.80029893,-68.25356293,-0.119401515,-2.412828833,10.38965753,97.18925857,33.75340986,19.78102327
2.733224,-17.37951851,16.21706915,-68.2177544,-4.83990562,-0.828958482,9.97217375,99.54936029,46.02065277,18.81416273
2.741557,-16.55019689,16.53104496,-68.12882615,0.272281527,-2.086483598,11.41444462,95.83696175,32.52083635,20.45260239
2.74989,-15.70493794,16.86011076,-68.07504653,-5.014476001,-3.21986109,8.613570154,98.88636971,35.86598826,16.58804488
2.758223,-14.87747932,17.19920492,-67.97523878,-0.866889432,-1.297465116,12.75832057,95.10933113,35.75136662,21.14839506
2.766556,-14.04065371,17.4481163,-67.90923883,-3.45271343,-3.144997895,8.227698326,97.38441086,26.68976641,14.55563688
2.774889,-13.19333744,17.7715087,-67.80146028,-2.665724546,-2.530967951,11.27465248,97.07419395,34.33635855,20.5179553
2.783222,-12.39376617,18.05284452,-67.72872733,-3.400321365,-2.699046969,10.49545181,92.57726861,30.70110226,15.24397278
2.791555,-11.59609866,18.31602621,-67.60445213,-1.882074602,-2.494136572,7.605598808,90.39072609,27.50340224,19.92164898
2.799888,-10.84626841,18.63168192,-67.544878,-4.836007297,-3.177480519,16.40155339,86.99898529,35.39678335,13.51008725
2.808221,-10.15692663,18.92970133,-67.42998698,-1.134387002,-4.035420537,9.805125236,77.57164288,32.31968451,18.95053911
2.816554,-9.520670176,19.18736601,-67.37568663,-3.52102235,-3.834952355,5.979949236,73.51567936,28.92808008,10.99874401
2.824887,-8.894860149,19.50267029,-67.26953888,-0.97699228,-3.03300333,12.75591683,70.14892673,34.95925236,17.5166409
2.83322,-8.350938916,19.76018763,-67.2202282,-2.022158846,-3.579816341,8.598952412,62.58027268,29.2446537,9.81573236
2.841553,-7.857352614,20.02838087,-67.13095473,-1.854723394,-4.085147739,6.721215664,54.86198521,30.00667,14.13436794
2.849886,-7.426277399,20.2695384,-67.06197928,-1.91492106,-2.401803374,8.616719189,48.17291832,27.19879675,11.21318054
2.858219,-7.01122284,20.45277023,-66.9666386,-1.00818342,-3.480443776,9.705679177,45.13337421,20.05770063,13.09704542
2.866552,-6.618782043,20.72078419,-66.88821793,-4.368426502,-2.108414978,13.49016833,43.07894993,30.45131588,12.13184595
2.874885,-6.254848838,20.91812181,-66.77457428,-0.338743687,-2.913327992,7.703056545,38.13381243,21.69592405,15.00033927
2.883218,-5.895122171,21.07946587,-66.68103215,-2.785613604,-1.727939531,5.758866191,38.43305111,17.68048835,12.11124587
2.891551,-5.52013433,21.29389572,-66.55072783,-1.768578321,-2.817637682,12.82119727,38.64883042,23.74554062,16.69059658
2.899884,-5.1583637,21.42592811,-66.43770598,-2.161205664,-0.790244252,7.726959944,37.76237011,14.14141071,13.69073868
2.908217,-4.781043113,21.63354969,-66.30547523,-2.879396916,-2.321558327,8.251377224,38.75613308,23.13915539,16.44046545
2.91655,-4.404755533,21.73143339,-66.17353058,-0.799995035,-1.509355709,8.106166488,38.59097099,10.05695558,15.31772757
2.924883,-4.007395089,21.89467478,-66.0454407,-2.272680521,-2.017045558,6.857288078,41.28126717,18.08806896,15.26018644
2.933216,-3.601909101,21.98628474,-65.91139793,-1.862611734,-0.901370917,13.72122323,41.91772366,9.496029377,15.30078483
2.941549,-3.14996624,22.09716368,-65.7705841,-3.211645007,-1.593650118,6.551822423,47.20782852,11.96316588,16.04695201
2.949882,-2.680368751,22.20560646,-65.6367855,-2.017172087,-0.707441106,12.45833147,49.5645113,11.7611562,15.13529992
2.958215,-2.158362717,22.25148153,-65.50120548,-2.354797855,-1.339906931,10.4170059,55.81742573,4.474640847,14.9989419
2.966548,-1.621212378,22.33673764,-65.3523636,-2.227986396,-0.454830766,9.761366606,56.95309925,9.199591102,16.47789049
2.974881,-1.041504551,22.33759069,-65.21436693,-1.119288504,-1.222087145,8.03406811,62.60673714,-0.62945372,15.03635574
2.983214,-0.405568116,22.37471151,-65.05958175,-1.231026173,-1.514371947,8.923846722,68.5226965,3.763058459,16.85732103
2.991547,0.257591799,22.32378578,-64.91262625,-2.172467068,-0.520813352,8.827435255,72.18719768,-6.529300095,16.05880475
2.99988,0.957034813,22.31891918,-64.75005723,-2.214262628,-1.020317495,9.260770946,75.82439423,-0.825817526,17.69205379
3.008213,1.700675324,22.23024511,-64.59409715,-2.235858977,-0.653838363,12.19258571,81.47019005,-10.61669851,17.29890371
3.016546,2.487428337,22.17030811,-64.4229374,-1.519948307,-0.65589558,7.343357205,85.94560623,-6.936823964,18.9279604
3.024879,3.303490758,22.03391791,-64.26780893,-1.911511362,-0.725895325,12.43801141,90.21989632,-15.8946166,17.81227136
3.033212,4.153218448,21.92421436,-64.08923533,-2.052545533,-1.348877162,8.427412867,93.24986267,-12.27333498,20.31841469
3.041545,5.022444069,21.73473072,-63.94406318,-1.434754402,-0.880997628,11.1073153,97.11062813,-21.80722976,17.69848919
3.049878,5.943463445,21.59225846,-63.7757759,-2.271815181,-0.722113066,10.00307298,102.3486309,-15.67146588,19.94225693
3.058211,6.855694056,21.38805389,-63.63583183,-3.135807544,-1.936428994,10.6933949,102.5986309,-23.0537436,17.95759058
3.066544,7.815213323,21.20307303,-63.48065948,-1.725880749,-1.391083241,11.96130323,107.6641579,-20.23881221,19.70900536
3.074877,8.7464602,20.98883915,-63.3579235,-2.59742296,-1.557522446,14.55219126,105.7184983,-23.92456198,16.96855998
3.08321,9.69106221,20.75940705,-63.21157458,-2.012952611,-2.323023498,8.631362678,106.3856678,-24.96045923,20.34173727
3.091543,10.6215589,20.50669336,-63.1118908,-1.242535547,-2.37738061,11.59029639,106.6951275,-28.35889769,16.04183412
3.099876,11.56108975,20.23754835,-62.98986625,-2.795387477,-2.159336805,13.59934903,106.9115658,-29.48063708,19.39173317
3.108209,12.44916177,19.99274874,-62.89006803,-2.608309567,-1.996129572,11.94799375,101.7313118,-26.87632036,16.64266801
3.116542,13.31571388,19.66529226,-62.80291173,-1.521907084,-2.86495775,9.850965858,99.71057892,-36.52737236,18.10373926
3.124875,14.16480017,19.3910861,-62.72649765,-2.686208397,-3.226419866,9.646131993,98.05287743,-30.43491078,15.77464509
3.133208,14.99731565,19.02835608,-62.6722107,-1.095052542,-1.672536329,13.23320937,97.00008392,-41.01193333,16.68426514
3.141541,15.79894281,18.77312279,-62.62534713,-5.558558703,-3.224515677,13.26539242,93.61598586,-28.64084435,12.72561836
3.149874,16.54689789,18.44716263,-62.57792665,0.346894205,-2.436287433,14.40031147,87.22828484,-36.5162592,15.70383596
3.158207,17.23466778,18.18178129,-62.57344438,-5.184069216,-3.1870448,9.727863192,81.58745003,-30.85519648,9.238803327
3.16654,17.88332653,17.90962267,-62.52262308,-1.02411212,-2.577505678,15.03241706,75.28159332,-29.83146858,14.88606668
3.174873,18.4587059,17.69425464,-62.5267868,-5.381373465,-4.819951594,11.45707488,68.49601746,-25.18414664,7.094048857
3.183206,18.97465944,17.43833089,-62.47941403,0.522790343,-2.323880315,6.424284816,59.58226681,-27.7684679,14.51869941
3.191539,19.42026329,17.27262759,-62.48179245,-6.71951431,-3.599955916,12.38040579,52.83812046,-19.34003306,5.78723006
3.199872,19.83045483,17.11841131,-62.39611248,-0.613047589,-3.826703549,12.59486628,45.60216999,-14.5420154,15.00053764
3.208205,20.13514996,16.94211745,-62.41791343,-4.379597664,-2.650210828,7.176638185,36.57230091,-21.20906162,4.467658699
3.216538,20.41740704,16.86064768,-62.30497358,-1.116082132,-3.014625669,15.96457839,29.33535051,-5.094558538,15.10940671
3.224871,20.61643267,16.73600531,-62.30349545,-3.041984022,-3.399853438,8.199224984,23.08759546,-14.41085267,5.013853661
3.233204,20.79206324,16.6371336,-62.2104149,-2.183448811,-2.465765193,7.927748322,17.21784389,-7.745030373,13.77816158
3.241537,20.90461588,16.61889577,-62.1626892,-4.179173842,-2.739165992,14.76393866,11.18763161,-0.531855227,5.536475256
3.24987,20.98939657,16.52212262,-62.0764694,-1.064536264,-2.965231657,4.198461235,6.525366769,-7.731051505,13.03926194
3.258203,21.0437417,16.55108047,-61.98555183,-5.524736047,-1.211454406,11.43517005,2.755452381,6.562421919,8.127556682
3.266536,21.07037068,16.51380754,-61.88875008,0.796239186,-3.342197836,8.352506341,-0.775622249,-0.632732569,11.60315943
3.274869,21.08258725,16.48411751,-61.81095123,-3.224364936,-1.092722111,3.777372553,-1.910572358,-0.537204206,9.225977541
3.283202,21.11883736,16.50492883,-61.68718528,-3.266165748,-1.187081903,16.27163124,-0.481425938,6.980047107,11.92190313
3.291535,21.12380219,16.45454216,-61.61677933,-0.434529305,-1.561369695,9.01179385,-2.565653205,-3.162195564,9.335295676
3.299868,21.12435579,16.44504357,-61.52507213,-3.468689069,-1.651638687,10.48699963,-3.700117827,2.27477479,9.788449885
3.308201,21.16254092,16.43066693,-61.42953873,-1.075978935,0.260803789,13.2070353,0.597906704,1.918925971,10.48914278
3.316534,21.18790674,16.36417508,-61.38902665,-2.264701247,-2.59938547,4.171296537,0.964305669,-6.226718933,6.748151124
3.324867,21.23547745,16.28880692,-61.31090355,0.408635378,0.181686176,9.267047883,2.32443428,-5.617087275,11.26223266
3.3332,21.29792595,16.2237444,-61.29667475,-4.792596206,-1.005816047,12.56538916,6.317646473,-7.146010994,3.882923246
3.341533,21.37842512,16.12029624,-61.22959328,0.643648774,-0.51244767,9.555421352,6.692582099,-9.193377257,11.33646321
3.349866,21.45146084,15.9875865,-61.25866315,-3.053178937,-1.851037659,11.58874226,9.019777895,-16.51773357,2.233978495
3.358199,21.57475329,15.8673842,-61.20057873,-0.416696906,0.579776716,11.27518916,12.16287494,-11.40021193,11.13380337
3.366532,21.70720577,15.69299245,-61.25452423,-3.943550721,-0.711883467,9.937494516,16.90080023,-22.20868158,1.496854579
3.374865,21.87364006,15.52733922,-61.21280288,0.092043102,-2.027507514,7.704392017,17.9572537,-17.09724879,11.4978894
3.383198,22.01068211,15.30852532,-61.29429055,-2.019951165,0.069166254,7.941514134,18.28761244,-28.3518095,0.624580264
3.391531,22.17927408,15.11364722,-61.28866388,-1.948016561,-1.301797092,10.23577464,19.38454413,-21.84331346,9.032285436
3.399864,22.35566187,14.91979694,-61.3536663,-4.125523746,-0.187971681,15.36715794,22.4210043,-24.85905314,1.39234376
3.408197,22.53281355,14.74253798,-61.36290168,-2.924186826,-2.643068761,11.86181831,20.93072367,-20.47683191,6.763693333
3.41653,22.69586134,14.5474124,-61.43096158,-0.501394644,-0.616045698,8.914762854,20.85585833,-25.13644362,1.293127536
3.424863,22.88374329,14.39463616,-61.45783235,-3.456107378,-1.460425936,10.33127976,22.731534,-18.52048707,3.845300376
3.433196,23.05508471,14.20297313,-61.5197754,-1.63969593,-1.345662758,11.80936539,21.6213274,-24.47289181,1.895419955
3.441529,23.2090168,14.08734226,-61.55454063,-5.119472623,-1.588532515,12.03875565,18.8974793,-14.75383115,1.363451391
3.449862,23.3481226,13.92568326,-61.6036663,-0.486421324,-1.019666126,9.837850808,17.36808038,-20.55900335,1.980344176
3.458195,23.46071816,13.79892778,-61.65012173,-4.102809906,-3.072663099,8.801539899,14.24583006,-16.51861286,0.721779108
3.466528,23.56229734,13.67835713,-61.68637275,0.085075766,-1.482963886,7.91519642,12.45799255,-15.42574239,1.458461166
3.474861,23.64707279,13.59880519,-61.72876358,-5.799966455,-2.008913368,10.41332936,10.77572977,-11.14333892,-1.07917726
3.483194,23.71585036,13.52243328,-61.73021698,-1.632602319,-1.447496995,12.53709602,7.553125503,-8.922513783,3.103983164
3.491527,23.74991703,13.50369311,-61.75456045,-4.848330796,-1.939932719,10.77679074,4.213555142,-3.623105854,-2.042886377
3.49986,23.77971983,13.43048692,-61.75263405,-0.558307916,-1.014897302,9.933965445,2.771854224,-8.407278299,3.322864711
3.508193,23.79365873,13.42351794,-61.76712988,-3.996092558,-1.710237175,11.35208905,1.456160009,-1.879438311,-1.574011028
3.516526,23.80758715,13.38585305,-61.74079705,-1.87422663,-0.829330303,10.01067209,0.206966333,-3.353480041,4.189576887
3.524859,23.78835487,13.3844502,-61.75743293,-2.608504653,-2.097203911,10.05365777,-2.478917063,-1.372458797,-2.069437951
3.533192,23.77114105,13.34700394,-61.73453903,-1.866775215,-1.041857332,9.477519154,-3.413593441,-3.483533323,3.848392144
3.541525,23.73906946,13.33726597,-61.75618555,-2.037747354,-1.480555378,9.45231104,-3.91075933,-2.527388707,-2.227225155
3.549858,23.7116499,13.28354764,-61.7576561,-2.229579628,-0.661275618,11.85484338,-4.001414362,-6.401321173,2.038128078
3.558191,23.68488074,13.28865337,-61.77399638,-2.87987913,-1.167352557,11.83181381,-3.442326069,-0.644697487,-2.380087778
3.566524,23.65215922,13.24885631,-61.7772007,-2.937938437,-1.221751601,11.1661427,-4.531039953,-4.985490889,1.133017212
3.574857,23.60400677,13.23716474,-61.81215285,-0.450162828,-1.482560415,9.112953783,-5.488058657,-3.361110178,-3.554762885
3.58319,23.55856943,13.20056486,-61.82876398,-3.555281699,-1.009841509,11.11433399,-5.699888289,-5.246119458,-0.428503573
3.591523,23.50738526,13.1736188,-61.8670006,-1.486776114,-1.414444862,12.27127087,-5.799963892,-5.191837787,-3.227397427
3.599856,23.43062115,13.14893675,-61.89253045,-4.643505812,-0.927266543,12.95238161,-9.194791704,-4.353425563,-1.964941934
3.608189,23.35169077,13.13991737,-61.92065813,-0.382303475,-1.199186381,8.801556826,-9.395621658,-2.737492859,-2.976591826
3.616522,23.25173569,13.10205412,-61.95808793,-3.865328476,-2.500059188,8.383061767,-11.63137865,-6.363092915,-2.636175796
3.624855,23.14309073,13.07599735,-61.99967955,1.309255838,-0.895406876,8.274653613,-12.60819805,-5.227899722,-3.64017123
3.633188,23.03098345,13.06558442,-62.04184723,-6.553090722,-1.131477624,10.490821,-12.99161685,-3.516012371,-4.411345363
3.641521,22.92429638,13.03841782,-62.07467078,0.357260779,-1.053879485,13.08717847,-12.61717391,-4.941637128,-2.687128961
3.649854,22.78930664,13.05094433,-62.12065508,-6.28657347,-0.366816625,12.67161,-15.59107327,-1.160386025,-5.921606183
3.658187,22.66429091,13.05223107,-62.13924025,0.966554604,-0.825021356,9.614166021,-15.19075585,-1.133158088,-2.45118691
3.66652,22.5329628,13.06040931,-62.19641685,-5.606310487,-1.528349742,9.276560784,-14.8712914,-2.119511128,-6.954743386
3.674853,22.40574503,13.0600102,-62.21372413,2.448289216,-0.592721399,9.036594748,-15.49551034,-1.253621906,-2.248462826
3.683186,22.27574063,13.11377239,-62.26277543,-8.028425217,-1.110244725,11.23104406,-14.92636514,3.342272042,-8.127793074
3.691519,22.169765,13.13473725,-62.25221443,0.789368067,-0.773347378,12.233868,-13.68543029,2.354352117,-0.204404712
3.699852,22.04454041,13.2025919,-62.31280708,-7.102881789,-0.667639345,11.35763538,-14.02468562,4.440780164,-9.978108645
3.708185,21.93857241,13.22632718,-62.28171158,2.841044128,0.062595055,7.242526084,-14.24552965,3.560158715,1.928668872
3.716518,21.82598114,13.31221724,-62.3473835,-6.752584458,-2.140874371,7.216186761,-12.3644855,6.231840135,-11.44673431
3.724851,21.7308321,13.34441352,-62.31304933,2.034079895,-0.436870553,10.69755673,-13.06448222,4.630622067,1.887725026
3.733184,21.61582041,13.4454329,-62.37202455,-7.744519592,-0.552353188,13.57174886,-12.81738305,8.250850701,-11.3531965
3.741517,21.51881075,13.51407433,-62.31461528,1.881276429,-1.505218722,10.20269966,-13.8848052,9.669284344,2.842674017
3.74985,21.4150939,13.58950043,-62.39990425,-5.450666666,-0.12452154,8.703448296,-10.72993493,4.304963933,-13.12123567
3.758183,21.32887411,13.62694907,-62.34012985,1.583437301,-0.592828343,11.81092978,-12.70280933,6.266469597,4.464677572
3.766516,21.20683432,13.70633769,-62.4170475,-5.227911115,-1.352519154,8.902345298,-13.14293361,5.144815862,-12.36428076
3.774849,21.11800671,13.74176216,-62.36320878,0.163578451,-1.441337586,7.459244014,-12.82310128,5.770341426,3.954364775
3.783182,21.00880527,13.73911214,-62.44736863,-2.485803336,-0.130664531,10.5158453,-11.44676566,-4.240832359,-9.45737493
3.791515,20.91907597,13.74507356,-62.42107963,-2.181925565,-1.062650181,10.2956723,-12.14389897,1.301680461,2.229661672
3.799848,20.8264575,13.75890112,-62.47002985,-2.447222859,0.26589793,11.01087141,-10.46476614,-0.897231549,-6.330399511
3.808181,20.75132799,13.73700834,-62.46651268,-3.478993453,-1.165274538,12.98198962,-9.741649031,-2.76908505,0.942562759
3.816514,20.6624856,13.7374847,-62.4903202,-1.067450106,-0.015480436,9.005516888,-10.67412281,-1.414492235,-3.167405666
3.824847,20.59385109,13.71998644,-62.51623535,-2.357354649,-1.500214905,9.025676608,-8.122393251,-3.474619523,-2.448032796
3.83318,20.54301405,13.68496204,-62.5379448,-2.149548352,-0.076629866,10.07435131,-6.246105552,-5.249871962,-1.307219595
3.841513,20.481462,13.67610526,-62.5844326,-2.765272074,-1.075645089,13.62808347,-6.700437665,-3.337307886,-5.067642636
3.849846,20.4278183,13.66659904,-62.59539223,-2.559250258,0.480317324,10.79694152,-6.811660767,-1.994686255,-1.328920842
3.858179,20.37463999,13.65147352,-62.63043595,-3.043663889,-0.931828097,8.618550659,-6.013637126,-3.573125005,-3.567727417
3.866512,20.32139254,13.61534333,-62.67798803,-0.699168798,-0.965824306,9.959442377,-5.770395159,-6.454320766,-4.161030173
3.874845,20.26843643,13.59664488,-62.7171631,-3.076591045,-1.152192108,8.554316641,-5.890259624,-4.127109826,-3.874005869
3.883178,20.22009278,13.56556535,-62.76014328,-2.041540109,-0.685241357,9.809209704,-5.293864131,-5.709288776,-3.936645508
3.891511,20.15939141,13.56608391,-62.81991195,-4.618778616,-1.670318236,13.86314893,-6.261839152,-2.785753519,-6.939790368
3.899844,20.09008694,13.54777074,-62.84692003,-0.25046245,-0.296299417,10.5948832,-8.241582512,-3.586767793,-2.593470179
3.908177,19.9874773,13.56307459,-62.9182644,-4.480725288,-2.154384434,9.546377898,-10.95566774,-1.568084575,-8.8164438
3.91651,19.8778429,13.54358387,-62.94561385,0.235491084,-1.069967658,10.51936436,-13.09243214,-3.749572695,-2.68759054
3.924843,19.73134756,13.57399917,-63.0212574,-6.119803786,-1.250948183,13.68947649,-16.09776926,0.008863122,-9.879955053
3.933176,19.58123112,13.59812069,-63.01251985,-0.927153493,-1.921358958,9.448957086,-18.88195992,2.560410321,-0.554961599
3.941509,19.38384581,13.62435436,-63.11831855,-3.458094061,-1.191706859,8.384955644,-21.37152195,-1.569308318,-13.04470658
3.949842,19.16997385,13.62758899,-63.11571505,-1.383433819,-1.060901113,10.35447073,-26.37999916,-0.038174331,-0.415658578
3.958175,18.90669012,13.71318126,-63.20992468,-5.413364172,-1.761249811,11.4761461,-29.61639595,5.722746373,-14.08630741
3.966508,18.63753796,13.76551771,-63.22286035,-1.081546858,-1.605587721,10.02432299,-32.56673956,4.945695192,-4.000268369
3.974841,18.30882693,13.8190465,-63.32484053,-2.949150413,-1.577101365,10.00547945,-37.22651673,1.940362811,-13.70364785
3.983174,17.94347715,13.9140327,-63.35375215,-2.599948224,-2.356672973,10.76333034,-43.63202143,9.252347769,-7.267125547
3.991507,17.53312779,14.0059228,-63.44117165,-2.625676602,-1.382504553,9.993598819,-47.40785313,7.024416566,-13.42486155
3.99984,17.0761993,14.07918644,-63.49105455,-2.191977158,-2.988529816,7.742099973,-54.02897167,6.171370984,-8.497221886
4.008173,16.57518244,14.15379286,-63.58097265,-1.259847313,-0.826506449,6.618202209,-58.20840454,5.184771974,-13.03533924
4.016506,16.05481482,14.2798996,-63.63425063,-5.558911026,-2.361549944,12.67905354,-61.50216293,12.23656607,-10.61795723
4.024839,15.47906137,14.34092164,-63.7027874,1.49860701,-1.41690293,11.29660988,-67.75948143,4.528798521,-10.0698393
4.033172,14.84582663,14.44706917,-63.8008728,-6.272856176,-2.500608564,7.82178533,-73.67621422,8.753107368,-14.87909651
4.041505,14.21068716,14.5705092,-63.8400974,0.154175714,-0.232298449,14.77627254,-75.74759484,12.85715914,-8.523135425
4.049838,13.52205396,14.65748119,-63.94594763,-5.13350451,-2.217330292,8.879818976,-80.04058647,6.641643166,-14.97819495
4.058171,12.8101213,14.74195576,-63.99437523,2.080524549,-0.520693399,3.13315633,-84.66409493,8.226315022,-8.219894827
4.066504,12.06306029,14.84482551,-64.12905313,-6.907605472,-1.886081129,15.09428215,-86.16492844,8.194101691,-18.46692085
4.074837,11.30421924,14.93520475,-64.15268518,0.436907914,-1.318646228,10.74419105,-91.02735329,9.681222245,-5.226898585
4.08317,10.47335458,15.01426601,-64.32652283,-4.194365919,-1.778514683,6.045309305,-94.9528351,5.045229824,-22.19977808
4.091503,9.668964864,15.09873247,-64.35591318,-1.011282571,-0.433093727,14.02622175,-96.30219458,8.953551413,-5.538280801
4.099836,8.816512109,15.18619872,-64.52028273,-3.562635988,-1.006318005,9.528824686,-97.80959129,6.912523396,-21.00478745
4.108169,7.951693416,15.22266531,-64.58602333,0.511937603,-1.730428204,3.793678701,-102.3939495,2.732705227,-8.664660217
4.116502,7.046763897,15.26953388,-64.74964905,-4.521772623,-0.424219249,10.85264504,-104.1313419,2.773846307,-20.20025992
4.124835,6.177350879,15.31290793,-64.82739068,-1.47458224,-0.200768747,13.46413326,-102.5280437,3.608793023,-9.88183117
4.133168,5.288080216,15.31770587,-64.98238755,-2.519505121,-1.028118284,7.302985668,-102.4824734,-1.571245432,-18.55376673
4.141501,4.410680234,15.28340745,-65.0871792,-1.089456149,0.078167984,11.82699692,-102.608202,-5.686914324,-12.27537048
4.149834,3.530260146,15.28209496,-65.2197571,-3.576538503,1.124375075,11.82756567,-102.1673431,-1.564164937,-15.75257146
4.158167,2.669885025,15.25908279,-65.3212414,-1.251603991,-1.971245624,5.771271057,-100.6620636,-3.984419107,-11.97810149
4.1665,1.82976234,15.14859986,-65.45396425,-0.832798004,0.698127807,6.776039422,-97.36066819,-14.15891445,-15.56126225
4.174833,1.003111026,15.0537827,-65.55574418,-2.880055003,0.115973417,10.61412084,-96.64134216,-12.20984829,-11.99313259
4.183166,0.179253995,14.98045349,-65.6757908,-3.015926212,0.10884687,12.34775853,-95.88023377,-9.276334166,-14.18501365
4.191499,-0.62064235,14.83482385,-65.79446793,-2.073045701,-0.431700595,9.007955909,-92.95912743,-17.93834877,-14.30534697
4.199832,-1.413468698,14.68820548,-65.89938925,-1.987537809,-0.032950267,10.5367496,-92.67508316,-17.70912814,-12.94157875
4.208165,-2.198650703,14.54710031,-66.0282154,-1.786622212,-0.700892046,9.710405468,-90.95416069,-16.97326923,-15.86654759
4.216498,-2.960562885,14.40032029,-66.1387749,-3.47776559,0.646950513,9.367350519,-88.87660981,-17.35451436,-14.0542686
4.224831,-3.719856441,14.22807074,-66.25016973,-1.974393577,-1.04284535,9.314804077,-88.44114113,-20.38408542,-14.55225659
4.233164,-4.481449247,14.02995658,-66.36803628,-0.686313883,-0.417295866,7.284879685,-88.67281723,-23.10900068,-15.79768729
4.241497,-5.231069803,13.83492303,-66.4917927,-4.326645687,0.183467051,10.68286753,-86.99932099,-22.52804065,-17.01735282
4.24983,-5.98232925,13.64427757,-66.58797835,-2.361158997,-0.412145853,13.93029642,-88.12948227,-22.06271839,-13.756145
4.258163,-6.747166276,13.43600488,-66.72712328,-2.818560869,-1.408810414,9.210802317,-88.48454094,-23.48468781,-19.4661665
4.266496,-7.519290924,13.20957184,-66.8257389,-1.358484156,-0.291304838,8.714459062,-90.68143082,-25.88763714,-15.24673605
4.274829,-8.316756844,12.99848652,-66.9532757,-3.482150823,-0.586293563,12.55621791,-92.81130219,-23.49318123,-18.84270573
4.283162,-9.120003223,12.80389595,-67.06236458,-2.966754317,-1.044505634,9.849266528,-94.1909256,-21.55970478,-16.47400332
4.291495,-9.953694343,12.55583358,-67.17312435,-1.288784347,-1.35408622,5.712981939,-97.73364448,-27.63236904,-18.38055897
4.299828,-10.80185246,12.31229448,-67.27001763,-2.079423312,-0.704782993,9.632194041,-99.95185281,-27.14479732,-16.84111643
4.308161,-11.6461122,12.09838581,-67.38185118,-3.984166801,-0.622846872,11.31473148,-99.17793466,-23.10720396,-18.09763193
4.316494,-12.5144248,11.87933874,-67.47316363,-1.936724298,-0.565742286,11.33938837,-102.6207886,-23.90820265,-16.30363155
4.324827,-13.39081812,11.62419105,-67.56378175,-2.721891999,-0.58878326,10.47121012,-103.6447582,-27.96713734,-17.4317112
4.33316,-14.26917267,11.40909267,-67.64522555,-2.632050112,-0.526257893,9.038220407,-104.140337,-23.22658634,-15.84854818
4.341493,-15.1307652,11.19370913,-67.73591998,-3.062730977,0.677176833,13.32529306,-101.9619961,-22.80682278,-17.05553246
4.349826,-15.99442172,10.96930313,-67.79496573,-3.321025461,-0.502162477,11.21469307,-102.9503269,-24.53928185,-14.27159119
4.358159,-16.86902833,10.77066231,-67.86718178,-2.073831186,-0.537751943,4.71010986,-104.049017,-20.9855547,-14.97293305
4.366492,-17.70817804,10.55172992,-67.92840578,-1.741430469,-0.061917186,9.344304563,-100.021965,-23.39749718,-15.09390307
4.374825,-18.53417969,10.33427668,-67.96630863,-3.756966919,0.301612914,13.56436634,-99.01117515,-23.94473887,-12.50231219
4.383158,-19.37952042,10.15269804,-68.02823638,-3.077852547,0.220706683,10.38914513,-100.7944145,-18.71620822,-14.33189917
4.391491,-20.17238951,9.983629702,-68.0656395,-2.559360057,0.148969326,9.713402392,-95.11622619,-18.16699982,-10.99109841
4.399824,-20.92671347,9.804486037,-68.10404968,-2.901234746,0.224117955,10.83530891,-90.36192323,-19.03091908,-12.24791479
4.408157,-21.65943861,9.623866559,-68.12045673,-2.127195955,0.934789717,9.049199103,-88.30699539,-20.09749937,-9.755939722
4.41649,-22.36668062,9.464032412,-68.13381958,-1.312126935,0.799511403,11.46637666,-85.27944374,-17.67121768,-9.001497747
4.424823,-23.02715445,9.310384751,-68.14411163,-4.333885133,0.238917023,8.321329235,-79.79383087,-17.14495182,-8.275545837
4.433156,-23.60889387,9.157325268,-68.14039993,-2.163348958,1.341054447,10.94139648,-70.54918861,-17.49839973,-7.279646278
4.441489,-24.14816999,9.000836133,-68.11783598,-3.99994123,1.842206936,13.98628426,-65.8207798,-18.77094913,-5.420369864
4.449822,-24.6675129,8.853111386,-68.10263063,-1.54520613,1.107821345,8.006608726,-63.29901981,-17.32519412,-6.076577544
4.458155,-25.11921215,8.732214809,-68.08491895,-3.624311567,0.91324684,9.909423829,-55.24195671,-14.54465151,-4.444247991
4.466488,-25.5034051,8.574164629,-68.04685595,-1.68376416,0.840646565,9.31560123,-47.48804092,-19.50962496,-4.438166499
4.474821,-25.84631825,8.431450606,-68.03220558,-2.954397813,1.198013723,11.75231242,-42.11056042,-16.66959548,-6.144115448
4.483154,-26.17217684,8.290403962,-67.98928643,-1.671161823,0.370748117,10.28766477,-40.59440899,-17.86105418,-3.219066873
4.491487,-26.4465456,8.158905983,-67.98285485,-3.645394325,0.41296731,7.920984148,-33.73109341,-14.97591901,-6.604524136
4.49982,-26.65704107,8.018454552,-67.94521905,-1.62345993,1.227959551,12.81962204,-26.61305619,-17.50616455,-3.918926478
4.508153,-26.84773684,7.864789128,-67.9143772,-3.286301896,0.333982684,11.37103188,-24.0648737,-18.60486126,-5.338149428
4.516486,-27.0138135,7.746034503,-67.89295005,-2.422432289,0.549208177,10.00291383,-21.008739,-14.29432059,-4.554309368
4.524819,-27.13969946,7.621287823,-67.8676491,-3.206141949,0.605572891,9.895664216,-16.19657516,-15.18752027,-4.447498173
4.533152,-27.23483897,7.480140686,-67.82681848,-2.422488839,0.201655041,12.07118392,-12.7744689,-17.72331357,-3.79586792
4.541485,-27.30735302,7.383476496,-67.81231688,-3.324082315,0.266202711,9.640588044,-9.631841421,-11.58789849,-4.077796519
4.549818,-27.36108828,7.283123136,-67.79011535,-3.142882496,0.540850192,10.15411186,-7.550688149,-12.34647453,-3.568402678
4.558151,-27.39275456,7.174802065,-67.76905633,-2.785999775,-0.317447504,11.35418725,-4.792795479,-13.17714941,-4.061028987
4.566484,-27.41065645,7.107000232,-67.761055,-3.35380888,0.123113811,10.75600791,-3.030359775,-8.098085076,-3.284490883
4.574817,-27.42137337,7.037782431,-67.76062583,-3.116190314,-0.144572634,11.31129384,-2.002031416,-7.872539401,-4.099293262
4.58315,-27.4164691,6.962376952,-67.74100875,-2.906854331,0.199945621,10.53846764,-0.410339981,-9.550082802,-2.475455731
4.591483,-27.41084051,6.931214214,-67.75925253,-2.798238754,-1.384722024,11.99059653,0.226071216,-2.795441628,-3.962250203
4.599816,-27.4071517,6.891002298,-67.75613978,-2.938203901,0.0339309,9.899837494,-0.350633309,-4.893788592,-2.28145358
4.608149,-27.40948963,6.861856938,-67.76377488,-2.907588661,-0.907254875,10.94620609,-0.859360606,-3.157857757,-2.739096806
4.616482,-27.41290426,6.847727776,-67.77057073,-2.624299794,-1.166769922,11.11703348,-1.049363978,-1.571932882,-1.879860849
4.624815,-27.425879,6.862887144,-67.79591753,-3.090433568,-0.638601091,9.666278243,-1.926472351,2.532847762,-2.173687905
4.633148,-27.46469116,6.86508143,-67.810091,-2.673075378,-0.822648645,11.26932239,-5.172308505,0.574028164,-1.7541622
4.641481,-27.49486256,6.918826461,-67.84845163,-4.570187271,-1.034929425,8.522518754,-3.797605038,7.363645061,-1.422540959
4.649814,-27.53140449,6.955265999,-67.89091683,-1.217007838,-0.166816909,12.32880473,-4.522776201,5.779670537,-2.845511153
4.658147,-27.58722782,7.021463394,-67.928648,-4.479666472,-0.776108496,9.939150216,-6.869001895,8.652297959,-0.628947944
4.66648,-27.64628792,7.099460363,-67.9838295,-2.055655521,-1.11401017,8.525813937,-6.994697333,10.89662934,-1.866375028
4.674813,-27.69590807,7.144756079,-68.03164293,-1.632053942,-0.480454214,11.2179501,-5.955466986,6.989865899,-2.850406557
4.683146,-27.75344372,7.228741884,-68.07967185,-2.717598155,-0.457783252,9.755246996,-6.898225188,11.14317691,-0.75204692
4.691479,-27.81288815,7.273739219,-68.12340545,-3.087370515,-0.985191982,8.077458024,-7.15602243,6.735341397,-2.455999032
4.699812,-27.875669,7.337268591,-68.16217805,-1.012806937,-0.548340541,11.91252327,-7.65682602,8.453710437,-0.899588063
4.708145,-27.93938065,7.397158623,-68.21547698,-4.432792645,-0.145208091,10.94850278,-7.541487813,8.860005857,-2.599393502
4.716478,-28.01281357,7.454854131,-68.2370186,-1.999964084,-0.696306631,10.34779143,-9.175820588,6.870583772,0.600577034
4.724811,-28.07793284,7.513071299,-68.30321883,-2.777158439,-0.872915343,11.02945352,-7.510792613,9.404075385,-3.999951482
4.733144,-28.13443041,7.565088034,-68.3209572,-1.814609364,0.1525453,10.2864182,-7.221319557,6.061698974,0.683074193
4.741477,-28.2045579,7.601887346,-68.36857223,-3.519317329,-1.65135476,9.960675,-8.3738513,6.099038005,-3.244267315
4.74981,-28.25186157,7.652070403,-68.39401245,-0.491881847,-0.263946466,9.963185787,-5.962161422,6.292661787,-0.210552231
4.758143,-28.30650377,7.671680927,-68.4267769,-3.728949145,-0.610732541,9.917384387,-6.764764546,3.455952733,-2.667370498
4.766476,-28.35028839,7.717488647,-68.44666673,-1.99817764,-0.8863713,8.791588903,-5.61829716,5.516032373,0.132669002
4.774809,-28.38147211,7.733270764,-68.45969013,-2.750997827,-0.428435233,11.53314483,-4.24823314,1.93422699,-0.807684101
4.783142,-28.42979241,7.766111851,-68.4762497,-2.352963507,-0.788006447,10.19599676,-6.222588293,3.961895168,-0.245432401
4.791475,-28.46153641,7.780443549,-68.48356628,-3.090295665,-0.669994481,10.05194044,-4.434138179,1.464820447,-0.298710067
4.799808,-28.4957943,7.801776648,-68.48846438,-1.83153459,-0.825867258,10.83754563,-4.7222661,2.085142911,0.337217726
4.808141,-28.53005553,7.813157916,-68.50509643,-3.148420811,-0.920271202,9.013562679,-4.596275866,1.685080499,-1.454830893
4.816474,-28.56262684,7.817412258,-68.50399398,-1.251243148,-0.932356104,10.5205251,-4.629068613,-0.055948019,-0.017430503
4.824807,-28.5888052,7.841596723,-68.519989,-3.473432958,-0.493767546,9.938433528,-3.630209819,2.995646238,-0.640064583
4.83314,-28.6163373,7.824366093,-68.52059175,-1.675415747,-0.826998547,11.35704827,-3.963700563,-2.224628344,-1.434791099
4.841473,-28.63872147,7.859771729,-68.53512953,-3.473097801,-0.516304832,10.03215289,-3.198260471,4.089636683,0.165650455
4.849806,-28.65216684,7.86068368,-68.53639603,-2.521179974,-0.74678945,9.798021317,-2.268255919,-0.276950896,-0.46931687
4.858139,-28.66041565,7.883501172,-68.54333115,-3.126708806,-0.667626139,12.09205747,-1.619002074,2.32477051,0.255479595
4.866472,-28.66609621,7.905958772,-68.55399323,-2.39900665,-0.549212381,9.921347975,-1.22241062,2.527811229,-0.207462512
4.874805,-28.67800188,7.925757528,-68.55214308,-3.023476303,-1.132352479,9.776428461,-2.193705529,1.512286785,0.989401013
4.883138,-28.67594147,7.953767896,-68.57466505,-1.613171608,-0.583994344,12.01366711,-0.116916258,3.794221163,-1.117773407
4.891471,-28.6934247,7.972136736,-68.5670166,-3.234189213,-1.646947503,10.60469794,-2.94915901,1.033201386,1.504099921
4.899804,-28.71548081,8.017623067,-68.60116578,-2.221543312,-1.093970793,7.984568955,-2.804153756,6.293257593,-1.325824835
4.908137,-28.71844006,8.02454114,-68.60141373,-1.935033798,-0.695058227,11.67755461,-1.0750871,0.273627102,0.029315565
4.91647,-28.73055744,8.08579731,-68.62908553,-3.777123928,-1.277581379,9.527568101,-1.728506625,7.585268975,0.257173259
4.924803,-28.75826025,8.108177543,-68.63679505,-2.63349767,-0.856926047,9.814732312,-3.903510392,2.323480398,0.141175956
4.933136,-28.77866077,8.164170265,-68.66724775,-1.845567525,-1.029645566,10.54042697,-2.673550174,7.192279756,-0.312122405
4.941469,-28.79502535,8.204380035,-68.68228533,-3.67194321,-1.017472006,11.06776822,-2.444405019,4.622873426,0.394580923
4.949802,-28.82112026,8.258692503,-68.70006943,-2.074869491,-1.019576341,8.60870707,-3.535446525,6.286262126,0.926441311
4.958135,-28.83901644,8.291422248,-68.72657393,-1.815621552,-1.256439209,10.82263994,-2.420676433,4.485449521,-1.221414812
4.966468,-28.85857344,8.34100771,-68.73213195,-2.314940274,-1.111276478,7.867363094,-2.973626852,5.087358482,1.919338644
4.974801,-28.86064386,8.37017262,-68.75177765,-3.191248596,-0.88730219,9.7941761,-0.617373563,3.718326017,-0.710628569
4.983134,-28.87386465,8.422974587,-68.76430128,-2.332522303,-1.182232485,11.77113128,-2.079347819,5.824107907,1.386043809
4.991467,-28.87973452,8.45527041,-68.77885055,-3.333340108,-0.706574578,9.010480642,-1.186156988,3.755188494,-0.002020366
4.9998,-28.88874531,8.500252247,-68.7932091,-1.848054111,-0.93717961,11.54784262,-1.553202562,5.109601499,0.746978324
5.008133,-28.89546967,8.552354336,-68.821476,-3.709242642,-1.067115337,11.41291761,-1.052799672,6.616871179,-0.268062606
5.016466,-28.91165686,8.577132344,-68.83066178,-1.653611027,-1.177592009,10.36979675,-2.493699581,2.685848117,0.114505209
5.024799,-28.90803528,8.61745441,-68.855793,-2.542730421,-1.255370528,9.494485858,0.143145044,5.203503258,-0.620632902
5.033132,-28.91937828,8.634687424,-68.85943603,-2.401814431,-1.45792599,9.501562121,-1.99203812,1.575365329,0.252735585
5.041465,-28.914258,8.648942948,-68.88339618,-1.697584212,-1.011582174,8.743676542,0.296401445,2.398747504,-2.015485026
5.049798,-28.93012571,8.662889719,-68.8832779,-3.102172435,-1.528055057,11.8717699,-2.60353972,1.013657868,0.454742268
5.058131,-28.93206024,8.675025582,-68.9002266,-2.919713914,-0.846173644,8.3115083,-0.678924553,1.765083254,-1.406314388
5.066464,-28.93555307,8.680979967,-68.89998628,-1.370678833,-0.916704468,10.72315168,-1.143419514,0.166338801,0.011680081
5.074797,-28.93304634,8.678606153,-68.91745755,-3.902236164,-1.260505915,10.16221082,-0.120643228,0.27370739,-2.306321621
5.08313,-28.94564581,8.683565855,-68.9076195,-1.692358479,-1.868995637,10.1690861,-2.40591953,-0.483891129,0.958840013
5.091463,-28.94560099,8.679123402,-68.9222069,-2.278962493,-0.541123953,9.783115386,-0.470690489,-0.116186203,-2.12193124
5.099796,-28.95669937,8.670871973,-68.9160881,-1.274903432,-2.182123542,7.745490478,-2.156241611,-1.65804106,-0.195664145
5.108129,-28.94427347,8.6567657,-68.91543578,-2.987060905,-0.801537279,10.80615997,0.752767153,-1.999979793,-1.119498879
5.116462,-28.96554756,8.664256334,-68.91970445,-2.362204671,-2.137134463,9.679869653,-3.197431505,0.587385178,-0.370285988
5.124795,-28.96198464,8.621957183,-68.89938355,-2.944600284,-1.190552279,10.52239168,-0.643602435,-6.089295743,-0.709178186
5.133128,-28.96853972,8.65159595,-68.92366028,-2.773380608,-0.986872837,11.5873636,-1.102689651,4.070540308,-1.157600224
5.141461,-28.97007132,8.620226622,-68.89717865,-3.255546927,-0.861700699,9.636283399,-1.380219817,-5.31175518,0.593798891
5.149794,-28.9644022,8.649689913,-68.92216493,-2.736894123,-1.847710013,10.55511391,0.383358795,4.090763091,-1.243266948
5.158127,-28.97069359,8.60630846,-68.90050123,-1.819174975,-0.648990907,12.47161269,-1.868683815,-6.308707358,-0.572721586
5.16646,-28.97937774,8.630127788,-68.91195678,-3.382306725,-2.15132644,6.256864548,-1.579024777,2.715054333,-0.172742397
5.174793,-28.96486187,8.588183522,-68.8889885,-1.943668252,-0.962831169,13.20882797,0.618302048,-6.211314559,-0.377848387
5.183126,-28.98809386,8.600650668,-68.90290068,-2.977509596,-1.925449193,9.006070137,-3.276477277,1.669004381,-1.098773916
5.191459,-29.00033665,8.569709659,-68.87487028,-2.723276809,-1.562623635,9.707357287,-2.696535588,-5.371625781,0.828710191
5.199792,-29.00897646,8.609467626,-68.8950348,-2.969231904,-1.217168614,10.65159941,-1.435242444,4.894134463,-0.170187339
5.208125,-29.0297451,8.56778276,-68.87169648,-1.813775112,-1.413220104,9.586367369,-3.638838291,-6.206864105,-0.315160774
5.216458,-29.05090666,8.624086142,-68.89099503,-3.834969133,-2.119130909,8.720767081,-2.952018175,6.57904598,0.881565154
5.224791,-29.0882554,8.60499382,-68.87380983,-1.092638463,-0.989718862,10.9006049,-5.518196702,-3.489302755,0.382615879
5.233124,-29.11068392,8.644344449,-68.89526748,-2.925996244,-1.752220333,8.692928909,-3.028082907,4.923994185,-0.323629467
5.241457,-29.15135384,8.64591527,-68.88111495,-2.264039973,-1.998311132,10.22566617,-5.890825779,-1.153953403,1.284227327
5.24979,-29.18413878,8.685817718,-68.90848925,-3.832720578,-1.442046985,9.250001669,-4.145388961,5.322247967,-0.916141179
5.258123,-29.2169199,8.705178261,-68.90153503,-2.247096686,-1.513176829,11.58223188,-4.822840333,1.103762031,1.618429035
5.266456,-29.23335409,8.739984274,-68.92378615,-3.932464034,-0.686222837,8.694663943,-2.293210596,4.494171976,-0.687332403
5.274789,-29.26758194,8.776024342,-68.92858123,-1.974437237,-1.281316876,10.86871803,-4.798513353,3.540403231,1.387138963
5.283122,-29.28847408,8.813368321,-68.95351793,-3.658250511,-1.780616045,10.05781341,-2.742616236,4.910212011,-0.807633087
5.291455,-29.32698202,8.850364685,-68.9629364,-2.01527685,-1.572137751,12.12817121,-5.230702818,3.915104331,0.951975577
5.299788,-29.35079575,8.876231909,-68.98290633,-2.001091018,-0.85899072,7.700511337,-3.182732419,3.421704263,-0.955817819
5.308121,-29.37439585,8.92256546,-68.99917605,-2.750428796,-2.779666543,7.052932606,-3.316563338,5.286756039,0.78859511
5.316454,-29.3713336,8.91944003,-69.00104523,-1.070212752,-0.50218387,9.884249449,-0.284759972,-0.663059234,-0.795994409
5.324787,-29.40430784,8.981520653,-69.03351595,-3.127134025,-2.01364708,8.849442302,-4.137051523,7.883239984,0.02854079
5.33312,-29.42312718,8.969936848,-69.02191928,-2.366067145,-1.449004308,10.90806794,-3.133812495,-2.333671631,0.113711149
5.341453,-29.43991137,9.054131508,-69.07075498,-3.378381491,-1.11473117,10.81372744,-1.919691265,11.14596498,-0.362944178
5.349786,-29.46038675,9.0318048,-69.0554657,-1.297910199,-1.611886621,8.550169289,-3.407279968,-3.670798657,-0.118366584
5.358119,-29.46167612,9.108731747,-69.09635543,-4.373511695,-1.942974553,8.086316942,-0.173449844,9.941568792,-0.020254411
5.366452,-29.48393679,9.105313539,-69.08242033,-0.714303732,-1.596284569,11.8339361,-3.620511651,-1.616367638,0.87778388
5.374785,-29.4871912,9.138189315,-69.10297013,-3.760618896,-1.812013105,6.911361902,-0.741858684,4.139514087,-0.512271881
5.383118,-29.49965668,9.168967723,-69.10927965,-1.881157458,-2.224577993,12.13352883,-2.093701303,3.142761172,0.811740697
5.391451,-29.5003357,9.16340208,-69.0993805,-3.326960653,-0.591758639,9.039014579,-0.975220352,-1.650952044,0.345372709
5.399784,-29.51840449,9.220682621,-69.12693025,-2.178979263,-1.723355994,9.853950262,-2.415217519,7.151114941,0.175124457
5.408117,-29.53078318,9.195201873,-69.11024855,-2.324917607,-1.990643173,12.1940453,-2.487350911,-4.120687723,-0.118907705
5.41645,-29.54365158,9.260412932,-69.129879,-3.416787744,-1.719012261,8.240772517,-1.962559805,7.516079424,1.420239084
5.424783,-29.55880117,9.241228342,-69.13142013,-1.65107432,-1.514674541,10.09593153,-2.477540612,-2.426577429,-1.533825318
5.433116,-29.55374765,9.270349264,-69.1295357,-2.820046604,-1.101314694,9.693450809,-0.165362358,2.486325905,1.496486165
5.441449,-29.57543421,9.296664,-69.15120315,-2.591484256,-1.760958165,13.0444119,-2.949869816,3.501364054,-0.908821896
5.449782,-29.58258676,9.277785303,-69.1262207,-2.626343146,-1.579435364,8.768283488,-2.012292758,-3.876921952,1.043114171
5.458115,-29.58829498,9.332075836,-69.15662388,-4.121952981,-1.986001283,10.69310737,-0.895905968,6.935782433,-0.177749992
5.466448,-29.58783484,9.311408044,-69.12228013,-0.501999706,-1.253252923,9.490408821,-1.290864766,-4.611898662,1.936314762
5.474781,-29.59445858,9.334152221,-69.13861468,-3.601879865,-1.618477762,6.404384411,-1.26148844,2.828144847,-0.648645338
5.483114,-29.59023905,9.361020326,-69.13524248,-1.721490771,-2.421644837,13.49133265,-0.293010792,2.166855425,1.581781402
5.491447,-29.58182669,9.344866037,-69.11600113,-3.451693923,-1.281753004,5.857735992,-0.076090396,-3.30042702,0.665064033
5.49978,-29.567348,9.420654535,-69.14490508,-1.998557018,-1.474838689,10.57921576,1.517720659,9.161552427,1.150591508
5.508113,-29.56274176,9.42429638,-69.12913133,-2.840351924,-1.450226158,10.98352635,-0.443142444,-1.034503699,1.516756624
5.516446,-29.54803467,9.518512726,-69.15034103,-4.504452616,-1.47293824,7.135096069,1.398323327,10.63163829,2.990527123
5.524779,-29.54082298,9.567680359,-69.15522765,-2.298479471,-1.424044803,13.95593208,0.247632086,4.918260596,2.139739711
5.533112,-29.5083828,9.656426669,-69.15701675,-3.743168198,-1.720214039,6.966763616,3.204661831,8.928677269,4.651302755
5.541445,-29.4706502,9.801306486,-69.17718125,-2.844663031,-1.352238178,10.87005115,4.163060963,15.81725502,6.199149489
5.549778,-29.41567755,9.910073758,-69.171978,-2.415798783,-0.66482221,8.038723469,5.808765203,10.61948192,6.538406313
5.558111,-29.35095787,10.12980628,-69.2052536,-3.677531719,-1.000616145,11.49093151,7.667675135,24.43816906,9.164097786
5.566444,-29.26041794,10.28903746,-69.19251253,-1.994719952,-0.619135223,9.337337019,9.91199285,15.48131544,10.27461445
5.574777,-29.14009619,10.58366704,-69.2423935,-4.818134085,-1.121896148,8.297946454,14.75361705,33.29017925,11.6938653
5.58311,-28.96275711,10.81461573,-69.2340393,-2.0157976,-0.10248699,11.84687409,20.40815282,23.31681681,13.94749785
5.591443,-28.74966908,11.15265584,-69.2735443,-5.322306216,-0.410353564,6.354545356,25.7233429,37.35533619,15.00578976
5.599776,-28.49060869,11.44841051,-69.2787247,-1.579401374,-0.035054224,11.68018246,30.50097752,31.0196681,16.10064817
5.608109,-28.18080139,11.815763,-69.3004303,-4.634884171,-0.333237495,6.853582799,36.9823823,39.6171279,18.11813021
5.616442,-27.81496763,12.19890929,-69.32891845,-2.22181955,0.347654665,11.70265317,43.88352537,41.743083,18.22137285
5.624775,-27.40891695,12.57041073,-69.32985688,-4.129389614,-0.713002238,7.392211914,47.98566151,39.03105116,20.31025171
5.633108,-26.94507742,13.0271318,-69.3656502,-1.92455975,0.220013256,10.06448543,55.89393425,50.25388146,20.84282493
5.641441,-26.42387819,13.42077255,-69.36647795,-2.9070088,-0.298825011,9.051376104,61.80278969,41.74157524,20.86146832
5.649774,-25.85540772,13.89361906,-69.38583373,-2.909948468,-0.152987579,7.578636051,68.05270291,51.51363564,22.53977966
5.658107,-25.23610878,14.33929133,-69.39421465,-3.239124149,-0.183312591,12.92496824,73.79447842,48.19628716,21.86040926
5.66644,-24.58490658,14.79075742,-69.38260268,-1.947234899,-0.528545833,7.280281663,77.07243157,48.1467247,23.70898533
5.674773,-23.89090061,15.28418231,-69.39686585,-3.312996969,-1.400165737,10.85952616,82.97296524,54.20333672,22.36629582
5.683106,-23.15564633,15.71692515,-69.36108398,-0.617808417,-0.747564659,9.272043392,86.38379288,45.52788925,24.30214882
5.691439,-22.39844513,16.20335817,-69.3545189,-5.059306949,-0.673079744,7.967278242,89.88687325,53.09070683,22.83144427
5.699772,-21.60572815,16.66394234,-69.3194275,-0.172968049,-1.614979297,12.45911515,93.22709274,49.30049992,24.15445137
5.708105,-20.78875351,17.1008234,-69.27044298,-5.214019284,-1.251896657,6.286037922,95.57848548,46.43174553,23.87349844
5.716438,-19.9641037,17.60957766,-69.23777768,-0.746165619,-1.560788482,14.1899519,97.06358909,55.44238758,24.2913456
5.724771,-19.12806225,17.9982543,-69.16692353,-3.17824471,-1.906214505,8.823501527,97.08059694,40.92534638,22.82223654
5.733104,-18.27615833,18.50250483,-69.11765673,-3.751040906,-0.895417616,9.165251494,99.66006852,55.01924706,24.21114588
5.741437,-17.41401482,18.90485621,-69.0521927,-1.723657131,-1.77968511,13.58913159,100.275877,43.35160446,21.46617842
5.74977,-16.53303504,19.34940815,-68.9600563,-3.036191046,-2.099028677,6.419690727,101.3844356,47.49841213,25.15903521
5.758103,-15.64872718,19.77366972,-68.88561248,-2.680370808,-1.701816678,12.46031881,102.4544754,46.26132679,21.70203877
5.766436,-14.75237823,20.15132952,-68.76897048,-0.743640393,-1.26862371,8.483912111,102.0739403,39.80080509,24.35794401
5.774769,-13.86125922,20.53615332,-68.6756401,-3.74145335,-2.756505192,9.825851081,102.3225613,41.79134178,21.2469902
5.783102,-12.94749451,20.90263129,-68.5272789,-1.469081618,-1.314671129,13.203336,102.6540184,38.45272207,26.1204176
5.791435,-12.05514646,21.2404747,-68.41562653,-2.624866493,-1.931962997,8.847166419,101.5425529,36.50171328,20.6610198
5.799768,-11.13534451,21.56168032,-68.2361946,-1.271658082,-2.471343368,10.52616143,101.8190174,33.27222395,27.12120295
5.808101,-10.22420883,21.89168644,-68.10636903,-3.136345238,-2.138606698,9.825103282,102.8522606,35.8444128,21.16530514
5.816434,-9.305038692,22.15594626,-67.90001868,-0.43249358,-1.456148744,9.224481463,100.3054199,26.92266083,27.76111555
5.824767,-8.400396704,22.44385576,-67.7599964,-3.62274617,-2.667653263,10.04692376,101.4722881,31.31591749,20.31441689
5.8331,-7.473214031,22.69172478,-67.536047,-0.546600789,-1.852910318,11.85144544,100.2502518,25.61354542,28.4586463
5.841433,-6.564965248,22.90762568,-67.3804512,-4.4050892,-1.848336667,8.963851333,101.0405216,23.15778661,19.99799681
5.849766,-5.608159542,23.13887358,-67.14299963,-0.046474576,-1.71564509,11.87892818,102.9751816,24.41864967,28.73059607
5.858099,-4.685187399,23.28966999,-66.98102758,-3.170834839,-1.972855658,8.428869723,102.3698101,15.89600789,19.23353148
5.866432,-3.725344509,23.43868828,-66.73061183,-0.875192821,-1.666506499,11.29644465,102.5700855,15.44723689,28.60597324
5.874765,-2.80025819,23.56003332,-66.56113243,-3.780340493,-2.122069776,11.70230436,102.1802425,12.97127199,19.16311336
5.883098,-1.842636826,23.63424969,-66.3134861,-0.090923786,-1.71119994,10.56432009,102.3471641,7.471408843,27.38552666
5.891431,-0.900702543,23.68911743,-66.12654308,-3.632134319,-2.311255098,9.968411089,103.2866783,5.56188482,20.39363051
5.899764,0.062229931,23.73154974,-65.8807335,-0.368697755,-2.385118932,12.01950908,103.0141125,4.551539153,26.80057669
5.908097,0.989900046,23.7075243,-65.6841812,-2.698350817,-1.697572604,8.716691017,101.0836811,-3.220577003,21.31691456
5.91643,1.934590802,23.71286583,-65.46424293,-1.983629108,-2.265457481,11.45834923,102.0634899,0.906531513,23.81072903
5.924763,2.878003299,23.654315,-65.24728013,-2.165487915,-2.028877228,12.2668848,102.0003071,-6.553743841,23.85144663
5.933096,3.808600485,23.61194658,-65.03520203,-3.453492314,-2.11287018,7.273718895,100.8126221,-4.031745627,23.24703693
5.941429,4.74431175,23.5202837,-64.82633973,0.06195122,-2.145247296,11.48737764,101.4973774,-9.792994767,23.45891333
5.949762,5.670496106,23.39017916,-64.6326504,-2.659773059,-2.495222509,9.610858916,101.2039432,-13.98134303,22.43753481
5.958095,6.572848201,23.29616737,-64.42940713,-1.911698669,-1.5557791,10.50637007,97.84397508,-9.376256346,23.02945852
5.966428,7.462307334,23.11052227,-64.25705525,-3.171428084,-2.811080456,13.09899163,97.88131522,-20.16203487,21.39038229
5.974761,8.373833658,23.0016036,-64.06304933,-3.06804949,-1.671637595,11.19336998,99.49894332,-10.54389384,22.47936916
5.983094,9.234246135,22.83231688,-63.90825845,-1.010240547,-2.444622129,12.49925125,95.33732222,-17.83262587,19.7580967
5.991427,10.08634806,22.66305924,-63.74007035,-2.713957042,-2.371258438,9.649544001,93.65244675,-17.45104456,21.32596159
5.99976,10.9005332,22.49738312,-63.6013889,-2.765060842,-3.502582729,10.8571837,90.63451767,-17.12359071,18.4338913
6.008093,11.72358251,22.29686975,-63.44888878,-2.015154093,-1.162014551,13.61176896,91.01915169,-20.77851558,20.89991903
6.016426,12.5144434,22.15024853,-63.3212223,-2.925742895,-3.0549227,10.97143769,88.43956185,-14.62366867,17.11575246
6.024759,13.25873256,21.92044926,-63.18201445,-0.631164089,-2.10851717,7.550068773,82.27099037,-23.92910671,20.93236256
6.033092,13.97419238,21.75959349,-63.0866604,-4.007148192,-2.790463328,11.63016307,80.86001015,-16.67554951,14.51307082
6.041425,14.68011856,21.5267992,-62.9455471,-2.464048535,-2.452016622,13.46375537,77.70009041,-23.63194335,21.83647585
6.049758,15.34630752,21.37655735,-62.85839655,-2.861376286,-2.713273257,9.601980745,75.40921212,-15.32646728,13.62466621
6.058091,15.98010922,21.138443,-62.74939158,-1.705812439,-2.899344236,13.80255294,70.5973196,-24.64330769,19.14424277
6.066424,16.57679296,20.97821665,-62.65932465,-2.897604168,-2.539113432,10.04006779,66.96195507,-16.08935571,14.66339183
6.074757,17.12689829,20.79987192,-62.56169703,-3.530673593,-3.005150318,15.07791663,61.14515114,-17.72858119,16.28566527
6.08309,17.64507914,20.61970997,-62.46715925,-0.755095706,-2.762506604,7.004263401,57.42298699,-17.93229508,16.20181155
6.091423,18.11047459,20.40861845,-62.41101453,-3.365753099,-2.361240924,8.549498201,52.75553513,-22.61364436,13.39780188
6.099756,18.55994892,20.26987553,-62.30851555,-2.399422228,-3.34439069,14.86070729,48.91545677,-12.61393535,15.81099343
6.108089,18.92597866,20.08086395,-62.26978113,-2.820106268,-3.176215947,11.13088131,41.60668659,-20.52235604,11.03413987
6.116422,19.26825857,19.92402745,-62.18009378,-1.48825448,-2.729947031,7.867781223,36.66379929,-14.90043235,15.35886431
6.124755,19.57892227,19.78134585,-62.14313698,-3.985577405,-2.004460566,14.91053009,35.05177927,-15.20726562,9.212314724
6.133088,19.85614681,19.63651848,-62.0488491,-1.246070022,-3.653158248,8.784955024,28.77639485,-13.17736113,15.55139828
6.141421,20.05777931,19.46550322,-62.04359053,-2.385540605,-2.48625198,5.693937778,23.22609711,-19.54286099,7.163162828
6.149754,20.26146603,19.33107281,-61.94644358,-2.56358321,-2.668502033,12.77645421,19.90332318,-11.77688003,15.49909234
6.158087,20.43176937,19.21329069,-61.92252543,-3.90779543,-1.272357568,13.76572204,18.73552298,-12.76278567,7.046191364
6.16642,20.56401873,19.0529356,-61.85393333,-1.047152013,-2.942521364,9.29219234,12.52180469,-15.70919752,13.68345583
6.174753,20.67035055,18.93890047,-61.83614538,-3.648001582,-1.680161462,12.01713085,11.28436339,-12.55349684,6.292378943
6.183086,20.79502535,18.8315382,-61.7478981,-2.629936323,-1.992295355,11.51847505,10.89580619,-8.915562748,13.57332194
6.191419,20.88262749,18.70097828,-61.73024368,-1.469753355,-1.350068987,7.461644827,9.066056251,-14.37815547,7.055732365
6.199752,20.95608854,18.58879662,-61.67207528,-1.719445534,-3.076022357,6.33158344,5.962210834,-10.62456012,10.64435446
6.208085,21.03103209,18.45700074,-61.6533222,-3.308045745,-0.444099322,11.70813942,7.465696573,-14.45356893,7.227657945
6.216418,21.12564755,18.39292097,-61.5882168,-3.846011967,-1.272074595,14.64344669,8.282707214,-4.919420718,9.34386924
6.224751,21.20222998,18.25438976,-61.57067298,-0.493485343,-1.493190781,8.248547197,7.750514627,-15.23849869,7.456307172
6.233084,21.27985144,18.17461967,-61.5352917,-3.617023945,-2.233739123,9.535858273,7.345962047,-7.866962314,6.89160049
6.241417,21.36881733,18.07542992,-61.50708773,-0.896608338,0.319428891,13.14641523,8.81753993,-10.37436187,6.898118854
6.24975,21.45562172,18.02100468,-61.46970175,-4.92959249,-3.104411364,9.263243437,8.432294369,-4.923002422,6.032643437
6.258083,21.53892613,17.8896842,-61.45155905,1.403195534,-0.738131591,7.943372906,8.528272868,-14.36087274,7.302906835
6.266416,21.62268877,17.82068825,-61.44052315,-5.095736206,-1.281401423,9.995119811,9.036105872,-7.644868375,3.848050416
6.274749,21.71369171,17.69553614,-61.41236685,-0.464292452,-1.464869783,12.55374861,9.089511991,-13.22943378,8.118153901
6.283082,21.79247522,17.65524864,-61.4019661,-4.925489605,-2.306651425,10.96346712,8.484470486,-4.464191616,2.532264829
6.291415,21.87842989,17.51215625,-61.39030648,1.513042346,0.128523137,8.279987216,9.084410428,-15.90376329,7.211535217
6.299748,21.95247126,17.45020151,-61.40161898,-6.050737618,-3.135716125,12.0005101,8.66038263,-7.780290485,1.2508173
6.308081,22.04298639,17.32720757,-61.37480548,0.636231035,0.304010453,11.74535537,9.105226635,-12.98938394,7.950854629
6.316414,22.10341406,17.2628572,-61.40176963,-5.502183855,-2.165794745,9.223072885,7.632003069,-8.736067057,-0.332649589
6.324747,22.17776823,17.12872505,-61.3741417,2.010474816,-2.010460831,8.998130561,7.18627137,-14.16682482,8.603909225
6.33308,22.2295084,17.04848456,-61.41212273,-5.852977216,-1.351160273,8.080810904,6.944375397,-10.98016167,-0.766080262
6.341413,22.30327225,16.92034006,-61.38489153,1.282304823,0.032364302,11.11934137,7.129189492,-13.49479508,8.312385444
6.349746,22.37823105,16.88377929,-61.4029541,-8.600170136,-2.219064445,14.05179668,9.005309701,-5.257752388,-0.613650859
6.358079,22.4412899,16.76262045,-61.37814523,2.123635926,-1.49036384,11.09695733,5.956652463,-12.80455637,7.786506712
6.366412,22.48317337,16.74260378,-61.40205763,-5.913253367,-1.849729747,8.908489823,5.249155403,-3.683603912,-1.982001781
6.374745,22.55449391,16.63029814,-61.37888145,1.960349467,-0.631684251,10.03047049,6.9684484,-11.88362241,7.206761479
6.383078,22.61035967,16.62044358,-61.40707208,-6.909112275,-2.233435571,11.57478654,7.055643379,-2.757280282,-2.905157376
6.391411,22.68452072,16.54039979,-61.36465835,0.530428574,-0.18161571,9.764008641,6.731853962,-7.427216648,7.806909085
6.399744,22.71582842,16.50988889,-61.40880773,-4.977573633,-2.150875181,9.662992,4.637163162,-5.754123628,-3.615645469
6.408077,22.77659464,16.42224622,-61.3687687,2.083945364,-0.705187328,9.51428783,5.205575943,-8.358282088,7.925014169
6.41641,22.80640936,16.38534832,-61.4120636,-6.724410772,-1.895784393,9.615842222,4.399565339,-6.43348962,-3.260144828
6.424743,22.86434889,16.31950402,-61.3723831,1.742292516,-1.184849955,11.97745633,4.873573006,-5.953616679,6.880806745
6.433076,22.90258169,16.30072403,-61.4127865,-7.337585449,-1.138514748,11.04017639,5.29601872,-4.315806598,-3.799100117
6.441409,22.95530367,16.22495628,-61.37456703,1.770034403,-1.142797006,11.82436967,4.341933608,-7.095816547,7.222734928
6.449742,22.98854876,16.21457625,-61.4234848,-6.152796626,-1.563387483,11.18457747,4.960783124,-3.773822545,-5.080798476
6.458075,23.02656651,16.12060594,-61.39750098,1.843815774,-0.738972358,10.20818186,2.979278587,-9.645705464,6.77504623
6.466408,23.05122566,16.11915016,-61.4390812,-6.880478621,-1.864769027,10.7801609,3.686737478,-2.458823592,-4.720860779
6.474741,23.07942152,16.03463436,-61.4093876,1.892815203,-1.371767987,10.10677069,1.712775908,-8.428099514,6.742467821
6.483074,23.07534838,16.02498555,-61.4602108,-5.569983006,-2.509914786,7.422252537,0.523801759,-3.777162434,-5.269834236
6.491407,23.0903616,15.92727566,-61.44041633,1.986417543,0.167423359,9.498384833,0.447410286,-10.32658621,6.304535449
6.49974,23.07825995,15.90972161,-61.4994297,-6.741212964,-2.065340906,12.40449906,-0.198161423,-5.035429211,-5.809754001
6.508073,23.08859968,15.82884193,-61.47213173,0.789664049,-0.632290557,11.6016047,-0.332114197,-8.127067922,6.310500026
6.516406,23.06096745,15.81645465,-61.53307915,-6.268818736,-0.852263486,12.09530163,-1.989829034,-4.54952313,-6.258460954
6.524739,23.06439782,15.76799345,-61.49887655,0.890898228,-2.155694187,10.3729775,-1.360724151,-4.240875065,5.538412467
6.533072,23.03100395,15.73273802,-61.56717683,-5.492771328,-1.368429333,8.748427153,-2.479403652,-7.419246674,-6.004633428
6.541405,23.01312113,15.69893885,-61.54011915,2.499830067,-1.363308161,8.729485154,-3.668970272,-2.944833547,4.094147325
6.549738,22.97197676,15.67376089,-61.60803413,-7.057605147,-1.519008935,12.72432208,-3.468513817,-6.283469856,-6.473787785
6.558071,22.94143057,15.64721799,-61.5759163,0.694265353,-1.333593942,11.21561861,-5.338509381,-1.919104967,4.298267484
6.566404,22.88617945,15.65096736,-61.6381035,-7.030455649,0.070808543,12.8501935,-5.310971141,-2.800279766,-7.163741708
6.574737,22.84563589,15.60951328,-61.61704828,2.310609184,-2.27331543,8.535467387,-6.193820179,-4.077632846,3.810854435
6.58307,22.79670382,15.61615944,-61.68321038,-5.182777047,-0.397094488,9.512635471,-4.461682948,-2.65297243,-7.736328482
6.591403,22.7440362,15.56793118,-61.6727581,0.942224592,-1.831064582,9.926538943,-7.290247202,-5.307229043,2.977069676
6.599736,22.67609787,15.58279777,-61.74326135,-4.398762047,-0.819089428,9.581043004,-6.599575877,-1.958883916,-8.677970827
6.608069,22.64063311,15.56126475,-61.7337799,-1.481731564,-1.417544372,11.83245611,-5.181955695,-2.400713682,1.627221271
6.616402,22.59053087,15.57033944,-61.79637338,-4.241728366,0.311620988,13.0480895,-4.686954141,-2.230788768,-7.55915904
6.624735,22.558249,15.56967068,-61.79292675,-2.28517744,-1.77244778,10.12426972,-4.584324002,-0.366251633,0.030919672
6.633068,22.50916052,15.54242015,-61.86234668,-1.036555678,-0.113744319,10.76074481,-4.424036861,-6.519960822,-6.550061226
6.641401,22.47879124,15.53572917,-61.8786087,-2.842145354,-1.93669755,10.93178678,-3.714173466,-1.897265971,-1.791700364
6.649734,22.43801355,15.48736978,-61.93052865,-1.141427577,0.131250583,8.617911577,-3.992718637,-8.085784584,-3.740729571
6.658067,22.39403057,15.48210645,-61.97231865,-3.967506528,-2.143693098,11.31513453,-4.534667678,-2.858802039,-4.583786756
6.6664,22.36390209,15.44528723,-61.992054,-0.671205252,0.427215599,10.33382559,-3.685943186,-5.413297176,-0.89953053
6.674733,22.31160402,15.4225483,-62.0569229,-4.847601414,-2.681143314,11.08418715,-4.81092085,-5.807884336,-6.256368042
6.683066,22.2683754,15.39799691,-62.0525379,0.927621193,-0.524503468,10.17141283,-6.030625746,-2.99566504,1.140419692
6.691399,22.21450901,15.37399626,-62.14095495,-5.390327692,-1.186194107,9.745826243,-4.273027927,-6.965328097,-8.747682334
6.699732,22.18811989,15.33264303,-62.1167984,-0.205782354,-0.049352102,11.78815627,-4.637006179,-4.001901329,4.008119084
6.708065,22.12481642,15.33875012,-62.20196723,-5.941538572,-1.989388704,11.17344069,-5.506936312,-3.463211358,-9.76580298
6.716398,22.08419705,15.31029535,-62.1717415,-0.529514104,-0.167517673,10.52363014,-6.493225455,-2.309834346,4.073358745
6.724731,22.00669098,15.31596327,-62.24869728,-4.423978448,-1.195649386,11.20340943,-7.508624882,-3.141253393,-8.870520831
6.733064,21.95637799,15.31515122,-62.2173672,-0.526823178,-1.656382308,8.872674823,-7.690684019,0.806134403,2.97779581
6.741397,21.87975359,15.31953144,-62.2897415,-2.89733422,-0.662893349,8.438706875,-7.574863434,-3.061336815,-8.351781309
6.74973,21.83138371,15.33561254,-62.25689125,-2.368927896,-0.741057992,13.56858921,-7.514957905,2.766619563,2.447069287
6.758063,21.75332737,15.37866759,-62.2962551,-3.742172718,-0.725343268,9.251546024,-8.758381963,2.682924926,-6.511008099
6.766396,21.70661545,15.39915037,-62.2846489,-2.179358691,-0.07788975,10.162395,-6.611985386,2.329294574,-0.068639874
6.774729,21.65152836,15.44432783,-62.29479028,-2.913496643,-0.838960098,11.09590196,-6.95447719,4.177705168,-3.449389756
6.783062,21.60509205,15.46737504,-62.29432485,-0.924290791,-0.905372016,7.69806087,-6.26417613,2.150686816,-1.351176757
6.791395,21.55796051,15.49133825,-62.31588173,-3.667667091,-0.475206532,9.563528895,-5.642428994,1.332071707,-3.756289765
6.799728,21.52987862,15.52712822,-62.30361368,-0.900403753,-0.576250553,12.87848306,-4.388234377,3.999611974,-0.832830869
6.808061,21.49181366,15.57936716,-62.32670023,-4.517946303,-0.920423567,9.456269026,-4.49114573,4.427959025,-5.161163122
6.816394,21.45471192,15.63724136,-62.30445483,-1.383042947,-0.599248624,10.57982183,-5.770967871,6.888440013,-0.731315226
6.824727,21.41506577,15.68369937,-62.3379612,-3.513945684,-0.644983433,11.38679791,-4.355653016,3.347146886,-6.008699611
6.83306,21.3950572,15.73543739,-62.32365228,-1.78488683,-1.290351093,9.422362209,-3.477215648,5.858789206,-1.327253163
6.841393,21.35965252,15.76206088,-62.36954308,-1.776163541,-0.491964262,10.85177231,-3.441253424,0.617751204,-6.480344162
6.849726,21.33691597,15.82406402,-62.35918048,-3.51588434,-0.577273406,12.03953839,-3.6661499,6.835386589,-2.205987878
6.858059,21.28926754,15.87321067,-62.37498858,-2.328694105,-0.345671341,9.910833538,-5.852843642,4.402888685,-4.215866521
6.866392,21.23591805,15.93179226,-62.38889505,-3.164756418,-1.458283648,10.3890394,-6.523337899,5.440224052,-4.655006498
6.874725,21.18442488,15.99809718,-62.38835145,-2.358946154,-1.090393324,8.264857531,-6.87320009,7.015243827,-3.179412663
6.883058,21.11331225,16.03786111,-62.4230232,-1.742667863,-1.80599472,8.426360726,-8.069394231,2.56854102,-5.839264631
6.891391,21.03194809,16.11971974,-62.43106078,-2.869006127,-1.066898078,8.520733834,-10.16822648,8.412760407,-4.753157974
6.899724,20.9396658,16.20564628,-62.45629503,-2.52456525,-0.674954431,12.78548074,-10.86364281,8.066696047,-7.022217393
6.908057,20.81210947,16.30205489,-62.4744549,-4.012375712,-1.875745386,12.32930863,-15.3507359,9.643306136,-6.428730488
6.91639,20.6700201,16.43458867,-62.48640633,-2.268887967,-0.808283493,10.86560547,-17.30929899,13.95513821,-7.26735425
6.924723,20.49927235,16.52004862,-62.53995705,-1.723978529,-1.188848376,9.62907374,-19.36014843,7.017384888,-9.752353431
6.933056,20.32430363,16.63322163,-62.56362345,-2.478634104,-2.395994812,9.198891284,-20.81412554,11.25845218,-7.90584147
6.941389,20.11079264,16.72543669,-62.62123493,-2.871760696,-0.460283958,11.83047032,-24.32478762,7.685351432,-10.43389618
6.949722,19.84973145,16.84784198,-62.668478,-2.746916667,-2.125890732,11.61769903,-30.30896807,11.44339395,-10.67319751
6.958055,19.5550437,16.94634843,-62.71910858,-1.364547944,-1.918942049,7.339265646,-34.25838995,8.7596668,-9.81514156
6.966388,19.225142,17.03606201,-62.79738235,-3.235286862,-1.36485675,9.470206024,-37.45531273,6.676227837,-12.60203982
6.974721,18.85848141,17.15925265,-62.84742358,-1.136238732,-2.052561522,10.84431279,-42.92374134,11.68556935,-10.61079264
6.983054,18.44003344,17.25640822,-62.94348145,-4.90888977,-2.092242107,10.61236787,-47.44622421,7.04481113,-14.74229002
6.991387,18.00600195,17.4090066,-62.97837068,-2.459661089,-1.223728657,11.69409358,-51.4844799,15.71982884,-9.820377111
6.99972,17.50792694,17.50677347,-63.10207368,-1.960152827,-2.098785073,9.156704784,-55.97685528,6.410630703,-17.58701682
7.008053,16.98517633,17.65308333,-63.14966965,-2.214507446,-2.635944486,9.616027592,-61.66096497,14.71727538,-10.74205041
7.016386,16.41349387,17.76368713,-63.26604653,-3.646408617,-0.336676847,11.7024436,-65.02924538,8.490605353,-17.06686211
7.024719,15.80530691,17.93775272,-63.33130645,-2.802427189,-2.868784785,11.40439808,-71.23155785,17.52194762,-13.23442292
7.033052,15.15000987,18.06448078,-63.4294529,-1.680419382,-1.502394885,6.717955292,-75.64757156,11.24629044,-15.39480424
7.041385,14.46540737,18.19664002,-63.52750968,-1.756273374,-1.40272554,7.551691473,-79.14061737,12.02003408,-15.2438724
7.049718,13.76427794,18.33939457,-63.62431335,-3.451777265,-1.708481536,12.79613543,-81.21968842,13.56138999,-15.25514722
7.058051,13.0239985,18.47867537,-63.74287033,-3.100641117,-1.838926196,10.82414556,-84.99741173,12.68863487,-17.36936999
7.066384,12.2620771,18.65079403,-63.83721163,-3.281897336,-0.678807378,11.82419801,-88.4875164,17.41316748,-15.35776115
7.074717,11.46625304,18.77486229,-63.97947503,-0.63641407,-0.971454321,6.826330543,-90.7092495,10.84384572,-19.33762026
7.08305,10.66248536,18.93628979,-64.0906086,-3.430056572,-1.911552638,10.70702994,-92.86270332,16.18685985,-16.40868616
7.091383,9.836518287,19.06717348,-64.2263546,-2.569105536,-0.78242751,9.338695646,-94.48841667,12.29439998,-18.39437151
7.099716,8.989491819,19.20983839,-64.36133575,-2.247501045,-1.45643191,11.41993988,-97.03230477,13.9668684,-18.21043348
7.108049,8.129374862,19.34147978,-64.50227355,-2.731870055,-0.670523331,9.913933157,-98.30187991,12.84119916,-18.55820275
7.116382,7.251738906,19.42979861,-64.63330843,-0.862623684,-0.539905869,5.399920572,-100.8024826,8.056034447,-16.48153424
7.124715,6.382315397,19.56225681,-64.79366303,-2.90596208,-1.051847451,9.961887361,-98.61666869,13.24832714,-20.32368946
7.133048,5.524605096,19.61537934,-64.91945645,-2.61238581,-0.793453694,10.92296016,-98.57532312,4.38470767,-15.22910094
7.141381,4.661862493,19.71701145,-65.07114983,-2.471530602,0.136364896,10.71789,-98.08016205,10.23511404,-18.49205637
7.149714,3.795433045,19.74967098,-65.21804048,-1.949422702,-0.626937114,11.08125281,-98.73698234,2.187254547,-17.26963067
7.158047,2.948338777,19.78563547,-65.34874153,-1.23193118,-0.692625648,6.954260826,-97.03278732,3.052170991,-15.49487043
7.16638,2.116412967,19.78142071,-65.50341225,-1.705044687,0.605513044,10.44486129,-94.26792336,-1.738106832,-17.79948306
7.174713,1.28684219,19.75889921,-65.6343937,-2.991145492,-0.565399002,12.16982651,-94.92947578,-3.551112533,-15.2001133
7.183046,0.469680831,19.72952795,-65.77765463,-2.854757667,-0.08491179,8.34349978,-93.00253869,-4.230522871,-16.33885694
7.191379,-0.332249373,19.65115166,-65.91687965,-1.045567207,0.406123683,9.874655248,-91.2945652,-9.81216976,-16.1901319
7.199712,-1.120091431,19.57507754,-66.0578022,-2.75157407,-0.74484396,9.275933503,-89.55752945,-9.364748,-16.46775079
7.208045,-1.891425781,19.44636154,-66.19353295,-1.243747562,0.623071641,8.382557034,-87.81002236,-15.4277631,-16.29266667
7.216378,-2.667313814,19.32691622,-66.3460121,-1.968609765,-0.56486769,9.807065487,-87.70764923,-14.07807589,-18.21422863
7.224711,-3.408391267,19.15525198,-66.48488808,-2.618861496,0.145518072,9.877679347,-84.15324974,-20.11470389,-17.35121679
7.233044,-4.144428551,18.9918499,-66.63194465,-2.672672071,-0.049571807,10.5184629,-83.23687935,-18.91946125,-18.36011362
7.241377,-4.876701892,18.80788517,-66.77136995,-2.873238534,-0.56688346,10.62371325,-83.11387062,-21.19505095,-17.9546566
7.24971,-5.600944042,18.58018208,-66.91697313,-1.030666158,-0.284823548,9.178502797,-82.00645256,-26.12536931,-19.43700981
7.258043,-6.312031865,18.36311388,-67.05658913,-3.01391995,0.280329846,10.82783056,-80.6998558,-24.67022514,-18.93772888
7.266376,-7.036694646,18.08596182,-67.18675998,-1.799594328,-0.873467744,9.018861414,-82.73351479,-31.74963808,-19.08487129
7.274709,-7.759946227,17.83331824,-67.33199693,-2.006036282,-0.600679938,10.24864197,-82.12172127,-28.33759737,-20.72606325
7.283042,-8.493097188,17.54512644,-67.46204568,-3.799819738,-0.385827847,11.63936377,-83.93989754,-32.55053997,-20.03783322
7.291375,-9.231618523,17.28162074,-67.5878849,-2.565042854,-0.7290508,8.892202258,-84.70249558,-29.42288256,-19.66397333
7.299708,-9.974658964,16.97646046,-67.72127343,-2.489015415,-0.112367824,10.78229308,-85.12503624,-34.00635147,-21.58315945
7.308041,-10.73653865,16.67780542,-67.83995438,-1.50823915,-1.201855689,8.547072172,-87.90673637,-33.18068695,-20.49686432
7.316374,-11.4990809,16.35452652,-67.95685578,-2.996004254,-0.269598372,8.771722436,-88.19204521,-35.89335776,-21.11233235
7.324707,-12.28356457,16.03283048,-68.06941988,-1.883198395,-0.961708495,12.1937325,-90.95057106,-35.5109067,-21.30441952
7.33304,-13.07621503,15.71957922,-68.18302728,-4.438491374,-0.351776138,11.63950396,-92.09086037,-34.21936369,-21.41151762
7.341373,-13.87340903,15.3824203,-68.2784271,-1.836795718,-0.429326527,9.062250616,-93.16750527,-37.16641951,-20.82190704
7.349706,-14.66854787,15.07153511,-68.37950898,-3.632287979,-0.032090854,12.66181875,-92.90620995,-33.74000645,-20.83252716
7.358039,-15.46622229,14.72678399,-68.46152115,-1.308671497,-0.566916069,8.829676987,-93.86211395,-37.97013044,-20.24182415
7.366372,-16.26405478,14.38580179,-68.53891753,-2.815647185,-0.284044076,9.932815671,-94.04750633,-37.36931086,-20.23182726
7.374705,-17.05223274,14.0618279,-68.60853958,-2.507950962,0.271418583,11.24140155,-93.24929428,-35.42261887,-19.0849824
7.383038,-17.82556582,13.7034266,-68.66308213,-3.266512513,-0.563188573,9.753148079,-91.8728714,-39.60493279,-19.37500286
7.391371,-18.60386848,13.38996172,-68.7226639,-3.045581997,0.314346671,11.89436209,-92.45323753,-34.04453707,-18.5139637
7.399704,-19.36442423,13.07586813,-68.76896665,-3.790511176,0.259960659,9.141803382,-90.69829941,-34.35126019,-17.63763952
7.408037,-20.10580921,12.73912835,-68.80553435,-1.943230163,-0.093757765,10.18831182,-88.68940544,-37.12284374,-17.85582113
7.41637,-20.84226799,12.45062614,-68.84146883,-3.353317112,-0.086187296,10.6254754,-88.11082077,-31.44570971,-16.30998826
7.424703,-21.54559756,12.14900685,-68.87023545,-2.402102873,0.669313684,7.437083663,-84.40794564,-33.07081461,-16.35029126
7.433036,-22.20772839,11.85576988,-68.88121415,-3.681584656,0.113454185,12.55072403,-79.81466103,-32.69031668,-14.65386558
7.441369,-22.86884642,11.57407546,-68.88915638,-1.382316724,1.581068963,11.03297162,-79.86058617,-31.42114019,-13.94544363
7.449702,-23.47161484,11.32173038,-68.89862063,-4.624082625,0.320284249,7.712758781,-72.79544449,-27.88549709,-13.2300036
7.458035,-24.01943779,11.06490588,-68.87929918,-1.76439365,1.375697285,11.51467347,-66.89610577,-29.74963951,-10.39714623
7.466368,-24.53787422,10.80561185,-68.8818512,-4.083119273,0.934861675,10.72194898,-62.83220291,-28.69947243,-13.4141655
7.474701,-25.01321507,10.5841043,-68.84874345,-1.678944603,1.495818913,9.227639912,-58.55832768,-26.35100508,-7.639922381
7.483034,-25.4369607,10.35246491,-68.84268953,-4.709600687,0.642695578,11.31610346,-51.66190815,-25.92073059,-11.54475903
7.491367,-25.81446886,10.13293314,-68.80255128,-1.202807632,1.172313482,10.46543872,-46.84606171,-26.26334906,-7.4780823
7.4997,-26.16727448,9.914859296,-68.78047945,-4.344223619,1.236853943,11.8122853,-43.48948288,-25.12062597,-9.460601448
7.508033,-26.48217249,9.726179837,-68.74757005,-1.771873683,0.477405761,10.54512918,-39.18222523,-22.48102522,-6.882093668
7.516366,-26.74981594,9.514784575,-68.7263565,-4.262833953,0.786934555,8.969885111,-33.22825336,-24.25176907,-9.487228035
7.524699,-26.97409535,9.332942486,-68.66992188,-1.831294283,1.11750806,14.08345247,-28.74480677,-22.96016884,-4.19862026
7.533032,-27.20004749,9.154756068,-68.6606369,-3.852204859,0.489506785,10.26437044,-28.00213385,-19.98775244,-9.110187291
7.541365,-27.3651905,8.994215131,-68.62018205,-2.072083965,0.899322526,8.811603427,-21.33395744,-19.8017664,-4.850295693
7.549698,-27.50680924,8.825880647,-68.58661273,-4.378317952,0.748316214,13.62342286,-18.2903111,-20.21300698,-6.138923765
7.558031,-27.61884928,8.696003318,-68.56665423,-1.442534184,0.706742458,10.4818747,-14.5693121,-15.4010458,-5.384313226
7.566364,-27.71118164,8.552421451,-68.54547883,-4.056136072,0.46017614,8.733320355,-12.17240274,-16.86149311,-6.156787395
7.574697,-27.76640368,8.414767862,-68.50576783,-2.354551226,0.614079066,13.67627621,-8.05697906,-17.29217577,-3.819877744
7.58303,-27.82664108,8.3171947,-68.50883483,-3.750418246,0.347404229,11.22031164,-7.883001328,-10.62834883,-6.162524641
7.591363,-27.84542084,8.178615689,-68.47881318,-1.233679235,0.091175929,7.762543917,-3.537291736,-16.84914565,-4.911620825
7.599696,-27.85921144,8.087471962,-68.4685707,-4.899209261,-0.060829796,15.25222039,-2.505124167,-10.67736685,-4.412725479
7.608029,-27.87398624,7.9842031,-68.4535484,-0.848922044,-0.115108919,8.395069838,-2.785452396,-12.26674295,-4.526766002
7.616362,-27.87322378,7.896948695,-68.45723343,-4.276315511,-0.185997077,9.96793914,-0.550731987,-9.486546992,-5.665203452
7.624695,-27.87107706,7.824780464,-68.4282074,-1.997396439,-0.502278358,14.24052954,-0.954946399,-9.751538752,-1.302298203
7.633028,-27.86900044,7.755698562,-68.44101335,-3.996033013,-0.636992628,7.459821105,-0.227179095,-7.055479884,-5.605067492
7.641361,-27.85874224,7.720500708,-68.4191742,-1.762109369,-0.072098308,12.14185524,0.119230807,-5.419421673,-0.002708644
7.649694,-27.86221075,7.667551995,-68.42466355,-4.117896646,-1.126389762,11.15826881,-1.015088946,-5.750639557,-3.925465197
7.658027,-27.85625696,7.669496656,-68.4133606,-3.224662095,-0.173123736,8.622841596,-0.221864154,-0.898003102,0.971166909
7.66636,-27.86649084,7.656606794,-68.43489455,-2.985636622,-0.642493651,13.33652401,-1.604536534,-0.609759927,-3.368617952
7.674693,-27.88013363,7.66775918,-68.42392733,-3.749091499,-0.807655556,8.970550299,-2.569031242,0.106901348,1.447364405
7.683026,-27.89352322,7.713204265,-68.46585848,-3.549525201,-0.648205385,10.22105813,-1.661842112,6.712604761,-2.242100463
7.691359,-27.91720724,7.745429635,-68.47571948,-2.280092508,-0.421748392,12.29334474,-3.439054132,3.50175114,0.44067058
7.699692,-27.94939947,7.806006074,-68.51920703,-3.519069314,-0.407403369,8.080808877,-3.88011536,8.405568361,-1.540379524
7.708025,-27.96873617,7.8634336,-68.54938128,-2.360892653,-1.193314025,9.887562038,-2.564045906,7.304802418,-0.279524945
7.716358,-27.99410296,7.929679155,-68.5931206,-2.493262947,0.073795719,10.56504619,-3.045452952,9.017062904,-1.239713188
7.724691,-28.01620579,7.986296773,-68.63794325,-2.62387465,-0.933770478,8.292992056,-2.638362601,8.036934732,-1.859600052
7.733024,-28.02645254,8.047512293,-68.67100908,-2.968995214,0.10403432,11.16411662,-1.3792402,7.889908611,-0.405028306
7.741357,-28.04220057,8.11367178,-68.72317123,-2.105470538,-0.591982357,11.38882112,-1.735150218,9.456892132,-2.087522
7.74969,-28.05089903,8.163959146,-68.76151658,-3.627088994,-0.435024254,9.154867768,-1.106599152,7.028542877,-1.579421788
7.758023,-28.05827808,8.210080385,-68.79127883,-1.738404148,-0.4270477,10.81900001,-1.088022467,6.081466764,-0.852694807
7.766356,-28.06704283,8.270975947,-68.835186,-2.680866599,-1.169416875,10.95906711,-1.021524638,8.456303476,-1.548438147
7.774689,-28.07616472,8.282043099,-68.8596916,-1.800918489,-0.423021108,10.15743446,-1.390100658,2.083602667,-2.301528581
7.783022,-28.08440542,8.324942351,-68.8839798,-2.97934854,-1.155026361,10.59037542,-1.278230459,5.458518788,-0.495565
7.791355,-28.09035921,8.338186741,-68.90604783,-2.106834576,-0.575739453,10.4721787,-1.045621168,2.173290968,-1.933500186
7.799688,-28.10563755,8.343809247,-68.92708968,-2.303884044,-1.264701814,8.985331893,-2.186536789,1.334633142,-2.263696589
7.808021,-28.10104656,8.356252432,-68.93418123,-2.899026424,-0.002524315,10.82785463,-0.042695522,1.253643632,-0.409875818
7.816354,-28.12935305,8.342389941,-68.9404297,-2.590798766,-1.413435429,10.73114085,-3.998830155,-1.561895073,-1.816926554
7.824687,-28.15185404,8.33037734,-68.94355013,-1.419232592,-0.916972562,9.35641396,-3.355180174,-1.560518801,-1.355825544
7.83302,-28.16733456,8.294625521,-68.933815,-2.824342519,-0.547262952,10.86364961,-2.742080748,-4.766342163,-1.389104873
7.841353,-28.2020297,8.275403023,-68.9187317,-2.109095007,-1.069877654,10.78815091,-5.137610495,-3.347021788,0.139127046
7.849686,-28.2373786,8.232985378,-68.91438293,-2.664175213,-0.843907505,8.550380946,-5.026031792,-5.169887692,-2.344835937
7.858019,-28.27610254,8.210751057,-68.88793183,-2.654369175,-0.535916533,12.18490529,-5.853339672,-4.302167237,1.157542601
7.866352,-28.32247973,8.203159452,-68.89367673,-3.622355044,-1.10155068,10.48853111,-6.199459076,-0.920415402,-1.425960615
7.874685,-28.36116791,8.184970856,-68.8707657,-2.465260923,-0.327225909,10.77149773,-5.768479526,-3.675623477,1.001936049
7.883018,-28.40066672,8.176218987,-68.87665558,-2.937979758,-1.043371588,9.926386,-5.354307593,-1.031709336,-1.493114799
7.891351,-28.43579913,8.194296479,-68.86377335,-2.644460619,-0.282442756,10.71306348,-5.198915065,0.712799341,2.02903809
7.899684,-28.48355293,8.161700964,-68.8537712,-2.157153353,-1.11883837,10.64713716,-6.594539523,-4.448217087,-1.204666414
7.908017,-28.54179668,8.187787771,-68.8505783,-2.593961537,-1.14604646,9.694592954,-7.803159237,2.101113737,1.490745425
7.91635,-28.59716845,8.178518653,-68.846344,-2.475430459,-0.623271495,11.2204895,-7.455734372,-1.658335805,-0.492084727
7.924683,-28.66705751,8.188166976,-68.84193803,-3.326616824,-0.843894884,10.17152965,-9.202100695,0.304466926,0.670449525
7.933016,-28.71412325,8.203541041,-68.84161378,-2.796049073,-0.193227794,8.955904006,-6.382420779,1.159915142,0.523791954
7.941349,-28.77254295,8.219446301,-68.84236528,-2.501297802,-0.952606119,11.15385187,-7.756503583,1.247871429,0.49946809
7.949682,-28.82824945,8.230876088,-68.84605028,-2.901037276,-0.749568172,9.778180122,-7.344261527,0.974138245,-0.11315082
7.958015,-28.87090111,8.25109756,-68.84730913,-2.696739644,-0.639487386,9.46920526,-5.841182709,1.719624549,0.706917688
7.966348,-28.91733265,8.259274245,-68.84879685,-1.451540738,-0.462182157,11.68566919,-6.28619808,0.500025146,-0.065396324
7.974681,-28.95798874,8.285090327,-68.86469268,-3.431663483,-0.839028511,8.429276228,-5.349923909,3.155619592,-0.495280061
7.983014,-28.98283243,8.290314078,-68.8500595,-3.032212437,-1.034139406,10.50577319,-3.945674494,-0.736521438,1.430727914
7.991347,-29.00973797,8.332351565,-68.88703158,-2.372923195,0.014731582,10.95144701,-3.352881242,6.071355551,-1.739033789
7.99968,-29.02438116,8.352738142,-68.88773725,-3.810364277,-0.666001721,10.87334657,-2.488336317,1.741636709,0.71168837
8.008013,-29.02800226,8.400071264,-68.91347123,-2.842702305,-0.491507694,9.740188004,-0.726163846,5.973159969,-0.251595866
8.016346,-29.01881695,8.439544082,-68.93561938,-2.125738919,-0.906591609,12.08695579,0.743136049,4.973375373,-0.395192452
8.024679,-29.00405598,8.47122848,-68.95596313,-2.228213027,-0.519745436,8.507707,1.388077043,4.027902812,-0.609602757
8.033012,-28.98091078,8.506664038,-68.96925355,-2.830531806,-1.051196069,8.960527181,2.304586381,4.041490957,0.296788894
8.041345,-28.94047642,8.555158019,-68.99517825,-2.210805863,-0.693108605,11.34874868,4.56432873,6.107753038,-0.232423507
8.049678,-28.92334128,8.588854909,-69.01357653,-3.057092637,-0.821363852,11.14412296,1.644561835,4.157164872,-0.342535995
8.058011,-28.8997674,8.670695543,-69.02884673,-2.927020073,-1.269551322,7.214973329,2.352574941,8.99370265,2.819682233
8.066344,-28.86606741,8.700155735,-69.0499153,-2.092014164,-1.380076244,10.78190684,3.682702705,3.856994703,-0.863321327
8.074677,-28.84050465,8.775157213,-69.0643234,-1.844009638,-1.324661959,8.140582086,2.594399057,8.232249023,2.51692535
8.08301,-28.8271904,8.807796955,-69.0754776,-3.155527562,-0.750618935,8.063892365,1.073550124,3.626296882,0.335988224
8.091343,-28.80403185,8.867237807,-69.09020995,-1.670656283,-2.210577041,11.45024061,2.312863213,6.607833148,1.584973693
8.099676,-28.78822899,8.915459871,-69.11488343,-4.56828922,-0.475180663,12.15320611,1.611913458,6.039535999,-0.186298907
8.108009,-28.80089665,8.974408865,-69.13337325,-1.181930244,-1.696473956,7.903472782,-1.935786217,6.775253832,1.169862926
8.116342,-28.79005575,9.01015854,-69.1604042,-3.107129693,-0.922335655,10.93454635,1.060877388,4.854598671,-1.146790922
8.124675,-28.80055618,9.044012784,-69.1728363,-1.717005573,-1.704032153,10.38120413,-1.762384161,3.7879712,0.369885504
8.133008,-28.81404639,9.079808472,-69.19495775,-2.660399407,-1.323485755,6.707897068,-1.919700682,4.582780809,-0.636529803
8.141341,-28.8244524,9.08825183,-69.21012875,-1.404629886,-1.616886109,11.12617588,-1.705322117,1.279312939,-1.413476974
8.149674,-28.83498907,9.131594657,-69.23214725,-4.277776063,-0.88665057,10.12054277,-1.586337924,5.375304579,-0.190518715
8.158007,-28.86420346,9.13602996,-69.23796083,-2.148902983,-1.339244977,7.96018064,-4.139862597,0.312128366,-0.653528005
8.16634,-28.87013626,9.174666644,-69.26627353,-2.940342039,-1.244629273,9.646333575,-0.927744485,5.235513927,-1.108872242
8.174673,-28.90406704,9.164075852,-69.26784898,-1.477949813,-1.084015001,9.233484507,-4.796381175,-1.49725835,-1.082678564
8.183006,-28.92098284,9.192048073,-69.28790283,-3.09531939,-1.802786567,9.144169092,-2.363262266,3.641819522,-0.864442006
8.191339,-28.95994902,9.178891183,-69.28911588,-1.92680794,-1.333365142,11.42693746,-5.402509868,-1.78876703,-1.206030346
8.199672,-28.97802067,9.174671649,-69.30374148,-2.082992271,-0.57299351,7.845909595,-2.592103124,-0.047507943,-2.17592299
8.208005,-29.00123882,9.17279148,-69.31228258,-2.966166973,-2.269158423,10.80629492,-3.383058071,-0.197940767,-1.288489044
8.216338,-29.01071406,9.151859285,-69.30760193,-2.868041664,-0.773421307,9.375815034,-1.948126048,-2.910526522,-1.156031378
8.224671,-29.03493262,9.14508915,-69.3220825,-2.136959404,-1.019988612,10.97940338,-3.394507676,-0.366380095,-2.175813988
8.233004,-29.03924799,9.101654768,-69.30622483,-2.926350087,-1.2526716,9.655065774,-1.51090359,-5.913901808,-1.309556708
8.241337,-29.03940964,9.09937787,-69.315979,-2.417840898,-1.05918568,9.226510049,-0.634551078,-0.19149208,-1.386754658
8.24967,-29.04034281,9.047940016,-69.29907608,-1.976027116,-0.537493401,12.1423254,-1.11059168,-6.816842673,-1.655697912
8.258003,-29.05156851,9.040720226,-69.3103981,-2.745908125,-2.916980386,9.10663247,-1.939478029,-0.627248614,-1.827230089
