time,Euler_X,Euler_Y,Euler_Z,Acc_X,Acc_Y,Acc_Z,Gyr_X,Gyr_Y,Gyr_Z
0.0,-1.276879907,16.53551674,-137.3775177,-1.262549758,0.541426361,8.971922874,-1.518002033,-3.46957612,-0.661948621
0.008332999999993262,-1.25965941,16.51028633,-137.3542938,-1.155375123,0.528530359,8.81330204,2.687945127,-4.274477959,2.310340166
0.016665999999986525,-1.234523535,16.50698471,-137.3537292,-3.770533323,-0.457173318,10.62373352,4.41224432,-1.585751653,-0.237956241
0.024998999999979787,-1.206171274,16.51316071,-137.3424072,-2.647806644,-0.410011441,10.9192791,4.448565483,-0.194745049,1.042358637
0.03333199999997305,-1.157187462,16.48682213,-137.3366089,-2.715405226,0.454635918,7.40502739,7.096717358,-4.362232208,0.305539399
0.04166499999996631,-1.112920165,16.50559616,-137.3306122,-0.973167002,1.891392469,6.102520466,6.5426054,1.327982664,0.45417878
0.049997999999959575,-1.059745789,16.5104332,-137.2957458,-1.306516886,-0.764544427,10.84130955,6.625442505,-0.404756188,3.739845037
0.05833099999995284,-1.003168225,16.51100349,-137.295166,-3.682780266,-1.97951293,13.55237103,8.184323311,-1.121544838,-0.228786334
0.0666639999999461,-0.908014238,16.53303337,-137.2756348,-3.105144978,-0.382794768,7.989483833,12.16726303,1.415788531,1.996002436
0.07499699999993936,-0.8174209,16.54221725,-137.2661285,-1.39520216,1.786586881,3.725477934,11.98163605,0.177980527,0.826225638
0.08332999999993262,-0.753889918,16.5760231,-137.2599945,-1.624183655,1.224396586,7.344500065,8.828062057,2.85722971,0.468522847
0.09166299999992589,-0.692727029,16.59259033,-137.2499695,-1.875065923,-2.487201691,13.83530235,8.432116508,1.064412355,0.885368824
0.09999599999991915,-0.604327738,16.60248184,-137.2598419,-3.800675154,-1.001847863,10.78098965,12.38106537,0.290529519,-1.40673399
0.10832899999991241,-0.499467999,16.63947487,-137.2724609,-2.672712326,0.586732209,5.210734367,14.43056393,3.263805151,-1.703654528
0.11666199999990567,-0.443957239,16.67152214,-137.2595978,0.33094424,0.482999295,7.397550583,7.634387016,2.644810677,1.216330409
0.12499499999989894,-0.419628352,16.67240334,-137.2676544,-3.032935619,-1.787906289,12.47172546,4.632731438,-0.797550499,-1.218622923
0.1333279999998922,-0.372308582,16.68127632,-137.2709503,-2.314071655,-0.711926281,8.063417435,7.208832741,-0.120643057,-0.668531537
0.14166099999999915,-0.317180455,16.68449593,-137.2562408,-3.403509855,-0.810924232,6.377767086,7.544762611,-0.532263875,1.4005481
0.1499939999999924,-0.319201946,16.69682693,-137.2737885,-0.770616114,0.748278737,9.500197411,1.797722459,0.577972412,-2.293473005
0.15832699999998567,-0.320595086,16.68128777,-137.245285,-1.975563407,-2.317368507,10.89010906,0.266528934,-3.070685625,2.968779564
0.16665999999997894,-0.300464272,16.61047935,-137.2590942,-2.246029139,0.275331736,6.952926159,4.30461359,-9.677238464,-1.929443479
0.1749929999999722,-0.292317331,16.60562706,-137.241333,-2.601716757,0.676842749,7.555475712,1.806661487,-1.503555655,1.753409624
0.18332599999996546,-0.334426641,16.58434486,-137.2568817,-1.09037745,-1.352160573,10.05341911,-3.10539341,-3.732173681,-2.097780466
0.19165899999995872,-0.354468226,16.55961037,-137.2566681,-4.042947769,-1.206833005,10.5122776,-0.97380197,-3.879685402,-0.285137653
0.19999199999995199,-0.372108549,16.48864746,-137.2898865,-1.713252664,0.471345544,6.74778223,0.457380623,-9.401450157,-4.16702652
0.20832499999994525,-0.395899266,16.46051025,-137.2760925,-0.476848423,0.345966339,6.986641407,-1.910309553,-4.574907303,1.269659162
0.2166579999999385,-0.429713726,16.42074013,-137.3010864,-3.547114611,-0.469180226,9.563910484,-1.793124437,-5.941170692,-3.206236124
0.22499099999993177,-0.461878747,16.36580849,-137.3001099,-2.278877974,-1.369475007,11.23195457,-2.455483675,-7.503460407,-0.224739343
0.23332399999992504,-0.509306908,16.29893494,-137.316864,-3.656199455,-0.820954859,9.384580612,-3.711170435,-9.195691109,-2.290578842
0.2416569999999183,-0.566908598,16.29897308,-137.3253937,-1.350474715,0.448212832,7.53806448,-5.187062263,-0.896831155,-1.267699718
0.24998999999991156,-0.606913924,16.27394295,-137.3263855,-2.395949364,-0.130594358,8.098901749,-3.326828241,-3.913291931,-0.431856036
0.2583229999999048,-0.658259213,16.17533875,-137.32547,-0.068913832,-0.564994752,11.38845634,-4.777850151,-13.02251244,-0.320895225
0.2666559999998981,-0.727064371,16.12135124,-137.3203735,-4.532494545,-0.712905347,11.41732311,-7.011847019,-7.673462391,0.213609949
0.27498899999989135,-0.825922132,16.09852409,-137.3251801,-0.523971856,-0.06486699,5.171854496,-10.26380348,-3.640679121,-0.875622571
0.2833219999999983,-0.906810582,16.05045319,-137.3205261,-5.986604214,-0.425086558,7.140609741,-8.447011948,-6.964895248,0.152571201
0.29165499999999156,-0.979899585,16.01205063,-137.3443756,0.018073268,0.572289824,10.47853756,-6.539033413,-5.474096298,-3.108006001
0.2999879999999848,-1.071445704,15.97346687,-137.3309784,-3.099725723,0.253746718,9.609449387,-9.992165565,-5.56897068,1.183159947
0.3083209999999781,-1.159223914,15.93089867,-137.3588104,-1.732473493,-0.346310169,9.192784309,-8.200091362,-6.23330164,-3.606049299
0.31665399999997135,-1.20792222,15.88673687,-137.3508453,-4.008847713,0.323666126,8.810889244,-4.691401482,-6.506400585,0.515294373
0.3249869999999646,-1.266476393,15.86463451,-137.3597412,-1.354193926,0.837358415,8.545385361,-5.295230389,-3.543242693,-1.364060283
0.33331999999995787,-1.350401998,15.87100315,-137.3634796,-4.585401058,-0.092929922,9.159061432,-8.53397274,-0.414130986,-0.70946312
0.34165299999995113,-1.398175955,15.87500286,-137.3660278,-0.498560816,-1.004892588,13.30281639,-4.211569309,-0.427373528,-0.567995727
0.3499859999999444,-1.404466867,15.80862522,-137.3646698,-3.612214565,0.664053738,9.195625305,0.637397468,-8.881736755,-0.314209849
0.35831899999993766,-1.433813334,15.81120872,-137.3653412,-1.50348711,0.673181951,5.053395748,-2.083589792,-0.87544328,-0.365822494
0.3666519999999309,-1.494122624,15.80579758,-137.3581085,-3.431696892,0.226996467,7.701538563,-6.060071468,-1.859516501,0.523260355
0.3749849999999242,-1.501516819,15.83992958,-137.3563232,-2.702077866,-0.337046981,11.58786774,0.492010981,3.172745228,0.030621814
0.38331799999991745,-1.464278698,15.85346508,-137.3711853,-2.741685152,0.314807355,8.674933434,6.370195866,0.480715066,-1.968556404
0.3916509999999107,-1.437140942,15.84582233,-137.3463287,-1.249023914,0.534512162,7.471243382,3.87864852,-1.906390786,2.560539961
0.39998399999990397,-1.436378598,15.81031036,-137.3680267,-3.292007446,0.638319612,10.91379738,2.237774849,-5.117237568,-2.892923117
0.40831699999989723,-1.381483197,15.83312798,-137.3396606,-0.793539464,0.341637939,10.68475533,7.074358463,1.469706655,3.046545029
0.4166499999998905,-1.314480066,15.85420132,-137.3373871,-5.344995499,-0.525822282,8.270968437,9.381329536,1.333413243,0.026139332
0.42498299999999745,-1.233763218,15.88412094,-137.3242035,-1.576141596,0.331371576,8.136005402,10.68406868,2.638074398,1.325165272
0.4333159999999907,-1.17168045,15.87419605,-137.3042297,-2.446160316,0.400535166,10.85079002,8.210271835,-2.427102566,1.984527111
0.44164899999998397,-1.121456385,15.92866039,-137.2753296,-1.938739896,-0.815344036,11.64223289,6.514584541,5.549337387,3.165881395
0.44998199999997723,-1.046617508,15.91633224,-137.2722778,-2.610324144,-0.465994865,8.261188507,10.31261253,-2.405356407,0.047322307
0.4583149999999705,-0.942060888,15.94751549,-137.2340546,-2.62325573,0.801205158,6.322658539,12.70359898,2.476730108,4.180256367
0.46664799999996376,-0.891169548,15.99672031,-137.2370453,-2.613048792,-0.029163061,7.86540699,7.621349812,4.721689701,-0.54606992
0.474980999999957,-0.849584699,16.05388832,-137.2376556,-2.283103943,-1.012686253,12.48318577,6.44788456,5.940696716,-0.26679787
0.4833139999999503,-0.768122017,16.0507946,-137.2397919,-3.744557619,-1.169689417,10.57185745,11.26228523,-1.555603862,-0.547811627
0.49164699999994355,-0.700869143,16.05796242,-137.2669525,-1.020151615,0.910709023,5.677450657,10.40402794,-0.020824371,-3.404234171
0.4999799999999368,-0.662679553,16.07876015,-137.2615662,-1.083798051,0.932683766,7.84851408,5.837881565,1.567911386,0.364221632
0.5083129999999301,-0.629030347,16.13535881,-137.270874,-3.584051132,-1.780484676,11.41513634,5.763856888,5.615166664,-1.292366385
0.5166459999999233,-0.573030889,16.14636612,-137.2816162,-2.7017591,-1.717130661,11.23323345,8.493309975,0.145578504,-1.517489791
0.5249789999999166,-0.551166415,16.14487267,-137.2939606,-2.457566977,0.33836624,8.06102562,4.467186451,-1.086683989,-1.707573175
0.5333119999999099,-0.550048769,16.19547462,-137.2957458,-2.356271505,-0.028698007,6.945360184,1.610174894,4.886645794,-0.444842458
0.5416449999999031,-0.512084126,16.21916199,-137.318222,-1.545438051,0.109217338,6.289843082,6.742294312,1.943544269,-2.841873884
0.5499779999998964,-0.466264844,16.21476936,-137.3070984,-2.120350599,-0.332361996,10.51800919,6.558717251,-1.460574985,0.993845165
0.5583109999998896,-0.472039342,16.23282623,-137.3226166,-3.544534445,-0.795248866,10.14479637,1.243071675,0.992794931,-2.065378189
0.5666439999999966,-0.485632598,16.27060318,-137.3288574,-1.728802919,-0.653701365,9.283979416,-0.006403559,3.351891994,-0.977080643
0.5749769999999899,-0.445831716,16.30724144,-137.3129272,-3.886445522,-0.186535105,7.682256222,5.676485538,3.457729578,1.577849627
0.5833099999999831,-0.424837679,16.29170799,-137.324707,-0.006116929,-0.170966402,8.667809486,4.332609653,-3.041460037,-1.668741703
0.5916429999999764,-0.421119094,16.27224922,-137.3026276,-2.121816158,-0.01946404,11.16534901,1.143867731,-3.279159784,2.224839687
0.5999759999999696,-0.433946699,16.2708683,-137.3045502,-2.641294479,-1.687405705,7.854179382,-0.025511781,-1.085377693,-0.560337067
0.6083089999999629,-0.413298279,16.26374626,-137.3036499,-4.213596344,-0.435592234,5.898324013,3.862178802,-2.043811083,-0.195974514
0.6166419999999562,-0.419097394,16.25135612,-137.3034973,-0.223863631,0.587137938,11.74088669,0.715239108,-2.675868034,-0.28933841
0.6249749999999494,-0.45158565,16.27320671,-137.3001251,-4.718697071,-0.96695292,11.50047684,-2.572796345,1.694112897,0.113381423
0.6333079999999427,-0.461006075,16.23260689,-137.3177032,-0.645241976,-0.446532845,8.340781212,0.875225663,-6.044447899,-2.360659122
0.641640999999936,-0.464886963,16.19007874,-137.3053284,-3.038160801,0.069364987,6.639690876,0.548055053,-6.041271687,1.131214499
0.6499739999999292,-0.50512743,16.19602585,-137.3093109,-0.51914525,0.301000535,8.218647003,-3.257259607,-0.207526535,-0.741993129
0.6583069999999225,-0.552265167,16.2098217,-137.3224182,-4.477141857,-1.043729067,10.07905102,-3.802484512,0.482149571,-1.790537357
0.6666399999999157,-0.569931626,16.16345215,-137.303421,-2.140925169,-1.34598887,11.91538334,-1.340188146,-6.774145603,1.839909077
0.674972999999909,-0.631183147,16.17961121,-137.3279266,-4.198544025,0.50239712,7.429343224,-5.093979836,1.043895364,-3.08741188
0.6833059999999023,-0.68315506,16.21121407,-137.3230591,-0.297453731,0.12897864,7.620909214,-4.983454704,2.597270727,0.307204336
0.6916389999998955,-0.687380552,16.24656487,-137.3182526,-4.540246487,-0.836172462,7.783247948,0.768977761,3.308219433,0.321292192
0.6999720000000025,-0.697019577,16.21900749,-137.3356018,0.461608946,0.918286622,9.205700874,0.866030157,-4.211825371,-2.33005023
0.7083049999999957,-0.73387903,16.24333382,-137.3252563,-4.314434528,-0.336036325,9.856716156,-3.353953362,1.715807915,0.93203789
0.716637999999989,-0.788753927,16.29974747,-137.3405304,-2.172382355,-1.937871814,9.206466675,-4.656514168,5.603870392,-1.963664293
0.7249709999999823,-0.806469798,16.35254288,-137.3558502,-5.019049644,0.898150623,6.395019054,-0.171487316,5.433125496,-1.957260728
0.7333039999999755,-0.828128457,16.37960052,-137.3644257,0.497119814,-0.043105818,9.918859482,-0.893501341,2.071487188,-1.236911297
0.7416369999999688,-0.885683537,16.43472672,-137.3713379,-3.606215,-0.845955789,11.51402855,-5.227661133,5.698105335,-1.004795313
0.7499699999999621,-0.930927038,16.44367409,-137.3971252,-0.396528125,-0.133104801,7.528985977,-3.113384724,0.189839914,-3.234079123
0.7583029999999553,-0.940986097,16.46345711,-137.3914948,-4.975281715,0.080376498,6.109329224,0.015791176,1.176884532,0.390886039
0.7666359999999486,-0.987653673,16.50683594,-137.4096222,0.108887643,0.201941818,7.88735199,-3.566090822,4.050954819,-2.294881582
0.7749689999999418,-1.027523994,16.5469799,-137.4249725,-4.506531715,-0.911444962,11.47195625,-2.827324867,3.916711092,-1.950498223
0.7833019999999351,-1.025101662,16.50354385,-137.4275818,-1.444125414,-0.974500954,10.22131443,1.795468092,-6.39497757,-0.690329194
0.7916349999999284,-1.065604091,16.50556946,-137.4473114,-3.451751471,0.608024955,6.041941166,-2.740953445,-0.645171285,-2.576433182
0.7999679999999216,-1.116805911,16.498703,-137.4575958,0.748608589,0.101446837,8.960738182,-4.360797882,-1.733315349,-1.463289976
0.8083009999999149,-1.109501123,16.4812851,-137.4661713,-4.803313732,-0.278502256,10.87312794,2.585488081,-3.25864315,-1.324537754
0.8166339999999082,-1.126345873,16.44864655,-137.4684601,-0.010406019,-0.134020418,9.265706062,-0.528498471,-5.099076748,-0.63392669
0.8249669999999014,-1.20414257,16.45949173,-137.5023956,-5.026217461,-1.374873161,10.72227764,-6.744255066,0.448313236,-4.163492203
0.8332999999998947,-1.204147696,16.42269516,-137.4894257,-2.375236034,-1.136249065,10.08417702,0.974865019,-5.634927273,1.10334599
0.8416330000000016,-1.227646351,16.43775558,-137.5285645,-4.509594917,0.855713904,3.610316992,-0.050460048,0.973200142,-4.756051064
0.8499659999999949,-1.271232724,16.42003822,-137.5163727,0.665940523,0.88965106,10.0821619,-4.208854198,-3.089589119,1.086363673
0.8582989999999882,-1.260060668,16.43505478,-137.5363312,-4.618271351,-1.321831822,12.49887466,3.431552172,0.665188849,-2.548385859
0.8666319999999814,-1.248010159,16.38719559,-137.5227051,0.061502662,0.584509611,6.983745575,2.399657011,-6.964382648,1.145430207
0.8749649999999747,-1.281789184,16.35310555,-137.5261383,-3.865138531,-0.520575166,10.38440037,-2.500359058,-5.014422417,-0.761588037
0.8832979999999679,-1.277043343,16.34520721,-137.5138245,-1.356753826,-0.743532181,11.13957405,1.568244457,-2.166990042,1.101911545
0.8916309999999612,-1.260685563,16.35597038,-137.5111084,-4.52847147,0.111159481,3.597019911,3.301610947,0.350031346,0.089867547
0.8999639999999545,-1.296452522,16.29199409,-137.5049744,-0.827537596,-0.542016923,9.478207588,-3.063821316,-8.625312805,0.259741187
0.9082969999999477,-1.351632476,16.29088593,-137.4915924,-4.139361858,-2.34455204,13.93921757,-5.657467365,-1.356504321,1.243071675
0.916629999999941,-1.389751434,16.2652359,-137.5028839,-2.144587755,-0.175839901,8.506552696,-2.777428389,-4.233469963,-1.670432329
0.9249629999999343,-1.409534454,16.2363472,-137.4780579,-3.571127176,0.511188626,5.132433891,-1.77130115,-4.470068455,2.501063824
0.9332959999999275,-1.44520247,16.20128822,-137.4860077,-1.24362874,0.718423367,9.187304497,-2.598359346,-5.370203972,-1.315163016
0.9416289999999208,-1.45396328,16.21976089,-137.4535828,-2.437037468,0.485241383,9.65789032,-0.688971519,1.184133172,3.478732824
0.949961999999914,-1.473280311,16.15595627,-137.4609528,-2.935839415,-0.647595942,10.81260395,-0.629572332,-8.567218781,-1.338856101
0.9582949999999073,-1.500030398,16.15733719,-137.4306793,-3.637190104,-0.880664706,10.03646183,-2.805450201,-1.112246871,3.197591543
0.9666279999999006,-1.542225242,16.13379097,-137.433075,-2.106544733,-0.12034671,9.787096977,-3.567755699,-4.005809784,-0.64650327
0.9749609999998938,-1.567828298,16.19185638,-137.4060669,-4.529224873,-0.375365198,7.269831181,-2.53373456,5.944692135,3.010120869
0.9832940000000008,-1.576780915,16.22876549,-137.3991547,-1.729204416,-0.133091077,8.482170105,0.108489089,3.218492508,0.623283982
0.991626999999994,-1.590152383,16.21704292,-137.3699951,-1.631880641,1.010720491,10.36034489,-1.145365953,-2.439013004,3.045545101
0.9999599999999873,-1.624747753,16.23801994,-137.3723145,-3.372494936,-0.883512914,10.87932777,-2.635781765,1.58622551,-0.475989372
1.0082929999999806,-1.660704851,16.30404854,-137.3572235,-1.652858973,-0.46636346,7.36676693,-3.406642675,6.683101177,1.670317411
1.0166259999999738,-1.677400351,16.36195755,-137.3719788,-5.360900879,0.091146104,6.210614681,-0.091698974,5.808169365,-1.791049838
1.024958999999967,-1.670064569,16.43897057,-137.3837738,-1.291538596,0.24614343,8.051497459,2.718861341,8.339060783,-1.365546107
1.0332919999999604,-1.696773887,16.48064423,-137.3839874,-1.795253634,0.211570665,8.535719872,-1.783083916,3.812154055,-0.172435045
1.0416249999999536,-1.728146553,16.54719925,-137.3973083,-2.149536133,-0.400122046,10.12394714,-1.861335397,7.088855267,-1.607600808
1.0499579999999469,-1.705484033,16.58864021,-137.3964539,-3.50669384,-0.674545586,9.250650406,4.128720284,4.026698589,-0.035936769
1.0582909999999401,-1.658278227,16.64454651,-137.3925323,-2.271266937,0.626016736,7.227314949,6.945877075,5.505691051,0.351491362
1.0666239999999334,-1.6647439,16.70729446,-137.4068451,-2.856848717,0.979160309,7.55363369,1.131111741,6.386255741,-1.720175147
1.0749569999999267,-1.660931826,16.76786232,-137.3956451,-0.364709973,-1.180891991,14.02382946,1.510100126,6.286719799,1.210900187
1.08328999999992,-1.603356957,16.74364471,-137.4070892,-3.472305298,0.173375696,9.821174622,8.720403671,-4.05562973,-1.691897035
1.0916229999999132,-1.55716753,16.77602005,-137.4033661,-1.631530762,1.091948748,4.011692047,6.852897167,2.931126833,0.244423851
1.0999559999999065,-1.555010676,16.79567528,-137.4000549,-2.680115223,-0.834728897,8.17932415,1.578899741,1.406106234,0.162227735
1.1082889999998997,-1.507786274,16.82939148,-137.3933716,-2.999717474,-0.728343904,11.79958057,6.851206779,2.837532282,0.580252111
1.116621999999893,-1.457507491,16.81988144,-137.405304,-3.526180506,-0.515738249,8.971457481,7.86291647,-2.294523001,-1.694945097
1.124955,-1.445153594,16.81444931,-137.3720856,-1.221957326,-0.425319642,8.954947472,1.764474869,-1.69071877,3.517052174
1.1332879999999932,-1.448155165,16.80152512,-137.3840942,-3.286579609,-1.120586753,9.998054504,1.472600818,-2.702942133,-1.713490009
1.1416209999999865,-1.404322624,16.82155228,-137.3654938,-1.116125941,1.619090796,5.664039135,6.035750866,1.406311035,1.963010669
1.1499539999999797,-1.398190141,16.78851891,-137.3434753,-2.921998262,-0.690148294,8.401165962,1.408872366,-4.967803478,2.148329735
1.158286999999973,-1.428452849,16.7876358,-137.3435974,-2.537537813,-1.279614806,13.68267345,-2.211942911,-1.294236183,-0.313005954
1.1666199999999662,-1.4161973,16.79580116,-137.3426056,-3.42830801,-1.516052246,11.73160744,2.851619959,-0.210830793,-0.156810358
1.1749529999999595,-1.404900789,16.7897892,-137.3325043,-2.90468359,1.020321727,4.469697952,2.443073034,-1.692332625,0.858627617
1.1832859999999528,-1.411872625,16.77151299,-137.3471069,-2.000831366,1.359032035,6.825131893,1.082957029,-3.338917971,-2.026060343
1.191618999999946,-1.390783668,16.79587555,-137.3405762,-1.336535335,0.224361762,10.06504631,3.743584871,1.959424853,0.536759079
1.1999519999999393,-1.330075145,16.80742836,-137.3336945,-3.779605865,-0.696282029,8.816635132,8.484599113,0.422750145,0.528075874
1.2082849999999326,-1.307935357,16.8017292,-137.350235,-2.982759476,-0.208221719,9.181272507,4.646203995,-1.827242494,-2.20902276
1.2166179999999258,-1.282854199,16.82950592,-137.3266144,-3.641659498,-1.136831999,11.58616161,3.604140997,2.083449125,2.494199276
1.224950999999919,-1.25081718,16.87388039,-137.3423767,-2.344982386,-0.526837766,7.400154591,5.827097893,4.418186665,-1.969939709
1.2332839999999123,-1.198991537,16.92726517,-137.3280792,-2.215672255,0.817992091,4.177434921,7.135755062,5.18164444,1.48333323
1.2416169999999056,-1.178319335,16.93377686,-137.3251343,-0.399596483,-0.248331174,10.73384094,3.819966078,-0.17243503,0.055570081
1.2499499999998989,-1.168347359,16.94846153,-137.3172455,-4.259078979,-1.402336955,12.83451939,2.357470036,0.798075557,0.652586699
1.2582829999998921,-1.14558351,16.98693275,-137.3405304,-2.077963114,-0.501592338,7.062350273,4.963154793,3.482114077,-2.874045134
1.266615999999999,-1.114971519,17.01449585,-137.3093567,-4.990557194,-0.573581815,5.540514469,3.995628357,2.049868822,3.34705019
1.2749489999999923,-1.106662512,17.03656578,-137.3439026,-0.426506013,1.078610897,10.5046196,3.645123482,1.775591731,-4.184546471
1.2832819999999856,-1.067723274,17.06227303,-137.3197784,-2.417466164,-0.737387717,10.6016407,5.239149094,1.844903946,2.529418707
1.2916149999999789,-1.0428406,17.02882004,-137.3278503,-1.496990442,-0.750133157,7.095899105,4.709573746,-4.945596695,-1.293390751
1.2999479999999721,-1.053914905,16.98888016,-137.3191071,-3.591313839,-0.294989735,9.339891434,-0.19118467,-5.758362293,0.608094811
1.3082809999999654,-1.056609511,17.00790405,-137.3359222,-0.510466456,-0.332631379,9.848390579,1.681971192,1.13100934,-2.181999683
1.3166139999999587,-1.050636411,17.00111771,-137.3201752,-5.557123661,-0.311686933,6.195545673,1.578669429,-2.034692526,1.496114731
1.324946999999952,-1.098017931,16.96190453,-137.3534546,-0.744560719,-0.515761971,10.15322208,-3.081085682,-5.580369473,-4.190515041
1.3332799999999452,-1.140563488,16.93685532,-137.3488312,-3.181607485,-1.493105769,12.32765198,-3.851715326,-4.202297211,0.174266443
1.3416129999999384,-1.15062952,16.92149734,-137.3675232,-2.498867273,-0.233587191,7.987213612,0.887546003,-2.750379562,-2.482557058
1.3499459999999317,-1.169251919,16.85848236,-137.3699188,-3.212030411,0.781936288,5.178674698,-0.711153567,-8.503490448,-0.715251803
1.358278999999925,-1.196503282,16.85721397,-137.3746033,-0.206507713,0.380910814,10.55110931,-1.692050695,-1.328072429,-0.836151063
1.3666119999999182,-1.182886362,16.8599472,-137.3580933,-4.805434704,-0.074247435,9.11900425,2.474962711,-0.898777962,1.605615735
1.3749449999999115,-1.192450762,16.81787682,-137.381134,-1.793625593,-1.17560041,10.18631935,1.089463234,-5.941913605,-3.03229022
1.3832779999999048,-1.198405266,16.79462242,-137.3570251,-3.937986612,-1.154633999,12.50362015,-0.135652989,-4.034882069,2.414948463
1.391610999999898,-1.213894367,16.80839157,-137.381897,-2.082873106,-0.640350938,8.478791237,0.441243649,0.760781229,-3.104189396
1.3999439999998913,-1.205456853,16.82465172,-137.3711853,-3.816119671,1.403675437,5.182412624,2.086574078,0.973814845,0.965439022
1.4082769999999982,-1.18433857,16.7983036,-137.352356,-0.093626499,-0.030590426,10.68863869,3.296154976,-4.39322567,1.800923944
1.4166099999999915,-1.167056561,16.81407928,-137.3382263,-3.919365406,-0.636462033,11.93546963,2.999337673,0.672335267,1.367223859
1.4249429999999847,-1.142721057,16.8104744,-137.338562,-1.533565044,-0.477598369,9.259576797,4.370390415,-1.382425904,-0.331294507
1.433275999999978,-1.126013637,16.82906151,-137.3094177,-5.331463814,-0.712889254,6.010200024,2.408032417,0.977195799,3.096850395
1.4416089999999713,-1.133691788,16.85975838,-137.3342133,-2.402249575,0.135089874,7.10255146,1.38018477,2.787943125,-3.061464787
1.4499419999999645,-1.122527122,16.93148232,-137.3141937,-1.860291719,-0.164862663,9.173404694,2.077762604,7.606235981,2.188544273
1.4582749999999578,-1.123862982,16.97569656,-137.3257446,-2.877161503,-1.357666492,9.001873016,1.660404444,4.144370079,-1.519180298
1.466607999999951,-1.134594917,16.96659279,-137.3301697,-1.814194441,-0.176132232,8.177425385,0.282076776,-2.269626141,-0.823933065
1.4749409999999443,-1.161420107,16.97658348,-137.3322296,-1.583655357,-0.093876027,9.748590469,-1.699581265,0.248675779,-0.521326482
1.4832739999999376,-1.165611625,17.03429413,-137.3356476,-2.486984491,-0.227755636,8.355462074,1.033905864,5.745490551,-0.549912035
1.4916069999999308,-1.183675647,17.04742432,-137.3565369,-3.41434288,-1.290251732,8.885135651,0.005827238,0.670977712,-2.646001816
1.4999399999999241,-1.239047885,17.03308487,-137.3431854,-2.139645576,-0.595053434,10.94930458,-5.675320148,-2.707501411,1.215408206
1.5082729999999174,-1.306685805,17.04216003,-137.3684387,-2.727989674,-1.192323446,9.307685852,-5.812894344,-0.033862021,-3.168532372
1.5166059999999106,-1.310973883,17.05878448,-137.3683777,-1.85082674,1.217314005,3.941359997,0.899559081,0.80627203,-0.243642583
1.524938999999904,-1.3341676,17.04009247,-137.357193,-1.932712436,0.304007143,8.272177696,-1.734775186,-3.227316618,0.943897367
1.5332719999998972,-1.393674612,17.02139091,-137.3691254,-2.684310436,-1.212552905,13.30603981,-5.306885242,-3.397625685,-1.715667009
1.5416049999998904,-1.416753769,17.03376579,-137.3648071,-3.135584593,-1.693786025,11.84127426,-1.487264872,0.515704155,0.270627201
1.5499379999999974,-1.431014776,17.0079689,-137.3641968,-3.854916573,0.195037335,4.924793243,-0.288032055,-4.050122738,-0.304911852
1.5582709999999906,-1.472503066,17.02022552,-137.3683319,-1.731676579,0.405690312,7.094269753,-3.417553902,0.295242488,-0.730722964
1.566603999999984,-1.503940344,17.0240593,-137.3585358,-1.154847145,-0.52842021,12.28231525,-2.700841904,-0.755466282,0.839903533
1.5749369999999772,-1.509813309,17.00572586,-137.3557281,-3.120613337,-0.88254869,9.308279037,0.630584061,-3.165535212,0.003521958
1.5832699999999704,-1.542174816,16.97388458,-137.3641815,-2.740596056,0.345874488,7.030556202,-2.172804356,-4.982275963,-1.365366936
1.5916029999999637,-1.602830291,16.98770523,-137.3499756,-2.759899616,-1.234604836,8.152881622,-6.328944206,0.660706341,1.36999011
1.599935999999957,-1.629709721,17.0116539,-137.3620148,-3.600229979,-0.826871037,9.484747887,-1.360167146,1.953021526,-1.587006807
1.6082689999999502,-1.629608035,17.04135704,-137.3656921,-3.081564903,0.539473414,8.654780388,1.557281494,2.38943696,-0.616278529
1.6166019999999435,-1.655115604,17.02184868,-137.3502502,-1.276456952,0.437183499,10.44203949,-2.187711954,-3.578436852,1.408898354
1.6249349999999367,-1.710129619,17.02637672,-137.3670044,-2.908890247,-1.249079585,9.239536285,-4.580414772,-0.35977751,-2.16358304
1.63326799999993,-1.704984546,17.06216049,-137.3685608,-1.696060777,0.67818439,7.472157955,2.088315725,3.111040831,-0.346970409
1.6416009999999233,-1.692671776,17.06604195,-137.3551331,-3.645528793,-0.109473236,6.286205769,2.441536188,-0.538821042,1.28958714
1.6499339999999165,-1.736359835,17.07495117,-137.3861084,-2.485828638,-0.409170657,10.76371193,-2.711420536,0.215479776,-3.80432868
1.6582669999999098,-1.770678997,17.07824898,-137.3699341,-2.050837755,-1.958171606,12.000844,-3.272397757,-0.847472548,1.57108748
1.666599999999903,-1.766083479,17.0677166,-137.3969269,-3.352689743,-0.075596146,7.221117496,2.916372538,-2.354178905,-3.42672348
1.6749329999998963,-1.762155056,17.08645058,-137.3857117,-2.104819059,1.745795369,4.160561562,1.521267772,1.248501897,1.060698152
1.6832659999998896,-1.805720806,17.11503983,-137.4004974,-1.428209424,0.04223951,9.63004303,-3.289815426,2.295765638,-1.8846699
1.6915989999999965,-1.815777898,17.13114166,-137.3960114,-4.15051651,-3.039171696,12.20652866,0.073167071,0.951812148,0.301133722
1.6999319999999898,-1.83648169,17.13145447,-137.433548,-3.118952274,-0.233744785,8.02981472,0.279540986,-0.784743369,-4.569067955
1.708264999999983,-1.87818718,17.15620232,-137.4121399,-2.559186459,0.032684147,8.523708344,-4.345941544,1.70212996,2.253168821
1.7165979999999763,-1.924346089,17.17970848,-137.4542999,-1.784250021,0.094055861,8.264061928,-2.629839182,1.793162823,-5.034938812
1.7249309999999696,-1.900712132,17.2111969,-137.4374847,-2.303652048,0.860485911,7.825419426,3.681572437,2.749675274,1.76993072
1.7332639999999628,-1.911837459,17.17601013,-137.4381866,-1.075854421,0.090490445,9.180713654,0.105108008,-5.403988838,-0.51581949
1.741596999999956,-1.946395397,17.18747711,-137.4341278,-4.26023674,-1.530196905,12.08590317,-2.85306716,0.397699416,0.23778975
1.7499299999999494,-1.941174626,17.19538116,-137.4484253,-1.991273165,-0.633677542,7.398961544,2.573474884,0.042634889,-1.886257529
1.7582629999999426,-1.914625168,17.21327972,-137.4205322,-4.187694073,0.618684351,5.344992161,3.613669157,0.852557063,2.970700741
1.7665959999999359,-1.924459815,17.20775604,-137.4475555,-1.090998173,0.927582026,8.874565125,1.19348228,-1.746711254,-3.413198709
1.7749289999999291,-1.890965462,17.21697044,-137.4234009,-2.160588503,-1.263780117,11.25231266,4.601251125,0.049601965,2.528496265
1.7832619999999224,-1.855787158,17.15386963,-137.4358673,-1.434176326,0.343554705,7.478217125,6.077836037,-8.708201408,-1.971809626
1.7915949999999157,-1.863078594,17.11172295,-137.4339142,-2.850693703,0.022830592,10.27611351,0.483404666,-6.024365902,-0.182168469
1.799927999999909,-1.843322992,17.0835228,-137.4550476,-1.767126918,-1.485000491,10.53013325,4.561984539,-4.264641762,-2.835982323
1.8082609999999022,-1.797801852,17.05974579,-137.4353638,-4.073221207,-0.003133756,6.132811546,6.185313702,-4.111495018,1.870620608
1.8165939999998955,-1.818657875,17.01158714,-137.4681702,-2.299111843,-0.040783416,11.28273106,0.065636486,-6.843766212,-4.24087286
1.8249270000000024,-1.82385242,17.00887489,-137.454071,-2.520258904,-1.891153812,13.88152218,0.312455237,-1.340469837,1.35531342
1.8332599999999957,-1.807703972,16.97091675,-137.4769287,-3.800812244,-0.616924524,6.59940815,4.155077934,-5.656649113,-3.060952902
1.841592999999989,-1.83632493,16.9552784,-137.4813232,-2.032766819,1.149390817,6.383387566,-1.841663837,-2.821766853,-0.84053117
1.8499259999999822,-1.87210381,16.93996811,-137.499176,-1.39922905,-0.483954579,10.32429981,-2.232588291,-2.734704018,-2.382457018
1.8582589999999755,-1.846818447,16.95046616,-137.4944611,-3.361844778,0.260228932,7.693275928,4.285223007,0.054519899,0.288352251
1.8665919999999687,-1.851154566,16.91039848,-137.5142365,-2.010975599,0.044520628,7.981949329,1.585687518,-5.918578625,-2.720872164
1.874924999999962,-1.886477947,16.90513802,-137.4879913,-3.376702785,-0.807023525,12.44782925,-3.714550972,-1.692973018,2.705029964
1.8832579999999552,-1.918243051,16.91690063,-137.5067291,-2.967076063,-2.047868013,11.03446674,-1.742818356,0.2956779,-2.397338867
1.8915909999999485,-1.90684247,16.94011879,-137.4910126,-2.708854198,0.59747386,5.104327679,2.259982347,1.762016177,1.612377644
1.8999239999999418,-1.931982398,16.93620491,-137.4767151,-0.946505308,0.178699106,7.476002693,-2.076417685,-1.490440965,1.340969086
1.908256999999935,-1.971115351,16.89439201,-137.4675598,-2.086117506,0.069647022,13.05018806,-3.601105452,-6.237399578,0.582992852
1.9165899999999283,-1.987542391,16.86841202,-137.4725647,-1.793036699,-0.729839623,10.80144882,-0.380704403,-4.282239437,-0.976107359
1.9249229999999216,-1.987267494,16.83000374,-137.4503937,-3.96282053,0.250094712,4.837220669,0.696438253,-5.658415318,2.111881018
1.9332559999999148,-2.033215761,16.82913399,-137.4798584,-3.233581543,0.338995993,6.289813519,-3.073759794,-1.172798991,-3.679331541
1.941588999999908,-2.055243015,16.81989861,-137.4504395,-1.386781454,-0.163881004,12.443923,-2.23181963,-2.19188714,3.069853544
1.9499219999999013,-2.064108849,16.81585503,-137.4701538,-3.755590439,-0.840190113,12.10723782,1.054064274,-1.36879921,-2.546797752
1.9582549999998946,-2.062584639,16.7948761,-137.4532471,-0.948173404,0.540974438,6.238656044,1.011032224,-3.773002148,1.555744648
1.9665880000000016,-2.083087206,16.7846489,-137.447525,-4.198055267,-0.025110776,6.132668972,-1.243519783,-2.436887026,0.316246152
1.9749209999999948,-2.105968952,16.81974792,-137.4450378,-1.586516261,0.497268498,10.51978016,-1.38147819,3.235910177,0.121065676
1.983253999999988,-2.122306108,16.83896065,-137.4433441,-2.801432848,-0.920742691,10.57831955,-0.604162991,1.110338569,-0.01621381
1.9915869999999813,-2.120129824,16.84835052,-137.4271393,-2.614720106,-1.056246877,9.357573509,1.142663717,0.091558076,1.594037771
1.9999199999999746,-2.122169256,16.79182816,-137.435791,-2.060374022,0.631384254,6.074117661,1.498266578,-7.706274509,-1.53777647
2.008252999999968,-2.114424229,16.79263496,-137.4113617,-1.983285546,1.211581111,6.99497509,1.497549176,-1.19262445,2.513153553
2.016585999999961,-2.123670101,16.82114792,-137.408905,-3.690511465,-0.82900399,9.312129974,0.221319765,2.221663237,0.114405975
2.0249189999999544,-2.104665279,16.83274269,-137.416153,-2.053801537,-0.123450726,13.1831665,3.968272448,0.453871399,-1.067652464
2.0332519999999477,-2.037599564,16.79153824,-137.3974609,-3.230042934,-0.511560202,10.07507896,8.815102577,-6.204230309,1.669472098
2.041584999999941,-2.008691311,16.77882004,-137.3993378,-1.605055332,1.155253887,4.546303272,4.966510773,-2.486527681,-0.537335455
2.049917999999934,-2.006706715,16.75243378,-137.3688202,-1.38382864,0.266094476,8.024581909,0.617392719,-4.254934311,3.114345074
2.0582509999999274,-1.965744734,16.77590752,-137.3553314,-4.320577145,-1.21818316,11.89207077,5.86290741,1.575083613,1.351445675
2.0665839999999207,-1.903461933,16.75861549,-137.3350372,-2.026796103,-0.872475266,9.855924606,8.187731743,-3.339328289,1.962652802
2.074916999999914,-1.900567174,16.73451042,-137.335495,-3.36745739,0.644389153,6.799581051,1.794879198,-3.857785702,-0.417153448
2.0832499999999072,-1.923572063,16.72772789,-137.3193359,-1.909903169,-1.252331614,9.636350632,-1.905084252,-2.061356783,1.535406828
2.0915829999999005,-1.905417919,16.7157402,-137.3416138,-2.067027569,0.710454881,7.985366344,4.38911438,-2.320034981,-2.903937101
2.0999159999998938,-1.839982152,16.70538521,-137.3210144,-3.086894035,0.691792011,7.721979141,8.58910656,-2.28755641,1.999972224
2.1082490000000007,-1.849097013,16.71818542,-137.3495483,-3.968994617,-0.410277098,8.749442101,1.306671739,0.455459476,-3.523212194
2.116581999999994,-1.856161594,16.70092773,-137.3415222,-1.712994456,-1.415475607,13.57974243,0.289735407,-3.28643465,0.55986315
2.1249149999999872,-1.825277209,16.69689369,-137.3721313,-3.296820879,0.718471766,10.09003544,6.194124222,-1.342851877,-3.806019306
2.1332479999999805,-1.760786176,16.70672035,-137.3531342,-0.85027957,0.877678096,4.658257961,8.498995781,-0.07730376,1.923283339
2.1415809999999738,-1.72650516,16.66526031,-137.3696594,-2.432608843,0.683549047,7.144015312,6.119509697,-5.883641243,-2.341115713
2.149913999999967,-1.682676911,16.70340157,-137.3413391,-3.174291611,-0.689512193,13.72294426,5.717494488,3.507472754,3.105739117
2.1582469999999603,-1.640208602,16.70810127,-137.3613586,-3.42427516,-1.138218403,10.92100143,7.202813625,-0.555649638,-2.579225779
2.1665799999999535,-1.578945041,16.70986366,-137.3275909,-3.750470638,-0.685506403,5.754414558,7.600986481,-1.084250569,3.589873552
2.174912999999947,-1.531799436,16.72530365,-137.3452759,-2.021471739,1.040249825,5.805547237,7.701216698,0.936059594,-2.261558294
2.18324599999994,-1.478900909,16.7659626,-137.3142548,-0.357257575,0.994229496,8.802648544,6.691449642,3.599632263,3.393668413
2.1915789999999333,-1.427484393,16.79780197,-137.3271942,-4.978799343,-2.072216034,11.01074505,8.048621178,2.883049011,-1.664028764
2.1999119999999266,-1.39024055,16.82305336,-137.3222504,-2.084281921,-1.129149795,10.01706409,5.732786179,2.04236412,0.351132751
2.20824499999992,-1.32844162,16.82365799,-137.3215637,-4.173004627,0.183130488,7.954771519,8.807647705,-1.116575837,-0.214442402
2.216577999999913,-1.274281383,16.87009811,-137.3280487,0.099157155,1.972682238,6.204920292,8.140268326,4.402152538,-0.913096309
2.2249109999999064,-1.207369685,16.88026619,-137.2953644,-2.683828592,-1.322845459,10.48896027,8.324666023,0.163406044,3.49481988
2.2332439999998996,-1.141217113,16.83815384,-137.3081665,-2.220693111,-0.851463675,11.70987797,9.799098015,-6.208020687,-1.867175698
2.241576999999893,-1.055632949,16.81396294,-137.2779388,-4.550140858,-0.566560864,7.816525936,10.65069389,-3.942594528,3.134094238
2.24991,-1.040952325,16.81793022,-137.3036804,-0.091957569,-0.045358591,4.598336697,4.089632511,-0.443536073,-3.233592272
2.258242999999993,-0.996914983,16.80554199,-137.2684021,-4.610598564,-1.035225391,8.983642578,5.474543571,-2.744360447,3.729138136
2.2665759999999864,-0.961035669,16.74653053,-137.3079529,-0.65291667,-0.451132685,10.81090069,7.090956688,-8.191178322,-4.957558632
2.2749089999999796,-0.932268023,16.65610695,-137.2626953,-3.405992031,0.696981966,8.655970573,3.328838825,-11.91059494,4.725532055
2.283241999999973,-0.959979892,16.66264343,-137.312149,-2.74709034,-1.0174191,8.074473381,-0.208038807,-0.307806253,-5.966784954
2.291574999999966,-0.945614219,16.65844536,-137.2675629,-4.365974903,-1.288026214,8.668027878,1.630563617,-1.562391281,4.802246094
2.2999079999999594,-0.94713372,16.62185478,-137.2989655,-2.272522211,-0.391707569,10.54415226,2.335211277,-5.307986259,-3.976302624
2.3082409999999527,-0.988953888,16.60464478,-137.2684784,-3.422781706,-1.036132455,9.806606293,-4.649982452,-3.311228752,3.175793886
2.316573999999946,-1.068617344,16.63480568,-137.2938995,-1.536019444,-1.246277332,10.03387833,-7.272214413,2.486386538,-3.153214693
2.324906999999939,-1.099029541,16.59976768,-137.2593689,-3.652557135,0.312419355,6.20999527,-3.395986795,-5.257116795,3.601528168
2.3332399999999325,-1.149542451,16.63015938,-137.2780457,-2.365756035,0.325732201,5.588013649,-4.00583601,2.502318859,-2.369547367
2.3415729999999257,-1.216075659,16.64120293,-137.2240448,-1.772672653,-0.075159058,8.175383568,-8.4041605,0.217861891,5.953325272
2.349905999999919,-1.304606318,16.7030735,-137.2512817,-5.634322166,-1.541774392,13.08424664,-8.242968559,6.513098717,-3.277367115
2.3582389999999123,-1.322980285,16.71267319,-137.2118378,-2.225285292,-0.403621584,10.30249977,-2.150929928,-0.137087405,4.265295029
2.3665719999999055,-1.351576209,16.75559235,-137.2210083,-3.503795385,0.082009435,5.161118984,-1.69824934,3.9867661,-1.231711745
2.374904999999899,-1.389769077,16.79237175,-137.1951904,-0.338292718,2.645908833,7.022127151,-4.029708385,3.362291336,2.75116086
2.383237999999892,-1.407163143,16.85890388,-137.1919098,-3.273688793,-1.911682367,10.1023922,-0.785537302,6.784916401,0.278977394
2.391570999999999,-1.360977054,16.86722755,-137.177063,-2.508715391,-0.086074993,10.55902576,6.463585854,-0.023129657,1.431771755
2.3999039999999923,-1.375411391,16.89925766,-137.1791534,-4.765327454,-0.033060506,8.85904026,-0.230118275,2.86655283,-0.406651556
2.4082369999999855,-1.399597406,16.94477844,-137.1671906,-0.354727179,-0.961777329,10.8929863,-1.904034376,4.240372658,1.208646178
2.416569999999979,-1.362095475,16.94310379,-137.1529999,-4.098344326,-0.473943889,6.99801445,5.419652462,-1.425765276,1.328367114
2.424902999999972,-1.32628119,16.96969795,-137.1654053,-0.819290698,1.865866661,3.871980906,6.170789242,2.242846251,-1.643281221
2.4332359999999653,-1.330193996,16.99053955,-137.1371765,-2.65561986,-0.560834348,10.05855656,-0.043518592,1.238845468,3.001437664
2.4415689999999586,-1.307432771,17.02640533,-137.1764069,-3.379899502,-0.71880126,12.55127621,5.537222385,3.423330307,-4.662534237
2.449901999999952,-1.258779645,16.99791336,-137.1646729,-3.214655399,-0.435662121,8.439698219,6.859863281,-4.432184219,0.991770387
2.458234999999945,-1.275066257,17.00922012,-137.1935577,-2.111874104,-1.26201117,9.475153923,0.473363966,0.24281016,-3.578590631
2.4665679999999384,-1.262294888,16.9846344,-137.177063,-2.721420527,-0.618536651,9.87128067,2.370994568,-4.177604675,1.531846523
2.4749009999999316,-1.238210917,16.94532013,-137.2191315,-3.08397913,1.263169765,5.393241882,5.817902565,-5.592817783,-5.276276588
2.483233999999925,-1.250234962,16.92201614,-137.1751099,-0.322426587,0.182536796,7.240591049,-1.567258239,-4.091873646,4.697535515
2.491566999999918,-1.290683627,16.9435215,-137.2328186,-5.373383999,-0.95676434,11.94394302,-1.407348633,1.739783049,-6.831035137
2.4998999999999114,-1.271147609,16.92849159,-137.2042847,-1.845043063,-0.521788657,11.09792137,2.784587622,-2.862057924,2.941039562
2.5082329999999047,-1.321214676,16.92584038,-137.2413483,-4.012499332,-0.883271456,8.904803276,-3.298012257,-1.408398867,-4.55510807
2.516565999999898,-1.38503468,16.96460915,-137.2293243,-2.966144323,-1.378884792,10.63256168,-6.66315937,3.434446573,1.193251967
2.524898999999891,-1.397969246,16.95266724,-137.2541809,-3.736251593,0.417422146,8.683718681,0.754377544,-2.351181746,-3.171067238
2.533231999999998,-1.389189959,16.93893433,-137.2334595,-0.535980344,0.951986909,4.827938557,1.744623899,-2.890566349,2.042158842
2.5415649999999914,-1.423572898,16.94355774,-137.2657471,-3.200639725,1.338972092,7.448883533,-1.559727669,-0.343281984,-3.980554819
2.5498979999999847,-1.402708054,16.95824242,-137.2597961,-2.019930601,-0.127054855,11.26445866,3.731930017,0.757374525,0.436991632
2.558230999999978,-1.364492178,16.94560814,-137.281189,-4.00198698,-0.725751162,9.447145462,6.749825954,-2.641878366,-2.787648916
2.566563999999971,-1.348641038,16.9717865,-137.295105,-3.911518812,0.243562475,9.877233505,3.805084229,1.993082047,-1.81653583
2.5748969999999645,-1.358336806,17.03708076,-137.3141937,-3.449878216,-1.372327685,12.20186234,0.941310406,6.895083904,-2.289708138
2.5832299999999577,-1.299524784,17.08563614,-137.3283234,-3.570043802,-0.857731819,7.775208473,8.971194267,4.677044392,-1.778703809
2.591562999999951,-1.258105755,17.16414642,-137.352951,-2.839579105,0.803259313,3.208187342,7.271485329,8.491900444,-2.884828806
2.5998959999999443,-1.261954546,17.21920776,-137.3286743,-0.048347782,0.278941453,9.27110672,0.111537181,5.5514884,2.640379667
2.6082289999999375,-1.265902519,17.30366325,-137.3453827,-4.299394608,-1.94441545,13.24904442,1.537507534,8.99089241,-1.984360814
2.6165619999999308,-1.233824968,17.33506203,-137.3306427,-1.346976757,-0.248262256,9.294027328,4.738210678,2.543941736,1.473651052
2.624894999999924,-1.25688529,17.36968613,-137.317337,-4.556066036,-0.849121392,5.589881897,-1.815434456,3.128151178,1.351752877
2.6332279999999173,-1.302658558,17.43502808,-137.3261261,-1.542710066,-0.370093286,8.970805168,-3.761451006,6.676466942,-1.125489831
2.6415609999999106,-1.271554828,17.49501991,-137.3181305,-3.821615934,0.02528969,8.122879982,4.896251678,6.185057163,0.73601234
2.649893999999904,-1.237013102,17.49126053,-137.3265991,-0.030399652,2.053177357,8.308956146,5.885396481,-1.422691703,-1.254943967
2.658226999999897,-1.224698663,17.49324417,-137.3336945,-3.926234961,-0.452363312,11.90345001,3.150717735,-0.93097508,-1.102590442
2.6665599999998904,-1.168203712,17.50419998,-137.3763123,-0.728773952,-0.803367734,11.82164001,9.731554031,0.229183406,-5.141571999
2.6748929999999973,-1.060084939,17.49153137,-137.3552246,-4.802512646,1.003672957,4.382447243,13.65768051,-2.556762457,2.064110994
2.6832259999999906,-1.024516106,17.48631668,-137.420166,-1.198878765,0.023569545,7.9364748,8.026592255,-1.677117825,-7.738495827
2.691558999999984,-0.93727541,17.50365067,-137.3830261,-3.305309057,-2.374409914,12.11474705,10.55059433,1.013132691,4.041632175
2.699891999999977,-0.866800547,17.45975304,-137.4309692,-3.003460884,-0.61586237,8.380051613,11.62167835,-6.173466682,-5.861869335
2.7082249999999704,-0.849619389,17.41762924,-137.4149475,-3.387269258,-0.636056781,7.866719246,2.902182341,-6.268084526,1.460613251
2.7165579999999636,-0.855154812,17.42167854,-137.463562,-1.868437648,-1.864177346,9.549824715,2.49711895,-0.617123723,-5.854696274
2.724890999999957,-0.796986997,17.43328667,-137.4445496,-4.183393478,0.484271467,6.427915096,7.739201069,0.369190812,1.89623487
2.73322399999995,-0.821962118,17.41379547,-137.4945679,-0.907808244,0.106006861,6.455318928,0.213635519,-3.443731308,-6.053821564
2.7415569999999434,-0.876324832,17.43246651,-137.4687347,-2.84499383,-2.15252924,12.79043579,-6.013530731,1.201448441,2.705132246
2.7498899999999367,-0.916399777,17.37636948,-137.510498,-2.685040236,-0.576226592,10.35636616,-1.866817117,-7.649743557,-5.190546036
2.75822299999993,-0.982829869,17.368433,-137.5013885,-3.752167225,0.804860175,6.483816147,-6.881827831,-2.155642748,0.732246876
2.766555999999923,-1.111636043,17.36961555,-137.5265198,-1.225561857,-1.373179555,9.529442787,-13.14179325,-0.991219699,-3.170581579
2.7748889999999165,-1.203359723,17.36576271,-137.5258942,-4.982293129,-1.846590638,12.75184822,-9.590764046,-1.459063888,-0.22642985
2.7832219999999097,-1.322242975,17.32563019,-137.5558014,-2.351285696,-0.575364232,9.051106453,-11.78168011,-5.925777912,-3.827689171
2.791554999999903,-1.493290186,17.33207703,-137.5435486,-3.213372707,0.653632641,6.252574444,-19.52374268,-0.255399644,1.132341743
2.7998879999998962,-1.658043146,17.3240242,-137.5566864,-2.163334131,-0.261426955,8.994194031,-17.86006737,-1.922912359,-1.818303704
2.8082209999998895,-1.750439763,17.34293556,-137.5448761,-2.570992708,1.044431925,7.323877811,-10.09559631,1.044177175,1.124861956
2.8165539999999964,-1.86416018,17.32252884,-137.5095367,-1.461036921,1.021478415,7.581675529,-13.49314499,-3.762039185,3.673606157
2.8248869999999897,-2.024195433,17.31712532,-137.5183411,-4.292193413,-0.467239559,12.46579933,-17.45128822,-1.61041832,-1.318723559
2.833219999999983,-2.141209364,17.33101082,-137.4855042,-2.346679449,-1.208911657,12.48272896,-13.80008125,0.342039734,3.526863098
2.8415529999999762,-2.249069691,17.37961578,-137.4876404,-4.162241936,0.628134429,7.845629215,-11.42751122,4.842128277,-0.311750919
2.8498859999999695,-2.3234272,17.40155792,-137.4628296,-1.083227396,0.625088632,4.960785389,-8.376853943,1.518911362,2.664687395
2.8582189999999628,-2.402321339,17.40644455,-137.4549866,-1.309400082,1.97361064,8.157320976,-8.33330822,-0.63633436,0.626024663
2.866551999999956,-2.498679876,17.43227959,-137.4195099,-3.157070637,0.365295649,10.69655323,-11.42264271,1.738425374,3.896194458
2.8748849999999493,-2.605779409,17.45066833,-137.4355164,-3.067392349,-1.668998122,13.46836281,-10.84250736,1.289023757,-2.009206295
2.8832179999999425,-2.611958981,17.45675468,-137.3894653,-3.341979027,0.011182759,9.628965378,-0.98384285,-0.696527839,5.004829884
2.891550999999936,-2.609705925,17.50153351,-137.4002075,-1.643295169,3.387843132,3.18504405,2.102096081,4.428586006,-1.296490192
2.899883999999929,-2.57089591,17.48417664,-137.3325653,-2.456574917,0.731261015,7.621685028,3.640205383,-3.428747416,7.388311386
2.9082169999999223,-2.533573627,17.52550125,-137.3404541,-3.451047182,0.935366631,10.57864094,6.178935528,3.807569265,-0.974852085
2.9165499999999156,-2.475301981,17.54482079,-137.2765503,-1.501720905,-0.219812006,11.63210773,6.098378658,0.811215758,7.110244274
2.924882999999909,-2.396962166,17.51325417,-137.288269,-3.151480198,-0.332925498,10.99497318,11.25045013,-4.725954533,-1.77360642
2.933215999999902,-2.249498844,17.4640255,-137.2383881,-0.79190141,1.016774297,6.948185921,17.3126812,-7.320345879,5.169556141
2.9415489999998954,-2.128733397,17.43141174,-137.2219543,-2.965427876,0.769914567,4.292863846,15.34186649,-4.979638577,1.413765192
2.9498820000000023,-2.036336899,17.40547752,-137.201004,-2.567540407,0.819216967,11.05133057,11.76376343,-4.194639206,1.995566964
2.9582149999999956,-1.880533218,17.3493576,-137.1883392,-1.5329386,0.186009914,14.91111279,19.65971375,-7.965261459,0.922996581
2.966547999999989,-1.688239336,17.27666283,-137.1700287,-1.926865697,0.787645459,8.419333458,23.83770943,-9.971037865,1.528619885
2.974880999999982,-1.529429555,17.21176529,-137.1698303,-3.181497812,0.017095227,5.511983395,20.47795868,-8.780562401,-0.482188106
2.9832139999999754,-1.389597893,17.15988731,-137.160675,-2.605576038,-0.269384533,10.81808853,17.86996841,-7.435097218,0.596286833
2.9915469999999686,-1.217311978,17.13885689,-137.1646118,-3.471879244,-1.614133477,9.067055702,22.24070549,-3.510636806,-0.799830317
2.999879999999962,-1.040250063,17.12312126,-137.1889343,-2.811754465,0.202325895,5.452302456,23.53586769,-2.829964399,-3.120763063
3.008212999999955,-0.903225064,17.06544304,-137.1583862,-0.858018994,0.121571131,8.722022057,16.78115845,-8.166384697,3.091063023
3.0165459999999484,-0.81183207,17.01089668,-137.194931,-3.717229366,-0.770962059,11.32056713,13.66874599,-7.667982101,-4.586307049
3.0248789999999417,-0.680943668,16.98163223,-137.1690216,-1.596172214,-1.353799701,9.956233978,16.22281647,-4.547014236,2.639380693
3.033211999999935,-0.551715791,16.95414543,-137.1891632,-4.782454967,0.058248457,7.390215397,17.6303463,-4.459670067,-2.643543243
3.0415449999999282,-0.47018382,16.93701744,-137.1882782,-1.808291435,-0.000248502,8.182279587,11.18147278,-3.052883863,-0.208499879
3.0498779999999215,-0.440414697,16.8881588,-137.1892853,-1.993010879,-1.504690528,12.85398197,5.038742542,-6.860183716,-0.461799085
3.0582109999999147,-0.386482596,16.84009743,-137.2114105,-2.58728528,-0.610654891,9.74491024,8.657702446,-6.934209347,-2.877913475
3.066543999999908,-0.301804304,16.81897354,-137.2176971,-2.775751352,0.617094457,4.813934803,11.79431915,-3.717087269,-1.0317415
3.0748769999999013,-0.245572358,16.79499435,-137.2122192,-2.212507963,0.120304205,6.269972324,7.988555431,-3.87750864,0.322393566
3.0832099999998945,-0.252546042,16.79297256,-137.2392578,-4.921956062,-1.086681247,12.03181553,1.516349792,-1.414341211,-3.402825356
3.0915430000000015,-0.251410842,16.81061172,-137.2345428,-2.324564219,-2.694516659,12.19490623,1.411101103,1.114488244,0.222882286
3.0998759999999947,-0.207571208,16.82926178,-137.2533722,-4.317706585,0.442832261,4.840703011,7.339107513,1.246145606,-2.420366287
3.108208999999988,-0.178238079,16.88386917,-137.2517548,-0.364621937,1.354058146,5.201814175,4.878577709,5.36616993,-0.086422436
3.1165419999999813,-0.201428145,16.87465096,-137.2359924,-3.253648043,-0.47110936,10.56279659,-1.915919065,-2.297084332,1.512405157
3.1248749999999745,-0.278594464,16.93402672,-137.2595978,-3.94175458,-3.261813879,9.549268723,-7.005953789,6.135364532,-2.977936268
3.133207999999968,-0.281678885,17.00857544,-137.2518463,-3.136481047,-0.47850436,8.182798386,0.774638593,7.75518465,0.637346327
3.141540999999961,-0.269647807,17.05739784,-137.2585602,-2.321069479,0.589401305,8.989887238,3.112424135,4.859878063,-1.032048702
3.1498739999999543,-0.298048228,17.02284813,-137.2570343,-1.529508471,-0.29759419,5.911953926,-2.030875921,-5.150663853,-0.131452248
3.1582069999999476,-0.375703365,17.05640221,-137.2402802,-2.589109659,-0.361851484,7.093327045,-8.493144035,2.829054117,1.652541041
3.166539999999941,-0.420778573,17.08810806,-137.2497864,-3.401897669,-0.783837676,10.53970051,-3.659147501,2.627598047,-1.359091282
3.174872999999934,-0.428443462,17.09186554,-137.2493286,-2.551082611,-1.044157982,9.609816551,0.48932153,-0.553779721,-0.206066519
3.1832059999999274,-0.482876301,17.02498436,-137.2424774,-2.522545099,0.229785785,6.208009243,-5.358959675,-9.217258453,0.426874131
3.1915389999999206,-0.582433879,16.98611641,-137.2515106,-1.984719634,-0.274887472,8.4231987,-10.19797611,-5.660823822,-1.361985922
3.199871999999914,-0.613239586,16.97046852,-137.2508698,-2.404401779,0.002743574,9.683430672,-2.279897213,-2.883547544,-0.250276655
3.208204999999907,-0.619476318,16.93951035,-137.2305145,-3.982080698,0.628571868,7.802350521,-0.046336155,-4.925822258,2.003609657
3.2165379999999004,-0.683852434,16.87135696,-137.2552185,-3.3473382,-1.357915521,10.05738068,-5.44663763,-9.331293106,-3.226241589
3.2248709999998937,-0.738026977,16.83091736,-137.2246094,-2.285708189,-1.077340126,12.34881115,-6.131920815,-5.902595997,3.160322905
3.2332040000000006,-0.762173355,16.79523468,-137.2486115,-3.960261583,0.43760854,7.381676197,-0.649064839,-5.431192398,-3.106725454
3.241536999999994,-0.761791229,16.75218201,-137.2248993,-1.391913056,0.941914678,4.856026173,0.664574087,-6.208378315,2.351681232
3.249869999999987,-0.784356594,16.68150711,-137.2292175,-2.352840424,-0.037032045,10.07336807,-1.129178166,-9.482263565,-0.888814151
3.2582029999999804,-0.81623888,16.6620388,-137.2093658,-3.52303791,-1.565386415,12.24128628,-3.093354225,-3.55328393,1.954814434
3.2665359999999737,-0.839599013,16.63648033,-137.2358856,-4.286238194,-0.558978736,10.83348274,-0.476271063,-4.208059788,-3.388276577
3.274868999999967,-0.86048317,16.60401917,-137.1876373,-4.040950298,-0.770165563,6.245358944,-2.729786396,-4.985197067,5.203724861
3.28320199999996,-0.915003121,16.59177017,-137.2179871,-3.981280327,-0.287618399,7.000038147,-4.086085796,-2.602252483,-3.806839228
3.2915349999999535,-0.942849696,16.6085434,-137.1705933,-0.699564219,0.085198276,8.419142723,-3.530435324,0.91459465,5.192760468
3.2998679999999467,-0.960983813,16.6372757,-137.1654816,-3.865668058,0.217423066,7.896102428,-0.912174106,2.42442584,0.344344974
3.30820099999994,-1.002891898,16.60070419,-137.1527405,-0.788795888,-0.495887011,8.34910965,-4.05107069,-5.597658634,1.093177199
3.3165339999999333,-1.044035435,16.56983757,-137.1353912,-4.44856739,0.54513818,13.30623913,-4.11610508,-4.924746513,1.634277821
3.3248669999999265,-1.101552248,16.58507919,-137.1456909,-3.051573753,-1.118374825,10.21719456,-5.117877483,0.837393343,-1.429504871
3.33319999999992,-1.138067245,16.6102562,-137.1563263,-4.907108784,-0.862977087,6.535349846,-2.601433039,1.859888077,-1.457629323
3.341532999999913,-1.158793569,16.65038872,-137.1497192,-2.435537338,0.938694894,7.2638731,-1.280199409,3.785540581,0.579022586
3.3498659999999063,-1.181292534,16.66608429,-137.1685028,-2.786202431,0.749940336,10.22207928,-0.612231493,0.912443042,-2.43061161
3.3581989999998996,-1.190871596,16.70916748,-137.1590118,-1.561477423,-0.279990435,11.99989223,-0.060731348,3.960434437,0.902427852
3.366531999999893,-1.19749558,16.78365707,-137.1526642,-5.725975037,-1.276228428,9.388432503,0.400978118,7.736870289,0.62292546
3.374865,-1.205474019,16.82493782,-137.173233,-2.490842581,0.094765045,7.109375477,1.186797261,3.986791611,-2.53404212
3.383197999999993,-1.186495066,16.89959335,-137.1514282,-4.874368191,-0.097253084,5.920587063,2.933739424,7.720169067,2.395635366
3.3915309999999863,-1.196259141,16.98096466,-137.1735077,-0.4918859,0.220993042,6.147605896,1.024812937,8.79642868,-2.584041357
3.3998639999999796,-1.172030568,17.05163574,-137.1444855,-2.903071165,-0.359623164,9.043959618,3.323741436,7.389462948,3.215649366
3.408196999999973,-1.15254724,17.0701313,-137.1534271,-2.006684065,-0.757526159,10.8709383,4.067451,1.054679036,-1.274666905
3.416529999999966,-1.141137004,17.10160255,-137.1409607,-4.946944714,-1.056238294,9.285926819,2.346276522,2.562921524,1.209081531
3.4248629999999594,-1.155484438,17.16311455,-137.1665039,-1.265755177,-0.523950398,8.942994118,0.611629546,6.419017315,-3.054113626
3.4331959999999526,-1.134372592,17.24290466,-137.1395416,-4.811999798,0.526242852,7.914548874,2.993267059,8.324896812,2.984993458
3.441528999999946,-1.11480391,17.26279068,-137.1715088,-0.629133105,0.417978674,8.617470741,4.927961349,1.437458158,-3.923639774
3.449861999999939,-1.098038912,17.2485714,-137.1302032,-2.722978354,-0.42430976,11.45574093,1.952867866,-2.82048583,4.490214348
3.4581949999999324,-1.116793275,17.29301453,-137.1548004,-3.168207884,-1.929000974,9.194008827,0.040969964,4.202309608,-3.010825157
3.4665279999999257,-1.122279644,17.30752563,-137.1431885,-4.160937309,0.321613282,5.365805149,0.342756897,0.5298177,1.069023013
3.474860999999919,-1.143528819,17.33384132,-137.1496429,-3.431528568,-0.546360791,7.606124878,-0.883435011,2.149969339,-0.96117425
3.483193999999912,-1.168134451,17.36147308,-137.1520691,-2.520010233,-0.403924286,8.571707726,-1.449893713,2.135855675,-0.50575304
3.4915269999999055,-1.179775596,17.40532303,-137.1702271,-2.895668983,-0.348293871,8.710662842,0.686960995,4.279203892,-2.250569344
3.4998599999998987,-1.197558165,17.37821007,-137.157608,-2.197851658,-0.001055185,8.847716331,-1.150898814,-4.30749464,1.094970107
3.508192999999892,-1.247833729,17.39072037,-137.1822815,-3.757800102,-0.987685502,11.54838371,-3.733505726,0.375927329,-3.089051247
3.516525999999999,-1.258910418,17.41593742,-137.1800385,-1.645814896,-0.083266847,9.362874031,0.007440934,1.834171295,0.025934411
3.524858999999992,-1.267989635,17.44183731,-137.1730652,-5.519252777,0.444435,6.699280739,0.095938116,2.063854218,0.583735585
3.5331919999999855,-1.325038195,17.46926117,-137.1935272,-2.095385551,0.002636845,8.758253098,-4.69409132,2.157679081,-2.564574003
3.5415249999999787,-1.364199519,17.52755737,-137.1755219,-3.318042517,-2.294495583,10.56520939,-3.913522243,5.917848587,1.939573765
3.549857999999972,-1.380583763,17.56053543,-137.206665,-3.297073841,0.730243206,9.57113266,0.598028362,3.014885187,-3.751153708
3.5581909999999652,-1.408798695,17.5753746,-137.1906128,-2.161567211,0.338454574,8.816824913,-2.552868366,0.54974556,1.583331108
3.5665239999999585,-1.462203741,17.5939064,-137.2110748,-2.1302073,-0.807731807,11.93961334,-4.250118732,1.096404552,-2.579660892
3.5748569999999518,-1.458910942,17.63512039,-137.189209,-3.948447704,-1.007113218,6.75677824,1.037082076,3.853521109,2.342869997
3.583189999999945,-1.467474103,17.67424774,-137.2126923,-3.536903381,0.977744997,3.728268862,1.242098331,3.577681303,-2.861110449
3.5915229999999383,-1.501498461,17.72776604,-137.1840515,-3.121828794,0.11810293,9.505166054,-3.69165206,5.30559206,3.156992912
3.5998559999999316,-1.530199647,17.80035782,-137.2164612,-3.645872593,-1.424301386,11.11599159,-0.821192384,7.775828838,-3.758556128
3.608188999999925,-1.524580359,17.84806252,-137.2210693,-2.802447557,0.126380637,7.95548439,2.25829196,4.552148819,-0.667020321
3.616521999999918,-1.543057203,17.85512161,-137.226944,-2.155437231,-0.134494737,8.540186882,-0.585976899,-0.320101112,-0.942783058
3.6248549999999113,-1.587785482,17.89051247,-137.2479248,-2.820997715,-0.584327936,11.84955406,-3.158286333,3.27922368,-2.561244011
3.6331879999999046,-1.573178887,17.9404068,-137.2618256,-3.013228178,-0.392068893,6.925504208,3.680727005,4.84425354,-1.716051221
3.641520999999898,-1.576518655,17.96436501,-137.2602234,-3.814261436,0.885535538,5.5880723,0.977759302,1.83775723,-0.026433889
3.649853999999891,-1.630438685,18.02156448,-137.2938232,-3.047123432,-0.661445141,11.55956078,-3.791009903,5.935703278,-3.920822859
3.658186999999998,-1.635476589,18.08570671,-137.2953796,-2.696130991,-1.914821744,12.43548679,0.868386567,6.513661385,-0.254246891
3.6665199999999913,-1.629927516,18.09924316,-137.316864,-3.702624559,0.548785269,7.740001678,2.882433891,0.508276045,-2.697691202
3.6748529999999846,-1.671064734,18.09802246,-137.3208008,-1.94266665,-0.149720117,8.320698738,-3.358077765,-1.165524602,-0.725190282
3.683185999999978,-1.707231998,18.10583878,-137.3284302,-2.456091881,-1.328343272,11.65787983,-2.640289783,-0.220922768,-1.136349916
3.691518999999971,-1.685409784,18.12627792,-137.3225861,-3.380907297,1.022666931,5.534713745,3.848654032,1.399011135,0.419445902
3.6998519999999644,-1.703507781,18.14224052,-137.3419495,-3.602535963,-0.048033122,3.880455256,-0.015317312,0.945767224,-2.43076539
3.7081849999999577,-1.745881319,18.16611481,-137.331543,-2.252820015,-0.095809832,11.57024956,-4.058703899,1.642807484,0.977708161
3.716517999999951,-1.769850492,18.19687462,-137.358963,-4.952365875,-2.679112911,12.41334343,-0.434955359,2.600523949,-3.305978298
3.724850999999944,-1.786663651,18.22084808,-137.3768463,-3.539207935,0.422759026,6.359800339,0.0906872,1.904533625,-2.235021591
3.7331839999999374,-1.814512968,18.25986481,-137.3710632,-3.63704443,-0.079807527,8.701068878,-2.143731833,3.474736929,0.51204133
3.7415169999999307,-1.843784571,18.27211189,-137.3961487,-1.54624927,1.032862544,9.948858261,-1.135632753,0.521877229,-3.085798502
3.749849999999924,-1.815541625,18.34267426,-137.3824615,-2.806385517,-0.234140679,6.841635227,4.30917263,7.378015041,1.541913033
3.7581829999999172,-1.80914855,18.36370468,-137.3768005,-3.39034462,0.173435241,6.399209976,1.968671799,1.316149116,0.429666013
3.7665159999999105,-1.844485164,18.4196682,-137.3747253,-3.985014915,-1.579225421,11.70474339,-2.904167891,5.519855499,0.155388772
3.7748489999999038,-1.867610216,18.46251106,-137.3686676,-2.855735779,-1.352050543,12.55198956,-1.568692684,4.080258369,0.568956196
3.783181999999897,-1.86917603,18.54663086,-137.3599548,-4.728238583,-0.647253454,5.923636436,0.895153582,8.870376587,1.024044394
3.7915149999998903,-1.865565062,18.56904411,-137.3615112,-1.879196048,1.437901974,3.800284624,1.934118152,1.65692091,-0.384392858
3.7998479999999972,-1.86913228,18.61941338,-137.3467407,-1.451392412,0.90782088,9.163157463,0.448441207,4.94499445,1.575774789
3.8081809999999905,-1.853251934,18.68203354,-137.3369751,-3.757846832,-0.871046901,8.420393944,2.945111752,6.290253639,1.060928822
3.8165139999999838,-1.843288541,18.71348953,-137.3475037,-3.021388531,-0.012799824,9.908242226,3.017805099,2.626342773,-1.372154713
3.824846999999977,-1.830029249,18.68774605,-137.3286438,-3.750573635,-0.846200705,11.66878319,2.299018621,-4.197328091,1.764526129
3.8331799999999703,-1.849588394,18.75483894,-137.3579712,-3.09700489,-2.050275087,7.9997015,0.200290531,6.968853474,-3.370654583
3.8415129999999635,-1.834552765,18.79048157,-137.3529968,-3.776311636,1.127889037,5.02172327,3.04843998,3.21731472,0.410250425
3.849845999999957,-1.810005546,18.78756714,-137.3514862,-0.980155468,0.047214627,10.90701389,4.315320015,-1.39899826,-0.100151666
3.85817899999995,-1.782120466,18.81153297,-137.3524933,-3.19329381,-0.082685091,8.86002636,4.799864292,1.693292975,-0.318384916
3.8665119999999433,-1.75057435,18.83222198,-137.3628387,-2.483291388,-0.301131636,6.16498661,5.601974964,1.333899856,-1.391800642
3.8748449999999366,-1.731958508,18.76538849,-137.3513641,-3.187734842,-0.20772244,12.92237377,3.224383831,-9.099405289,0.779453874
3.88317799999993,-1.727405667,18.79566383,-137.3672943,-3.17641902,-1.243330717,11.92978954,2.576087475,2.501447439,-1.993299603
3.891510999999923,-1.707920313,18.80332565,-137.385788,-4.706096649,-0.600841403,3.743532658,4.500331402,-0.05870783,-2.391831636
3.8998439999999164,-1.691413283,18.79261589,-137.3777466,-3.560170889,-0.531393349,7.657011509,3.110784769,-2.355792284,0.575154841
3.9081769999999096,-1.684803963,18.80399323,-137.4153748,-2.569942236,-0.763601542,9.580420494,3.664257288,0.306179762,-4.529108524
3.916509999999903,-1.652067661,18.84765053,-137.4178162,-3.400974989,0.735559583,6.950000763,5.439503193,4.059997082,-0.42020157
3.924842999999896,-1.641874313,18.80691719,-137.4298096,-1.481736064,-0.323930174,9.311855316,3.127152205,-5.891094685,-1.798093677
3.9331759999998894,-1.642468452,18.79789162,-137.4334106,-3.565229177,-1.508383751,11.91126633,1.483512402,-2.25692153,-0.733796656
3.9415089999999964,-1.623057604,18.78153801,-137.4594269,-2.356218338,0.502877116,8.62362957,4.769921303,-2.920713902,-3.295885801
3.9498419999999896,-1.613026619,18.7397995,-137.4287109,-3.903724909,-1.263556004,6.517366886,1.454542756,-6.150720596,3.061707973
3.958174999999983,-1.649068356,18.74281311,-137.4698792,-2.771110773,-0.462686062,8.922656059,-1.322078705,-0.689893842,-4.962399483
3.966507999999976,-1.637406826,18.77230644,-137.4406128,-4.069547653,-0.242856234,6.26083374,1.686069965,2.257702827,3.133146048
3.9748409999999694,-1.672093749,18.76407623,-137.4651489,-3.965638399,-1.207793951,8.045940399,-1.779881954,-1.951343656,-3.095915794
3.9831739999999627,-1.718497992,18.76896667,-137.4396973,-2.909458637,-1.238405466,11.97075176,-5.137524128,-0.683234155,2.61555934
3.991506999999956,-1.765415072,18.80013084,-137.48909,-4.1670084,-1.125546694,8.467708588,-2.284303188,2.859355927,-5.776318073
3.999839999999949,-1.785613894,18.79663658,-137.4401855,-3.156879187,0.139963791,6.560964108,-2.882370234,-1.639541626,5.271500111
4.0081729999999425,-1.857041836,18.80143166,-137.4985352,-2.686304569,-0.636131585,9.20550251,-4.898696899,-0.399607688,-6.903625488
4.016505999999936,-1.874556541,18.86497498,-137.4646454,-2.53046608,0.261437774,5.711883545,-2.000395298,6.310183048,3.802267313
4.024838999999929,-1.903110623,18.86628723,-137.4899902,-3.325680971,0.608229399,7.071508884,-1.004410982,-0.796807647,-3.156391144
4.033171999999922,-1.943079948,18.8853817,-137.476059,-2.547105551,-0.202155828,11.09424973,-3.921385765,1.052322388,1.361307025
4.0415049999999155,-1.955406785,18.94678497,-137.5044098,-3.794796705,-0.938594937,9.696451187,1.05782938,6.420937538,-3.240764141
4.049837999999909,-1.965374589,18.91860962,-137.473526,-3.814705133,-0.142604828,7.776659012,-0.962096274,-4.548242569,3.108965874
4.058170999999902,-2.017507553,18.96206284,-137.5036469,-3.093431234,-1.837216377,13.53551769,-3.667599916,4.144728661,-3.529999971
4.066503999999895,-2.018884897,19.00688362,-137.503418,-3.432192087,-0.348616391,7.541640282,1.242072701,4.189246655,-0.080377482
4.074837000000002,-2.027226925,19.01083755,-137.5081177,-4.233295441,-0.073359556,5.749605179,0.628125072,-0.557519436,-0.81773442
4.0831699999999955,-2.054048061,19.03196335,-137.5345917,-1.247771263,-0.05945842,10.96585655,-0.767914772,1.45566988,-3.206953764
4.091502999999989,-2.046976328,19.07929611,-137.5421295,-4.718699455,-0.82261008,4.856888771,2.578341722,4.65204525,-0.922010005
4.099835999999982,-2.054096699,19.04158783,-137.5496368,-0.663852394,0.917987943,10.17993927,0.882525623,-5.545942783,-1.306966305
4.108168999999975,-2.062399864,19.09039307,-137.5537262,-5.119742393,-1.610920072,10.79348469,0.579637349,4.68429327,-0.548221529
4.116501999999969,-2.050302982,19.06491852,-137.5856018,-0.434435159,0.807483017,6.375610828,4.117399216,-4.109624863,-4.016440392
4.124834999999962,-2.057384968,19.03768539,-137.5539246,-4.166976452,-0.374725491,13.59778118,-0.656851411,-4.449090481,3.20681262
4.133167999999955,-2.067644835,19.04042625,-137.6061859,-2.455705643,-1.473104596,7.113021851,2.228502512,-0.643122196,-6.206994534
4.141500999999948,-2.060700893,18.99196625,-137.5816803,-3.87809515,0.466602594,7.338965416,1.32987833,-6.962641239,2.235111237
4.149833999999942,-2.117513418,18.96765137,-137.6399994,-2.011834621,-1.424304962,10.6176157,-3.097298622,-3.728433371,-7.019836903
4.158166999999935,-2.101148367,18.96144295,-137.6076202,-4.829195023,-0.801101863,5.3769207,2.117183208,-2.065071106,3.350047588
4.166499999999928,-2.158416033,18.91018867,-137.6768036,-2.873951197,-0.783995986,6.706186295,-2.762930632,-7.038048744,-8.372139931
4.174832999999921,-2.182305336,18.9193573,-137.6367188,-2.451289415,0.385520577,11.96778202,-2.987669945,-0.130273998,4.307763577
4.183165999999915,-2.206825733,18.90678978,-137.6814728,-5.642096996,-0.602419436,5.621552944,0.213302523,-2.497080564,-5.430960655
4.191498999999908,-2.249218941,18.87443161,-137.6558228,-2.347785473,-0.207248434,10.47636032,-4.643476963,-5.047951221,2.475961685
4.199831999999901,-2.298662663,18.90536308,-137.6840973,-3.770095348,-1.563743114,11.7197876,-3.398035526,2.778875828,-3.341914654
4.2081649999998945,-2.315793037,18.90990067,-137.6553955,-4.671716213,0.06576854,6.262012959,-1.756317019,-0.771731317,2.982278585
4.216498000000001,-2.383996725,18.90763092,-137.6795502,-3.887989283,-1.234014273,10.6139679,-5.828826427,-1.345054626,-3.045301914
4.224830999999995,-2.42699337,18.96528435,-137.667923,-1.685773492,-0.885482788,11.09375668,-4.173046112,5.798410416,1.323731065
4.233163999999988,-2.446532726,19.0188179,-137.663269,-6.48482132,-0.359668761,4.962929249,-1.110325933,5.211485386,0.505458534
4.241496999999981,-2.501029968,19.02463341,-137.6762543,-0.986549854,0.830190659,8.637766838,-4.591761589,-0.298559517,-1.724632144
4.2498299999999745,-2.543797493,19.11397171,-137.6731262,-3.472839832,-0.697485328,8.907693863,-3.813601494,9.634425163,0.540268421
4.258162999999968,-2.5601089,19.16823387,-137.6780853,-2.762894392,0.219567999,6.991589546,-0.3471497,5.346498013,-0.566433132
4.266495999999961,-2.594641685,19.17811966,-137.6839752,-2.498178005,-0.083625048,9.165136337,-2.495671988,0.030468134,-0.909740865
4.274828999999954,-2.62840271,19.25585365,-137.6947327,-2.603578091,-0.328873694,11.20413971,-2.187660694,8.312754631,-1.075388074
4.2831619999999475,-2.625931263,19.27792549,-137.679718,-3.664758205,-0.22926566,8.255738258,1.117228985,1.383488894,1.525647998
4.291494999999941,-2.658453941,19.27854538,-137.6996002,-2.613327265,-0.218589365,9.842828751,-1.675222278,-0.884049773,-2.532402515
4.299827999999934,-2.676745892,19.33068275,-137.6903687,-2.821372271,-1.411481857,9.394050598,-1.119034648,5.14137888,1.03772223
4.308160999999927,-2.656639576,19.34598923,-137.6975403,-4.617364883,0.654303968,7.709330082,4.113223553,0.687627017,-1.021931171
4.316493999999921,-2.663048983,19.34831429,-137.6946716,-2.917358875,-0.391239107,6.715204239,0.533173084,-0.921548903,0.042583667
4.324826999999914,-2.692030907,19.39387894,-137.7075348,-3.251825571,-0.965269625,8.66771698,-1.528913736,4.467826843,-1.480887175
4.333159999999907,-2.674648285,19.41217232,-137.6934662,-4.518783092,-0.01737853,9.885389328,2.941474915,0.934343338,1.395886302
4.3414929999999,-2.692813873,19.38524055,-137.7121429,-2.452224255,-1.517484188,7.592950344,0.004341613,-4.192691803,-2.548360348
4.349825999999894,-2.736919641,19.43557358,-137.7152863,-3.636371136,-0.447634369,11.40021706,-3.735529184,4.985490799,-0.331858039
4.358159000000001,-2.721816778,19.41710854,-137.7102661,-3.951736689,-0.665439904,10.14248371,3.027666569,-3.425776243,0.167734817
4.366491999999994,-2.72969532,19.42402077,-137.7193146,-3.260816574,0.41934973,6.871013641,0.830554247,-0.306448698,-1.279328346
4.374824999999987,-2.764034986,19.45133018,-137.7124634,-1.202875733,-0.028857306,7.646086693,-2.953449249,2.171305895,0.644774318
4.38315799999998,-2.739785194,19.4656086,-137.6967316,-4.98566103,-0.270967305,8.299833298,3.697247982,0.440808177,1.565426707
4.391490999999974,-2.722567081,19.46063232,-137.6911926,-0.801163256,0.381227016,6.436106682,3.285038233,-1.691948175,0.30812642
4.399823999999967,-2.728341818,19.48280716,-137.6762085,-3.341762781,0.132370442,9.541046143,0.145476058,1.513404369,1.535868049
4.40815699999996,-2.698796988,19.50289726,-137.6759491,-3.742973566,-0.981913209,11.54501343,4.949425697,1.221811771,-0.15102151
4.416489999999953,-2.670383453,19.49294281,-137.6664734,-3.602010965,-0.577612579,7.456344128,4.446464539,-2.427332878,0.719209313
4.424822999999947,-2.686750889,19.53079224,-137.6811523,-3.083773851,-0.239941716,11.09285641,0.065610856,3.549863815,-1.737695217
4.43315599999994,-2.644752264,19.54606628,-137.6711426,-4.372013092,-1.532219887,10.08488655,6.053373814,0.592803061,0.92199719
4.441488999999933,-2.619602442,19.56986427,-137.6938934,-4.089618683,-0.682395637,3.184935331,5.369089127,1.906633854,-2.723535776
4.4498219999999264,-2.636855841,19.59465408,-137.6947937,-1.201276064,0.897081792,10.25927544,-0.596683621,1.905097246,-0.249405831
4.45815499999992,-2.584666967,19.62915421,-137.6957397,-5.889986515,-1.62644887,9.049921989,7.716172218,2.958226442,-0.212009028
4.466487999999913,-2.556050301,19.63068771,-137.7106628,-0.633271277,0.492271721,3.297404528,5.452771664,-0.926415682,-1.971783876
4.474820999999906,-2.570460796,19.63968658,-137.7045441,-3.478749514,0.142212823,12.02754879,-0.537412286,-0.021848943,0.453000516
4.4831539999998995,-2.542923927,19.65200233,-137.7227173,-2.788316011,-1.534902453,12.14719963,5.453232288,0.383304209,-2.281280518
4.491486999999893,-2.525127649,19.62431908,-137.7139435,-3.286041737,-0.452581048,5.152196407,3.218415976,-4.431108952,0.559427679
4.49982,-2.563656092,19.60194588,-137.7276917,-2.202218771,-0.283373177,12.05960464,-2.63199091,-3.682353973,-1.955492973
4.508152999999993,-2.532336235,19.60309982,-137.7108307,-4.730146885,-0.64225328,10.1159687,4.496079445,-1.131816268,1.614657402
4.516485999999986,-2.525210619,19.57688713,-137.7155609,-2.842096567,0.561603725,4.367396832,2.459696531,-4.303011894,-0.967603326
4.5248189999999795,-2.563483,19.56967735,-137.7048492,-2.678818464,-0.114875309,10.70891476,-3.584456444,-1.986640215,0.886239767
4.533151999999973,-2.550173759,19.59322357,-137.6890717,-4.426951885,-2.555243492,10.57995224,2.377884626,1.557460785,1.61394012
4.541484999999966,-2.566232204,19.57418251,-137.6882782,-3.538608074,-0.039974462,7.443390846,-0.521249712,-3.354722261,-0.295793205
4.549817999999959,-2.633641958,19.57045937,-137.6689301,-3.42722559,-0.681767285,10.55908489,-7.429794312,-1.617641687,1.886552691
4.5581509999999525,-2.674969673,19.5934906,-137.6715851,-4.006451607,-1.984939933,12.03988075,-3.435995817,1.590836048,-0.468791693
4.566483999999946,-2.691193342,19.60339355,-137.6597748,-3.408594131,0.734976113,4.968915462,-1.007407784,-0.060961872,1.095764041
4.574816999999939,-2.733574867,19.62076759,-137.6526642,-2.272315979,0.671983242,4.447984219,-3.933014154,0.974506319,0.615932703
4.583149999999932,-2.767035961,19.66331863,-137.6346283,-3.193627357,0.195793331,11.10619259,-3.327417135,3.819428682,1.987088442
4.591482999999926,-2.762063265,19.74649048,-137.6416473,-2.695657492,0.326936781,6.105549812,2.316154718,8.934002876,-0.586437941
4.599815999999919,-2.754600525,19.7788372,-137.6204681,-3.932171106,-0.147641525,8.926823616,1.473906875,2.688200951,2.2930758
4.608148999999912,-2.780343294,19.87056541,-137.6342926,-3.608720303,-0.792375326,11.94399738,-1.110325813,9.886211395,-1.323308349
4.616481999999905,-2.781703949,19.95863533,-137.6269684,-2.868862867,-1.817588091,11.04232311,0.951812387,9.332149506,1.044228435
4.624814999999899,-2.765553474,20.05006218,-137.6378784,-5.285554886,0.243380189,4.088162422,3.822963715,9.945279121,-0.980794668
4.633147999999892,-2.736705542,20.11613083,-137.6147003,-1.911024928,0.30310452,8.339849472,3.921424627,6.609152317,2.696116209
4.641480999999999,-2.712120771,20.18464088,-137.6236725,-1.025156856,0.564443767,9.001930237,4.759599209,7.185523033,-0.904080033
4.649813999999992,-2.640803099,20.26368904,-137.6022949,-3.353833199,-0.925250053,6.365715981,9.109640121,8.290163994,2.558670282
4.658146999999985,-2.614319563,20.24181938,-137.6237335,-1.753897786,-0.516278744,10.02943897,5.484174728,-3.695084095,-2.826556683
4.666479999999979,-2.588274717,20.27256203,-137.6101379,-2.981786251,-1.028100848,12.77131271,3.977622271,2.430598736,1.399907708
4.674812999999972,-2.565841913,20.26852608,-137.6488037,-4.308375835,-0.692862332,5.618386269,5.734605312,-1.361038089,-4.652032375
4.683145999999965,-2.528513432,20.25850868,-137.6275024,-3.550538778,-0.027629418,6.511413097,5.009670258,-2.492136955,2.047281742
4.691478999999958,-2.527092934,20.23530388,-137.658432,-1.365056753,-1.231233239,6.364647865,2.898212671,-3.702256203,-3.900382042
4.699811999999952,-2.472242355,20.22921371,-137.6369781,-4.798706055,0.62351054,9.76812458,7.131042004,-1.909054756,2.092926741
4.708144999999945,-2.4560709,20.14383316,-137.6557922,-0.708110631,-0.810655594,11.33747387,4.135738373,-11.32951069,-2.85355401
4.716477999999938,-2.443500519,20.12085342,-137.6509399,-4.115958214,-1.170400739,7.868071556,2.723036766,-3.963111401,0.134128943
4.7248109999999315,-2.421532631,20.01282692,-137.6667786,-1.855336547,0.483611584,9.257606506,4.725712776,-13.94969559,-2.61798048
4.733143999999925,-2.431251526,19.96045876,-137.6713562,-4.613516808,-1.070586205,11.41352844,0.437042862,-7.440602303,-1.075208664
4.741476999999918,-2.428522587,19.9056263,-137.6908417,-1.307312727,-0.653076112,4.771675587,2.560437441,-7.553714752,-2.758371353
4.749809999999911,-2.434028387,19.8253479,-137.6947784,-5.262503624,-0.076412015,7.122887611,0.936341345,-10.68006229,-1.132866502
4.7581429999999045,-2.463455915,19.76447105,-137.7084656,-1.476543903,-0.984137952,11.15559959,-1.55993247,-8.417221069,-2.152133465
4.766475999999898,-2.479416847,19.74766922,-137.720047,-4.768297195,-0.660265326,5.950955868,-0.028611099,-3.142021418,-1.690872431
4.774808999999891,-2.514439344,19.64662933,-137.727356,-3.012914181,-0.655032218,8.700119019,-2.469571352,-13.1515789,-1.634444475
4.783141999999998,-2.558426142,19.61675072,-137.7299042,-3.97902298,-1.690606475,13.32014847,-3.760630846,-4.753822803,-0.741506517
4.791474999999991,-2.5934093,19.60905266,-137.7517548,-3.622144461,-0.720444858,7.595342636,-1.878419876,-1.887871623,-2.792309999
4.7998079999999845,-2.61490941,19.54491615,-137.7427216,-5.175245285,0.207423091,7.994420528,-1.507679462,-8.811885834,0.392909557
4.808140999999978,-2.651037455,19.54824448,-137.760788,-2.092690706,-0.969046235,10.64991665,-2.192732573,-0.69191736,-2.319010496
4.816473999999971,-2.671693802,19.61049461,-137.7505951,-4.586271763,0.112029165,3.41495347,-1.473023534,6.224989891,1.202165842
4.824806999999964,-2.684719086,19.58178711,-137.7612915,-2.756199598,0.313848019,8.845900536,0.306026101,-4.462025642,-1.650632501
4.833139999999958,-2.70269084,19.62601662,-137.7566681,-3.362138033,-0.169467121,9.693696976,-0.927158475,4.092450619,0.474951982
4.841472999999951,-2.723021507,19.69822121,-137.7649994,-2.985091925,-0.481395692,7.276019573,-0.664920032,7.62191391,-0.811920106
4.849805999999944,-2.737653255,19.68498611,-137.763443,-2.79980731,-0.795086801,9.954956055,-0.382958412,-2.67427969,-0.181246325
4.858138999999937,-2.765546799,19.70999718,-137.7637634,-3.594011784,-0.969900727,12.18221855,-1.919582248,1.814422965,-0.184550568
4.866471999999931,-2.794396877,19.75237846,-137.7575531,-1.335068226,0.197627559,7.338686943,-2.297571182,3.861871481,0.651895106
4.874804999999924,-2.807932615,19.70785904,-137.7494812,-5.17097187,-0.589864433,7.488220692,-0.512412727,-6.458629131,0.361378461
4.883137999999917,-2.837465525,19.72904396,-137.7485199,-1.522097945,0.336576313,9.626104355,-2.168065786,1.348832726,-0.060014151
4.89147099999991,-2.88489747,19.75428391,-137.7419281,-3.980075836,-1.125140786,6.230672836,-4.523832321,1.907248855,0.618903935
4.899803999999904,-2.897530556,19.72613335,-137.7422943,-3.53868103,-0.587933183,9.364112854,-0.064778402,-4.453163624,-0.489974737
4.908136999999897,-2.934799433,19.71690941,-137.7361755,-3.330717564,-0.201156825,10.74800587,-3.304287195,-2.323723316,0.339119643
4.91646999999989,-2.975831985,19.75330162,-137.734848,-3.208979368,-1.41026938,9.009112358,-3.561659098,3.167110443,0.079416931
4.924802999999997,-2.97559762,19.69412994,-137.7173309,-4.268057346,0.059998199,8.494828224,0.755043626,-8.274396896,1.324806571
4.93313599999999,-3.016933203,19.70866203,-137.7310486,-2.111012936,0.515372396,9.147204399,-2.989335299,0.638217151,-1.75142467
4.941468999999984,-3.043438196,19.71364784,-137.7100067,-2.793824673,-1.134338737,10.2092371,-2.595055103,-0.609465182,2.124764919
4.949801999999977,-3.0213902,19.69105339,-137.7295074,-4.551066399,1.003792167,5.960942745,4.871225357,-3.672748089,-2.622564554
4.95813499999997,-3.031090498,19.70141792,-137.7134247,-1.350428104,-0.079482391,5.315384865,-0.399325907,-0.037704155,1.585994959
4.9664679999999635,-3.041131496,19.73013115,-137.7331238,-3.657603025,-0.26768589,10.7038393,1.008368611,2.372813225,-2.335916042
4.974800999999957,-2.987513065,19.72881889,-137.7060089,-3.486562729,0.235250771,7.957095146,6.771110535,-1.399971724,2.770909548
4.98313399999995,-2.998416185,19.73123741,-137.7424011,-3.711155415,-0.430315882,7.279671192,1.582332373,-0.680442154,-4.385234356
4.991466999999943,-2.965996027,19.77337074,-137.7156525,-2.384823799,-0.769556224,12.65178967,4.239911079,3.810130119,3.001181364
4.9997999999999365,-2.920861959,19.79026222,-137.7413635,-5.400743008,-0.454595387,7.546260834,7.89496088,1.089693785,-3.076423407
5.00813299999993,-2.894080877,19.81341934,-137.7267609,-3.164283276,-0.494912148,10.11374474,4.036585808,1.507052064,1.492426276
5.016465999999923,-2.861877441,19.85591698,-137.7443848,-2.767595768,-1.450392842,11.84279728,5.99768877,4.010382175,-2.026419163
5.024798999999916,-2.790780306,19.89327431,-137.7127838,-4.651323318,0.517645836,3.501699686,8.678346634,3.216725588,3.494768143
5.03313199999991,-2.766106606,19.88442612,-137.7328644,-2.266847134,-0.130155861,9.896028519,5.196629047,-2.135202646,-2.60945034
5.041464999999903,-2.710218906,19.94351006,-137.709198,-2.557188034,-0.410651714,8.779718399,7.171947956,5.867619514,2.732590914
5.049797999999896,-2.646271944,19.95371437,-137.7189941,-3.446341753,-0.156588688,6.55017662,9.51198864,0.190249771,-1.334143281
5.058130999999889,-2.613689661,19.93390656,-137.7096558,-1.853567362,-0.67990613,9.309135437,4.944738865,-3.607227325,0.646029472
5.066463999999996,-2.575042486,19.98126411,-137.7290497,-3.450897217,-0.968245745,9.678799629,6.846954346,4.592312336,-2.220933676
5.07479699999999,-2.541426897,19.92370224,-137.7127075,-2.230905771,0.036637351,8.557344437,4.792232037,-8.069227219,1.265689135
5.083129999999983,-2.570925236,19.94021225,-137.7498779,-3.898526669,-2.113327026,10.99664783,-0.602728605,0.981652856,-4.396632671
5.091462999999976,-2.545706034,19.91919518,-137.758255,-2.117965698,0.76182735,7.515840054,4.798660278,-3.562069416,-1.325793028
5.099795999999969,-2.533069611,19.88423157,-137.7627563,-4.910152435,-0.9872877,7.697350979,3.137808084,-5.252660751,-0.985200465
5.108128999999963,-2.515735865,19.87094688,-137.7813568,-1.537103891,-0.371815979,10.18468857,4.253948212,-2.684986591,-2.460144997
5.116461999999956,-2.460247993,19.85417557,-137.7786255,-5.414619446,0.012734717,4.271682262,7.964145184,-3.209233284,-0.077073239
5.124794999999949,-2.436918259,19.79170418,-137.7792816,-1.252840161,-0.303758293,10.90288925,4.263272285,-8.569908142,-0.679596961
5.133127999999942,-2.400491953,19.77741814,-137.7686157,-5.080544949,-1.870724916,11.84755802,5.353464603,-2.949300051,0.835165024
5.141460999999936,-2.365499973,19.74109077,-137.7964325,-3.506942987,-0.418273956,6.67553091,6.762888432,-5.311112404,-3.600798607
5.149793999999929,-2.344275236,19.70060921,-137.7537079,-3.705041647,-1.040715098,11.69682312,2.252913475,-6.138401031,4.339577198
5.158126999999922,-2.333994865,19.70721436,-137.7950287,-3.126408577,-2.20685482,10.0909481,4.32123661,-0.203300163,-4.926821232
5.1664599999999155,-2.298325062,19.6990242,-137.7665863,-4.972569942,0.095376983,3.796188593,4.546846867,-2.294907331,2.874749899
5.174792999999909,-2.324660063,19.66197968,-137.7909546,-0.418670148,-0.14819628,11.01810074,-0.737818003,-5.418793201,-3.212357759
5.183125999999902,-2.307465792,19.70797539,-137.7715454,-5.392572403,-2.109738827,7.392924786,2.694067001,4.241679192,2.11987257
5.191458999999895,-2.320225,19.69003487,-137.8143158,-1.91543448,1.241456032,6.514494896,1.63671124,-3.042510271,-5.199613094
5.199792000000002,-2.365631104,19.70985413,-137.7706604,-3.036683559,-0.46105969,10.85323906,-5.776598454,1.085031748,4.741770744
5.2081249999999955,-2.398756742,19.73186684,-137.8276215,-4.196005821,-1.85055542,12.58866596,-0.252351433,1.72213459,-6.614133358
5.216457999999989,-2.414888382,19.73985481,-137.7955322,-2.996949673,0.659323812,6.132190228,-1.821658611,-0.378424674,3.366389275
5.224790999999982,-2.502016544,19.74908066,-137.8313904,-2.317935467,-1.275938034,10.34227276,-7.561373711,0.191837817,-4.281829357
5.233123999999975,-2.524577856,19.78593826,-137.8128662,-4.257399559,-1.597193241,5.978947639,-2.042556047,3.1416502,1.98672986
5.2414569999999685,-2.592455149,19.80687332,-137.8370667,-2.425367117,1.172451854,4.895186424,-5.722937107,1.54352653,-2.901298761
5.249789999999962,-2.683299541,19.84241867,-137.8083038,-2.384060383,-0.967606902,9.026371956,-10.63062477,3.021596432,3.147925615
5.258122999999955,-2.744124889,19.88496971,-137.8245239,-4.417979717,-0.940702498,9.415045738,-5.221718311,4.00395298,-1.883363485
5.266455999999948,-2.81245923,19.87534523,-137.8096313,-2.730378628,0.267440945,8.490632057,-7.393088818,-2.420724869,1.326984167
5.2747889999999416,-2.903864622,19.93756104,-137.8202515,-3.729981184,-1.700188398,13.00484753,-9.095949173,6.425703049,-1.103640676
5.283121999999935,-2.940228462,19.95712471,-137.8121338,-3.479964733,-0.053649191,6.434211254,-3.278698683,1.113540411,0.737625897
5.291454999999928,-3.023342609,19.98959351,-137.8308716,-4.290282249,0.059913415,7.249425888,-7.769283772,2.910481215,-2.185047865
5.299787999999921,-3.096902132,20.01403236,-137.841095,-0.684168518,-1.129631758,10.64761925,-6.972374439,1.896798253,-1.265778661
5.308120999999915,-3.113404036,20.03975868,-137.844635,-5.904624462,0.244256839,6.830481052,-0.418126822,1.91859591,-0.527935028
5.316453999999908,-3.176645041,20.00924683,-137.8829498,-0.983326435,1.037101269,7.654427052,-4.599548817,-4.601905346,-4.808996201
5.324786999999901,-3.220641375,20.03985023,-137.8839111,-4.093566895,-2.727023602,9.216461182,-3.800998926,2.578495502,-0.187111989
5.333119999999894,-3.246689081,20.00120926,-137.9185486,-2.531836033,0.857753038,9.207104683,-0.286520839,-5.593841553,-4.456108093
5.341453000000001,-3.292496443,19.96348572,-137.9039459,-3.107364893,-0.743079543,10.70594025,-4.668732166,-5.709233761,1.136593342
5.349785999999995,-3.333520889,19.95661736,-137.9585419,-3.018871784,-0.717187166,8.251369476,-1.244518876,-1.558677554,-6.489392757
5.358118999999988,-3.32426548,19.86786842,-137.8919373,-3.132849455,-0.105421424,8.366613388,-0.195539117,-12.25152206,6.588994503
5.366451999999981,-3.390962601,19.84921837,-137.9492188,-3.562612534,-0.996500194,9.842985153,-4.253217697,-3.039666891,-6.880060673
5.374784999999974,-3.392734528,19.83245468,-137.8840942,-2.84699893,0.082481861,6.573995113,-1.427276731,-3.535789728,6.934812069
5.383117999999968,-3.413167,19.7558918,-137.9120941,-4.170464993,0.143011689,8.596243858,0.101726934,-10.16836452,-3.995000839
5.391450999999961,-3.424571276,19.77691078,-137.8430328,-2.174189091,0.424650401,7.512170792,-2.735856295,0.959112167,7.660666943
5.399783999999954,-3.445421457,19.75605202,-137.886734,-5.406693459,-0.471898198,9.664582253,0.70834887,-3.296423674,-5.36080265
5.408116999999947,-3.410979509,19.71777534,-137.8147583,0.025242431,0.816905856,9.776759148,2.633130789,-6.256354332,7.545429707
5.416449999999941,-3.459488392,19.77072334,-137.8569336,-6.826238155,-0.838636279,7.526345253,-2.697153568,5.443858624,-4.666043282
5.424782999999934,-3.451618433,19.76301765,-137.8237762,-1.237934113,-0.862321317,10.65075397,1.034802318,-2.240707636,3.395820141
5.433115999999927,-3.435298681,19.74851799,-137.8422394,-5.702074528,0.188089654,10.21821785,4.122419357,-2.796357632,-2.479791164
5.4414489999999205,-3.451264143,19.80859375,-137.8215637,-1.926822782,-1.328572154,8.894399643,-1.317800999,5.962109566,2.478087187
5.449781999999914,-3.443920374,19.82032394,-137.8432159,-5.072043419,-0.417341769,9.197299004,3.197770357,0.458200216,-2.634859324
5.458114999999907,-3.405667782,19.85374641,-137.8213196,-2.555969238,-0.241663635,7.704705238,5.115509033,2.670860529,2.410466194
5.4664479999999,-3.394895315,19.90272713,-137.8252258,-4.409892082,-1.10650003,10.9840498,2.867424011,4.710470676,-0.387133539
5.4747809999998935,-3.343744516,19.96715927,-137.818573,-2.378095627,0.684134543,5.304354191,7.301581383,6.578465462,0.921613038
5.4831140000000005,-3.303884029,19.96909714,-137.8123322,-3.870566368,-0.433823794,8.108537674,5.942873955,-0.99372977,0.422417134
5.491446999999994,-3.254511356,20.02955437,-137.7989655,-1.744611382,-0.420482248,10.02672672,6.812273026,6.060649395,1.632613182
5.499779999999987,-3.196334839,20.05253983,-137.8103027,-4.112752438,0.327891231,5.24704361,8.887564659,1.728102922,-1.416031837
5.50811299999998,-3.166578293,20.0321331,-137.7929535,-0.335261792,-0.276942819,12.18366909,4.273440838,-3.737756968,1.522727847
5.5164459999999735,-3.102833986,20.08389473,-137.8012695,-5.328196526,-0.62072742,9.0966959,9.407559395,5.070453167,-0.891221762
5.524778999999967,-3.049109459,20.04337883,-137.7880707,-0.552235425,0.318268657,7.152944565,7.340003014,-6.031051636,0.934522629
5.53311199999996,-3.034233809,20.03073502,-137.7952881,-4.528617382,-1.571225524,11.93284702,3.497226954,-2.655683994,-1.187911391
5.541444999999953,-2.959577084,19.98621941,-137.7917938,-1.447220802,0.30346936,9.558739662,10.24714088,-6.452635765,-0.165929019
5.549777999999947,-2.93995285,19.94743919,-137.7860107,-4.98286438,-1.396867394,7.275108814,3.555576563,-5.774704456,0.119042166
5.55811099999994,-2.91445899,19.92800331,-137.8078308,-0.828116834,-0.625388205,8.262288094,5.367014885,-3.387175322,-2.872380495
5.566443999999933,-2.858243942,19.85780525,-137.7817535,-5.683357239,-0.619710326,7.828300476,7.096667767,-9.745806694,2.219921827
5.574776999999926,-2.847955942,19.83512878,-137.8134003,-0.863553464,-0.042131327,10.83100605,3.957514048,-3.63578701,-3.981860638
5.58310999999992,-2.793994427,19.81223488,-137.7780304,-5.803519726,-1.14343977,2.764697075,6.452750206,-4.125248909,3.556830883
5.591442999999913,-2.797688723,19.72916985,-137.8075867,-0.923762858,0.459984124,11.61488056,2.187289476,-10.88920212,-4.093001366
5.599775999999906,-2.749762535,19.73422241,-137.7605286,-5.368916512,-1.218075156,11.16944122,5.277621269,-0.747628272,5.058876038
5.608108999999899,-2.742399693,19.68552017,-137.8011017,-2.526943684,-0.703145683,4.481529713,3.941505909,-6.802065372,-5.152201653
5.616441999999893,-2.747867584,19.6601181,-137.7567596,-3.623024225,-0.387825251,12.9608326,-1.032945156,-4.468915462,4.56510973
5.624775,-2.743479252,19.66003418,-137.7987518,-3.971483707,-1.61366725,11.53751945,3.654550076,-0.882436037,-5.016190052
5.633107999999993,-2.736591339,19.64038658,-137.7615967,-4.820220947,-0.648136437,4.946938515,0.742492616,-3.738653421,3.787538767
5.641440999999986,-2.785634518,19.61961365,-137.8024292,-1.499693513,-0.884814024,13.05726337,-2.802658558,-3.36694026,-5.016701221
5.649773999999979,-2.76006937,19.65229416,-137.769989,-5.509914875,-0.392538846,7.230407715,3.193928719,2.641506433,3.572481632
5.658106999999973,-2.781345129,19.64890671,-137.8052673,-2.939052582,-0.026764132,7.297637463,0.287532598,-1.396155119,-4.299042225
5.666439999999966,-2.815649509,19.65285301,-137.7877197,-1.831800342,-0.852452457,9.131533623,-3.409305811,-0.807386279,1.708891988
5.674772999999959,-2.810431004,19.6889534,-137.8169556,-5.51298666,-0.212535217,8.701329231,3.24162221,3.385829926,-3.367324114
5.6831059999999525,-2.823199749,19.69054413,-137.8032532,-1.837895513,-0.378001153,7.536127567,-0.669043779,-1.068984389,1.258235216
5.691438999999946,-2.861817598,19.7087059,-137.8203583,-3.638425589,-1.559086561,10.18365192,-2.500948429,1.172145963,-2.123292208
5.699771999999939,-2.860205412,19.71574783,-137.8221893,-3.038857222,0.380460113,9.403362274,1.712913752,-0.245563686,-0.473965824
5.708104999999932,-2.890835524,19.69644356,-137.8074951,-3.233770132,-1.545316458,8.827847481,-2.852606058,-3.581792116,1.245684505
5.7164379999999255,-2.939616203,19.70907021,-137.8344269,-2.568073988,-0.529176235,9.976783752,-3.349214792,0.484685391,-3.254954338
5.724770999999919,-2.934781313,19.7166729,-137.8005066,-4.332406044,0.067570955,5.381827831,0.647233248,-0.386441946,3.577680826
5.733103999999912,-2.97630477,19.71449471,-137.8225555,-2.376051426,-0.15866594,8.029602051,-2.673844099,-1.316161752,-2.798303843
5.741436999999905,-3.000683784,19.74798203,-137.7889862,-2.76837182,0.253097862,8.810170174,-2.852094173,2.710588455,3.722427607
5.749769999999899,-3.013225794,19.79321098,-137.8121338,-4.618293762,0.123556234,8.53547287,0.871895671,4.454865932,-2.613266706
5.758102999999892,-3.034117699,19.76503372,-137.7723083,-2.680347443,-1.066066504,10.49457645,-2.708065271,-4.797930241,4.017323971
5.766435999999999,-3.07069397,19.81183052,-137.7915039,-3.070668459,-1.598764539,12.89292049,-2.193397999,4.538547993,-2.160868168
5.774768999999992,-3.068058729,19.82649612,-137.7610931,-5.06399107,-0.055056855,7.948649883,0.51465404,0.471365929,3.240290403
5.783101999999985,-3.090805054,19.82603455,-137.7798767,-3.474530697,-0.917149842,6.50242281,-0.550552368,-1.1245929,-2.414013624
5.791434999999979,-3.118247032,19.83151627,-137.7675629,-1.489658475,-0.697740853,8.478974342,-2.360915422,-0.522658467,1.148939371
5.799767999999972,-3.133167744,19.9092083,-137.7933502,-4.989022732,0.084817074,8.699124336,0.693748653,8.363009453,-2.668516636
5.808100999999965,-3.125668526,19.88585281,-137.7844391,-1.760114908,0.081271462,6.894826412,1.952662706,-4.036496162,0.555431902
5.816433999999958,-3.158809662,19.89100647,-137.7948608,-2.571503878,-0.090578876,10.0350399,-2.137149334,-0.502192736,-1.435447454
5.824766999999952,-3.1705513,19.90995407,-137.7987671,-3.496331215,-0.614693582,10.98359776,0.187816396,1.190024734,-0.601704001
5.833099999999945,-3.171686172,19.8627739,-137.8039246,-2.667700052,-0.384001642,9.405200005,1.489762187,-6.806035042,-1.189166427
5.841432999999938,-3.187669516,19.83859825,-137.7941437,-2.022413969,0.086118512,8.898104668,-0.882487297,-4.061444283,0.660014868
5.849765999999931,-3.205013514,19.84062386,-137.7973785,-4.49878788,-1.21603334,6.239961147,-0.512489617,-0.8378672,-0.640355825
5.858098999999925,-3.197279215,19.80610847,-137.7854767,-4.188975811,-0.435468197,7.810922146,1.860041738,-5.395638466,0.814776063
5.866431999999918,-3.20152092,19.78326416,-137.7649078,-1.766104698,0.731312573,8.277977943,0.070400737,-4.05066061,1.871824503
5.874764999999911,-3.223549128,19.80233002,-137.7714996,-5.623586655,-1.280387402,8.121841431,-0.936763763,1.221888661,-0.908793092
5.8830979999999045,-3.200751781,19.78559303,-137.7558899,-2.954416752,-0.23144336,10.28867531,3.517154932,-3.28856039,1.352137089
5.891430999999898,-3.193590879,19.74692154,-137.7491455,-3.838818789,-0.644922376,9.413627625,2.020309925,-5.782414436,0.216760486
5.899763999999891,-3.221567154,19.78733063,-137.7533112,-2.832983732,-0.377605438,9.411801338,-1.753371119,3.760489702,-0.478243351
5.908096999999998,-3.202829361,19.7655201,-137.7570801,-4.639411926,-1.041811705,8.53898716,3.815918684,-3.77333498,-0.865043998
5.916429999999991,-3.161359549,19.74303818,-137.7494965,-1.405484915,0.999850392,6.285049438,6.085212708,-3.923742294,0.409379542
5.9247629999999845,-3.170139551,19.77194595,-137.7519684,-3.758698225,0.498168707,7.516918182,0.482303262,2.370482206,-0.372559041
5.933095999999978,-3.155581713,19.81106377,-137.7481384,-2.339385986,-0.969277859,10.62598228,3.006868124,3.480603456,0.394984335
5.941428999999971,-3.106039762,19.78835869,-137.7305908,-3.204277039,-0.141998544,9.286782265,6.667681217,-3.937600374,1.537917376
5.949761999999964,-3.114074707,19.82154465,-137.7322845,-4.131207943,-1.046093106,9.335767746,0.538142264,2.878873348,-0.258729368
5.9580949999999575,-3.107080221,19.85626602,-137.725235,-3.325618744,-1.364606619,11.90933132,1.968005896,2.933303833,0.724152803
5.966427999999951,-3.062503815,19.86236763,-137.7148438,-5.277087212,-0.738493502,6.942578316,6.341534138,-0.51599884,0.916669369
5.974760999999944,-3.068416119,19.89834404,-137.7293701,-2.828158855,0.251798123,4.956681252,1.318095684,3.292517662,-1.690949321
5.983093999999937,-3.050920486,19.95744133,-137.7060699,-2.417153835,-1.085181236,9.937330246,2.562666178,5.757478714,2.708718061
5.991426999999931,-2.992978573,19.98838806,-137.7236938,-3.786617994,0.471182913,6.87264967,9.1070261,2.702724218,-2.065864801
5.999759999999924,-2.966327667,20.00193214,-137.7152405,-1.083963394,0.847222567,6.918766022,4.284864426,0.462119192,0.752994478
6.008092999999917,-2.953482151,20.03926277,-137.7301178,-3.206062078,-1.270183206,13.37245941,3.567768097,3.376788616,-1.738412619
6.01642599999991,-2.886735201,20.01098442,-137.7215576,-2.864527702,-0.207667097,9.010332108,9.075161934,-4.621192455,0.494777411
6.024758999999904,-2.870733023,19.99490166,-137.7327271,-3.462739468,-0.97145009,8.456698418,3.809771538,-2.975502968,-1.63800478
6.033091999999897,-2.837741137,19.99746132,-137.7340698,-2.050292015,-0.57167387,10.57577324,5.429820538,-0.868834794,-0.431061953
6.04142499999989,-2.763692379,19.97266197,-137.7145386,-5.088213921,-0.100349464,4.949392319,9.519083977,-4.188798904,1.768342853
6.049757999999997,-2.76451683,19.94087219,-137.7460785,-1.879508376,-0.922845721,7.415813446,2.621450424,-4.748469353,-4.007525921
6.05809099999999,-2.727795839,19.94245911,-137.7171326,-3.90197897,-1.593147278,11.54116344,4.637547016,-1.150412083,2.974721909
6.066423999999984,-2.687837601,19.87283134,-137.742981,-3.319161892,-0.268765807,7.434372425,7.266950607,-9.391946793,-3.60364151
6.074756999999977,-2.708670139,19.85447693,-137.7326202,-3.970494747,-1.436476946,8.742322922,-1.477787375,-3.363840103,0.75091958
6.08308999999997,-2.707833767,19.81220055,-137.7699127,-2.747729778,-1.457403302,10.72817039,3.035120249,-6.052720547,-4.741630077
6.091422999999963,-2.670144081,19.76883888,-137.7480774,-4.519771099,-0.087635264,5.591641903,5.092839718,-6.421385765,1.870287299
6.099755999999957,-2.702446222,19.73946762,-137.7847595,-1.377695918,-0.111150473,7.170651913,-0.949468434,-4.439074993,-4.595500946
6.10808899999995,-2.685379267,19.74220657,-137.7646637,-4.865929127,-0.822756946,8.174663544,2.65088129,-0.961584032,1.985705256
6.116421999999943,-2.678496361,19.69573784,-137.7855835,-0.556989431,1.057075381,9.215014458,3.087911606,-6.643667698,-2.916078568
6.1247549999999364,-2.702447891,19.69078064,-137.7698975,-5.255146503,-2.075524569,9.332415581,-2.070219278,-1.789282441,1.450034499
6.13308799999993,-2.709144831,19.65760994,-137.7984161,-1.788087964,-1.422190189,10.52798367,1.764346838,-5.007787704,-3.70120573
6.141420999999923,-2.698940516,19.58710098,-137.7626343,-4.473096371,1.275844574,9.464491844,1.212898254,-9.754952431,3.369489193
6.149753999999916,-2.756045103,19.56636047,-137.803772,-2.207628489,-2.05337286,9.199853897,-3.765113592,-3.37708354,-5.043109894
6.1580869999999095,-2.758000851,19.56162071,-137.781662,-4.360063076,0.012140395,7.455431461,0.292834729,-1.872784972,2.174020767
6.166419999999903,-2.770584583,19.50959206,-137.7972412,-3.035512447,-0.841279566,6.406123161,0.530381203,-7.334252834,-2.355511189
6.174752999999896,-2.831486702,19.5126667,-137.8066406,-3.774556398,-0.435896516,12.09438801,-5.496328354,-0.692685723,-1.325741649
6.183085999999889,-2.874274254,19.51107979,-137.8208771,-3.264790297,-2.013605356,10.41970444,-3.148194313,-1.294876337,-1.913870096
6.191418999999996,-2.909668684,19.46702576,-137.8252716,-4.79480648,-0.869874179,7.811074734,-2.643722296,-6.367775917,-1.02659297
6.1997519999999895,-2.99657321,19.47448158,-137.8394012,-3.924301147,-0.546838999,10.68030834,-8.422780037,-0.138649866,-1.840767145
6.208084999999983,-3.04245162,19.48047447,-137.8409119,-2.751502752,-1.289387822,10.32521725,-4.029323578,-0.456061453,-0.428372443
6.216417999999976,-3.061383963,19.48740768,-137.8247986,-5.265738964,0.274074465,1.855729222,-1.500328302,-0.449683547,1.56893599
6.224750999999969,-3.129747629,19.5059433,-137.8327484,-1.004122853,1.004859567,8.103889465,-6.44305563,1.156982183,-1.074645281
6.2330839999999625,-3.150110722,19.54719734,-137.7941132,-4.026662827,-0.647433102,12.52739811,-2.577867985,3.51884532,4.339320183
6.241416999999956,-3.14892745,19.57644081,-137.8075867,-2.010164022,0.985358834,6.497108459,2.128504515,2.474834442,-1.636314154
6.249749999999949,-3.174110889,19.56360435,-137.7712402,-3.801706314,-0.839170277,9.240034103,-3.043739557,-2.88070488,3.722094536
6.258082999999942,-3.211792946,19.57896042,-137.7901001,-1.616778731,-1.194567919,14.48150063,-2.348031521,0.774817884,-2.322417259
6.266415999999936,-3.192337513,19.57762527,-137.7521667,-4.278847694,-0.303032488,6.584616184,2.225095987,-1.582370758,3.980106592
6.274748999999929,-3.236459494,19.55874252,-137.7887421,-3.363983154,0.376855075,5.305355549,-2.384967089,-3.146170855,-4.548012257
6.283081999999922,-3.276068687,19.5686245,-137.7496185,-2.294799805,-0.499847889,11.49396801,-4.911170959,-0.250071764,4.190245628
6.291414999999915,-3.292092085,19.5853672,-137.7804108,-4.431712151,-2.304415464,7.401099682,0.762369215,1.090461969,-3.674746037
6.299747999999909,-3.317224741,19.58546257,-137.7732086,-3.581163168,1.124313474,6.451735497,-1.870709896,-1.153101683,0.531994879
6.308080999999902,-3.372771502,19.54810715,-137.7685852,-2.837158442,-1.28560257,11.98383999,-5.43669939,-5.688922882,-0.033452194
6.316413999999895,-3.412071466,19.56021118,-137.7746735,-3.439360142,-1.440626979,11.50488949,-3.054139137,0.307691008,-0.898931682
6.324747000000002,-3.423237324,19.54302979,-137.7825317,-3.126761436,0.817212403,5.177488327,0.408278137,-3.123067141,-1.288677812
6.333079999999995,-3.44952035,19.51623917,-137.7631073,-2.827596664,-0.197727934,6.911195278,-2.518468618,-4.525062084,1.705459952
6.341412999999989,-3.489635706,19.5329895,-137.7791443,-3.197710752,0.357577175,9.948571205,-2.73193717,0.999147177,-1.980594993
6.349745999999982,-3.481429338,19.57867622,-137.7681427,-3.230039835,0.249011084,8.214187622,1.975049496,4.277487755,1.295580745
6.358078999999975,-3.480384111,19.56328964,-137.7595215,-4.316050053,-0.649306834,8.648582458,1.194712162,-3.085900784,0.567777932
6.366411999999968,-3.486129284,19.57809067,-137.754364,-2.727908373,-0.594293952,11.24635792,0.519699991,0.554484129,0.392781466
6.374744999999962,-3.496706963,19.6243515,-137.7574158,-4.583806515,-1.512122869,11.97382641,0.283383101,4.442545891,-0.27919516
6.383077999999955,-3.473922014,19.66706848,-137.7415924,-4.021481514,-0.820795476,8.445537567,3.510213614,3.823962212,1.803306341
6.391410999999948,-3.457517385,19.66279602,-137.7512665,-3.178924084,0.577936172,6.580628872,3.811436892,-1.560726643,-1.457783103
6.3997439999999415,-3.443882942,19.72367668,-137.7468567,-0.284573168,0.980405569,8.012844086,2.89232111,6.142459869,0.654123485
6.408076999999935,-3.400294304,19.77892303,-137.7216339,-4.602033615,-0.46131292,7.166751385,5.62420702,5.265377045,2.945700884
6.416409999999928,-3.356348753,19.77298164,-137.7478943,-1.517126203,-0.683016777,9.704404831,7.755849838,-1.720405936,-3.299369335
6.424742999999921,-3.306720495,19.75926018,-137.7036438,-3.531203032,-0.491527587,10.4318037,5.580971718,-3.056752205,4.639314651
6.4330759999999145,-3.32687521,19.82718849,-137.745575,-3.875048161,-1.456717372,9.839476585,0.70066458,7.229169846,-4.548473835
6.441408999999908,-3.306210518,19.8156662,-137.7244263,-4.041112423,-1.201371431,7.639914513,3.05622673,-2.63734436,2.004890442
6.449741999999901,-3.267519951,19.8086071,-137.7459106,-2.986860514,-0.400191844,6.82003355,6.953689575,-1.827985525,-2.758858681
6.458074999999894,-3.266252518,19.83447266,-137.7363434,-2.140845537,0.602650344,5.776059628,1.178447008,1.855226517,0.960597813
6.466408000000001,-3.252538443,19.84962463,-137.7651367,-3.300118208,-1.234985709,8.00444603,4.234302521,0.816338539,-3.437891722
6.4747409999999945,-3.209575176,19.7902298,-137.7486115,-1.97317493,-0.228628919,10.63058186,5.910498142,-8.343607903,1.194276571
6.483073999999988,-3.211705446,19.8027401,-137.7591858,-4.05264473,-0.745189548,9.142366409,1.591450691,0.382791907,-1.404351473
6.491406999999981,-3.209269047,19.79530907,-137.7578125,-2.180878639,-0.748125076,11.02421188,1.667320251,-2.019247055,-0.175688058
6.499739999999974,-3.160560608,19.79022789,-137.7405853,-5.760087967,0.097420752,7.688844204,6.572138786,-1.837027192,1.639349461
6.508072999999968,-3.140508175,19.79878044,-137.7464447,-1.839219213,-0.017460344,6.261870384,4.061584949,-0.122538492,-0.899776816
6.516405999999961,-3.133950949,19.83954811,-137.7345428,-3.924474001,-1.09525907,8.711097717,1.718215823,3.629089117,1.315099001
6.524738999999954,-3.081292391,19.82909203,-137.7300568,-2.87983489,-1.044818401,11.81381035,7.569199562,-2.403204679,0.152750507
6.533071999999947,-3.043257236,19.77616501,-137.7306671,-2.305235863,-0.080621377,8.021305084,6.004834652,-7.521465778,-0.703315616
6.541404999999941,-3.048028469,19.76652718,-137.7388,-1.454535723,-0.408744812,9.452472687,1.195506096,-2.225902796,-1.273642182
6.549737999999934,-3.001925707,19.71161461,-137.7432556,-4.682184219,-1.230298638,7.763463974,7.140058517,-7.673077106,-1.115832925
6.558070999999927,-2.961673021,19.6627121,-137.7590942,-2.106297255,0.663457334,5.46606493,6.887143135,-6.951422215,-2.390678883
6.56640399999992,-2.96249938,19.63068771,-137.7659302,-2.708960533,-0.402112991,7.020708561,1.593371987,-4.982916832,-1.263473392
6.574736999999914,-2.937283993,19.6100769,-137.77771,-5.457528591,-2.014417171,10.97789955,4.924298763,-3.524134636,-1.716666102
6.583069999999907,-2.918638229,19.5414238,-137.7876282,-2.057658195,0.080976576,9.446041107,4.051493168,-9.353474617,-1.835926294
6.5914029999999,-2.942381382,19.53448677,-137.8075867,-4.792984009,-1.341623425,10.1972332,-0.599757314,-1.837642193,-2.615725756
6.5997359999998935,-2.93399024,19.52674294,-137.8065186,-4.3893857,-1.420262337,10.22758961,2.406982422,-2.055081129,-0.242618039
6.608069,-2.906094551,19.50445938,-137.8259735,-4.30481863,-0.064672016,6.318488598,5.544752121,-3.743367195,-2.630402803
6.616401999999994,-2.917711496,19.51028824,-137.8205719,-1.13743794,0.387490958,6.827317238,-0.194002211,-0.514077663,0.351696223
6.624734999999987,-2.907182217,19.55979347,-137.8074951,-5.109685421,-1.576384664,9.792325974,2.160676241,4.731705189,1.526134729
6.63306799999998,-2.884811163,19.52513885,-137.8238373,-1.3475914,-0.579562545,8.026450157,4.755475044,-5.243259907,-2.348133802
6.6414009999999735,-2.889331102,19.52485847,-137.7912292,-2.988088846,0.999940157,9.839761734,-0.41766572,-1.345182776,3.401787996
6.649733999999967,-2.926026344,19.54720116,-137.8101501,-3.028776884,-2.490734577,10.4240818,-2.212019444,1.662607074,-2.281049967
6.65806699999996,-2.915979624,19.50485611,-137.8016663,-3.804546595,-0.387928218,7.352412224,2.281446934,-6.308273315,0.404948235
6.666399999999953,-2.938755035,19.49279594,-137.8103943,-2.085467339,0.879162133,7.960068703,-0.967577755,-2.577996016,-1.354378343
6.6747329999999465,-2.970990181,19.53203583,-137.8006134,-4.081488609,-1.775751233,7.991355419,-2.8281703,3.522124052,1.068869233
6.68306599999994,-2.980964661,19.51746941,-137.819931,-3.844652176,-0.787350893,8.098647118,0.994126916,-2.816976786,-2.567314625
6.691398999999933,-2.994421482,19.50484085,-137.7936859,-2.62211585,0.064001255,11.85372257,-1.230738282,-2.791464806,2.595400572
6.699731999999926,-3.066412926,19.56614685,-137.8099976,-5.583174229,-2.811050892,9.431245804,-6.551123619,6.318508148,-1.735467196
6.70806499999992,-3.093952656,19.54066658,-137.8055267,-2.843809605,-0.153113842,9.825964928,-2.067580938,-4.26397562,0.045119476
6.716397999999913,-3.115409613,19.53888893,-137.8087311,-4.409300804,-0.718689084,8.269471169,-1.03145957,-1.377072453,-0.667276382
6.724730999999906,-3.161381721,19.58373833,-137.8005371,-1.267855167,0.542918682,6.954023838,-4.411873341,4.197289467,0.941028655
6.733063999999899,-3.18162179,19.60021591,-137.8164063,-4.155157089,-0.133753732,7.000691414,-0.375274122,0.890901506,-1.974498868
6.741396999999893,-3.187517166,19.58905792,-137.8039551,-0.294112712,0.470039755,9.500741959,0.228261247,-2.54093194,1.044407606
6.74973,-3.235908508,19.63348389,-137.7940979,-4.471409321,-0.645969808,10.54025269,-4.762172699,4.135994434,1.107060075
6.758062999999993,-3.285259247,19.60851288,-137.822403,-1.899085164,-1.35256505,9.915407181,-3.365735531,-3.992670059,-3.659761906
6.766395999999986,-3.276087761,19.57032585,-137.7827148,-4.967064381,-0.40125677,9.367805481,0.920639694,-6.017296791,3.920988798
6.774728999999979,-3.344597816,19.57550621,-137.8136139,-2.264748096,0.103389844,6.882736683,-5.532725811,-0.299199849,-3.772413015
6.783061999999973,-3.379230976,19.59947205,-137.7928009,-4.533272743,-1.290938854,6.949799538,-3.577488661,1.549110532,2.224429846
6.791394999999966,-3.37080121,19.57559395,-137.8009644,-3.292295456,-0.29693988,7.134917259,2.776595831,-3.93198967,-1.38106823
6.799727999999959,-3.411664486,19.59181786,-137.7878876,-3.043021917,0.242712885,7.131743431,-3.989622355,0.728840292,1.292250991
6.808060999999952,-3.463350058,19.59065247,-137.8095245,-2.865493774,-1.535468221,11.8914957,-3.915033817,-1.175949574,-2.745205641
6.816393999999946,-3.442040443,19.55952454,-137.7906952,-3.806614161,0.367674321,9.704573631,3.215111732,-5.040369511,1.605564356
6.824726999999939,-3.46339345,19.55103111,-137.7965546,-2.145648718,0.377507865,6.805544376,-0.874828577,-2.103953123,-1.054333091
6.833059999999932,-3.49862957,19.53337288,-137.7949371,-2.402158022,-1.145403028,10.26995564,-2.876606703,-3.3086164,-0.241209254
6.8413929999999255,-3.46203661,19.53709984,-137.785141,-3.998079538,1.040925026,7.961066723,5.439836502,-0.748038113,0.824688733
6.849725999999919,-3.4717834,19.51717186,-137.7849731,-3.201632738,-0.197390839,5.928195953,0.260125369,-3.516885996,-0.41771698
6.858058999999912,-3.498714209,19.51736641,-137.7800446,-2.98750782,-1.456937909,11.91248989,-2.013842344,-1.193495154,0.263634503
6.866391999999905,-3.479776382,19.52150345,-137.7788086,-4.920125008,-1.966884494,11.89261341,3.639129639,-0.696297348,-0.126252547
6.8747249999998985,-3.483871222,19.51395607,-137.77211,-3.617888689,0.585019052,6.519462585,0.674384296,-2.078722954,0.415654987
6.883057999999892,-3.511805773,19.47641373,-137.767807,-2.329207659,-0.158319637,9.983290672,-2.106848001,-5.710207939,-0.085192956
6.891390999999999,-3.499972105,19.49388885,-137.7657013,-3.936079979,-1.288098574,10.32282448,2.77398324,0.950685084,0.067762457
6.899723999999992,-3.465412855,19.48845291,-137.7586212,-2.626253605,0.946611285,2.534928799,5.307076931,-1.827421784,0.446007848
6.908056999999985,-3.466507912,19.44464874,-137.7523956,-1.61444211,0.861390889,9.212218285,1.036671996,-6.473511219,0.089944385
6.9163899999999785,-3.429975271,19.48382759,-137.7414246,-4.232793331,-0.776649714,8.746218681,5.360713482,3.434907436,1.226755381
6.924722999999972,-3.398082972,19.46775055,-137.7373657,-2.943750143,0.066829458,7.384700298,5.099833012,-3.081212997,0.049960565
6.933055999999965,-3.391409874,19.42507553,-137.7271271,-3.248750448,-0.390009552,11.59779644,1.809146166,-6.365213871,0.557019889
6.941388999999958,-3.371124983,19.46237564,-137.732254,-4.331255436,-2.676311255,12.02878284,4.074418545,3.372127295,-0.612333953
6.9497219999999515,-3.340514183,19.46463013,-137.7320251,-4.41775465,0.072315127,5.443089962,5.104545116,-0.861099303,-0.260701686
6.958054999999945,-3.312969685,19.43506622,-137.7277985,-2.570519686,-0.300228804,11.00643826,4.552148819,-4.751952171,-0.024000539
6.966387999999938,-3.282252789,19.46495247,-137.7446594,-3.482648611,-0.645918906,7.999508381,5.776535034,2.50680089,-1.993735075
6.974720999999931,-3.231862545,19.47647858,-137.7373352,-2.958565474,-0.226899147,3.269451857,7.198688984,0.205131605,0.580790043
6.983053999999925,-3.214129925,19.41406822,-137.749176,-1.300291657,0.500148535,10.11306953,4.018476009,-8.586019516,-2.052801609
6.991386999999918,-3.181263685,19.45993805,-137.7416687,-3.807149172,-0.693225324,11.99411297,5.098937035,4.318086147,0.805580616
6.999719999999911,-3.153384924,19.43211174,-137.7609253,-2.044887781,-0.402748197,6.764197826,5.543650627,-4.345916748,-2.639982462
7.008052999999904,-3.139250755,19.35894966,-137.7387848,-3.236481428,-0.515460491,11.29049969,2.229424953,-10.08686066,1.725234032
7.016385999999898,-3.128827095,19.35588074,-137.7663727,-2.996190786,-1.623447299,11.45759106,3.764793158,-1.379838824,-3.433101416
7.024718999999891,-3.090612888,19.31565666,-137.7483368,-4.725342751,0.102539659,5.041095257,5.318091393,-6.059251785,1.438892365
7.033051999999998,-3.100878954,19.25683784,-137.7810822,-2.547341824,-0.77074337,8.253791809,1.482667446,-8.030371666,-4.38085413
7.041384999999991,-3.075408697,19.26416969,-137.764679,-4.278613567,-0.871533632,9.205451012,3.848961592,-0.353450835,1.588684559
7.049717999999984,-3.060781002,19.25367165,-137.796524,-4.196050167,-0.222837821,6.480340481,4.444671154,-2.198085546,-3.945693254
7.058050999999978,-3.051858187,19.18891335,-137.7680969,-1.868299961,-0.102160953,11.0365591,1.363458872,-9.114750862,2.507544518
7.066383999999971,-3.064143658,19.20122147,-137.8051758,-5.003409386,-1.767954826,11.86809826,1.404287696,0.515601695,-4.410592079
7.074716999999964,-3.045398474,19.19384003,-137.7724152,-2.24294591,-0.256843537,7.216506481,2.393227577,-2.216015577,3.363059759
7.083049999999957,-3.046221495,19.12459564,-137.789093,-3.859350204,0.214864954,11.25595188,1.974383831,-9.379574776,-2.625458956
7.091382999999951,-3.045528173,19.14651299,-137.7696075,-1.786923051,-0.555864275,7.452935219,0.75873208,1.377136707,2.030350924
7.099715999999944,-3.035033464,19.14986992,-137.7686157,-4.023449421,0.062469967,5.867183685,2.653852224,-0.736690938,-0.153992787
7.108048999999937,-3.020028591,19.12652397,-137.7538452,-2.320575237,0.258490562,8.990596771,2.63546133,-4.070075989,1.230162144
7.1163819999999305,-3.012943745,19.15349579,-137.7431946,-3.136180878,-1.406712651,9.844753265,1.847311497,1.985244274,1.079371095
7.124714999999924,-3.023426533,19.22185707,-137.7418365,-4.096427441,-0.40470618,8.295651436,0.108489089,7.047128677,0.32836166
7.133047999999917,-3.022954941,19.20078278,-137.7270203,-4.0072155,-0.984879673,10.65331554,0.887802005,-3.796951294,1.24898839
7.14138099999991,-3.023287296,19.23729897,-137.7286835,-3.812908649,-0.745677471,9.973557472,1.463533521,3.25217557,-0.260932237
7.1497139999999035,-3.039752722,19.30402756,-137.7184601,-2.385713339,-0.620630503,6.233971119,-0.944652855,6.800899029,1.282286882
7.158046999999897,-3.008402824,19.32052994,-137.7195435,-5.337164879,-0.23123984,5.331898689,5.221935749,0.800995529,-0.314414769
7.16637999999989,-2.981386423,19.32383347,-137.7203369,-0.69474709,0.148176044,7.809943199,4.688775539,-0.783923686,-0.361929148
7.174712999999997,-2.9865942,19.36391449,-137.7127075,-2.800690413,0.237479761,8.979902267,0.498722017,3.6191504,0.842106342
7.18304599999999,-2.971735001,19.3476181,-137.7145996,-2.698872089,-0.576779485,11.77799606,3.273538113,-3.12506485,-0.609823763
7.1913789999999835,-2.950988293,19.29678726,-137.7106018,-3.271755934,-0.501075029,10.12507343,3.790330172,-7.248366833,-0.226096854
7.199711999999977,-2.955979824,19.29185677,-137.6973877,-1.983201146,-0.873436213,8.309271812,0.30320847,-1.804112911,1.194353342
7.20804499999997,-2.955491543,19.27587318,-137.7090454,-5.457339764,-0.858823359,7.622642517,1.936910033,-3.030829906,-1.713848352
7.216377999999963,-2.932961464,19.24964333,-137.6952972,-2.667763472,0.099691525,8.67656517,3.575299263,-4.407108784,1.09824872
7.224710999999957,-2.962520838,19.22351456,-137.7075958,-3.033493042,-0.502503514,8.965654373,-1.623276591,-4.19673872,-1.857493281
7.23304399999995,-2.965755224,19.23252869,-137.7018738,-4.730453968,-1.1903404,10.69964409,0.802532375,-0.135473698,0.408201307
7.241376999999943,-2.953462601,19.17323685,-137.7102661,-3.008926153,0.220195726,10.33731556,3.238266468,-8.194941521,-1.604398727
7.249709999999936,-2.953412533,19.13225746,-137.684082,-1.833333135,-0.302768528,7.641805649,0.421136409,-6.199771404,2.38380146
7.25804299999993,-2.969830275,19.13548088,-137.6928406,-3.619395256,-0.845809042,7.347757816,-0.208858475,-0.745425522,-1.269518375
7.266375999999923,-2.950906277,19.10358238,-137.6604462,-2.915907383,0.513623476,6.476425171,2.413027287,-5.195821762,3.176715612
7.274708999999916,-2.956897259,19.06747437,-137.65979,-2.736507893,-0.49005729,7.757083893,0.673744023,-5.471943855,-0.398634315
7.283041999999909,-2.980900288,19.08820724,-137.6349487,-4.145719051,-1.162634969,8.508415222,-2.437655449,1.155650258,2.64552784
7.291374999999903,-3.020492554,19.09114647,-137.6508026,-4.185473442,-0.773137927,11.7248745,-2.703710794,-0.692839503,-2.046654224
7.299707999999896,-3.023034811,19.03120613,-137.6150513,-3.379723549,-0.859309196,9.650094032,-0.270050943,-8.535970688,3.369514942
7.308040999999889,-3.07105279,19.07261086,-137.6502991,-4.009516239,-0.65403372,9.210245132,-2.965513706,3.990607977,-4.024252415
7.316373999999996,-3.099257469,19.10800743,-137.60289,-1.862043738,0.245076299,8.178931236,-3.828866959,2.770192146,5.302953243
7.324706999999989,-3.083921432,19.10306358,-137.6256561,-4.423632622,0.189920008,8.016932487,4.165527344,-1.594050646,-2.893742561
7.333039999999983,-3.061395407,19.10090637,-137.5937195,-0.852668822,1.03401494,6.758940697,2.865349531,-1.635802031,3.307220459
7.341372999999976,-3.08429265,19.12814903,-137.5854187,-3.529999256,-0.456545502,9.329893112,-1.636467934,2.073613167,0.810549676
7.349705999999969,-3.082577229,19.12403107,-137.5832367,-3.922691822,-1.398013949,13.07686329,1.544141173,-1.647353649,-0.056172017
7.3580389999999625,-3.051637173,19.10536575,-137.5765686,-4.391050816,-0.964484632,9.693762779,4.867921352,-3.45976615,0.340246737
7.366371999999956,-3.058555603,19.11636162,-137.5755768,-2.058252096,-0.12925902,8.002429008,0.546671808,0.128468186,-0.110679105
7.374704999999949,-3.087450504,19.17428017,-137.5861511,-4.630250454,-0.633476079,6.743133068,-1.616719484,5.863521576,-1.123696566
7.383037999999942,-3.042843342,19.19339371,-137.5843048,-2.263356447,0.482106149,7.211019039,6.695343018,1.095917821,0.037563272
7.3913709999999355,-3.004957676,19.18386459,-137.5825806,-1.642311096,0.91871196,6.476853848,5.901123047,-2.294164419,-0.129198194
7.399703999999929,-3.003271341,19.21211052,-137.5791931,-3.289635181,-0.631693542,9.979028702,1.487456918,2.221791506,0.304847807
7.408036999999922,-3.005580902,19.22708893,-137.5849152,-3.649201632,-1.93302691,12.12546635,1.36527729,0.644415736,-0.848702133
7.416369999999915,-2.972578049,19.17022133,-137.5726929,-4.448808193,-0.932773054,9.504993439,4.894638062,-8.070996284,0.733322918
7.424702999999909,-2.96982646,19.19179344,-137.591156,-3.283919096,-0.009528462,5.846544743,2.491483688,1.554233193,-2.254282713
7.433035999999902,-2.974439621,19.20381737,-137.5694885,-0.646002173,0.761600673,8.342246056,0.007466549,0.130952775,2.232190847
7.441368999999895,-2.933481693,19.19659996,-137.5796661,-4.434370041,-0.051496506,9.06439209,6.767473698,-1.945888042,-1.545716643
7.449702000000002,-2.880375624,19.14611053,-137.5811615,-0.700250506,-0.002990848,8.992999077,7.867066383,-7.184408665,-0.782924771
7.458034999999995,-2.870345116,19.12732315,-137.5664215,-4.699104786,-0.271843255,9.92300415,2.039213419,-3.518217802,1.260796666
7.466367999999989,-2.897167683,19.14937019,-137.6038208,-3.599811316,-2.511417866,10.72112846,-0.330372393,1.672494411,-4.397170544
7.474700999999982,-2.837585926,19.15897751,-137.5834808,-4.599358559,-0.012508159,7.584125042,7.804005146,-0.100868873,1.993466496
7.483033999999975,-2.767265797,19.13790321,-137.5977783,-1.762401938,1.278373003,4.325337887,10.41827011,-3.629870415,-2.037202835
7.491366999999968,-2.733301163,19.15081406,-137.5759735,-2.095077038,1.191932201,7.530255318,4.666106701,0.289197505,2.199558496
7.499699999999962,-2.707034349,19.14138412,-137.5785065,-2.511787415,-2.551470995,13.37346554,4.680066586,-2.259866953,-0.628317237
7.508032999999955,-2.636436224,19.10753632,-137.5570526,-4.474453926,-0.089158982,11.05649853,9.043862343,-5.354989529,1.946105719
7.516365999999948,-2.593541861,19.10943604,-137.5684052,-4.446504593,-0.739324987,6.117571354,7.010501385,-0.896011651,-1.573021531
7.524698999999941,-2.582779408,19.15764236,-137.5459442,-2.201569796,-0.45854798,6.816460609,1.84313643,4.523640633,2.496760607
7.533031999999935,-2.548106432,19.17877197,-137.5580139,-4.256821156,-0.685872912,8.944229126,6.052015781,1.410793543,-1.548841357
7.541364999999928,-2.495775461,19.17839432,-137.561615,-0.990184546,-0.41530323,8.12293148,7.868629932,-1.167266488,-0.747269809
7.549697999999921,-2.474174261,19.14211845,-137.543869,-3.312630415,0.529899478,8.681674004,3.323588133,-5.57811451,1.524520874
7.5580309999999145,-2.501984358,19.17842484,-137.5704956,-3.421994209,-0.947478831,9.478862762,-0.871012151,3.299254417,-3.122862101
7.566363999999908,-2.465582132,19.19334412,-137.5526733,-4.923888206,-2.070745707,6.240912914,5.081236362,0.517676413,1.800514102
7.574696999999901,-2.423359394,19.20071411,-137.5589905,-2.946048021,0.849520147,7.158067226,6.747544765,-0.228811979,-0.969114542
7.583029999999894,-2.413909912,19.19928741,-137.5525055,-2.68712163,0.457591712,9.156295776,2.293434858,-1.384859324,0.432124943
7.591363000000001,-2.409216166,19.20362663,-137.5542755,-1.711956263,-2.125888109,11.27650833,2.065519094,-0.617226243,-0.476706505
7.5996959999999945,-2.354069471,19.11444855,-137.5545959,-3.73588109,0.31081149,7.194552898,8.056330681,-11.83508396,-0.762202859
7.608028999999988,-2.327921629,19.10530663,-137.5651398,-2.706460238,0.598967552,6.484932423,4.968610287,-2.231050968,-1.533268094
7.616361999999981,-2.345621824,19.08986282,-137.5688019,-2.774775267,-0.980164051,7.839131355,-0.563974261,-3.016947031,-0.786587596
7.624694999999974,-2.329256296,19.06808662,-137.5874329,-4.978861809,-1.800117731,10.03262329,4.130001068,-3.669854164,-2.527330875
7.6330279999999675,-2.312529087,18.97870064,-137.6017761,-2.292478085,-1.062590718,8.848684311,3.984025955,-11.83498287,-2.356023312
7.641360999999961,-2.348337412,18.95888901,-137.6165771,-2.6217103,-0.480397105,10.39788437,-2.298647165,-3.456154346,-2.032592058
