time,Euler_X,Euler_Y,Euler_Z,Acc_X,Acc_Y,Acc_Z,Gyr_X,Gyr_Y,Gyr_Z
0,-9.083976984,9.468184472,-65.964365,-0.191845587,-1.784996301,15.63460875,7.910153866,-11.5715816,1.142952189
0.008333,-8.984411717,9.348981738,-65.93124198,-0.692032773,-0.642672505,15.01434517,10.59788251,-15.21030331,1.252065741
0.016666,-8.879096031,9.215763927,-65.90295223,-0.911105968,-0.978444338,14.16899204,11.39488077,-16.78014731,0.482642793
0.024999,-8.769664764,9.080118061,-65.87763978,-1.802030206,-1.499513417,15.78402353,11.94969249,-17.01424217,0.090379834
0.033332,-8.677454948,8.937591911,-65.8540802,-1.139220551,-2.775323182,14.86232853,9.917092324,-17.79709673,-0.185949813
0.041665,-8.581706524,8.787846088,-65.82540893,-1.218593344,-1.828451812,15.08410358,10.25238657,-18.74452639,0.284494214
0.049998,-8.465670228,8.628211975,-65.79136085,-1.262059979,-1.112406908,15.1767714,12.59874868,-20.01153803,0.795805887
0.058331,-8.341639996,8.466493607,-65.7564087,-0.582645457,-1.80157727,15.37789226,13.55852699,-20.27203512,0.889624473
0.066664,-8.208181382,8.312556148,-65.72148133,-1.861895278,-0.213259793,17.22400808,14.69078708,-19.34829617,1.128304332
0.074997,-8.092041731,8.153076768,-65.6875019,-0.856460933,-1.353702605,16.63911033,12.64632082,-19.98759317,0.907483975
0.08333,-7.987807035,7.994175434,-65.63939285,-1.756837428,-2.154541984,15.37521529,10.99993324,-20.14916325,2.659389555
0.091663,-7.880766988,7.823047519,-65.58669473,-1.229589038,-1.703516007,13.80479002,11.27931762,-21.66889858,2.99795568
0.099996,-7.770920277,7.671075106,-65.54604723,-2.318297103,-1.694519728,13.83493758,11.80532551,-19.20245695,2.01650092
0.108329,-7.662823677,7.515086413,-65.50425148,-1.329506192,-1.812965095,15.69116187,11.61630416,-19.68267155,2.044311464
0.116662,-7.576016903,7.381338597,-65.46242333,-1.59373774,-2.239124358,14.82391811,9.033269167,-17.04468083,2.504781515
0.124995,-7.498996496,7.251581669,-65.41625595,-1.932536453,-1.434295893,14.17161703,7.856775045,-16.62363386,3.035809755
0.133328,-7.421426416,7.135150075,-65.3853474,-2.119962074,-1.670980409,12.21056986,8.107394338,-14.80284858,1.475959927
0.141661,-7.342218399,7.043936014,-65.35692215,-0.995263383,-1.721811086,11.31473756,8.421266914,-11.75125837,1.586155388
0.149994,-7.262843847,6.932266355,-65.34711838,-0.63244706,-1.74861984,10.80309439,8.644252419,-13.91244769,-0.90291164
0.158327,-7.205792189,6.857534409,-65.3447647,-2.624480165,-0.89739079,12.27664876,6.149623096,-9.386840702,-1.258904621
0.16666,-7.168164373,6.795644999,-65.3674164,-0.999977589,-2.17205444,9.652349949,4.104761422,-7.502944231,-3.966899246
0.174993,-7.169476509,6.738822937,-65.37961578,-1.750570908,-2.450883478,8.459346295,-0.67017737,-7.04542923,-2.694838554
0.183326,-7.191762328,6.680102348,-65.39991383,-0.805179574,-2.383235812,5.21025306,-3.120146938,-7.168685079,-3.571626604
0.191659,-7.231752634,6.673966408,-65.41420365,-2.639442563,-2.100254938,8.274973871,-5.290467024,-0.981271781,-2.183427796
0.199992,-7.312161088,6.651546597,-65.41559983,0.208859384,-2.445343942,5.837121517,-10.34197903,-3.118338213,-0.84387389
0.208325,-7.450320125,6.698269367,-65.40383913,-2.933778227,-1.368536726,8.011608601,-17.44516278,4.913244128,1.701134682
0.216658,-7.609338284,6.747873545,-65.38248823,-1.456945628,-2.422851026,3.317322299,-20.11167812,5.087501347,3.00911662
0.224991,-7.784810662,6.822430492,-65.3528881,-0.069573566,-0.999763817,5.272078931,-22.14011335,7.933421256,4.310624927
0.233324,-8.006866694,6.917961836,-65.3294735,-1.941414224,-2.229080439,4.253503919,-27.72724581,10.49899816,3.975412071
0.241657,-8.218324542,7.074579477,-65.31206515,-0.318728983,-0.753178082,3.886776656,-26.29964066,17.85334039,4.329318464
0.24999,-8.426784754,7.141868711,-65.28746988,-1.857282788,-1.640405148,4.368782967,-26.12112665,7.090684533,3.70908469
0.258323,-8.610926986,7.284924388,-65.26483343,0.723887861,0.495937616,6.880063414,-23.09498835,16.11936975,4.820256114
0.266656,-8.845668316,7.369674921,-65.2532692,-1.160741507,-0.548923329,5.848654598,-29.09583426,9.371293304,2.530570205
0.274989,-9.053764105,7.454583883,-65.23498725,1.482133176,-0.765992515,4.562373931,-25.92536163,9.260330201,3.374169022
0.283322,-9.223135471,7.538796187,-65.23204233,-1.730650442,-0.652393723,4.447115958,-21.11281872,9.452765227,1.575260275
0.291655,-9.360143662,7.566112161,-65.21151733,1.150738001,0.227876762,5.320972026,-17.42258072,2.379316434,2.558382273
0.299988,-9.464245796,7.562438608,-65.20086098,-1.319690913,0.034547579,5.426765561,-13.4226284,-1.117433295,0.797221124
0.308321,-9.547966481,7.560200095,-65.1812973,2.229439095,0.834111489,5.829575658,-10.97905338,-1.100973517,1.865443438
0.316654,-9.601976872,7.540683985,-65.18098068,-2.138843447,-0.473123446,5.492632866,-7.293573976,-2.798665822,-0.732372045
0.324987,-9.607149601,7.465240479,-65.1495037,0.391782642,-0.144575555,3.097896606,-1.702927589,-9.997327209,1.799944401
0.33332,-9.566253424,7.372183442,-65.14683343,-0.125431702,-0.247425955,4.543721318,4.047988504,-11.5517537,-1.929347247
0.341653,-9.512855053,7.275800467,-65.11140443,-0.774777308,0.765141863,4.741897911,5.287000538,-12.54658842,1.856656939
0.349986,-9.452995062,7.173554897,-65.1185341,0.753513709,-0.746261574,4.349704445,6.479611993,-12.44949055,-3.240424752
0.358319,-9.339306593,7.072645545,-65.09119605,-2.786916435,-0.581455022,2.070316211,12.620996,-12.92426205,0.84071994
0.366652,-9.186979294,6.950470567,-65.09954453,1.648827933,-0.24754706,3.700530909,17.63530088,-14.79247117,-3.715055228
0.374985,-9.01413393,6.830837608,-65.0714512,-3.084358186,-0.039665006,5.537022352,19.68612599,-15.15870953,0.634188115
0.383318,-8.850638151,6.719952583,-65.07472038,1.652990848,0.439955764,7.003393069,18.93903184,-13.55436587,-2.819794297
0.391651,-8.692261457,6.616034746,-65.05354308,-2.83267948,-0.728807151,3.944069691,18.02031684,-13.17440939,0.187579066
0.399984,-8.531296849,6.509408951,-65.05190088,1.167141915,-1.305118486,2.000164681,18.59536457,-13.14576006,-2.091673076
0.408317,-8.335620642,6.416971803,-65.03580665,-2.173730731,-0.763572247,0.906948907,22.54944086,-11.72029328,-0.139580827
0.41665,-8.135399819,6.294793129,-65.0239296,0.95553381,-0.426636532,3.826890379,23.19921351,-15.17730391,-1.065055945
0.424983,-7.930027604,6.21682787,-65.0055218,-1.955591127,-1.267731555,4.398415506,23.65998173,-10.04252076,0.455904305
0.433316,-7.753256798,6.118301988,-64.98335648,0.54154642,0.747617763,4.914116979,20.29994297,-12.52851576,0.653817177
0.441649,-7.583949328,6.060249925,-64.96665955,-1.686753288,-2.11726892,3.108187825,19.33110285,-7.646890046,0.617973253
0.449982,-7.400926948,5.983780503,-64.93616678,0.253950134,0.381578043,4.024563134,20.95932531,-10.02505147,2.046959281
0.458315,-7.234648824,5.939714909,-64.91908263,-1.072486719,-1.734885961,1.92761901,18.9397583,-5.984496892,0.920567214
0.466648,-7.05475688,5.876847387,-64.881176,-0.710515082,-0.999453336,2.995314777,20.51724005,-8.498688936,3.182360083
0.474981,-6.886973977,5.834197641,-64.8633423,-0.026139766,-0.097960226,3.540338501,19.10621929,-5.821954669,1.067451716
0.483314,-6.739344955,5.806034207,-64.82135393,-1.977236152,-1.025150076,2.998800986,16.62789869,-4.397120357,4.221237062
0.491647,-6.598673582,5.779350281,-64.80880548,0.427185655,-1.67766428,2.221734792,15.91946197,-3.835035025,0.688011289
0.49998,-6.449945093,5.772036314,-64.76747323,-2.141309738,0.301366128,3.634874225,16.74735975,-1.885941595,4.437408456
0.508313,-6.303048134,5.756439328,-64.7552414,1.028504074,-1.124109238,3.143888504,16.6912694,-2.500161028,0.815211654
0.516646,-6.157406688,5.763934135,-64.71818925,-2.574001402,-1.152387351,4.515787244,16.41643668,-0.042795017,4.152942911
0.524979,-6.028504491,5.761305571,-64.70562935,1.633348391,-0.718593761,3.210100785,14.55018521,-0.948472858,1.033128023
0.533312,-5.91546011,5.768498659,-64.67313578,-1.64040193,0.023689749,3.152561396,12.5190835,-0.006999031,3.592909157
0.541645,-5.805252552,5.765096665,-64.65960503,0.955389246,-1.810911469,1.92208016,12.30759406,-1.043572163,1.137397006
0.549978,-5.678373694,5.775392294,-64.6333809,-2.642822698,0.044451548,2.732129425,14.27031589,0.459384821,2.862813711
0.558311,-5.547498107,5.78258729,-64.6254864,2.131369665,0.205576498,4.518422961,14.88931227,0.298761368,0.591099888
0.566644,-5.423605681,5.783121467,-64.59775163,-1.97872822,-1.627527475,3.35155882,13.8448844,-0.718962841,2.948013306
0.574977,-5.312720895,5.777474046,-64.5898285,2.104896844,-0.355706014,2.344181791,12.49139404,-1.229384065,0.430780195
0.58331,-5.204512954,5.764033318,-64.56773568,-3.079214037,-0.607607365,2.418773174,12.02447963,-2.316237748,2.142637521
0.591643,-5.094755888,5.766151667,-64.5541668,2.484087571,-0.31860055,3.671848774,12.34347272,-0.349925749,1.183320105
0.599976,-4.97198689,5.750232577,-64.53769493,-2.120245084,-0.909863122,3.990676463,13.77489639,-2.554213598,1.440122247
0.608309,-4.875234127,5.740460515,-64.51506615,0.952411384,-0.81186223,2.980289653,10.70101726,-1.852943838,2.131373361
0.616642,-4.802363992,5.720465899,-64.5078087,-1.147053763,-1.735453993,2.484992296,7.90112412,-2.939403564,0.273639977
0.624975,-4.731471419,5.708285689,-64.48706818,0.342751473,0.872931034,3.456902176,7.63700974,-2.112307027,1.894656062
0.633308,-4.648258805,5.683549047,-64.48512463,-0.571429379,-2.096605838,4.109000415,9.168972373,-3.464636445,-0.3570593
0.641641,-4.590334296,5.682006121,-64.4663582,-1.203517981,-1.224007443,2.14491564,6.130149722,-0.809733436,1.779039592
0.649974,-4.563947499,5.660103321,-64.4763069,0.575933337,0.329179436,3.024279982,2.503083855,-3.014267296,-1.720783562
0.658307,-4.535171807,5.678435684,-64.45672418,-1.622296147,-1.580191821,3.631042184,2.598778665,1.561914623,2.051021874
0.66664,-4.499384463,5.67052424,-64.47060395,1.24004788,-1.473755985,4.674475491,3.67716369,-1.307203412,-2.058090926
0.674973,-4.524196148,5.694599748,-64.45901683,-3.524011046,-0.499674179,2.547978223,-3.740248158,2.327354238,1.163526416
0.683306,-4.573405505,5.7159127,-64.47353553,2.712074645,-1.751571648,3.105063856,-6.475851596,2.20537582,-1.926862836
0.691639,-4.600931287,5.757525325,-64.46193503,-3.62661542,0.108240418,5.209204659,-4.107560039,4.417425394,1.325562179
0.699972,-4.639172554,5.791167736,-64.469841,2.82582128,-0.759387873,7.048115373,-5.211616636,3.621267162,-1.011947662
0.708305,-4.697367907,5.838923693,-64.46134188,-3.618547753,-2.11490342,4.534738056,-7.794082999,5.172849804,1.022485153
0.716638,-4.779325843,5.869732499,-64.4572773,3.496173501,1.196958095,4.369037003,-10.54532814,3.177059025,0.388984144
0.724971,-4.841104507,5.887615204,-64.45332908,-2.913493008,-1.907920897,5.344514251,-8.223524511,1.627246946,0.264352083
0.733304,-4.864833117,5.891319037,-64.43886755,2.405920148,0.452620383,6.601191402,-3.653662622,-0.16569525,1.386005282
0.741637,-4.895953655,5.878037334,-64.4326725,-2.073723197,0.003859088,5.952836573,-4.588201642,-2.122059464,0.148409396
0.74997,-4.912955523,5.873473883,-64.4189625,0.775676066,-0.156347703,7.095043302,-2.811476052,-1.146935016,1.286852955
0.758303,-4.90591538,5.823941589,-64.42083548,-0.567514524,-0.015504435,5.516466618,0.059376911,-6.385686995,-1.120343789
0.766636,-4.872825742,5.756832719,-64.40255738,0.133633435,0.856251396,6.866397858,3.161207229,-8.660318785,1.103249744
0.774969,-4.811071515,5.708641768,-64.41042903,0.217573702,-1.298992336,6.295145989,6.686043084,-6.168142558,-1.813228607
0.783302,-4.739264965,5.609806418,-64.39125635,-0.837024212,0.98830037,7.271195174,7.80276966,-12.46905827,1.012102246
0.791635,-4.626565218,5.56291759,-64.40421678,0.599097609,-1.665270247,6.614195465,12.84918499,-5.966728806,-2.393599391
0.799968,-4.491545856,5.453834176,-64.38525393,-3.013384223,-0.564785689,8.592966199,15.41206455,-13.68157768,0.93952775
0.808301,-4.346182167,5.33961904,-64.40804863,2.787105799,1.019454509,10.46047253,16.86956048,-13.94644213,-4.153494694
0.816634,-4.253196895,5.237513959,-64.39417838,-3.683973134,-1.000391797,11.0258739,10.41810191,-12.79473185,0.449732841
0.824967,-4.137737453,5.140609443,-64.41817283,3.061239898,-2.090590808,7.518915474,13.30666447,-11.87585342,-4.091328739
0.8333,-3.97676456,4.961160302,-64.39762498,-3.840551399,-0.439735353,6.851312219,18.47822952,-22.11175919,0.640220403
0.841633,-3.809095144,4.825313568,-64.40467073,3.197615802,-0.496814325,14.23901749,19.43286347,-16.68706799,-2.330421209
0.849966,-3.667121887,4.628282845,-64.37807273,-3.089235477,-1.391559586,11.20312238,16.10930252,-24.26676416,1.346994281
0.858299,-3.533666909,4.433365881,-64.35902978,3.155358553,0.474363497,13.75592303,15.11363769,-23.95798922,0.417039171
0.866632,-3.423156321,4.271282613,-64.32287408,-4.423334331,-3.025979549,8.978292943,12.2088871,-20.14993525,2.840310125
0.874965,-3.274648011,3.970362783,-64.27916145,2.868446216,-0.581508916,12.8981272,16.79080439,-36.81982041,2.732401967
0.883298,-3.109086037,3.865637481,-64.242054,-5.545733452,-1.136332661,11.81470426,18.81651855,-13.26957393,3.421015731
0.891631,-3.014684379,3.556462526,-64.19491193,5.392282993,-1.080828309,12.89294994,10.32134414,-37.81159306,3.309499026
0.899964,-2.883737743,3.357496143,-64.1639061,-6.891371131,-1.44867052,15.06012041,14.7159133,-24.5145669,2.136956304
0.908297,-2.739394486,3.222355604,-64.12957193,1.240950167,-1.273620978,12.77421355,16.4604373,-16.8579638,2.959650338
0.91663,-2.647402704,2.959871739,-64.10014725,-2.867565692,-1.945861995,15.37840319,10.05637979,-32.11107683,1.713283897
0.924963,-2.547627151,2.832253009,-64.0613594,-0.673770756,-0.823572293,14.68884611,11.13607836,-15.96300077,3.561637491
0.933296,-2.445162475,2.673500002,-64.04529763,-2.384191081,-1.869263023,13.32274866,11.4141916,-19.60102272,0.755245209
0.941629,-2.40129137,2.54564035,-64.01400185,-0.863594487,-2.017394543,14.86324692,4.479908526,-15.94183397,2.736328036
0.949962,-2.362717182,2.39218171,-64.00893023,-1.541073859,-1.867806495,14.55758834,3.823310062,-18.90705109,-0.493093074
0.958295,-2.348312885,2.2703733,-63.98048593,-1.671078101,-2.090158373,15.11277437,0.979808778,-15.20046139,2.42980206
0.966628,-2.318630874,2.183212146,-63.98152348,-2.017524763,-2.085654974,13.34721446,2.764503047,-10.93123889,-0.896776915
0.974961,-2.29810828,2.102829829,-63.95534898,-1.614993602,-0.570597941,13.54266548,1.739683707,-10.21869111,2.383238345
0.983294,-2.300486356,2.022857577,-63.97123145,-1.434093058,-3.846436024,14.13700271,-1.006466538,-9.998859645,-2.630674988
0.991627,-2.288600624,1.998751789,-63.9593258,-2.605658949,0.269343056,19.15425301,0.775259555,-3.398035467,0.948997677
0.99996,-2.356759101,1.970109984,-63.98886873,-1.960966229,-2.162973732,16.74028564,-8.869755268,-3.782210976,-4.036093161
1.008293,-2.397477508,2.015070081,-63.98367118,-3.409858838,-2.378341314,13.62821102,-5.5023579,4.914286852,0.475185693
1.016626,-2.463429451,2.05562374,-64.01416398,-0.177556426,-1.751539901,13.16666365,-8.572640537,4.527351812,-3.802829921
1.024959,-2.535700977,2.112970472,-64.02659033,-1.826782048,-1.880174786,13.78450251,-9.233379244,6.489505172,-1.541704834
1.033292,-2.639521837,2.206707343,-64.0669022,-1.649576783,-2.055713058,15.98555183,-13.06917715,10.96307135,-4.666588128
1.041625,-2.774102867,2.286097691,-64.0873413,-1.85721539,-1.920237422,14.90383959,-16.66509152,9.183362484,-2.352268041
1.049958,-2.91802764,2.433770388,-64.12981223,-1.7877924,-1.503620118,15.98706436,-17.8309021,17.46164728,-4.567040026
1.058291,-3.075077236,2.561712444,-64.15041733,-1.848393157,-2.856726646,12.65114379,-19.39104152,15.00542235,-2.026388023
1.066624,-3.239438534,2.758710951,-64.19618798,-1.586524541,-0.656480603,15.43624425,-20.21057129,23.42081976,-4.53267704
1.074957,-3.418073654,2.945971787,-64.23346898,-1.824180812,-1.643269807,14.8052628,-21.88671065,22.23164415,-3.516779721
1.08329,-3.621527195,3.166985094,-64.2751198,-1.225727882,-3.00217548,13.79666841,-24.878788,26.29504633,-3.707094967
1.091623,-3.811589659,3.385782898,-64.3101635,-3.121863633,-0.912744858,14.38472176,-23.24043226,26.01465607,-2.836703569
1.099956,-4.041894436,3.624964714,-64.36295508,-1.274311297,-2.6743761,15.94266558,-27.9644742,28.58639574,-4.70869416
1.108289,-4.251663685,3.956520856,-64.41696165,-4.029702604,-1.126836211,15.73386502,-25.44150162,39.6853466,-3.930796914
1.116622,-4.502006293,4.183653355,-64.47003938,0.050829351,-0.176007207,16.22748447,-30.28120994,27.18290854,-4.608279407
1.124955,-4.729749799,4.594770312,-64.5334015,-5.118151486,-3.103376567,15.49211931,-27.4723835,49.31445789,-3.970015586
1.133288,-4.969859004,4.859343291,-64.57801628,3.331501482,-1.016427249,12.7466991,-29.05187559,31.60720158,-2.954004839
1.141621,-5.232680321,5.205088139,-64.64100455,-5.049266994,-0.27281192,15.94245839,-31.61003542,41.52819014,-4.21407938
1.149954,-5.470388174,5.592047095,-64.70243643,1.57201606,-1.281494111,14.0309968,-28.50007105,46.43809986,-3.30218944
1.158287,-5.713656187,5.873740435,-64.76234818,-1.492288679,-2.542732999,12.71993542,-29.21798754,33.86843968,-4.190204621
1.16662,-5.960457087,6.205722451,-64.81534955,-0.46892941,0.007565424,14.68205762,-29.59912682,39.8016882,-2.618394294
1.174953,-6.198491335,6.540982843,-64.87305068,-1.745767817,-3.652188629,13.65192986,-28.55201531,40.2630167,-2.970767498
1.183286,-6.407733321,6.829408646,-64.91134455,0.621419445,-0.263494324,15.30146074,-25.21453381,34.43500519,-1.098807454
1.191619,-6.63367641,7.131055117,-64.97361755,-2.209975124,0.543627739,15.73978949,-26.9740057,36.33008862,-3.639933348
1.199952,-6.835923076,7.373572946,-65.01396943,0.647414666,-2.986480147,15.12013388,-24.30412865,28.99297285,-1.691723228
1.208285,-6.980373264,7.66644752,-65.07102395,-3.706477597,0.459786937,17.25679827,-17.20706797,35.22960949,-2.913494885
1.216618,-7.13451767,7.917086959,-65.11009978,0.544144631,-0.309304949,15.21208477,-18.49274683,29.9569211,-1.272500992
1.224951,-7.273330093,8.153040767,-65.15551568,-1.859502941,-3.09566223,15.96701813,-16.68853045,28.28208161,-2.200348616
1.233284,-7.399535776,8.343188047,-65.16786768,0.701606006,0.783674091,15.24098778,-15.53769088,22.36234713,1.114421725
1.241617,-7.516104221,8.518317938,-65.20215798,-0.987190783,-0.585161198,15.36495256,-14.18024683,20.87918997,-1.703101844
1.24995,-7.608545065,8.650911808,-65.20018578,-0.476719283,-2.463099331,14.52734804,-11.73352671,15.28838658,1.981267512
1.258283,-7.700728655,8.796700716,-65.23167803,-0.568711132,-1.520994922,14.91528178,-11.28484917,17.34989238,-1.773499228
1.266616,-7.795797825,8.916262509,-65.2257576,-1.643203676,0.172827356,16.95766854,-12.13247204,13.67233586,2.247191936
1.274949,-7.897656203,9.025526762,-65.24398613,-0.143817905,-3.12801826,15.57743168,-12.66766763,12.79507923,-0.717029482
1.283282,-7.97241199,9.089855672,-65.23084448,-2.962687016,-0.077453777,14.91472554,-9.849612474,6.974228382,2.251888633
1.291615,-8.04539597,9.143423081,-65.24037553,0.370816142,-1.04981932,15.6299684,-9.341259479,6.040115476,-0.613736324
1.299948,-8.10698545,9.172320844,-65.22605323,-2.793429375,-2.601569176,14.74246097,-8.312386155,2.737595082,1.813731432
1.308281,-8.16622901,9.18366778,-65.22760585,0.738701973,-0.289018616,17.08361507,-7.832798243,0.892150223,-0.376862168
1.316614,-8.243199229,9.173725963,-65.2053051,-1.671277136,-1.296578154,14.95470834,-10.33440065,-2.016765922,2.085933864
1.324947,-8.299060345,9.122593999,-65.19390295,1.097596635,-1.475796968,13.68247056,-7.642913938,-6.744808197,0.07608074
1.33328,-8.345663548,9.066792965,-65.1735878,-1.677177459,-1.492954433,13.86527348,-6.68013227,-7.437487722,1.049652383
1.341613,-8.379108906,9.003777623,-65.1559677,1.385037765,-0.782857342,15.09994316,-5.039719612,-8.259621262,0.587686598
1.349946,-8.400598526,8.926488161,-65.12618068,-2.292840853,-1.042181276,17.17898703,-3.859204181,-10.15735483,1.76927118
1.358279,-8.415545583,8.847555995,-65.10345268,-0.147045031,-1.097962618,16.52567005,-2.891626462,-10.2306788,0.904512286
1.366612,-8.407867909,8.738905668,-65.0752144,-3.340454057,-0.545624904,16.47860766,-0.331957296,-13.85758615,1.040895477
1.374945,-8.383688808,8.625281573,-65.04409025,-0.403339304,-1.015154235,14.96420837,1.684469238,-14.49279595,1.293877602
1.383278,-8.336822152,8.496863365,-65.0202637,-2.493285269,-1.167128504,14.96921492,4.443696365,-16.1344707,0.20236218
1.391611,-8.288589001,8.369569421,-64.9846115,-0.591834195,-0.771452129,15.93353129,4.512182281,-16.18808818,1.611993701
1.399944,-8.232718587,8.24064517,-64.9605732,-2.019469839,-2.278035849,14.85043526,5.524838209,-16.20326853,0.278708577
1.408277,-8.168585062,8.098198295,-64.92013743,-0.826323968,-0.96609515,15.19290686,6.355866671,-18.06451559,1.947626978
1.41661,-8.098961473,7.954229713,-64.88496588,-0.612669215,-1.951223165,15.15931916,7.005597949,-18.17036629,1.33634013
1.424943,-8.011064053,7.814255715,-64.83667758,-1.472666737,-0.134453602,16.45484638,9.108483553,-17.89679527,2.961599078
1.433276,-7.925723195,7.665660024,-64.8116932,-1.233371634,-0.296056073,16.25129104,9.069558621,-18.55190134,0.120441675
1.441609,-7.851684451,7.518895746,-64.76836208,-1.585348785,-2.103707373,14.21964335,7.555238247,-18.61187601,2.320352868
1.449942,-7.768836379,7.365974307,-64.73739243,-0.918904934,-2.027329892,14.15106249,8.701110482,-19.16710329,0.860270441
1.458275,-7.684684158,7.217084766,-64.6900749,-2.060914308,-1.535277441,14.02589393,8.724746822,-18.92077875,2.80858919
1.466608,-7.587056279,7.074891687,-64.6597538,-1.830132559,-0.883717314,15.93665672,10.51077294,-17.86977053,0.96673286
1.474941,-7.495925308,6.937636852,-64.61362075,-2.164595276,-2.110402853,16.39548397,9.59810865,-17.51061106,2.912218094
1.483274,-7.417811752,6.793361068,-64.58252145,-1.564830274,-1.652739137,15.57666612,8.179111124,-18.12617159,1.07414937
1.491607,-7.332447052,6.654261828,-64.53061485,-1.426076911,-0.534115635,15.44463444,8.844348789,-17.80955172,3.622891635
1.49994,-7.237013698,6.51966703,-64.49345208,-0.272892676,-1.608807296,14.75177956,10.20282578,-17.06610394,2.055773795
1.508273,-7.166341066,6.395940185,-64.45083808,-2.498458356,-1.69489415,14.89941502,7.222985506,-15.83046508,2.806671083
1.516606,-7.109588981,6.281189561,-64.42136385,0.003562312,-2.46699214,13.60266304,5.683399677,-14.58085132,1.484774437
1.524939,-7.03164947,6.175201416,-64.3743019,-2.934148193,-0.887324609,16.0112691,8.064172745,-13.77722478,3.630959496
1.533272,-6.96893096,6.068566442,-64.3428688,-0.250631388,-1.600610241,15.95926762,6.403761864,-13.63838172,1.876723468
1.541605,-6.920336008,5.975384713,-64.30394935,-3.654038727,-1.952802092,15.00860548,4.646346211,-12.12626767,2.884064068
1.549938,-6.873089671,5.885814786,-64.27186203,-0.949231476,-0.582122021,15.67252803,4.563138128,-11.61014009,2.232213557
1.558271,-6.828405142,5.800718785,-64.23996545,-2.642270327,-2.301053375,13.57819438,4.267313004,-11.05887079,2.189194486
1.566604,-6.799846172,5.719447971,-64.21784975,-0.810039913,-2.039611608,12.98603988,2.458416074,-10.4740777,1.180518538
1.574937,-6.764509082,5.646829248,-64.19175913,-1.587490708,-1.964372039,13.11470103,3.216728747,-9.491122008,1.685957879
1.58327,-6.704653025,5.603660107,-64.1691189,-1.568453908,-0.425075559,15.84688735,6.216085077,-5.938388705,1.787515089
1.591603,-6.659671545,5.56908226,-64.14497758,-2.054853529,-1.410730392,16.17360544,4.392437935,-4.926469565,1.999171913
1.599936,-6.633298874,5.543281436,-64.11470413,-1.077218518,-1.964866191,14.80734015,2.123202428,-3.969072878,2.946527064
1.608269,-6.598579049,5.514347911,-64.08984948,-1.419300482,-1.544767693,13.91987944,3.165813685,-4.260021865,2.176841676
1.616602,-6.567241907,5.488229394,-64.07523348,-1.141899146,-0.45616135,12.75558591,2.899586141,-3.776572585,0.993208036
1.624935,-6.539213181,5.478281021,-64.07633973,-2.170938522,-2.332927436,13.24334169,2.673110932,-1.639362127,-0.642353729
1.633268,-6.522668004,5.506917357,-64.08590318,-2.489345849,-1.853727683,12.81909228,1.387680054,3.07610327,-1.12777558
1.641601,-6.513997317,5.52069664,-64.09895328,-0.965265036,-0.360550839,10.85500944,0.50002186,1.361908872,-1.805127979
1.649934,-6.515076041,5.527519584,-64.1185131,-1.690595075,-2.23449418,9.793578745,-0.604486257,0.612746954,-2.616689444
1.658267,-6.51233995,5.590659738,-64.1439705,-1.090987951,-2.202349581,8.312179088,-0.072513877,7.413348794,-2.600805462
1.6666,-6.554439426,5.590260267,-64.16874503,-0.744780334,-1.765919674,7.739648342,-5.481107056,-0.192356616,-3.227329671
1.674933,-6.618419528,5.677004099,-64.19971085,-2.968506068,-2.83930555,8.343528747,-8.013641715,10.30586648,-2.925296456
1.683266,-6.701460004,5.706756711,-64.2146244,1.342049569,-2.026285261,7.901290118,-10.4780643,3.273790799,-1.623452842
1.691599,-6.855171919,5.800153494,-64.23127558,-4.444003165,-1.977267176,7.023874284,-18.98385763,10.8984139,-1.114687264
1.699932,-7.056422949,5.900916219,-64.23004533,1.422585041,-2.404653579,2.975020826,-24.829247,11.51812077,1.256331354
1.708265,-7.262495279,6.010290623,-64.21883965,-2.361035496,-1.656907357,6.873124958,-25.61941338,12.38668764,2.521140367
1.716598,-7.477340579,6.169703365,-64.20477295,-1.996711552,-1.555128902,3.771149963,-26.61093188,18.28804016,3.839642033
1.724931,-7.719688892,6.259005427,-64.1983471,0.918312296,-1.111296868,5.250706167,-29.92194796,10.04331672,1.757826865
1.733264,-8.013397932,6.406462193,-64.19047545,-1.805012793,-0.548123308,5.373494537,-35.99589729,16.95327044,2.957360446
1.741597,-8.285393953,6.565060735,-64.216444,1.365980357,-1.344513573,3.258687973,-33.05068398,18.79547238,-0.77434516
1.74993,-8.549647093,6.686969161,-64.21408465,-2.842893155,-1.610008262,3.79197225,-32.38636208,13.98497486,2.051632345
1.758263,-8.794355631,6.795739412,-64.23656463,1.521047771,-0.250047134,2.819265708,-29.80454779,12.81868303,-1.089173198
1.766596,-9.040122032,6.890207529,-64.22800255,-1.528846532,0.400288828,5.874970556,-30.27355719,10.59122682,2.399630547
1.774929,-9.294135809,6.986368776,-64.23903845,1.150532812,-0.894954533,5.506565347,-31.06208229,11.11734593,0.133497119
1.783262,-9.553232193,7.070371628,-64.2241669,-1.830139429,0.406296379,3.441557676,-31.99103499,9.198491455,3.044898868
1.791595,-9.790439367,7.132646084,-64.22424698,1.215413749,-1.249281354,0.63370949,-29.19356299,6.887785317,0.841985419
1.799928,-9.963736297,7.194945932,-64.20266153,-1.506007344,-0.44679036,0.546239138,-21.80454111,6.469028354,3.467349172
1.808261,-10.10354042,7.212938309,-64.19369508,1.148736298,0.404131425,3.500003323,-17.62407828,1.461216328,1.023151096
1.816594,-10.22833324,7.258818865,-64.17599873,-1.548279882,0.234070214,4.686305087,-15.94138289,4.587062716,2.688545287
1.824927,-10.35096741,7.257938505,-64.1661606,1.110395104,0.049261987,4.328563362,-15.56231928,-0.783955425,0.732336104
1.83326,-10.43984508,7.274977207,-64.15146255,-1.496351808,0.19296263,2.626073331,-11.6066854,1.228269622,1.730293364
1.841593,-10.48975754,7.264829159,-64.13947488,0.597529765,-0.380169228,1.417286605,-6.856431485,-1.923779696,0.781762481
1.849926,-10.48518753,7.237570762,-64.11531068,-0.725895062,0.424683714,2.548421979,-0.525719449,-4.179718077,1.703746893
1.858259,-10.45512629,7.213684201,-64.0981846,-0.19677788,0.817840047,3.402825951,2.671385437,-3.652846277,1.08246398
1.866592,-10.38243341,7.151840091,-64.0700283,0.320232496,0.050054472,3.006665766,7.569840417,-8.378045679,1.580004562
1.874925,-10.27952099,7.110399604,-64.04420088,-1.08763513,1.143752448,3.509539574,11.29545689,-5.903426342,1.732601464
1.883258,-10.14002514,7.020751238,-64.00836183,1.243004409,-0.428391915,1.71356573,15.50473929,-11.79034781,1.771234531
1.891591,-9.963848589,6.957226157,-63.97872163,-2.022819184,0.555709839,2.686819792,20.03558636,-8.582363368,1.744054624
1.899924,-9.764763117,6.849629998,-63.94527053,1.470053941,-0.37322416,1.721760377,22.68063545,-13.87726712,1.339142009
1.908257,-9.536685467,6.771331906,-63.91162873,-1.918730741,0.491187407,2.760391802,26.21517944,-10.39415896,1.970830918
1.91659,-9.299459457,6.658014417,-63.88249208,0.917187855,-0.188875102,2.199454265,27.33883286,-14.45419598,0.822272412
1.924923,-9.032694101,6.565907121,-63.845726,-1.341278553,-0.08234147,2.962858707,30.83069611,-12.07144737,2.163783535
1.933256,-8.763426304,6.461219311,-63.8179054,0.434899956,-0.024024308,2.695584357,31.2199893,-13.39441728,0.95883484
1.941589,-8.483415961,6.365347266,-63.78042603,-1.898140386,-1.235511586,2.433078229,32.41011333,-12.50804639,2.283924224
1.949922,-8.189548373,6.267619729,-63.74829673,0.879391938,0.558190443,3.190934956,34.14075851,-12.62618351,1.709284857
1.958255,-7.902037978,6.181439281,-63.71173665,-2.05498527,-1.042364404,3.676788092,33.33132506,-11.31565499,2.462090984
1.966588,-7.61652267,6.093870282,-63.6780567,0.513898373,-1.548505843,3.144127816,33.14417601,-11.4200964,2.184006848
1.974921,-7.34053731,6.024144173,-63.6455536,-0.918060243,0.481823139,3.015635014,31.98729992,-9.268644452,2.337880701
1.983254,-7.082592607,5.937431574,-63.60836603,-0.03334403,-1.877736479,2.557678402,29.80007792,-11.34594131,2.717243716
1.991587,-6.8247087,5.869448662,-63.57866288,-1.552497908,-1.532484829,1.476772294,29.86447096,-8.995610713,2.11438638
1.99992,-6.582330942,5.793558121,-63.5457382,0.11000438,1.169362486,2.965861618,28.02029133,-9.966935517,2.466245651
2.008253,-6.34222126,5.728821159,-63.51865388,-0.830864907,-2.414615303,3.252959132,27.76627636,-8.55252564,1.930056434
2.016586,-6.104572058,5.6675421,-63.48922923,-0.459102139,-0.363159455,3.874322713,27.49319744,-8.154515387,2.310085774
2.024919,-5.887533903,5.595807672,-63.46077728,0.086032063,-0.107433036,3.464159697,24.97945261,-9.385016441,2.052265035
2.033252,-5.693043232,5.526894808,-63.42983438,-0.524212042,-2.593020007,1.916507287,22.30550861,-9.0649724,2.460776836
2.041585,-5.508811116,5.44580698,-63.4028015,-0.377978869,-0.105667055,2.518305838,21.09205484,-10.46457601,1.837178692
2.049918,-5.338891745,5.376205564,-63.3782749,-0.268311262,-0.261744317,3.105987757,19.42432833,-9.058570623,1.747733638
2.058251,-5.160789967,5.29470867,-63.35083773,0.125479136,-1.311872864,3.62051478,20.3618722,-10.5032177,1.929309815
2.066584,-5.002769232,5.204245746,-63.32388118,-0.523287244,-0.857154943,3.803726614,17.96851826,-11.56612206,1.859462917
2.074917,-4.878349304,5.1213907,-63.30086515,-0.216780465,-1.707708731,1.52891919,13.98639012,-10.60499716,1.444383919
2.08325,-4.761394859,5.021836519,-63.27484513,-0.083171211,0.116923809,2.828089059,13.06758881,-12.63374758,1.71074003
2.091583,-4.653215766,4.933392585,-63.25106428,-0.420639806,-1.248588115,3.274860196,12.02992344,-11.27368236,1.504967973
2.099916,-4.537525237,4.834904671,-63.2301941,-0.221126094,-1.155860394,4.274049998,12.97174716,-12.44867206,1.142430321
2.108249,-4.454723299,4.746016801,-63.21111108,-1.063625097,-0.403914709,3.256589501,9.046748401,-11.2746048,0.974324137
2.116582,-4.405222833,4.649426639,-63.1934929,0.847345621,-1.331346281,2.127505377,5.083071947,-12.18451047,0.808859132
2.124915,-4.342289209,4.549841404,-63.17917635,-1.264570058,-0.444562272,3.202006668,6.696237803,-12.51157927,0.331733167
2.133248,-4.283166468,4.469946742,-63.16693308,-0.449374033,-0.551144978,3.703531355,6.301624656,-10.13262439,0.335847348
2.141581,-4.233793557,4.374404073,-63.1640835,-0.31507128,-1.728113413,3.143776327,5.184056282,-11.92665207,-0.96862799
2.149914,-4.212183178,4.299696624,-63.15268325,-0.513203382,0.546190798,2.31440647,1.825491324,-9.50063765,0.293436706
2.158247,-4.204122305,4.208600342,-63.15535165,0.229192525,-1.753425539,2.851516336,0.251672626,-11.35072851,-1.581999481
2.16658,-4.169472754,4.144073069,-63.1444664,-1.745446384,-0.633219466,3.515288994,3.406921268,-8.272966979,0.319614321
2.174913,-4.156361639,4.065177918,-63.15371898,0.801588357,0.414239019,4.482385908,0.930834112,-9.831957577,-2.244050324
2.183246,-4.184510112,4.013791382,-63.15126038,-1.185847938,-2.405685078,1.757780612,-4.090266884,-6.638131679,-0.503147103
2.191579,-4.198181629,3.932280779,-63.15677645,0.860188983,0.186128944,2.930806905,-2.310509801,-10.17627072,-1.827742517
2.199912,-4.215963304,3.894395292,-63.16178135,-2.808344007,-0.138445646,4.214960754,-2.768066243,-4.946214735,-1.355572816
2.208245,-4.240532696,3.840888441,-63.1741867,2.288928747,-2.423042894,4.149278268,-3.557945639,-6.764995575,-2.408225179
2.216578,-4.292349339,3.807032526,-63.17290498,-2.674238264,0.706683658,2.238847151,-6.932701707,-4.522735357,-0.583889969
2.224911,-4.360394537,3.760794461,-63.18408393,1.318530083,-1.002896518,2.718869567,-8.758004307,-5.898581922,-2.192284197
2.233244,-4.416205645,3.752450407,-63.18288613,-2.593521535,-1.988512218,3.748842508,-7.414101362,-1.47176826,-0.348878779
2.241577,-4.469685853,3.738080442,-63.1887665,1.448168814,1.703495771,3.985917926,-7.056463719,-2.129503578,-1.288966224
2.24991,-4.556752264,3.746682286,-63.19756318,-2.371655166,-1.941635132,1.854177274,-11.10955739,0.643926077,-1.37850064
2.258243,-4.637951851,3.739838779,-63.19544603,1.37483418,-1.36345607,2.947391629,-10.39810348,-1.297927976,-0.250987619
2.266576,-4.71961236,3.78123194,-63.21132853,-2.469248891,1.385686279,3.513088836,-10.44886208,4.633394726,-1.901470125
2.274909,-4.797123909,3.795987189,-63.21497915,0.688463748,-2.242750332,3.639408708,-9.901599884,1.343466877,-0.725120038
2.283242,-4.894056082,3.854620218,-63.2285366,-1.233412147,-0.566069067,2.986203969,-12.28667665,6.67325604,-1.431295246
2.291575,-5.012851835,3.887713909,-63.23052025,0.26124233,1.14426899,2.929261517,-14.88366938,3.51961726,-0.331746265
2.299908,-5.096485853,3.965743542,-63.24596023,-1.398887277,-1.955934048,3.951977745,-10.65824199,9.016644478,-1.417184592
2.308241,-5.182787418,4.026976705,-63.2452431,-0.190329347,-0.256892398,3.638001219,-11.01610732,6.851642192,0.299542368
2.316574,-5.286945105,4.120263934,-63.25870895,-0.441795528,0.731269866,2.004184276,-13.12405634,10.82310998,-0.972726584
2.324907,-5.371855259,4.207772792,-63.25906563,-1.329085827,-0.823321388,4.466113478,-10.83452082,10.000835,0.492023349
2.33324,-5.423926592,4.339743972,-63.27009205,-0.089486178,-0.186912693,4.787224561,-6.889293075,15.42052174,-0.233493477
2.341573,-5.459707499,4.441834092,-63.29072953,-0.537356054,0.78493914,6.025206447,-4.775205307,11.96189869,-1.646902978
2.349906,-5.498270273,4.573271752,-63.32292938,-0.211270899,-0.261314623,4.768297374,-5.046056956,15.59687686,-2.731986277
2.358239,-5.504297734,4.660842002,-63.35546683,0.417386845,0.02734328,5.797047377,-1.081756115,10.367311,-3.232740879
2.366572,-5.449391961,4.729147017,-63.39123725,0.681033373,1.79104046,8.145733714,6.194959999,8.092789905,-3.869110972
2.374905,-5.366060615,4.712829292,-63.4096184,0.800696359,0.041376965,7.46680522,9.526869893,-2.206541896,-2.738296382
2.383238,-5.238727093,4.710316241,-63.43075943,1.337797165,0.282750458,9.730523347,14.73632121,-0.543172851,-2.929766119
2.391571,-5.0608356,4.598118544,-63.4160595,0.047470957,0.981437147,10.67056561,20.53884411,-14.0316422,0.167747647
2.399904,-4.830004335,4.498898268,-63.4116497,1.13378793,-0.554769546,9.876938344,26.94948864,-12.37729967,-0.892720566
2.408237,-4.566711247,4.253554583,-63.38679885,1.70308277,0.663876489,12.97849822,30.66778135,-30.05651236,0.197776947
2.41657,-4.287301421,4.011758089,-63.37261963,-0.242561102,0.482003108,12.0004555,32.70156384,-29.52666807,-0.941836789
2.424903,-3.972849846,3.710996509,-63.35388183,-0.635741977,-1.162638456,13.45261967,36.89348412,-36.62812805,-0.725163356
2.433236,-3.592342794,3.356151909,-63.33327483,1.148458147,1.100505531,12.02752566,44.82681084,-43.1172657,-0.733901777
2.441569,-3.224314272,3.003129185,-63.33529475,-1.240749791,-1.17205111,13.64799023,43.45945835,-42.7446928,-3.127281189
2.449902,-2.801612437,2.583393246,-63.32302285,0.431804016,-0.228903715,13.68884754,49.97146416,-50.8456316,-1.482705593
2.458235,-2.366197526,2.215473578,-63.3256645,-4.007009,0.137003586,15.43407154,51.54542065,-44.56170845,-2.686780513
2.466568,-1.919295847,1.843048468,-63.32925225,1.864897341,-1.615963385,11.58133674,52.97221756,-45.11144161,-2.404735405
2.474901,-1.520136967,1.398461163,-63.34027483,-1.827268409,-2.525474638,13.6071856,47.19882011,-53.76075459,-3.308317386
2.483234,-1.08090049,1.00128106,-63.3396244,-0.83490191,-0.743352964,13.48047936,52.05412007,-48.1163702,-1.306283891
2.491567,-0.660229344,0.614992902,-63.35331155,-2.502299964,-1.465015248,14.96426511,49.7784338,-46.79494,-2.730808914
2.4999,-0.270639695,0.238555923,-63.363184,-0.507480562,-3.166074872,12.94332218,46.08993435,-45.6272192,-1.847196519
2.508233,0.090506181,-0.124733955,-63.38296318,-1.857495189,-1.720902428,15.68545914,42.61098289,-44.06202889,-2.891978571
2.516566,0.392711621,-0.416474968,-63.39740183,-3.223404467,-1.294783831,17.63066006,35.6042738,-35.48060894,-1.899636738
2.524899,0.698187217,-0.727503099,-63.4187412,-0.799813345,-2.611192852,15.67939043,35.88440132,-37.81955338,-2.656010151
2.533232,0.954898715,-0.916542182,-63.42288208,-3.570394933,-1.238324493,13.57251489,30.14240408,-23.15522909,-0.493865401
2.541565,1.1626454,-1.160886372,-63.44365693,-0.718759473,-2.406822502,11.62996257,24.14834118,-29.83641291,-2.411314785
2.549898,1.39195475,-1.326026224,-63.44551853,-2.628013015,-2.361814115,14.60591197,26.84942866,-20.28224612,-0.09855029
2.558231,1.574331343,-1.469731607,-63.4604988,-1.17890501,-2.364563778,16.97733236,21.09952688,-17.76260281,-1.810517371
2.566564,1.662996471,-1.521949902,-63.4522648,-3.068761349,-1.739423737,15.19483209,10.02155518,-6.698978782,0.823011219
2.574897,1.73367998,-1.589224704,-63.4569969,-0.953352906,-3.590848625,11.92757559,7.71256566,-8.567427875,-0.771718741
2.58323,1.76580286,-1.629915655,-63.4373474,-2.04847908,-3.228346318,13.84508204,3.260666773,-5.27125331,2.178964973
2.591563,1.694142789,-1.583581381,-63.43161203,-1.072684586,-2.631644428,14.4766252,-9.303485633,5.099446118,0.149818078
2.599896,1.597134054,-1.532753535,-63.40539933,-4.654557705,-2.254233003,16.25785828,-12.23435009,5.72562474,2.634513795
2.608229,1.461155564,-1.436688669,-63.39789965,-0.092174169,-3.010429144,15.49462843,-17.01997328,11.06737006,0.211749703
2.616562,1.255606592,-1.300361037,-63.37431335,-2.573109329,-1.80636109,14.71537543,-25.26162386,15.95800162,2.105308771
2.624895,0.989345834,-1.192172002,-63.36728478,-0.33698643,-2.985501677,12.8991108,-32.68074179,12.51182103,0.21363613
2.633228,0.709342223,-1.037654478,-63.34218025,-2.470634967,-3.278799296,14.58545113,-34.2142067,18.12337327,2.40773499
2.641561,0.358971484,-0.889914429,-63.32470513,-1.010988906,-1.365916871,16.88809443,-42.72031593,17.26721859,1.559711397
2.649894,-0.05039623,-0.704015214,-63.309227,-3.201212347,-3.795634031,14.94372964,-49.79130268,21.85167408,1.458541185
2.658227,-0.467332888,-0.538538791,-63.30733875,-0.486114964,-1.468518443,14.85287094,-50.73171711,19.37801409,-0.06930928
2.66656,-0.956526492,-0.318373352,-63.31269455,-1.827691838,-2.907806307,13.58671713,-59.38925839,25.96015883,-0.663148824
2.674893,-1.44847329,-0.131659895,-63.34287263,-0.527261414,-1.161983624,14.75493336,-59.76397324,22.00331163,-3.513347686
2.683226,-1.980725765,0.094557807,-63.3724022,-1.797855199,-2.273449987,13.44332564,-64.5715704,26.76679325,-3.053921521
2.691559,-2.537397802,0.279037826,-63.40692713,-0.39623408,-2.778494716,13.47537923,-67.47757054,21.81228733,-3.624545276
2.699892,-3.100212157,0.536710817,-63.43484305,-2.257083088,-1.680697121,14.81903481,-68.21988106,30.57347155,-2.154510558
2.708225,-3.697894871,0.756214991,-63.47157478,-1.868024334,-2.289155543,14.30533552,-72.36731911,26.08966589,-3.210520804
2.716558,-4.268489301,1.1304181,-63.52076723,-3.051233471,0.264180178,17.12485504,-69.08253288,44.72524548,-3.112311363
2.724891,-4.888094783,1.388359452,-63.56727218,-0.450235214,-3.214638949,13.32236385,-74.9330101,30.82748795,-3.44241637
2.733224,-5.468921065,1.802982308,-63.62644768,-4.596581936,0.090925351,14.99255991,-70.21463203,49.71570301,-2.908532001
2.741557,-6.073574424,2.104824275,-63.68630788,0.339353092,-0.24433054,13.39370942,-72.99579048,36.29127264,-3.832850039
2.74989,-6.638888717,2.582148612,-63.75773813,-5.747608542,-1.350936301,16.75651336,-68.22133827,57.38383198,-2.521240279
2.758223,-7.184699654,3.018303365,-63.81860735,0.479012452,-0.045088292,12.70768249,-65.7855978,52.37856102,-1.271938071
2.766556,-7.731348753,3.486656308,-63.902647,-2.714563012,-0.333875597,15.14189267,-65.77067566,56.54063702,-3.050616536
2.774889,-8.208474755,4.072812319,-63.98746873,-2.954800725,-0.548250794,14.4044528,-57.26823902,70.60223198,-0.676585637
2.783222,-8.642837048,4.558878303,-64.07126235,0.656622023,-0.83691516,14.05809283,-52.08111095,58.68366337,-1.723337978
2.791555,-9.03463006,5.116220713,-64.16781045,-2.586163402,2.046926409,17.37472344,-46.71481705,67.39550972,-1.500279214
2.799888,-9.408317089,5.681955576,-64.27334788,-0.676959399,-0.674359188,15.48121477,-44.397151,68.5406208,-1.943441153
2.808221,-9.719970464,6.251835227,-64.35887718,-2.06519796,-1.305176616,14.23332477,-36.9946599,68.66799355,0.92863366
2.816554,-9.969266177,6.805835843,-64.45393563,-1.361436174,2.277785137,16.17166591,-29.35025025,66.95065689,-0.180523992
2.824887,-10.17808986,7.347705841,-64.53735163,0.36228772,-0.956568689,14.24744296,-24.5040946,65.29418564,1.22494869
2.83322,-10.31811071,7.869262934,-64.6227398,-0.782593822,0.529803746,15.83837462,-16.1572628,62.91255474,0.764257647
2.841553,-10.44520044,8.366496801,-64.70656013,-0.560562015,0.152164966,14.30233407,-14.5230403,60.01800537,0.583622445
2.849886,-10.53677964,8.841428161,-64.79095268,-0.114601582,-1.966273516,15.405581,-10.19004393,57.37968254,0.149468604
2.858219,-10.5742507,9.286620378,-64.85813908,-1.743982114,-0.06848751,17.4001832,-3.919919938,53.50931835,1.580287207
2.866552,-10.61703873,9.678143262,-64.92009543,0.195180997,-0.14697228,16.58449245,-4.619136885,47.04901028,1.055474743
2.874885,-10.65511108,10.04102755,-64.97102163,-1.883141637,-1.484704301,16.937742,-4.221675456,43.44166851,1.739625979
2.883218,-10.69516325,10.33713674,-65.01239775,1.185395897,-1.277906627,15.64280295,-4.641262815,35.34352875,1.41246
2.891551,-10.72149992,10.58969378,-65.0434971,-0.695704892,-1.063472822,15.12828684,-3.192228138,29.99304199,1.638780981
2.899884,-10.72908354,10.79057741,-65.06985473,1.286031932,-0.74849844,15.86562538,-1.018057398,23.78639221,1.062965244
2.908217,-10.73203445,10.95202375,-65.09003448,-0.527754918,-1.656279564,15.21885586,-0.616291553,19.00885344,0.88332649
2.91655,-10.7224133,11.07855368,-65.10089683,-0.639639534,0.023048504,16.79826904,0.723794177,14.6832242,1.203039765
2.924883,-10.71672583,11.15172744,-65.09622383,-1.011034075,-1.415637762,15.69998932,-0.152801693,8.053035618,1.793736175
2.933216,-10.6947062,11.1844666,-65.07846453,-0.054199264,-1.249565631,13.7987392,1.554425534,3.00244312,2.415070414
2.941549,-10.64386821,11.17532516,-65.05631825,-0.410545457,-0.794367671,14.89321757,4.846094847,-2.033050045,1.971713431
2.949882,-10.57321453,11.15642905,-65.02703283,0.483530432,-1.314028248,16.01845098,7.126619935,-3.331435576,2.60114488
2.958215,-10.48016524,11.1160934,-65.0024891,-1.583790273,0.159142569,18.46737385,9.858959315,-5.760014653,1.569570083
2.966548,-10.39342165,11.0512836,-64.96508218,-0.75684762,-0.238830136,17.38064528,8.882810234,-8.911196946,2.5672189
2.974881,-10.30431271,10.96279359,-64.93330573,-1.503224954,-1.727388799,15.2584784,9.224443196,-11.59342718,1.392678097
2.983214,-10.19026971,10.83724308,-64.87878608,-1.134439379,-0.622326074,15.30893516,11.78361821,-16.43405056,3.284428105
2.991547,-10.05917144,10.70251227,-64.8431797,-0.281275734,-1.288227201,15.09317565,14.19025707,-17.12753821,0.903270289
2.99988,-9.910224675,10.54570627,-64.80153655,-0.805589468,-0.48278538,16.37807202,16.27665591,-19.84961272,1.214899712
3.008213,-9.760450601,10.37542582,-64.7679062,0.415066295,-0.94038786,15.00276232,16.50036383,-21.28449011,0.03349407
3.016546,-9.595936775,10.1874826,-64.71042253,-0.975748897,-0.86702162,13.96023583,17.84598541,-23.83614922,2.545262933
3.024879,-9.40354681,9.984501838,-64.6587658,-1.213597774,-1.572173283,15.76822686,21.26899433,-25.50446606,1.613538303
3.033212,-9.195751667,9.77124548,-64.59682848,-2.209885985,-1.800512433,16.24846315,22.9942956,-26.90102101,2.736375019
3.041545,-8.990846634,9.556189776,-64.54514885,-1.617107272,-0.829487726,16.7834301,22.81162405,-26.92084885,1.575565315
3.049878,-8.80005765,9.344126581,-64.47846028,-1.824738145,-1.307244987,15.417413,20.90190506,-26.82838583,3.515957296
3.058211,-8.613235474,9.133478285,-64.42053985,-0.454965249,-1.152767718,14.46751714,20.58060026,-26.49329233,2.572475463
3.066544,-8.423637152,8.927606821,-64.35915565,-1.720291182,-2.083877981,14.31920743,20.90100193,-25.97560883,3.186647357
3.074877,-8.227632046,8.740694046,-64.30952453,-0.320776359,-1.125430405,15.52093911,21.89397287,-23.51643086,2.196992644
3.08321,-8.031956434,8.564630151,-64.25378418,-3.296682418,-0.558758975,15.54118204,21.77225542,-22.31897164,3.210423215
3.091543,-7.857807756,8.38852191,-64.21237565,-0.589375788,-1.046248332,14.96038437,19.46596527,-22.07265091,1.542394243
3.099876,-7.687309504,8.241842389,-64.16762733,-2.405998498,-1.657622725,13.21857357,18.97008467,-18.62897253,2.538433224
3.108209,-7.514480472,8.083242655,-64.12589455,-1.24099873,-1.781975001,12.03021455,19.34176016,-19.98588753,2.023298517
3.116542,-7.337616325,7.932691336,-64.09726715,-1.447478965,-1.625845909,10.9180491,20.02002573,-18.82512092,0.687691433
3.124875,-7.181466937,7.791496873,-64.0783062,-1.831982524,-1.565166742,12.09418416,17.7606597,-17.55181408,-0.312599421
3.133208,-7.0434165,7.708079338,-64.0890541,-2.339661762,-1.879854262,10.86313295,16.00721168,-10.2473619,-2.856285811
3.141541,-6.942298532,7.602942348,-64.10407258,-1.070747182,-1.63676174,10.06873965,11.69853282,-12.76522541,-3.714638114
3.149874,-6.865677953,7.553732991,-64.13841823,-1.594462142,-2.972214222,6.85682559,8.981171608,-5.854140758,-5.056654215
3.158207,-6.841911316,7.487432957,-64.16232493,-1.128495779,-2.248557627,8.911060215,2.566210195,-8.018097639,-4.179158062
3.16654,-6.839969039,7.502472758,-64.18761255,-2.696116746,-2.197530389,6.138427979,-0.133552551,1.665802449,-3.067311168
3.174873,-6.912315249,7.4431144,-64.1795578,-0.04763069,-2.40295133,4.737661004,-9.448513151,-7.642382383,-0.299907684
3.183206,-6.987887025,7.554351211,-64.18593215,-2.602615953,-2.430342436,6.289915442,-9.758888365,12.84840083,0.549204663
3.191539,-7.101547838,7.580401778,-64.14816858,-1.074652523,-1.165542111,5.239352762,-14.85491801,2.110178106,4.407448739
3.199872,-7.264077664,7.650032044,-64.12587548,-0.719502673,-1.884471119,6.440777257,-20.62411976,7.472767531,3.310349836
3.208205,-7.459970355,7.807849646,-64.10218238,-2.297640249,-1.249427348,3.687922299,-24.54535723,17.97254801,4.827524781
3.216538,-7.662073016,7.863617063,-64.09077645,0.717770636,-1.656845838,3.155929107,-25.17567682,5.973870874,1.868428648
3.224871,-7.865193248,8.077906013,-64.09907723,-2.451953933,-1.379402459,3.959669143,-24.9201479,25.16333056,2.087649167
3.233204,-8.097481251,8.144852281,-64.1077919,0.550262854,-0.568157987,4.563392669,-28.44610548,7.61887312,-0.255918905
3.241537,-8.310195446,8.303985477,-64.11535453,-1.318673104,0.001042716,5.506396115,-26.088727,18.57431054,1.422372758
3.24987,-8.534770727,8.401027441,-64.12526323,0.753290117,-0.995726496,4.085727394,-27.48470021,11.21564031,0.188008268
3.258203,-8.759464979,8.520419955,-64.12675858,-0.79644233,0.185932225,4.518061012,-27.64872599,13.73069954,1.563327871
3.266536,-8.979469061,8.622183919,-64.12958718,0.288798392,-0.561552212,2.149809033,-27.05155182,11.6450696,1.195603043
3.274869,-9.164202452,8.692518234,-64.11567118,-0.469730765,-0.724971548,2.483813733,-23.13174343,7.610655546,2.556170613
3.283202,-9.322196722,8.776746035,-64.10541533,-0.437330439,0.013669366,2.317841992,-19.83864212,9.311828137,2.457859635
3.291535,-9.463780165,8.806799053,-64.08366773,0.235198341,-0.102195116,3.663917542,-18.10252786,2.67009303,2.731496513
3.299868,-9.589946032,8.870669007,-64.0663433,-0.464111924,0.23821063,4.176748386,-16.14534283,6.755279839,2.920994014
3.308201,-9.709815027,8.890225529,-64.05042838,-0.18545416,0.122202275,3.296924234,-15.39892268,1.529054847,1.852588192
3.316534,-9.798119783,8.915045141,-64.02876475,0.113378018,-0.066232331,1.994535804,-11.68004441,2.03923297,2.661870331
3.324867,-9.846715214,8.912616849,-64.01646425,-0.674816012,-0.113853373,2.119039066,-6.785368145,-1.004180431,0.979222589
3.3332,-9.86201787,8.902285098,-63.98878478,0.873764276,0.309206295,2.825362623,-3.031035096,-2.24571871,2.642972887
3.341533,-9.854810954,8.877035141,-63.97491645,-1.206595063,0.332138703,3.689011633,-0.120895792,-3.735381722,0.692458495
3.349866,-9.823855638,8.837849737,-63.94613838,0.908156544,0.363296405,3.196768224,2.499427855,-5.680616975,2.1823522
3.358199,-9.766064406,8.792009711,-63.9241638,-0.99039907,0.137859922,2.546372503,5.821591139,-6.328583452,1.224981636
3.366532,-9.678094149,8.732898712,-63.89590073,0.40974392,0.198189282,1.677786887,9.354951142,-8.021095395,1.727898073
3.374865,-9.553752422,8.66301477,-63.86773873,0.049837843,0.459485032,2.28004989,13.70010042,-9.289872408,1.477663294
3.383198,-9.398422003,8.573653221,-63.83491898,0.022977482,0.158557463,2.050303864,17.34743667,-11.68451405,1.69135651
3.391531,-9.221769333,8.482087374,-63.8074398,-0.744238883,0.370343385,2.827576161,20.00118303,-11.83416998,1.02564898
3.399864,-9.033731222,8.389379859,-63.7722454,0.145413436,-0.284444079,1.467770621,21.27083111,-12.10989404,1.981530965
3.408197,-8.824035883,8.297384381,-63.7482147,-1.078671558,0.134075312,2.44030875,24.0308075,-11.81064534,0.680586927
3.41653,-8.598298788,8.196134925,-63.70682905,0.599763602,-0.296922263,2.811221481,25.67701388,-13.22040963,2.631547779
3.424863,-8.356972695,8.105049133,-63.6725712,-1.511243824,-0.340697386,2.899702817,27.68166208,-11.87141621,1.987970501
3.433196,-8.117293358,8.010346294,-63.63575938,-0.209062085,-0.257401828,3.04924956,27.46006822,-12.33914804,2.315797508
3.441529,-7.86545527,7.922459245,-63.60176658,0.028813034,-0.54634279,3.757487476,28.94783402,-11.46609783,2.093584836
3.449862,-7.615426779,7.830182314,-63.5636177,-0.655922645,-0.364121968,2.67345953,28.67732811,-12.04980159,2.610223994
3.458195,-7.373664141,7.741874695,-63.531641,-0.481803879,-1.180129561,1.879984767,27.7962513,-11.46082401,1.944849119
3.466528,-7.126709938,7.655255199,-63.49246215,-0.453871429,-0.289239012,2.179577187,28.314641,-11.36592603,2.929537594
3.474861,-6.885224104,7.577515602,-63.4620018,-0.421957156,0.058385804,2.351803333,27.80003071,-10.15899444,2.000482977
3.483194,-6.636770129,7.496768713,-63.42588998,-0.575033322,-1.768688798,3.10849803,28.54343414,-10.59386039,2.72946465
3.491527,-6.375823379,7.417359591,-63.39120675,-0.559822783,0.263470359,3.573297501,30.0997715,-10.39097118,2.5579454
3.49986,-6.147746683,7.348211646,-63.3639393,0.194162093,-0.022751391,3.213799104,26.24189043,-9.068393112,1.919769019
3.508193,-5.922798038,7.259975195,-63.32836913,-0.254292622,-2.493768618,2.178598017,25.75657845,-11.43324828,2.624718189
3.516526,-5.694641233,7.178526282,-63.3027439,-0.630571131,0.665310592,2.291458398,26.282588,-10.49913538,1.635380477
3.524859,-5.470299363,7.096238852,-63.2752533,-0.246891018,-0.067546776,3.471045971,25.84285259,-10.60187292,1.835449994
3.533192,-5.246057987,7.005033136,-63.24972535,0.049067229,-1.930745095,3.900075853,25.83321285,-11.64671445,1.603327336
3.541525,-5.032481432,6.920536041,-63.22924235,-0.272983507,0.533989966,3.186587304,24.63634825,-10.77725065,1.047443673
3.549858,-4.831115246,6.817465306,-63.20541,-0.210591928,-0.986676484,2.519651637,23.11193371,-13.03358412,1.354689688
3.558191,-4.632297755,6.725468874,-63.18376543,-0.291101881,-1.213498473,2.582372367,22.88894796,-11.67116809,1.19090249
3.566524,-4.433372021,6.623626351,-63.1682205,0.041292802,0.49417001,4.157665789,22.93711233,-12.80236149,0.555717116
3.574857,-4.253999054,6.533639312,-63.15327265,-0.877673879,-1.623624504,3.499971867,20.63212585,-11.36306083,0.480203014
3.58319,-4.069977581,6.42927897,-63.14322853,0.671805799,-0.757274508,3.121807605,21.22842789,-13.05061674,-0.038014822
3.591523,-3.919780493,6.33602345,-63.13433268,-1.795656271,0.027368599,2.436532158,17.22487378,-11.69691384,-0.194585081
3.599856,-3.772531152,6.242226362,-63.1295414,1.103651911,-2.07784091,3.296977788,16.91057539,-11.74010384,-0.495184209
3.608189,-3.61853981,6.164391041,-63.1294861,-2.270437807,0.185886443,4.505967438,17.76210833,-9.786049961,-1.073137641
3.616522,-3.490223289,6.07801044,-63.12527275,1.533549041,-0.540231519,3.957882464,14.65955353,-10.84572649,-0.450884298
3.624855,-3.387511611,6.001958966,-63.12973975,-1.913762733,-2.661516636,2.283893079,11.66129637,-9.544746875,-1.551954031
3.633188,-3.298462927,5.927132964,-63.12973978,0.709980309,1.02368841,3.606633008,10.03076959,-9.429852723,-0.812480599
3.641521,-3.217814863,5.865450144,-63.1423187,-1.659223422,-1.710704804,4.263927758,9.070644976,-7.776210309,-2.399781719
3.649854,-3.126734555,5.813265443,-63.1381397,0.830177337,-0.565847471,4.487915755,10.23102796,-6.744674028,-0.134682715
3.658187,-3.083914459,5.760705352,-63.15128518,-1.856775716,-0.471944217,3.230125427,4.542227209,-6.685536624,-2.389100701
3.66652,-3.071749568,5.720004201,-63.15101433,1.163281679,-2.153226264,2.37996921,0.827515811,-5.34093345,-0.509181976
3.674853,-3.047698915,5.688493848,-63.17061233,-2.209056065,-0.080130398,4.355602399,2.339761079,-4.127333868,-3.026318997
3.683186,-3.036605835,5.673772454,-63.16926575,1.005251408,0.113898792,4.472919345,0.685062364,-2.232789926,-0.210824371
3.691519,-3.057645798,5.653594494,-63.1896572,-1.392088711,-3.125919905,3.091496542,-3.059076458,-2.766343862,-3.044873491
3.699852,-3.107034087,5.650467277,-63.18527798,0.301187635,0.856550321,2.866637863,-6.590071798,-0.859511227,0.235712052
3.708185,-3.185881734,5.654237747,-63.21208,-1.36869964,-1.698598742,4.053103127,-9.94352448,0.147163466,-3.662173964
3.716518,-3.236353099,5.682954073,-63.20656778,0.066553592,-1.133000046,4.202041671,-6.739912273,2.946440756,0.578068733
3.724851,-3.335084796,5.718686223,-63.2320881,-1.700699076,0.401183724,4.262813152,-12.3166554,3.977212578,-3.288023383
3.733184,-3.473410964,5.766200781,-63.22901535,0.905143321,-2.639722239,2.680282284,-17.27118635,5.207211941,0.440459728
3.741517,-3.607244253,5.850644827,-63.24404523,-2.631898813,0.000142545,3.992311016,-16.64480996,9.748752358,-1.656668541
3.74985,-3.742112219,5.94434154,-63.23416903,0.082752973,0.421483584,4.521240249,-16.95015001,10.68096125,1.642858759
3.758183,-3.896611989,6.081639529,-63.24086573,-1.100866653,-2.67195563,4.505510874,-19.19931746,16.01911783,-0.186024124
3.766516,-4.065812945,6.210970402,-63.22816468,0.046977639,0.422018081,3.384302646,-21.14098787,14.90957856,2.325716153
3.774849,-4.262851715,6.372095704,-63.23449135,-1.562958107,-0.67799604,3.142992795,-24.30548286,18.86764622,0.155801356
3.783182,-4.416603804,6.52469337,-63.22331238,0.49734509,-0.449871898,4.51120168,-19.24514246,17.69874025,2.356312036
3.791515,-4.579188943,6.707973123,-63.23846818,-1.6943634,1.266205818,5.5373016,-20.03707743,21.60189104,-0.56632483
3.799848,-4.735300064,6.863235712,-63.23415755,1.63272816,-1.359793779,4.636832476,-19.45263148,18.05655289,1.750401542
3.808181,-4.848051906,7.013117313,-63.24725343,-1.091441125,0.822157353,6.532235742,-14.09500456,17.58709049,-0.54234618
3.816514,-4.958354712,7.147118926,-63.2462158,1.106828585,1.379244268,6.210288763,-13.89128781,15.54873991,1.12677671
3.824847,-5.038434625,7.264929414,-63.2599411,-1.27036877,-1.402166665,4.791179777,-10.15333545,13.75852633,-0.8792179
3.83318,-5.086203575,7.360678792,-63.25569345,1.964092374,2.399480432,6.499107123,-6.433435321,10.94044614,1.13736812
3.841513,-5.107799649,7.445747972,-63.2713623,-1.557841569,-0.211319227,5.273063183,-3.114608645,9.867313144,-1.443599284
3.849846,-5.072344303,7.49444437,-63.2638645,1.948840559,0.523118772,6.260357619,3.507059753,5.281159163,1.024351329
3.858179,-4.988526702,7.539676666,-63.28066825,-1.597805798,1.016067952,5.833718778,9.557507158,5.115073547,-1.992255867
3.866512,-4.852704644,7.55478251,-63.2813244,2.1481812,0.725810722,9.077887654,15.6903286,1.356559336,-0.298091717
3.874845,-4.689966679,7.566601992,-63.30072025,-2.548016548,-0.531400591,8.098477721,19.04665303,1.124090582,-2.578368425
3.883178,-4.476611078,7.515516997,-63.30722428,2.095969439,1.912544951,7.813177347,25.124825,-6.498131394,-1.616588235
3.891511,-4.234886229,7.49396944,-63.34406278,-1.271088302,-0.419018321,9.530611277,28.74413157,-2.73394835,-4.97741703
3.899844,-3.970910072,7.397152186,-63.34417915,1.272519529,0.39509749,10.12067723,31.11211157,-12.03589106,-1.186241865
3.908177,-3.698960662,7.303484321,-63.37235643,-0.721604049,-1.028296903,9.095255375,32.2569046,-11.47217291,-4.50377126
3.91651,-3.357411385,7.10685432,-63.3580189,1.721293986,-0.30291684,10.34302235,40.16198063,-24.10983038,-0.09019661
3.924843,-3.015822947,6.987663746,-63.36567498,-1.669188738,-0.278414414,13.90475535,40.3071394,-14.71100724,-2.114090443
3.933176,-2.704757869,6.688334942,-63.33535388,2.150040329,-0.394119464,13.43228197,36.29798889,-36.50796938,1.471090257
3.941509,-2.359232307,6.513282418,-63.33758358,-1.851336211,-1.60383044,12.86413801,40.70911884,-21.45019555,-1.595431814
3.949842,-1.999800653,6.199459553,-63.3080902,1.8682127,0.476718441,11.56802702,42.13293457,-38.22292328,1.740806394
3.958175,-1.663014203,5.821491599,-63.3157215,-0.651777476,-1.469352081,16.36619139,39.73751831,-45.7787838,-2.768718541
3.966508,-1.284057916,5.584888697,-63.30403328,-2.294948429,-1.226100192,13.43642461,44.68053055,-28.88024139,0.394162402
3.974841,-0.942232482,5.219505429,-63.31366158,1.903885424,-0.344982796,11.00153971,40.3883524,-44.28843307,-2.391391009
3.983174,-0.595109577,4.862699866,-63.32182883,-2.944312662,-1.779885995,13.41893768,41.07337189,-43.263093,-1.918278575
3.991507,-0.205894467,4.524566949,-63.34271243,0.803282134,-1.080114767,16.66234803,46.21380615,-41.02262497,-3.24859041
3.99984,0.129770152,4.197813571,-63.36392593,-4.42553474,-1.006690249,16.35213375,39.74214458,-39.67920399,-2.859344646
4.008173,0.460367229,3.886181057,-63.37943648,0.886494827,-1.808615834,12.87572718,39.14971542,-37.86330795,-2.041623578
4.016506,0.794828698,3.600602388,-63.39721108,-2.753745064,-1.634382457,15.62060571,39.54032993,-34.76149369,-2.053108007
4.024839,1.047634065,3.290878564,-63.40847398,1.198694646,-1.84202772,14.92182779,29.74832154,-37.64599419,-1.206039598
4.033172,1.272454485,3.014568299,-63.4306202,-3.935866118,-2.63687402,13.79283738,26.39406491,-33.67417908,-2.27573508
4.041505,1.495488823,2.766102016,-63.44490053,0.102195561,-1.550247461,14.52454996,26.20288563,-30.31001186,-1.450395599
4.049838,1.683796734,2.545427248,-63.46958925,-4.563471586,-2.21419099,15.6362927,21.96911335,-27.02583647,-2.528371096
4.058171,1.851044029,2.381182969,-63.4880619,-0.22849077,-2.430623979,13.25082827,19.54377365,-20.22850752,-2.066881865
4.066504,1.997557342,2.211679638,-63.5259819,-2.804944426,-1.095952701,16.82757068,16.99862766,-20.95569039,-4.161195889
4.074837,2.062234014,2.110823646,-63.54633333,0.210802019,-2.552389622,15.57678819,7.215740204,-12.64252102,-2.465066761
4.08317,2.085514814,1.996655405,-63.582407,-3.463442132,-3.071809247,12.51080299,2.172430099,-14.32346749,-4.122996502
4.091503,2.108586669,1.920293733,-63.58616065,0.290154494,-1.120362789,13.67724943,2.166042462,-9.633883119,-0.570105553
4.099836,2.09335053,1.889480114,-63.60767555,-2.892865464,-3.032457441,15.03428388,-2.539103896,-4.269672156,-2.744651914
4.108169,2.047332406,1.865166307,-63.59848405,-2.098453462,-1.400539458,17.14353991,-6.148784101,-3.328355462,0.751051187
4.116502,1.958839894,1.825422388,-63.6175747,0.103837816,-2.714231104,16.10114026,-11.34875608,-5.333309919,-2.433938056
4.124835,1.805966347,1.826233909,-63.60077668,-2.678406805,-1.914321885,16.3220005,-19.01813078,-0.287004441,1.551784307
4.133168,1.574380011,1.787897129,-63.62204743,1.198990122,-3.6463027,12.70400119,-28.47638273,-5.157439828,-2.738266349
4.141501,1.32799913,1.748709824,-63.62284663,-1.831671179,-3.073357195,14.07978249,-30.2121582,-5.159207046,-0.427812338
4.149834,0.995427318,1.742813748,-63.6416683,0.330935821,-2.315302819,15.97099924,-40.59021568,-1.238699585,-2.556425214
4.158167,0.603467539,1.737368315,-63.645689,-4.16944176,-2.677418351,13.11825728,-47.68027592,-1.111019015,-0.910165117
4.1665,0.229908454,1.743022636,-63.66534423,-0.039908551,-1.570509829,15.07041669,-45.47730541,0.178246588,-2.683293998
4.174833,-0.200429988,1.790585488,-63.66885568,-3.128895432,-2.497787774,15.84612727,-52.32652759,5.248853088,-0.866281763
4.183166,-0.654068656,1.860032968,-63.68535995,-1.698460505,-1.085398145,16.4285655,-55.05035782,7.877151489,-2.252499014
4.191499,-1.117594928,1.931349777,-63.69756318,-1.983084858,-1.829442814,14.2617414,-56.30834961,8.109274388,-1.698036194
4.199832,-1.632336944,2.021887057,-63.7071171,-1.454654947,-1.271455204,15.70464993,-62.39577294,10.42135012,-1.226327099
4.208165,-2.15737474,2.108669549,-63.72805408,-0.328166247,-3.647261471,12.73633409,-63.65594864,10.02437306,-2.621444479
4.216498,-2.716578186,2.213000611,-63.7480774,-1.33129698,-0.930805281,14.84373331,-67.67184067,12.14579582,-2.199148478
4.224831,-3.300129593,2.274880916,-63.7853279,-0.201411631,-2.387420982,15.2420404,-70.59749222,7.181971668,-4.509429023
4.233164,-3.931114614,2.383809015,-63.8182659,-2.385666162,-2.930541217,14.73904097,-76.21917534,12.83300615,-3.44744134
4.241497,-4.591773689,2.410408065,-63.86830713,0.087224577,-2.555355102,13.39534748,-79.75929451,3.165795259,-6.188630402
4.24983,-5.255516887,2.516575843,-63.91168978,-2.288884402,-1.503181476,16.36324024,-80.09821701,12.66787743,-4.426738918
4.258163,-5.923952222,2.570029676,-63.9632969,-1.133956477,-0.853484362,14.66308045,-80.67637253,6.515155494,-5.90618068
4.266496,-6.607032657,2.734152019,-64.0170746,-2.528450519,-1.174691588,13.28772837,-82.33915138,19.81095743,-4.587363005
4.274829,-7.271618128,2.821627229,-64.07350923,0.681718573,-0.674688244,11.55490971,-80.14839745,10.76874566,-5.86728245
4.283162,-7.926897168,3.017895669,-64.12390708,-3.656069457,-2.077572048,15.60396743,-78.98703766,23.69074917,-3.253125936
4.291495,-8.539278269,3.20005092,-64.1910896,-1.755989805,0.023921006,15.00159693,-73.7787323,22.30882239,-5.167769551
4.299828,-9.145555735,3.437302649,-64.25616838,-5.172508806,1.715065539,20.2441206,-72.98615074,28.87104321,-3.743162215
4.308161,-9.704318524,3.808868349,-64.35360718,-0.998598218,-1.760674987,10.86175299,-67.04169273,45.42238236,-4.6178566
4.316494,-10.24064875,4.068825245,-64.4202862,-1.790250778,0.401490074,12.13759935,-64.46661854,31.64564324,-2.804489732
4.324827,-10.75241327,4.493428409,-64.52560235,-2.552356109,-0.335877337,12.68077016,-61.21306801,51.91062927,-3.471847683
4.33316,-11.17023731,4.923652709,-64.61473845,-3.689566001,0.097968441,15.46689057,-49.91317272,52.2591362,-1.018378109
4.341493,-11.51186967,5.367569328,-64.7230568,0.2006948,1.790792286,18.35299444,-40.58246899,54.28679466,-2.582534373
4.349826,-11.81196356,5.825437188,-64.82160188,-2.571485281,0.986951694,16.52076578,-35.48237801,55.75023461,-0.85975635
4.358159,-12.06261826,6.26628995,-64.93724823,0.165191509,0.531707332,15.10883188,-29.40631247,54.11857128,-2.945204497
4.366492,-12.24000669,6.750023962,-65.02702333,-2.325865507,-0.233039595,15.58149958,-20.68371272,58.56414604,1.292123199
4.374825,-12.35502243,7.182466865,-65.13790323,0.295587397,1.099248365,16.9385314,-12.97457063,53.02586842,-2.232683897
4.383158,-12.43560219,7.628750682,-65.21738243,-1.65015322,-0.001132671,13.252702,-9.056776107,53.8966198,1.806401372
4.391491,-12.46001029,8.024286747,-65.312706,0.619515211,-0.585650195,13.72469497,-2.128755748,48.30905438,-1.212417245
4.399824,-12.41496086,8.415789962,-65.37809183,-1.246472016,0.260417704,16.2085464,5.88595429,47.10738182,2.069224656
4.408157,-12.33896685,8.778126122,-65.45312688,0.41297878,-1.39249298,16.59207654,9.711599947,43.89999771,0.236759156
4.41649,-12.23342133,9.097218394,-65.4995556,-2.086240247,0.950784758,17.66795206,12.88291275,38.12135411,2.407414734
4.424823,-12.11686874,9.394583704,-65.5653019,0.616846383,0.410501063,16.78049588,14.51073885,36.0493741,-0.471830905
4.433156,-11.97623444,9.65358162,-65.60427285,-1.723304421,-2.182015151,14.89721418,16.96564579,30.88801766,1.601739943
4.441489,-11.79963613,9.868584631,-65.63347245,0.294429023,-0.898000437,14.75272083,21.06971979,25.49109888,1.553859889
4.449822,-11.60172081,10.03161812,-65.64124868,-1.207758039,-1.223751011,16.01588798,23.20689965,18.87120128,2.692484468
4.458155,-11.39374805,10.16813278,-65.64766313,-0.322118927,-0.517555606,16.49851537,24.38774204,15.73805738,2.141009092
4.466488,-11.19881439,10.26490498,-65.63993645,-1.520581111,-1.511712804,15.59126926,22.5048647,10.73563624,2.793707818
4.474821,-11.00906253,10.33436632,-65.6192379,0.691836223,-1.424191937,14.56861925,21.64894438,7.244599223,3.626762658
4.483154,-10.80872965,10.36318469,-65.5857124,-0.795344017,-1.926514596,14.43320274,22.58946323,2.172846988,4.165737808
4.491487,-10.62009692,10.38585353,-65.55208588,0.777670652,-1.559601262,14.12057567,21.23167706,1.472012162,4.028214589
4.49982,-10.42826295,10.37590122,-65.5090618,-1.422087237,-0.928106934,16.689955,21.35844755,-2.573946772,4.399896562
4.508153,-10.24739242,10.36369395,-65.45589445,-1.046351858,-1.574756771,17.92945862,19.87992906,-3.030194022,5.529522956
4.516486,-10.06831741,10.32056284,-65.40711023,-2.05217205,-1.436578036,16.32183957,19.71210146,-6.578276039,4.384441376
4.524819,-9.902015208,10.2649579,-65.35619735,-1.045971228,-1.370577902,15.23783541,18.18507576,-8.080217958,4.386650562
4.533152,-9.743075609,10.18081546,-65.3096466,-1.30677253,-2.261487723,13.98220015,17.366611,-11.35533845,3.325971246
4.541485,-9.574528694,10.0932436,-65.2607937,-1.633680843,-0.882677334,15.57453394,18.50393581,-11.79283047,3.547470391
4.549818,-9.426252365,9.985489368,-65.22192193,-1.267619506,-1.767482035,16.40152097,16.26602101,-13.97860551,2.021645904
4.558151,-9.277823448,9.876339437,-65.17999078,-1.767935064,-1.855878442,15.26985598,16.23781395,-14.19692922,2.383415103
4.566484,-9.112175465,9.749903917,-65.12888338,-0.803441942,-0.620357256,14.75955033,18.12495566,-16.40501571,3.166401505
4.574817,-8.938284159,9.617351294,-65.07648658,-0.841946513,-1.072026521,14.02214122,19.11502791,-17.15069628,3.251002193
4.58315,-8.784110546,9.497332812,-65.0306797,-1.912058234,-1.777462959,15.1160667,16.87733197,-15.53175903,2.769748509
4.591483,-8.652788877,9.380684018,-64.9847679,-0.993063025,-2.369923264,13.89711619,14.15339732,-15.12614298,2.866518974
4.599816,-8.520094156,9.271982551,-64.9339714,-2.512551397,-1.357489914,15.4871192,14.2274406,-14.26135421,3.633774281
4.608149,-8.398907662,9.17772293,-64.88908765,-1.643163413,-1.727935687,15.11419368,12.9813714,-12.43683791,3.218310952
4.616482,-8.289813876,9.073714258,-64.8474083,-1.865506172,-1.713418827,15.74062848,11.58069515,-13.53106451,2.72090143
4.624815,-8.185788751,8.992636918,-64.81262205,-2.704963177,-0.54714761,15.54267431,11.1386441,-10.68697524,2.310868778
4.633148,-8.102056027,8.903281331,-64.7884312,-1.27532576,-1.565489054,15.10910034,8.878705858,-11.49039746,0.972556688
4.641481,-8.013929844,8.821912766,-64.76149178,-2.360795558,-2.266553789,15.0147562,9.371632099,-10.58176375,1.414447069
4.649814,-7.923280716,8.728319645,-64.7342987,-1.131227747,-0.986316919,14.59130693,9.671018361,-12.03778696,1.28637594
4.658147,-7.837113738,8.653034449,-64.7129879,-2.149909824,-1.36445399,14.83107805,9.241966486,-9.763677598,0.888055354
4.66648,-7.749033928,8.563257575,-64.6795349,-1.06732215,-1.175046433,13.71548796,9.252890586,-11.6788733,2.128418457
4.674813,-7.660229564,8.494344354,-64.63933945,-1.558922261,-0.639526066,12.59441161,9.244579316,-9.302960396,3.242861867
4.683146,-7.577420116,8.412008524,-64.5976944,-1.232812368,-1.48675862,12.5635972,8.505954147,-10.91383314,3.245781809
4.691479,-7.487045408,8.366303563,-64.56987955,-2.66803214,-2.632359773,11.97639871,9.640620112,-6.334404469,2.133451551
4.699812,-7.386877656,8.338290572,-64.54868698,-1.201491103,-0.019719825,12.336833,10.97682524,-4.119983077,1.704252945
4.708145,-7.303114295,8.30802846,-64.54719733,-1.622833878,-1.446786303,11.96977759,9.30060637,-4.090286374,-0.710791901
4.716478,-7.231736064,8.299710393,-64.55363083,-2.565864593,-2.204849899,11.17278957,7.982081175,-1.364348736,-1.176506732
4.724811,-7.175604224,8.327319264,-64.58984375,-2.198506289,-1.730029225,9.214978337,6.644355536,3.362063885,-4.273539901
4.733144,-7.172648668,8.338426471,-64.62355993,-0.700418942,-1.853978992,9.039255141,0.262625909,1.354480803,-4.097403348
4.741477,-7.184391141,8.404889345,-64.66609955,-2.348172784,-2.972990245,5.908683896,-1.41599989,8.075037956,-4.441716761
4.74981,-7.247977138,8.454500556,-64.69416238,-1.19884339,-2.20652017,6.308558166,-7.814538717,5.861786365,-2.918793589
4.758143,-7.333597899,8.603983522,-64.71701813,-2.277325381,-2.050680548,6.402546406,-10.59774065,17.66714549,-0.8279005
4.766476,-7.468975425,8.654874325,-64.69812583,-0.711512104,-1.416943915,6.370924227,-17.26868987,5.304847419,2.641375771
4.774809,-7.626662254,8.870488286,-64.69234275,-1.526453492,-1.50276503,5.891334832,-19.75838947,25.09038305,3.651200772
4.783142,-7.80196178,9.030086398,-64.6755562,-2.008230955,-1.950075997,3.636203259,-22.02746058,18.25203538,4.195797175
4.791475,-7.988686681,9.152560353,-64.65724945,0.581884753,-0.542128468,4.983499527,-23.46661759,13.79309988,3.746779323
4.799808,-8.204905033,9.385531783,-64.65750885,-2.699283064,-0.567906469,6.109583736,-26.66752958,27.21457339,3.536257923
4.808141,-8.412896037,9.517028332,-64.63697243,2.216886923,-1.63450405,3.268848838,-26.02404118,14.80350947,4.298034102
4.816474,-8.591837645,9.743769647,-64.64769363,-3.908194758,-0.507372411,6.301418126,-22.01820183,26.6293397,2.36783655
4.824807,-8.780370236,9.793833493,-64.62337495,3.251219153,0.269808689,4.198639796,-23.75681019,5.04897511,3.363624409
4.83314,-8.969675303,9.957930565,-64.6338997,-1.723099321,0.272884833,8.177337826,-23.27344466,19.1733079,1.415453613
4.841473,-9.140089989,10.07284355,-64.62446405,0.827412486,-0.500631198,4.297034994,-21.28562403,12.99089795,2.878263995
4.849806,-9.237166405,10.11644363,-64.62099455,-1.090955958,-0.704317302,2.156889513,-12.49770975,4.62207368,0.848577142
4.858139,-9.311418533,10.16088176,-64.6018467,0.478295594,0.676727273,5.095845997,-9.935779511,4.450246722,2.693132192
4.866472,-9.395947933,10.16632891,-64.60429193,0.249640055,0.465273976,6.824451805,-10.87548816,0.211349756,-0.56366992
4.874805,-9.442060232,10.18517184,-64.58590125,-1.071604662,-0.791720808,3.328333259,-6.547335475,1.428624504,2.110920534
4.883138,-9.435687542,10.15346551,-64.58630945,0.055097495,-0.474259451,3.205440045,-0.002667034,-4.223406673,-1.059647911
4.891471,-9.411968708,10.12824464,-64.56282805,-1.46672979,0.266993825,3.85096401,1.720847726,-3.8878088,1.843117058
4.899804,-9.38064003,10.07194543,-64.5592041,0.972582728,0.481018916,5.79829216,2.922110498,-7.211012661,-1.065321565
4.908137,-9.33657527,10.03416777,-64.5391388,-1.962417335,-0.552779708,2.603783548,4.21433875,-5.311255813,1.194411218
4.91647,-9.255455255,9.968671322,-64.53486253,1.115189716,-0.5619764,1.265007884,8.903941154,-8.311003447,-1.154446781
4.924803,-9.136788368,9.908372164,-64.51841738,-2.532338262,-0.566414513,2.610506227,13.23481083,-7.906754256,0.349166244
4.933136,-9.000217199,9.841005804,-64.52237513,1.660481282,0.602731615,4.724426091,15.74274898,-8.379844308,-2.116600275
4.941469,-8.871263027,9.786583185,-64.5150299,-2.613172241,-0.030939795,5.03509146,14.63730955,-7.044697761,-0.5715952
4.949802,-8.733721972,9.721499205,-64.52017785,1.447703585,-0.262036441,3.428300858,15.90374899,-8.08930409,-2.17958957
4.958135,-8.587667465,9.674905777,-64.5127735,-2.436057002,-0.089721024,2.375146568,16.67119289,-6.122645677,-0.399966374
4.966468,-8.426586867,9.603435277,-64.5071411,1.447217182,-1.271875501,1.394484256,18.53752423,-9.041908504,-0.989599914
4.974801,-8.243227482,9.551739932,-64.49443628,-2.06522359,0.181657836,2.874293745,21.0163107,-6.821999074,0.160159342
4.983134,-8.071975708,9.483013153,-64.47231293,1.231659115,-0.248041183,3.018520922,19.46365309,-8.992370425,1.049883127
4.991467,-7.901551962,9.441729309,-64.45779228,-2.546797358,-1.049396605,3.011680194,19.40441942,-5.614094974,0.56925416
4.9998,-7.734768749,9.386539222,-64.42467883,1.389559005,0.470756784,2.941977441,18.73659969,-7.548534215,2.609425478
5.008133,-7.562954426,9.34559226,-64.4101715,-2.236476302,-1.765100598,2.248821795,19.55597162,-5.569602549,0.606324732
5.016466,-7.391633034,9.296334028,-64.37641905,0.044216066,-0.381065834,2.990468472,19.30006218,-6.832462639,2.822680056
5.024799,-7.230026484,9.267462612,-64.36658858,-0.459887624,-0.74672583,3.320543796,18.41951966,-4.057670743,0.260243952
5.033132,-7.078082085,9.22360778,-64.3330021,-0.874658242,-0.643036589,4.109252096,16.97269964,-6.168611303,2.923424751
5.041465,-6.952927589,9.204406619,-64.32619095,-0.195837319,-1.757177636,2.026786491,14.09632468,-2.858293833,0.048828125
5.049798,-6.819921494,9.165549756,-64.28987883,-1.023870025,0.4378649,2.263210103,14.65375376,-5.596874815,3.343820572
5.058131,-6.70592916,9.143198966,-64.28613475,-0.187506169,-1.159611315,1.750923515,12.83755207,-3.186933316,-0.340675581
5.066464,-6.577168226,9.120423674,-64.25086405,-1.1778463,-1.360015094,2.79995656,14.16366363,-3.653714568,3.506246984
5.074797,-6.4515028,9.098201394,-64.2456608,0.512280622,0.894223176,3.858440042,14.20157218,-3.19135502,-0.167747483
5.08313,-6.342489243,9.068988562,-64.20945358,-0.90169362,-1.165652484,2.83491683,11.76075625,-4.41945225,3.532190859
5.091463,-6.240089774,9.041026592,-64.1993103,0.497225344,-1.548986197,2.095620073,11.35161257,-3.93326813,0.341915032
5.099796,-6.147754908,9.005005003,-64.1711235,-1.491353094,0.981664449,2.085441113,9.900737882,-5.112636745,2.466151417
5.108129,-6.046559215,8.975396753,-64.15732383,1.655705363,-1.215584349,2.837658815,11.14667273,-4.171896607,0.756651283
5.116462,-5.920710087,8.913376928,-64.12208558,-1.794442386,-0.533627347,3.433032036,13.78218675,-8.294214248,2.985051632
5.124795,-5.835594773,8.87723279,-64.11224745,1.181035489,0.194031566,3.031953096,9.326771976,-4.89464438,0.227175897
5.133128,-5.75846076,8.79585743,-64.07967188,-0.991114855,-1.8327972,1.99485936,7.956058264,-10.5676471,2.450815052
5.141461,-5.669319272,8.738043666,-64.0568352,1.011421711,1.021655649,3.21395845,9.605490684,-7.627872766,1.514966965
5.149794,-5.578765631,8.651042819,-64.03376195,-1.102449971,-1.173120588,3.641609401,9.718897341,-11.13153613,1.36897848
5.158127,-5.503240705,8.57764709,-64.00509643,0.239529729,-1.53246063,2.190349134,7.901297928,-9.544477105,2.044934854
5.16646,-5.442588568,8.483291388,-63.99052813,0.091991142,0.88982819,2.356878162,6.259732604,-11.9159081,0.301271618
5.174793,-5.381114244,8.395595551,-63.96379473,-1.130515594,-1.252022624,2.408151474,6.264766277,-11.22562289,1.690770213
5.183126,-5.308611632,8.290779233,-63.95313265,0.939316044,-1.177013472,4.373908073,7.77523756,-13.11759329,-0.235497449
5.191459,-5.27222991,8.206429958,-63.94054415,-1.883317243,0.202619091,2.549511738,3.467332512,-10.67132497,0.068773881
5.199792,-5.238403797,8.091498018,-63.9362011,1.2315045,-0.916544438,2.498259619,3.274354845,-14.25639653,-1.066461682
5.208125,-5.195115566,8.009183884,-63.93319128,-2.306879476,-0.885054484,3.208862603,4.464782834,-10.32517934,-1.007465765
5.216458,-5.15187335,7.907754183,-63.93443298,1.706653476,0.233911537,3.647142828,4.51528126,-12.57276559,-1.672571659
5.224791,-5.131311655,7.832938195,-63.92878725,-3.241520449,-1.746272728,2.374972058,1.659645896,-9.462092042,-0.623402595
5.233124,-5.116669536,7.757881284,-63.92440033,2.075459123,-0.161333867,2.868653834,1.026119083,-9.486840694,-0.576045095
5.241457,-5.109884381,7.706240893,-63.92360878,-3.218965084,-0.262184568,4.343059719,0.046867721,-6.647182583,-0.949014038
5.24979,-5.103167296,7.662485838,-63.90776445,1.554982871,-1.399828196,5.148150355,-0.072382735,-5.85140291,1.019161374
5.258123,-5.107735515,7.631469846,-63.9185238,-2.77763845,-1.174479261,4.167160102,-1.1560857,-4.065171123,-2.090438545
5.266456,-5.141057968,7.614228249,-63.90900613,1.413288122,0.866390109,4.238863125,-4.741121292,-2.610375434,0.55059427
5.274789,-5.173328996,7.587129474,-63.9175186,-1.24104464,-2.57235533,4.803398967,-4.545310412,-3.627577826,-1.773545861
5.283122,-5.185165048,7.586794615,-63.89656638,-0.45975123,1.062223315,6.624872088,-2.336892277,-0.709219734,2.078534544
5.291455,-5.208971262,7.563518167,-63.89757155,0.343087759,-0.301581251,5.484123111,-3.642760739,-3.250104249,-0.855640471
5.299788,-5.19619894,7.513708234,-63.8604641,-0.986720502,-1.018740639,6.611626863,0.34583416,-6.801697851,3.470866897
5.308121,-5.16820848,7.45201385,-63.84734345,2.143413156,1.700603873,8.383581519,2.385803059,-7.987435102,0.406991482
5.316454,-5.136534453,7.366252542,-63.8086586,-2.340489298,-0.084468223,8.117617369,2.547429472,-11.12013721,3.279486477
5.324787,-5.044556737,7.253611445,-63.78298378,2.593856052,-0.800129563,8.021153569,9.942459702,-14.19114495,1.291736088
5.33312,-4.947144747,7.041999817,-63.7368946,-1.303401917,0.45552475,10.1624465,10.30477333,-26.23570419,2.851159334
5.341453,-4.814624429,6.952455044,-63.71973228,1.576088727,-0.529895589,9.023710728,14.95810056,-11.34820831,0.748172611
5.349786,-4.672028423,6.577124477,-63.67834283,-1.14848417,-0.418001786,11.15375054,15.81625247,-45.75246906,0.714166045
5.358119,-4.510216534,6.449699283,-63.67159845,0.118354499,0.461101864,11.71344411,18.68023395,-15.765378,-0.801149808
5.366452,-4.293538809,6.020248771,-63.64500235,1.481617175,-0.770804398,10.68796241,24.88678837,-52.10034275,-1.15295656
5.374785,-4.105945647,5.773373604,-63.63094713,-2.162558451,-0.689252973,14.22417283,21.68205643,-30.12912941,-0.884092748
5.383118,-3.886069835,5.342748106,-63.6087456,0.703200609,-0.590893172,11.89237237,25.37237549,-52.21407795,-1.228911996
5.391451,-3.669344604,5.039746583,-63.58944705,-2.339592135,-0.964297175,13.18834817,25.16671372,-36.88813973,-0.492542505
5.399784,-3.467372835,4.59251529,-63.5865364,1.660592407,-2.063049048,11.96467826,23.4315095,-54.06866074,-3.257074863
5.408117,-3.237639129,4.165127158,-63.56585885,-2.751356304,0.383258402,15.07462573,26.74439812,-51.80173779,-0.926165044
5.41645,-3.042846143,3.850041509,-63.57713128,-1.587614872,-2.671210706,11.01011694,22.69944573,-38.15999985,-3.704981744
5.424783,-2.842080355,3.360984743,-63.55584905,0.084381904,-0.786500722,14.41997778,23.31450844,-59.1918478,-0.926100493
5.433116,-2.653883278,3.094804645,-63.5725708,-4.883767188,-1.264730439,14.66871524,21.9019804,-32.28552294,-3.95518136
5.441449,-2.516846329,2.832568288,-63.56223295,-1.11434637,-2.62104556,9.560624542,15.79281259,-31.94003725,-0.609549642
5.449782,-2.345115245,2.494458973,-63.56941033,-1.98730392,-0.878164597,15.68779278,19.84921551,-40.97858524,-2.992503077
5.458115,-2.190613091,2.444445655,-63.5589714,-5.01588434,-2.074362122,12.49326066,17.85151983,-6.499998451,0.549284771
5.466448,-2.12496531,2.291535437,-63.56149675,-0.279876001,-2.071982354,13.88494313,7.152281166,-18.79760743,-1.403328419
5.474781,-2.038071364,2.259503573,-63.54349515,-6.313508809,-0.370110277,17.40397453,9.676819564,-4.376635404,1.535945058
5.483114,-1.990189344,2.390519649,-63.55549813,-1.100967925,-4.419670642,10.68831939,5.056818008,15.2816143,-1.201839268
5.491447,-2.023168564,2.435913369,-63.52845573,-2.701513164,-1.511773139,14.32876587,-4.735909658,4.875876323,2.996737421
5.49978,-2.057926029,2.701745361,-63.52470208,-4.615469277,-1.529343642,13.74220717,-4.953949094,31.38256073,1.130257584
5.508113,-2.107408881,2.988216162,-63.50526045,-2.461843431,-4.733738244,11.24571967,-6.694930792,33.81696415,3.15208304
5.516446,-2.215286732,3.246996701,-63.4981098,-0.639992379,-0.10679736,18.57409036,-13.72516179,30.52154779,1.590882413
5.524779,-2.411616415,3.682167053,-63.48728563,-4.88816613,-1.572348282,15.72672367,-24.33249569,51.6648283,2.938085899
5.533112,-2.566831261,4.087233722,-63.4797058,-1.066333279,-3.922493339,11.73550797,-19.39240289,48.0429802,2.678596586
5.541445,-2.764991641,4.517208159,-63.46943283,-1.509072676,-0.830886096,14.4795264,-24.55136299,51.02797031,3.183313593
5.549778,-3.042437971,4.97115612,-63.47900583,-1.879791528,-2.4679351,15.03273678,-33.90501165,53.98802662,1.205643907
5.558111,-3.272948384,5.478175164,-63.48346903,-3.617002107,-1.389223159,16.91385794,-28.3288393,60.31016636,2.442224622
5.566444,-3.545212627,5.954452515,-63.4925308,0.453947634,-1.050083187,16.26196432,-33.2199955,56.65160942,1.910467848
5.574777,-3.842784166,6.488568425,-63.52630998,-3.059112072,-1.100499451,13.55531442,-36.01347065,63.74991703,-0.262213875
5.58311,-4.146603584,6.919456482,-63.56176758,2.080529347,-2.465910293,12.14401054,-36.61776209,51.41006756,-1.005980432
5.591443,-4.416452229,7.46399343,-63.6226883,-3.625771761,-0.359222979,16.48127961,-32.22376013,65.22839451,-2.742221653
5.599776,-4.704454303,7.916241408,-63.6693382,1.716581546,-1.053508759,14.15363074,-34.43640566,54.07979965,-1.584647328
5.608109,-5.015333772,8.342564464,-63.7348118,-2.402045727,-3.132393956,16.43347955,-36.989223,51.14944363,-3.811519213
5.616442,-5.280712605,8.842758416,-63.78061488,-2.326394171,0.826825209,16.04167772,-31.63130617,59.81582356,-0.423604071
5.624775,-5.542315841,9.218380689,-63.84454918,1.195811023,-0.662243921,14.6105299,-30.97416306,45.10424233,-3.669337533
5.633108,-5.776540041,9.582904579,-63.88384248,-0.029773349,-1.095857114,15.57415319,-27.96361256,43.53095627,-0.706405878
5.641441,-5.977327585,9.913753987,-63.9475746,-0.968420401,1.018704653,16.70213318,-23.58066034,39.78406525,-3.826882974
5.649774,-6.18483758,10.22850919,-63.9822235,-0.068782548,-1.562699497,12.9248383,-24.81794214,37.53262138,-0.462615788
5.658107,-6.343141198,10.47851372,-64.00972558,-0.072829291,-2.528789845,13.94475413,-19.16470528,29.69516039,-0.341646514
5.66644,-6.478992224,10.70980335,-64.02071953,-0.677756071,0.506431356,15.1087203,-16.67831111,27.27795124,1.433194697
5.674773,-6.624817848,10.88511038,-64.06126783,0.523877889,-2.239765793,14.26717472,-17.36529994,20.95954228,-2.736517906
5.683106,-6.736505509,11.08581495,-64.0785713,-2.552932978,-0.117049605,17.90990782,-13.63680053,23.70676232,0.391085498
5.691439,-6.839324594,11.24545455,-64.12475205,-0.364289828,-0.397653193,16.36216593,-12.03366542,19.18404865,-3.527716339
5.699772,-6.922853589,11.39338255,-64.14450265,-2.318962395,-1.888302081,16.13601708,-10.20881045,17.44848299,-0.572913438
5.708105,-6.998270154,11.47609854,-64.17160033,1.488424128,-1.314094663,13.73370266,-9.142743707,9.761339904,-2.341487348
5.716438,-7.048789978,11.53326202,-64.17889405,-1.111692015,-0.037053548,15.04815769,-6.555544437,6.460086584,-0.402834758
5.724771,-7.082548142,11.57863665,-64.20150185,-0.064366522,-0.746934757,17.5765388,-4.223227985,5.254863502,-2.345761597
5.733104,-7.140473008,11.57359624,-64.20817758,-1.852843732,-2.944410861,15.15546274,-7.482466221,-0.961926658,-1.244935289
5.741437,-7.185362459,11.57726455,-64.21508028,-0.728987727,-0.758304067,14.95588755,-5.934975863,0.064867958,-1.130721361
5.74977,-7.198356509,11.52847385,-64.19398503,-1.948933572,-1.059608974,15.36515784,-2.760366261,-6.57732296,1.33601284
5.758103,-7.208529711,11.4816432,-64.18803025,-0.725156337,-1.893956542,15.36498046,-2.051754669,-6.130668164,-0.388145432
5.766436,-7.222725868,11.41050649,-64.17647935,-2.113692165,-0.748839639,16.70589304,-2.708811067,-9.102234006,-0.108226627
5.774769,-7.241994143,11.31757259,-64.15265085,0.067405755,-1.303018309,15.51902604,-3.553770721,-11.88604426,1.000146449
5.783102,-7.26164639,11.19799494,-64.12293245,-0.842077013,-1.526811205,14.21807766,-3.779960692,-15.13937593,1.278605089
5.791435,-7.289932609,11.05758572,-64.09324075,-0.008584816,-0.955347304,13.16618347,-4.757182777,-17.62065601,0.960258931
5.799768,-7.291457296,10.9111259,-64.06002048,-0.57018064,-1.689673454,14.77923346,-1.668175578,-18.39493799,1.267920967
5.808101,-7.295069814,10.77823878,-64.02083968,-1.49866122,-0.855131934,17.23196221,-1.997414276,-16.86631251,2.170669347
5.816434,-7.308766842,10.6117611,-63.9844513,-1.28466633,-1.536582381,15.82763529,-3.179274976,-20.82114315,1.328322679
5.824767,-7.30439651,10.45011687,-63.94363978,-2.453911782,-1.321419954,16.31096196,-1.053993992,-20.31732416,1.925752405
5.8331,-7.294387341,10.26000547,-63.90870478,-0.887483112,-1.116056159,15.26329684,-0.265514083,-23.61457205,0.815109354
5.841433,-7.28128171,10.0737431,-63.8746376,-2.194480509,-0.913829446,15.56943011,0.161193792,-23.14593935,0.78051088
5.849766,-7.268880487,9.874217988,-63.8430958,-1.175984524,-1.288728576,15.91948199,0.12101428,-24.68556357,0.293110248
5.858099,-7.268081904,9.685904265,-63.81141855,-1.476665877,-1.811863303,15.48804903,-1.243885547,-23.35391522,0.480164677
5.866432,-7.268229842,9.482713463,-63.7802334,-1.420807563,-1.387530461,15.08385754,-1.360600196,-25.11481285,0.201196611
5.874765,-7.250267387,9.281009915,-63.7445698,-1.243038103,-1.676612586,14.47110891,0.766519334,-25.00992298,0.748691559
5.883098,-7.23274076,9.08370328,-63.7209377,-1.504171312,-0.859575332,15.87952876,0.93056568,-24.3044672,-0.585106289
5.891431,-7.219761491,8.887264848,-63.69107248,-1.008426689,-0.829308873,15.42027617,0.300551154,-24.29722357,0.169476673
5.899764,-7.200183749,8.67196405,-63.65224265,-0.615095753,-0.913948492,14.31141138,0.937887988,-26.67218542,0.964930371
5.908097,-7.170192123,8.455732584,-63.6152077,-1.486093774,-1.098283369,14.05148888,2.24509874,-26.75632334,0.737799198
5.91643,-7.146661639,8.23954165,-63.58891298,-0.924128546,-2.247233927,13.79977441,1.652868375,-26.58968735,-0.504251808
5.924763,-7.119065285,8.05509758,-63.55449295,-2.40298754,-1.428139091,15.3437655,2.038109774,-22.93630362,0.92626553
5.933096,-7.09469831,7.858616233,-63.51863098,-2.07977134,-0.869811863,16.68310452,1.613745663,-24.38742209,0.943321578
5.941429,-7.066826225,7.678820729,-63.48338318,-2.875552118,-1.251302473,16.14588046,2.073040754,-22.39170122,1.120517575
5.949762,-7.044079185,7.495923877,-63.44651795,-1.547080279,-1.465427853,14.34168101,1.443679601,-22.78443098,1.307155699
5.958095,-7.022618055,7.326771855,-63.410532,-1.616221175,-1.38595137,13.361336,1.321099285,-21.13513327,1.39246726
5.966428,-6.99260056,7.176160336,-63.37762833,-2.031422302,-0.933576763,15.90239239,2.401351363,-18.86734963,1.253970921
5.974761,-6.977501512,7.042009473,-63.34100723,-1.710140169,-2.419847578,16.33492613,0.569494389,-16.97820449,1.988840222
5.983094,-6.958292723,6.920829773,-63.31569863,-3.265668541,-0.842992518,14.68374228,1.224703206,-15.26469994,0.883761659
5.991427,-6.936040759,6.809389234,-63.2933445,-1.609882236,-0.611953527,14.4952035,1.644594334,-14.06369066,0.648075551
5.99976,-6.895485997,6.699612379,-63.2686062,-1.05262845,-2.524823636,13.14906669,3.809586406,-13.89753008,0.998622276
6.008093,-6.86344707,6.605390787,-63.25153353,-1.793362886,-0.663833536,14.35281658,2.915575772,-11.93405366,0.289821874
6.016426,-6.862280846,6.517438293,-63.24169543,-0.925150377,-1.509971648,13.52897597,-0.709492028,-11.07011437,-0.542816869
6.024759,-6.834964275,6.451740265,-63.225605,-2.42786789,-1.818587587,15.34606957,2.373732254,-8.523063541,0.585195598
6.033092,-6.789633751,6.413194776,-63.21567155,-2.394800335,-0.522594214,15.70886493,4.594767988,-5.18477279,0.167091258
6.041425,-6.757314921,6.369987846,-63.20305253,-1.353519082,-1.361926765,14.69140935,3.017126627,-5.79465735,0.504193798
6.049758,-6.715424538,6.325532317,-63.18634415,-0.859673247,-1.25944981,15.79535675,4.095572412,-5.996843577,0.992289126
6.058091,-6.681471348,6.27517724,-63.1692276,-1.583224058,-0.374146,15.11734176,3.157364279,-6.704270363,0.949081153
6.066424,-6.65302968,6.230584741,-63.15634728,-1.794221252,-1.441265982,14.79829502,2.534633993,-5.95727551,0.531504985
6.074757,-6.608947992,6.192802906,-63.13876915,-1.73031354,-2.528297544,14.63839078,4.365895331,-5.209608674,1.183438562
6.08309,-6.552136898,6.166791082,-63.12652778,-2.773445308,-0.271819517,15.5199287,5.949671507,-3.728744447,0.702252753
6.091423,-6.509883523,6.141176462,-63.10871508,-2.523904175,-0.444361695,15.29174757,4.138213277,-3.764392913,1.385406628
6.099756,-6.472046375,6.144325972,-63.0941143,-1.293932101,-2.44932051,13.06912851,3.651562333,-0.283421507,1.380504869
6.108089,-6.417139292,6.141402364,-63.07946778,-2.655593246,-1.229292915,13.32099009,5.70020175,-1.010763284,1.322149143
6.116422,-6.36499095,6.150996566,-63.07116698,-0.699633669,-1.90548753,14.37831927,5.452934623,0.581180617,0.628637418
6.124755,-6.308468819,6.174491406,-63.05855558,-2.29013893,-2.02260676,15.06591869,5.907638133,2.16849795,1.428611621
6.133088,-6.254694939,6.180508852,-63.04371835,-0.717879488,0.35006401,16.13293528,5.573404789,0.074009134,1.353869289
6.141421,-6.205267549,6.208743096,-63.03216553,-1.242753431,-1.328515068,14.52443218,5.067879379,2.747376591,1.360641077
6.149754,-6.163880348,6.207401395,-63.0123577,-1.345711097,-2.107037842,14.0528965,4.040024757,-0.863318142,1.853125911
6.158087,-6.13613236,6.235799313,-63.00437355,-1.465375543,-2.274568141,13.4950738,2.503019691,2.816570133,0.932159651
6.16642,-6.091663838,6.260242939,-62.98478698,-2.442803741,-0.635931388,15.20678854,4.388186038,2.194774866,2.354255617
6.174753,-6.052733302,6.292803169,-62.96803855,-1.931064576,-1.193237543,15.93831444,3.734312117,3.204571366,2.021174371
6.183086,-6.027466655,6.321500778,-62.953825,-1.796943605,-1.766248375,12.85784817,2.155585498,2.774473369,1.773011148
6.191419,-6.00524807,6.345605612,-62.94706535,-1.847982332,-1.195656195,13.29117775,1.860602003,2.331660658,0.643541649
6.199752,-5.979325891,6.389404774,-62.93802645,-0.893900348,-1.633512214,11.60497069,2.300648183,4.652604699,1.236584723
6.208085,-5.946024657,6.434999466,-62.93803405,-1.317153007,-1.830231994,12.51972413,3.303263083,4.984619796,0.103779268
6.216418,-5.914187789,6.496458531,-62.94243813,-2.212157518,-1.106752396,13.61556506,3.169323065,6.926428914,-0.15183799
6.224751,-5.900378347,6.551979184,-62.94940565,-0.790098906,-1.202200666,12.76103592,1.055508368,6.246217012,-0.515006222
6.233084,-5.897712827,6.595819473,-62.95878603,-0.759389136,-1.790320099,10.8847506,-0.26824196,4.880443931,-0.952330884
6.241417,-5.896243334,6.662669659,-62.97115325,-1.908359915,-1.226193831,10.88925338,-0.323325262,7.678017736,-1.107806109
6.24975,-5.891928077,6.714009166,-62.99240685,-0.837638028,-1.707159877,9.95099783,0.083323084,5.918335796,-2.265271824
6.258083,-5.891905785,6.744163871,-63.00640678,-1.620004326,-1.525619775,10.75839353,-0.471810961,3.318288743,-1.756115124
6.266416,-5.896785855,6.808421612,-63.0291195,-1.90569757,-0.95145715,11.39112687,-0.986823753,7.480598807,-2.293044061
6.274749,-5.905691266,6.8526088,-63.04353715,-1.327572138,-1.126134113,10.06176067,-1.538320482,4.998288154,-1.639935434
6.283082,-5.943147183,6.933378339,-63.07278255,-0.664790809,-1.659491539,7.737940907,-4.77962327,9.533702018,-2.841380954
6.291415,-6.003939033,6.965568781,-63.10034563,-1.258699916,-2.202514679,7.512930512,-7.594986081,3.726813436,-3.330676794
6.299748,-6.050495386,7.059828758,-63.1285076,-2.158982665,-1.003669441,7.843572855,-5.878640891,11.13630235,-2.545498192
6.308081,-6.134682298,7.189611793,-63.16802023,-0.676870089,-2.404204786,5.325643834,-10.20099783,15.5283134,-3.479211688
6.316414,-6.244433641,7.207873344,-63.18774225,-1.628117562,-1.273228452,8.871172071,-13.59322953,1.952656552,-2.385681421
6.324747,-6.364741564,7.442617774,-63.2248497,-2.016926065,-2.447534979,4.376153171,-14.54867697,28.03069067,-1.755937517
6.33308,-6.510055065,7.442903757,-63.22474478,-0.285269638,-1.036921203,6.722776034,-18.16073156,-0.436303437,-0.393044218
6.341413,-6.710513353,7.721435547,-63.2545128,-2.232556433,-1.970654935,6.074326708,-24.2819376,33.15412236,-0.132893071
6.349746,-6.893229365,7.803730488,-63.24817088,0.575973019,-0.960832924,3.882876858,-22.70376921,9.251867011,1.54001838
6.358079,-7.094760537,8.029025078,-63.26222613,-3.848953128,-1.600858122,5.827553808,-24.69766808,26.57485485,1.163960189
6.366412,-7.333548069,8.154196977,-63.2533779,3.013517829,-0.650716118,3.173717842,-29.4286685,14.31293178,2.575209513
6.374745,-7.592861772,8.392037988,-63.27934835,-4.073435307,-1.749173492,5.556516648,-31.45407248,28.23053122,0.176675975
6.383078,-7.802232385,8.546739817,-63.2802696,1.540185541,-1.129312508,0.702211022,-25.72581053,17.9583571,2.027954057
6.391411,-8.01353693,8.719177366,-63.31072805,-2.535876915,-0.119713791,6.453452759,-25.57172251,20.52304912,-1.192843288
6.399744,-8.264824748,8.895723342,-63.32530213,0.823690772,0.048615299,4.357363701,-30.53400183,20.75724602,0.939297527
6.408077,-8.522145272,9.045628308,-63.3533497,-1.330196738,-1.24539501,3.309496951,-31.11082268,17.81297207,-1.114758909
6.41641,-8.735526562,9.236889364,-63.36557773,0.636833698,-0.289363929,1.591123521,-26.01944876,22.44865418,1.656634599
6.424743,-8.930405378,9.372321845,-63.39042853,-1.403292,-0.888418455,2.697396964,-23.67316628,16.04214287,-0.856559932
6.433076,-9.114284992,9.519722701,-63.39424135,0.738621578,0.411235273,4.702318847,-22.61070347,17.0787921,2.001372814
6.441409,-9.297929525,9.633981226,-63.42093278,-1.715010524,-0.652890846,3.468964696,-22.30401134,13.56596518,-1.369546354
6.449742,-9.450262308,9.751606225,-63.41673853,0.767865233,0.589783747,3.45839423,-18.96310425,13.38832378,2.463694096
6.458075,-9.577448607,9.843732119,-63.43891525,-1.002418727,-0.946059488,1.403445374,-15.62252426,10.85991419,-1.2037673
6.466408,-9.671996117,9.910943268,-63.42229653,0.57357949,0.989077697,3.608160675,-12.26712322,7.170408249,2.949233592
6.474741,-9.750932693,9.981189968,-63.4417076,-0.756205976,-0.549949512,2.295468748,-9.891883733,8.219049633,-1.288969636
6.483074,-9.79407835,10.00192904,-63.41953468,0.259083748,0.89352338,3.383335948,-6.215202213,1.556298763,2.6719594
6.491407,-9.817226888,10.04237461,-63.43644333,-0.311445624,-0.430665336,1.879815608,-3.241968215,4.646486938,-1.593541503
6.49974,-9.800703526,10.03053331,-63.4125309,-0.369928718,0.667789318,2.714316011,0.894862216,-2.335304171,2.206752792
6.508073,-9.762391329,10.03515411,-63.4216461,0.37771444,-0.243807267,1.92927441,3.985482514,0.25450968,-1.41341928
6.516406,-9.684720516,9.992393018,-63.39463233,-1.065597922,0.445895583,2.623816937,8.143544197,-6.052455783,1.928816349
6.524739,-9.590993881,9.959133148,-63.3896446,1.300888449,0.191046659,2.314388841,10.36875605,-4.504459679,-0.531891942
6.533072,-9.458871126,9.885204794,-63.35410688,-1.782688916,-0.283318205,2.428708732,14.48333621,-9.903419853,2.320896387
6.541405,-9.309499025,9.816770792,-63.3398647,1.882498741,0.697993338,2.705718219,16.88885784,-8.842720329,-0.116838455
6.549738,-9.139094114,9.721624613,-63.30294418,-2.267423213,-0.763848983,2.792720974,19.04096842,-12.43230033,2.118426085
6.558071,-8.950559139,9.629798412,-63.28676985,1.780353486,0.188654374,2.652893186,21.56973648,-11.645612,-0.274213046
6.566404,-8.754158259,9.523380281,-63.25069048,-2.432368905,-0.360343561,2.535368383,22.16784478,-13.74115872,1.88217324
6.574737,-8.546646118,9.425514698,-63.23434828,1.222834379,-0.956215382,1.370127253,23.87339544,-12.36163497,-0.287132209
6.58307,-8.320729852,9.307134867,-63.20053483,-1.879428208,0.57812195,3.060315073,25.74920559,-15.10778308,1.506796897
6.591403,-8.109225512,9.218066215,-63.1771774,0.666405767,-1.314056426,1.589941889,24.24533558,-11.43121123,0.784567595
6.599736,-7.882878542,9.113971233,-63.14960673,-2.194553852,-0.804158107,1.773281336,25.91428661,-13.29429769,1.115145322
6.608069,-7.667188525,9.029057145,-63.12294198,0.674756288,0.530221045,1.874365747,24.70751047,-10.97893798,1.318480559
6.616402,-7.441710711,8.931999802,-63.1002388,-1.786799997,-2.062984019,2.336774826,25.90758371,-12.37062502,0.761060178
6.624735,-7.218442083,8.861560464,-63.07741738,-0.515418401,0.399368264,2.803091049,25.72465801,-9.183321478,1.174461149
6.633068,-7.004162789,8.782668233,-63.06436348,-0.154185697,-0.598031261,3.644088865,24.73366595,-10.0572077,-0.023321718
6.641401,-6.789992809,8.710021019,-63.04060935,-0.908437804,-1.385392755,3.561366558,24.60569239,-9.450118422,1.310296833
6.649734,-6.597485423,8.639101028,-63.03426743,-0.323420048,-0.670510978,2.450471044,22.24812269,-9.009764314,-0.640477598
6.658067,-6.411116242,8.565664411,-63.01010705,-0.285577789,-0.751795758,1.83581002,21.28028107,-9.536827446,1.411197782
6.6664,-6.239165068,8.483492017,-63.00146675,-0.197861537,-1.215386927,1.890783787,19.74341345,-10.38384616,-0.45573473
6.674733,-6.071294904,8.412935853,-62.97324943,-1.041097622,-0.777490161,2.318624184,18.99217272,-9.232152224,1.967916429
6.683066,-5.901882291,8.330557347,-62.9615593,0.125529071,-0.108729556,3.559842169,19.38883543,-10.44807994,-0.041578233
6.691399,-5.746579886,8.263449669,-62.9314804,-1.138148591,-1.135759473,3.231693059,17.47159529,-8.825109481,2.269172072
6.699732,-5.611633539,8.176610232,-62.91855813,0.851876959,-1.370434264,3.246260524,15.25355983,-10.98983252,0.099204093
6.708065,-5.49460733,8.102548122,-62.89524648,-1.522333324,-0.383074194,1.646772705,12.95685744,-9.570924284,1.403929055
6.716398,-5.383928299,8.011559487,-62.8772831,0.68154031,-0.628422488,2.125878543,12.283777,-11.53786421,0.687668577
6.724731,-5.263184547,7.932385683,-62.85420035,-1.591837973,-1.293299027,2.353604168,13.42467332,-10.17012799,1.359408349
6.733064,-5.159110904,7.850593209,-62.84249115,0.364530876,0.033265732,3.873919845,11.62534547,-10.36410642,0.094343662
6.741397,-5.070161581,7.773388744,-62.82385828,-0.903838918,-1.692975611,2.623762339,9.641420365,-9.887841939,0.876026318
6.74973,-5.002290964,7.68377018,-62.80695153,0.498482449,-0.281381212,1.699061301,7.211464644,-11.34897137,0.645571612
6.758063,-4.939361453,7.586935044,-62.7941246,-1.183371591,-0.794644684,2.586151779,6.623800397,-12.17026341,0.023901165
6.766396,-4.881593824,7.509552598,-62.77799985,-0.273762912,-1.025909513,3.413403511,6.02433157,-9.88047135,0.775800794
6.774729,-4.82208693,7.40670681,-62.76786043,0.303120584,-0.446273452,3.32354179,6.229863465,-12.86612964,-0.344415665
6.783062,-4.791992426,7.32155025,-62.74658583,-1.363856971,-0.525875896,1.974274308,2.655921251,-10.84766245,1.247169912
6.791395,-4.780911327,7.206188321,-62.7396736,1.224149555,-1.937150042,2.147963285,0.488793158,-14.33104587,-0.825774923
6.799728,-4.74911952,7.133214236,-62.71935843,-2.474990755,0.719841913,2.972937673,2.856147677,-9.382310153,1.240385175
6.808061,-4.715455294,7.019651413,-62.71329115,1.816841766,-0.446254786,3.400404155,3.227080345,-14.10571003,-0.896418631
6.816394,-4.712868333,6.937820077,-62.6962757,-2.136296615,-2.33175236,1.856103838,-0.601748437,-10.40892041,0.770629823
6.824727,-4.716717482,6.818764568,-62.69062618,2.025598273,1.267495804,2.156424649,-1.248777304,-14.75645995,-0.991966099
6.83306,-4.713751316,6.719355822,-62.68492695,-3.44829727,-1.304139316,3.483042564,-0.42667836,-12.40509749,-0.736163274
6.841393,-4.694809198,6.62219727,-62.68634415,2.845738352,-1.028910309,3.866494507,1.643448114,-12.06158912,-1.602196328
6.849726,-4.717476726,6.522889733,-62.6946945,-3.319126427,0.607615709,1.958453264,-3.354645818,-12.26256823,-2.407850742
6.858059,-4.740454674,6.425834298,-62.70032503,1.959181964,-1.783134654,1.587270133,-3.309360045,-12.00332051,-2.108494118
6.866392,-4.737818837,6.355462551,-62.72143173,-3.68843472,-0.515420235,4.087705553,-0.155074867,-8.678634764,-3.612648011
6.874725,-4.741193891,6.292874456,-62.7296505,2.091621999,1.553048223,4.828365147,-0.925829815,-7.856655613,-2.081906229
6.883058,-4.763780713,6.259030223,-62.73878478,-3.150406599,-3.122250714,3.031550944,-3.396707028,-4.43744924,-1.844640494
6.891391,-4.785147071,6.232083678,-62.71382523,1.147972211,0.155522153,3.28471151,-3.4476313,-3.909504056,2.24043262
6.899724,-4.826186896,6.241821885,-62.72890473,-3.123591066,0.104994506,3.326536715,-5.571471274,0.828460455,-2.12297523
6.908057,-4.829549194,6.252663136,-62.6996498,1.429353923,-0.915700838,4.814292357,-1.328059966,0.564745844,3.12315035
6.91639,-4.8238765,6.27954936,-62.7232418,-2.220485747,-0.446274717,5.365295649,0.146026774,2.963970632,-2.945999086
6.924723,-4.836381078,6.300967932,-62.71349715,0.492046774,0.242809504,5.554475367,-2.162552476,2.028356135,0.911485791
6.933056,-4.824666262,6.328468681,-62.74751665,-0.041914716,-1.308101773,6.803149224,1.002646826,3.138618261,-4.179328383
6.941389,-4.793333173,6.287207007,-62.73389818,-0.304693157,1.203356726,8.593860388,3.0415629,-5.505357802,0.748063684
6.949722,-4.761619449,6.219776511,-62.7590027,2.451074064,-0.951517031,8.316851615,3.282243878,-8.299074292,-4.163466973
6.958055,-4.713430286,6.172826886,-62.73027613,-2.316476047,-0.646902413,8.509229304,4.868527264,-6.342133403,2.587521316
6.966388,-4.588268876,5.969732166,-62.72504043,3.620426536,0.913158774,9.553699135,14.11728847,-24.82354784,-1.857102304
6.974721,-4.490293384,5.799814224,-62.67153548,-1.672407746,0.073131509,15.50274372,10.51933581,-21.28175116,4.395571588
6.983054,-4.38232553,5.547620892,-62.665411,1.741441071,-1.1710817,9.775056361,12.10860133,-30.70401478,-2.02121222
6.991387,-4.249275088,5.266443193,-62.63547898,-0.152692184,-0.725814417,10.4588002,14.9756372,-34.37717533,0.673312844
6.99972,-4.088614047,4.885240257,-62.6306038,1.398751363,0.180668007,11.33077967,18.49517656,-46.13070679,-3.239581227
7.008053,-3.903629899,4.561145723,-62.62028123,-2.352363214,-1.419849351,12.62291193,21.42555809,-39.34000921,-1.930485361
7.016386,-3.7072981,4.069313169,-62.61828613,2.59323588,0.689414896,15.74251413,22.85320521,-59.36979675,-4.077605545
7.024719,-3.486115992,3.704109728,-62.62432673,-4.904606879,-0.31985386,14.3468194,25.87072182,-44.15781212,-3.933868468
7.033052,-3.268015206,3.266829461,-62.64115335,2.664788365,-0.930682167,11.90741467,25.63453436,-52.7249403,-5.474906982
7.041385,-3.034163058,2.781355888,-62.6520462,-4.910834581,-2.062445313,15.25676656,27.39784956,-58.56323338,-4.987350583
7.049718,-2.782516241,2.413377643,-62.67030523,0.404049695,0.204499856,13.88704634,29.65464354,-44.45336914,-4.71784979
7.058051,-2.551354438,1.984031625,-62.6979847,-2.898873836,-2.615724027,12.20343184,27.08797121,-51.78497315,-6.17735383
7.066384,-2.324955553,1.602418901,-62.71270753,0.013235614,-0.808259003,15.53547621,26.60920143,-46.13539982,-4.011466004
7.074717,-2.112319619,1.230602466,-62.7435341,-4.85799782,-1.676474079,16.76984,24.83501053,-44.91549778,-5.90914093
7.08305,-1.892223448,0.978789509,-62.76954843,-0.120363355,-0.984414041,13.36384213,25.86478758,-30.54691267,-4.489648466
7.091383,-1.739145518,0.656542701,-62.809618,-2.691505879,-2.8262088,12.27129555,17.61995649,-38.97726297,-6.505593239
7.099716,-1.575982839,0.398030851,-62.81846238,-1.243610293,-1.463558823,13.57185101,19.027421,-31.43149948,-2.278796435
7.108049,-1.413432598,0.209426373,-62.85710143,-3.229719728,-2.392795414,13.89995909,18.70183086,-22.98539925,-5.71188659
7.116382,-1.268332914,0.04785718,-62.8705902,-0.490515232,-1.763169631,12.62372303,16.83050585,-19.79858923,-2.487364828
7.124715,-1.170416921,-0.137471438,-62.90377998,-2.03153199,-1.9560467,16.26875865,10.93672133,-22.63189364,-4.942215829
7.133048,-1.123877578,-0.249038294,-62.9125309,-2.843897566,-2.053925887,16.2420857,5.002727091,-13.8122077,-1.766681671
7.141381,-1.063440532,-0.281867296,-62.96401023,-1.75738029,-2.053993181,13.83305383,6.406988442,-4.305986762,-6.739567281
7.149714,-1.093823478,-0.340753824,-62.97937203,-2.087796018,-2.494936049,11.0285039,-4.255578995,-7.486391903,-2.287972987
7.158047,-1.127972022,-0.354988441,-63.0235481,-1.923217595,-3.660448432,13.12333226,-4.908469021,-2.085120559,-5.815094605
7.16638,-1.145402208,-0.256304115,-63.03822708,-4.514723182,1.497776389,18.37439013,-2.732331466,11.41526103,-1.868546069
7.174713,-1.225327566,-0.141409099,-63.081707,-0.665979547,-4.026076198,13.34656572,-10.39067018,13.40485859,-5.298510731
7.183046,-1.333342567,0.013510868,-63.09594155,-4.509607792,-2.508311048,13.62558818,-13.59075523,18.16476345,-1.61136426
7.191379,-1.48541905,0.176544927,-63.133625,-1.179862306,-0.6160274,15.82025647,-18.98519754,19.19117522,-4.523304314
7.199712,-1.595962614,0.472204913,-63.15654948,-4.362206042,-2.360884756,15.66735244,-13.92604566,35.07112884,-2.138090141
7.208045,-1.78118223,0.747194529,-63.18763925,-0.869450063,-1.95169513,14.3198638,-22.90305615,32.61603832,-3.128078476
7.216378,-2.017540932,1.056854487,-63.2222576,-2.675443858,-2.368648678,12.44772434,-28.98152781,36.80775738,-3.234732881
7.224711,-2.253637075,1.363314618,-63.26106073,-2.010111094,-2.127755821,15.17280745,-28.93323279,36.4541626,-3.758393526
7.233044,-2.490048617,1.723385908,-63.2986393,-0.232984886,-1.855545968,15.83588338,-28.95425606,42.87845039,-3.045389116
7.241377,-2.795869291,2.088020832,-63.3394203,-3.723787427,-0.707323104,15.80539084,-37.24138832,43.46604443,-3.263061166
7.24971,-3.100826621,2.532981545,-63.391716,-0.53785798,-1.910850577,12.54588866,-37.03562641,53.17054653,-3.87973851
7.258043,-3.425426781,2.873892367,-63.44125368,-1.724813521,-2.380798519,14.19176221,-39.38247776,40.71390915,-4.051773727
7.266376,-3.768233359,3.377921879,-63.4878311,-1.724397168,-0.84986037,14.27673793,-41.5086832,60.23956013,-2.149380744
7.274709,-4.133399725,3.757027924,-63.53240585,-0.400036298,-3.372978836,11.7765013,-44.22747898,45.2739048,-2.544651889
7.283042,-4.475563288,4.262323499,-63.56910898,-4.07075882,0.266129594,19.42026949,-41.40839672,60.326437,-0.245854765
7.291375,-4.840232134,4.767510116,-63.62407495,-0.601670146,-1.403513834,14.83445501,-43.97876644,60.48113441,-1.998332428
7.299708,-5.213877559,5.175722897,-63.6522293,-0.039400034,-1.20702228,14.98466802,-45.2111702,48.61739636,0.567479372
7.308041,-5.544635653,5.691950917,-63.6933613,-3.278213516,0.1602154,16.18252802,-39.97572994,61.65879345,0.498755247
7.316374,-5.862631798,6.119910598,-63.72321703,0.490525529,-0.81017013,13.59714341,-38.4209261,50.99205017,1.19402723
7.324707,-6.172282815,6.58431077,-63.7777195,-1.759154454,-0.690861851,15.35799098,-37.20175267,55.6250658,-1.060726047
7.33304,-6.475729585,6.974501968,-63.81108095,1.236929149,-0.33508327,13.6007545,-36.55632878,46.5136137,0.853721053
7.341373,-6.751624346,7.378570795,-63.8736496,-1.336113266,-0.393260978,14.43596983,-32.96227312,48.53915882,-2.216805131
7.349706,-6.988431335,7.77983594,-63.90805623,-0.74496676,-1.448359549,15.39166856,-28.49608135,47.83354187,1.322562575
7.358039,-7.191678643,8.136495114,-63.96223068,-1.494884431,-0.721021491,15.72340107,-24.25832605,42.78813744,-1.507341027
7.366372,-7.370900869,8.499858618,-64.00425338,-2.13718462,1.343795743,17.81999612,-21.42502976,43.41929531,0.203214079
7.374705,-7.535951257,8.821090341,-64.05323408,0.381449446,-1.653451517,15.49441767,-19.67231989,38.49620152,-1.146354556
7.383038,-7.674990296,9.111807466,-64.08348845,-2.021576472,-0.8193077,14.64561272,-16.76859498,34.5887413,0.693858504
7.391371,-7.80135262,9.363841652,-64.1253929,0.603259563,-0.165631963,14.5774777,-15.08867335,30.16131926,-1.227851749
7.399704,-7.909638763,9.59127593,-64.15384105,-1.061080203,-2.360874474,15.01729584,-13.11176181,27.02761078,0.014494542
7.408037,-8.000949502,9.80144429,-64.1843834,0.060026348,-0.307352249,16.90834475,-11.06080723,25.00781822,-0.506592423
7.41637,-8.092583776,9.95675802,-64.19905853,-0.329195283,-0.651240239,16.29599714,-11.38944793,18.2281313,0.502673239
7.424703,-8.164346814,10.09485197,-64.2192688,-0.145928592,-1.100835592,15.0067389,-8.896348118,16.27342248,-0.403853369
7.433036,-8.225571275,10.18455601,-64.2342472,-1.085258901,-0.804640282,14.56593895,-7.73991251,10.43766129,-0.604806654
7.441369,-8.285802245,10.26467943,-64.24096678,0.995029837,-1.704226546,13.50265861,-7.773923993,9.159013868,0.216997504
7.449702,-8.324972987,10.30134392,-64.2333412,-1.420931846,-0.677875847,16.45210886,-5.57468614,3.753689736,1.13956143
7.458035,-8.368279577,10.31388211,-64.22278025,-0.137511969,-1.263260581,15.3467691,-6.102140367,0.844193995,1.079518363
7.466368,-8.406534434,10.30523014,-64.22008515,-2.570344865,-1.458325267,15.23624373,-5.373050332,-1.544999536,-0.225280479
7.474701,-8.42459178,10.26657724,-64.19947815,-0.284380944,-1.258170694,15.77426553,-3.279835582,-5.40450418,1.325677365
7.483034,-8.425731659,10.21882057,-64.18169593,-1.388632327,-1.383293675,15.55174732,-1.247675747,-6.445831866,0.842788369
7.491367,-8.424639106,10.14695978,-64.15181158,-0.938101541,0.192230933,17.28242064,-1.172110945,-9.512417315,1.857682291
7.4997,-8.430639029,10.05192637,-64.1275654,-0.729387696,-1.440091342,14.64181924,-1.979256958,-12.17455912,0.771267116
7.508033,-8.42355454,9.956631184,-64.0871849,-0.666778922,-1.470763862,14.17472768,-0.649647593,-12.4723897,2.677229185
7.516366,-8.409882426,9.846773624,-64.05593493,-1.034393236,-1.402171463,15.60474777,0.244888123,-14.05640602,1.339339704
7.524699,-8.399350524,9.745339633,-64.01168823,-1.765173696,-1.377171695,15.52148747,-0.297144286,-13.26589871,3.024247445
7.533032,-8.37239635,9.642328978,-63.98051643,-1.531731653,-0.03318784,16.84523726,1.862289906,-13.23835159,1.464497555
7.541365,-8.342457056,9.528265717,-63.93665125,-1.319283357,-0.553880997,16.00860667,2.047054768,-14.76106787,2.778062895
7.549698,-8.313232064,9.417730927,-63.9010334,-1.545545399,-1.326192167,13.63947869,2.086026888,-14.20461679,1.875106499
7.558031,-8.276395321,9.287172196,-63.86086655,-1.599950373,-1.612504073,12.90303779,2.951631367,-16.65203619,2.076793045
7.566364,-8.218713879,9.192726017,-63.83416368,-1.825304434,-2.252772987,14.81175018,5.686338425,-12.13955736,1.119348705
7.574697,-8.152730465,9.073462845,-63.79118158,-1.872858137,-0.430112325,17.38511563,6.411446334,-15.350945,2.595007546
7.58303,-8.098561645,8.966674685,-63.75728988,-1.309034735,-0.976366037,16.02055669,5.147825063,-13.72107148,1.779815197
7.591363,-8.044823647,8.831605673,-63.7188034,-2.061561466,-1.953231857,15.06831551,5.034437299,-17.14855242,1.833255954
7.599696,-7.996036887,8.7037009,-63.68441963,-0.114517745,-1.497550346,13.6323359,4.525482536,-16.23500729,1.529484063
7.608029,-7.932058454,8.582593322,-63.64453315,-1.400712088,-0.796679419,14.02679229,6.248229146,-15.51477051,2.296412945
7.616362,-7.863913536,8.468927026,-63.60773085,-0.985127271,-0.835852511,16.46243739,6.828618765,-14.57700944,2.092420943
7.624695,-7.803888559,8.356456757,-63.5693626,-1.77669701,-1.710791976,16.31704974,5.808403373,-14.45957375,2.292029351
7.633028,-7.742164016,8.26368618,-63.53453448,-2.355469048,-0.171984853,15.35373068,6.112226606,-12.05242538,2.243016601
7.641361,-7.680032373,8.166756272,-63.5072193,-1.202424951,-1.329875112,13.74484301,6.274723768,-12.43270135,1.276700124
7.649694,-7.605980873,8.074507117,-63.47223473,-1.338278681,-2.336947084,13.60970712,7.594779015,-11.99269223,2.293828987
7.658027,-7.526471854,7.974472881,-63.43306543,-2.016648501,-0.966281042,15.0978396,8.183147669,-12.97735834,2.656664163
7.66636,-7.456813812,7.86448884,-63.39869883,-1.355185203,-2.150087893,15.24983263,7.082788587,-14.08695197,1.973804444
7.674693,-7.376478791,7.745170236,-63.35991475,-2.515770704,-1.572174773,15.90779996,8.292248964,-15.26284456,2.346114039
7.683026,-7.301226378,7.624953032,-63.3110695,-0.717141256,-0.917658523,13.5959599,7.565585732,-15.51353049,3.559896171
7.691359,-7.240661025,7.503404856,-63.2699146,-1.750710279,-1.201791868,13.73884154,5.899001181,-15.54943467,2.572979361
7.699692,-7.178195238,7.406954408,-63.22478483,-2.128700644,-1.432339564,14.34949541,6.10738504,-12.61908173,3.503223956
7.708025,-7.131962538,7.309625864,-63.1950817,-1.262675047,-1.657878265,11.74115181,4.388359189,-12.48852301,1.617526352
7.716358,-7.107327223,7.220130801,-63.18179513,-1.493430853,-1.12419796,11.68364,2.052106656,-11.32000113,-0.118100833
7.724691,-7.078729034,7.191440702,-63.1913433,-3.154045284,-2.039675891,10.67919946,2.884627074,-3.732925833,-1.99171491
7.733024,-7.06625843,7.156768918,-63.22888563,-2.114441812,-2.413605154,8.252354384,1.354759373,-4.043920994,-5.316372395
7.741357,-7.092306971,7.142116905,-63.27638438,-0.986128107,-1.612458199,9.038876057,-3.097551763,-1.503824532,-6.266557574
7.74969,-7.155016542,7.132162452,-63.32807543,-1.826109469,-2.18599084,8.459273577,-7.492826939,-0.894810915,-6.626688123
7.758023,-7.255820036,7.19472301,-63.37526703,-2.507962644,-2.52784884,6.027427912,-12.06076312,7.697517276,-5.068888366
7.766356,-7.372798562,7.276056647,-63.40005683,-1.00442452,-1.700632721,8.022621513,-14.39538288,9.578778386,-2.040587247
7.774689,-7.535789728,7.323172808,-63.3907013,-1.883839116,-2.381355465,6.477775663,-20.38926697,5.003598452,1.398880295
7.783022,-7.719616413,7.539777637,-63.38965988,-2.148885728,-1.032655537,5.432700515,-22.78756476,25.27160359,3.225748241
7.791355,-7.932700753,7.631080628,-63.3619461,-0.977417722,-0.630948678,4.764722556,-26.70562458,9.948496103,4.329837084
7.799688,-8.14962697,7.828657985,-63.35493088,-0.153734434,-1.388513223,5.991449803,-26.8463049,22.88885832,3.794698417
7.808021,-8.39294672,8.049005151,-63.36623383,-2.874730229,-2.250860393,3.198164538,-29.70397473,25.90713358,2.049518868
7.816354,-8.603566408,8.201214075,-63.37937738,1.170733214,-0.31534639,2.204826415,-25.75791884,17.81967616,0.813771337
7.824687,-8.836180925,8.402532101,-63.41059305,-3.256831318,-0.253234819,7.373852537,-28.08069754,23.98691511,-0.441681922
7.83302,-9.090662003,8.575973511,-63.44061088,2.119987041,-0.21241767,5.560120195,-30.69690132,20.63764715,-0.610301639
7.841353,-9.341836453,8.785815596,-63.47434995,-2.497158081,-1.387381792,2.061885246,-30.25490236,25.04131604,-0.356410265
7.849686,-9.550207615,8.970020413,-63.4999008,1.157063753,-0.439974673,2.908166424,-25.22628689,21.82479048,0.288291618
7.858019,-9.73205328,9.140056492,-63.51986885,-2.17482239,0.015551505,3.989593744,-22.14915848,20.05943179,0.656734146
7.866352,-9.912382603,9.27749133,-63.53802108,1.590252817,0.274884183,4.621406258,-21.98906231,16.14083481,0.340358161
7.874685,-10.08122659,9.410215379,-63.55373575,-2.008683503,-0.617565856,3.299572825,-20.65945244,15.55460954,0.502398195
7.883018,-10.22268629,9.518852472,-63.56682968,1.693242967,-0.126206823,1.808533706,-17.41932941,12.62507319,0.415680588
7.891351,-10.32629848,9.612130403,-63.56899643,-1.963908911,-0.098679558,2.117747039,-13.09287,10.6085453,1.3197992
7.899684,-10.41079784,9.678138494,-63.57300948,1.372182489,-0.027558088,3.512517214,-10.7548753,7.399787545,0.586299926
7.908017,-10.46656227,9.737093926,-63.56865693,-1.222224102,0.039825412,2.690029592,-7.493349433,6.41061616,1.362936953
7.91635,-10.50331903,9.753597498,-63.56251908,1.087296698,0.628503893,3.330255747,-5.220245342,1.342993015,0.698557585
7.924683,-10.50829864,9.775033234,-63.55008508,-1.043595612,-0.453684478,2.608277887,-1.577289343,1.803059637,1.487104982
7.933016,-10.48303533,9.753703118,-63.53288463,0.590864837,0.702319443,2.672052354,2.049952257,-3.316947699,0.96236527
7.941349,-10.4280355,9.724962712,-63.5107231,-0.114361495,-0.282027006,2.333171576,5.412246705,-4.329250872,1.523157135
7.949682,-10.34221578,9.675609349,-63.482872,-0.38621226,0.544003099,2.849868417,9.113331676,-6.847563445,1.614670813
7.958015,-10.22922945,9.604252338,-63.45500375,0.504157295,0.004630163,2.696206212,12.24738002,-9.479472637,1.284086987
7.966348,-10.09027386,9.52663398,-63.42458155,-0.917696342,0.451269802,2.712146521,15.41941857,-10.26192093,1.521242947
7.974681,-9.928767919,9.421444655,-63.39948275,0.350186616,-0.276674174,2.493602425,18.13693905,-13.41377473,0.297724128
7.983014,-9.743290901,9.324224829,-63.3687649,-0.939279795,0.319186747,2.251066387,21.01464415,-12.57393002,1.211870864
7.991347,-9.537781954,9.200102331,-63.34545135,0.246835947,-0.265369065,2.963099837,23.47205401,-15.61283922,-0.207005024
7.99968,-9.316478491,9.094510673,-63.31096838,-1.03283757,-0.28564857,2.999771416,25.23851633,-13.62965036,1.577063441
8.008013,-9.086898566,8.968329549,-63.27897265,0.282759249,-0.055841208,3.042519212,26.22143507,-16.01658845,0.883134693
8.016346,-8.857959747,8.866105795,-63.24338153,-2.012275949,-0.925052032,2.585489929,26.13243294,-13.23575378,1.860919938
8.024679,-8.611796618,8.740571261,-63.20380975,1.235002935,-0.24043129,3.216823638,28.11719322,-16.06153703,1.911905795
8.033012,-8.378688812,8.64811337,-63.16809465,-2.327029154,-0.465182711,2.565882087,26.62236214,-12.06440377,2.15939045
8.041345,-8.143822551,8.537763953,-63.12785913,0.909667671,-1.685024895,1.71173466,26.7803998,-14.24576926,2.372703076
8.049678,-7.900559783,8.438382387,-63.09673118,-1.614976645,0.44254525,2.374765694,27.91151142,-12.79465723,1.591653949
8.058011,-7.673895717,8.334495425,-63.06170273,-0.0995709,-0.485929385,2.59460878,25.94121552,-13.36580944,1.990919322
8.066344,-7.451865554,8.252866864,-63.0385933,-1.455515742,-2.061995387,2.102615655,25.5108428,-10.54174519,1.027675878
8.074677,-7.212598801,8.158781886,-63.00451658,0.521409959,1.344497979,3.453694195,27.47486973,-12.16571522,2.117636323
8.08301,-6.991251588,8.074337006,-62.97698403,-1.40073669,-1.609698147,3.070047289,25.35056496,-10.93119431,1.583950359
8.091343,-6.76591897,7.985248089,-62.94001008,0.31891165,-1.947876215,2.907053233,25.79244137,-11.5861423,2.599801749
8.099676,-6.557590127,7.899662614,-62.91957285,-1.3236458,1.221777575,3.450869389,23.90607739,-10.95622325,0.815663427
8.108009,-6.373904467,7.807619691,-62.88298605,1.105423898,-1.663479149,2.490253568,20.81509495,-11.90945649,2.578752607
8.116342,-6.180745363,7.714166403,-62.86204718,-1.430689812,-1.209535957,2.5642263,22.06670284,-11.89420295,0.828931391
8.124675,-6.011028171,7.623815894,-62.8321495,-0.626428006,0.684476376,2.545372516,19.27554369,-11.60241151,1.894977003
8.133008,-5.835857034,7.536296487,-62.81760025,0.29339473,-2.257956475,3.233730018,20.0381751,-11.09730482,0.226132393
8.141341,-5.666611672,7.434575439,-62.78533748,-0.916261018,0.002180323,4.019634098,19.17409182,-12.97701931,2.10434499
8.149674,-5.531270862,7.348460675,-62.77458765,0.485180944,-1.248689368,2.803307146,15.31557202,-10.88120937,-0.162858397
8.158007,-5.398509622,7.24021399,-62.74459648,-1.551207274,-1.228456199,2.304987624,14.83002639,-13.72047567,1.823590353
8.16634,-5.284457565,7.15334177,-62.7333298,0.579255134,0.547226966,2.910676122,12.80558396,-10.97113681,-0.05622004
8.174673,-5.171370029,7.05111897,-62.70978738,-0.954323024,-1.907428801,3.724281073,12.55073619,-12.92561269,1.181732357
8.183006,-5.056744099,6.965720892,-62.69586375,-0.19804658,-0.383816578,3.555542409,12.84305477,-10.81949091,0.301642934
8.191339,-4.973555684,6.864031673,-62.68117333,-0.392499752,-0.449452713,2.698543109,9.07933569,-12.76594209,0.173898287
8.199672,-4.90444231,6.77615881,-62.6635265,-0.397721976,-1.816353038,1.336955644,7.367471456,-11.14573097,0.753205806
8.208005,-4.831937671,6.679536581,-62.65691758,-0.236676917,0.263254672,3.322691888,7.899190784,-12.08102334,-0.693063714
8.216338,-4.762506008,6.599263787,-62.64782333,-1.323254615,-1.023240909,3.67414096,7.504475832,-10.16076815,-0.05664274
8.224671,-4.685595274,6.511829853,-62.64131928,0.473580808,-0.458540574,4.250069857,8.460702658,-10.97666109,-0.592678199
8.233004,-4.649138928,6.446096778,-62.64024735,-1.123801082,-0.317633053,3.083365753,3.653666198,-8.336883546,-0.945046872
8.241337,-4.617793322,6.35574925,-62.63017463,0.864635855,-1.486308426,2.352846235,2.938737452,-11.36092973,-0.185578428
8.24967,-4.573706985,6.299568772,-62.62924005,-2.759826392,-0.302934565,2.797869952,4.563723743,-7.195401072,-0.850162208
8.258003,-4.523985267,6.233410835,-62.6251488,1.540700495,0.532623231,4.243405998,5.272579074,-8.405651608,-0.633020491
8.266336,-4.496605874,6.184252381,-62.62809943,-1.966994643,-1.994936466,4.030777305,2.566518128,-6.333456636,-1.127218747
8.274669,-4.472783685,6.135223151,-62.62276843,1.280824542,-0.111770939,2.654275764,2.144936189,-6.367529273,-0.325169414
