time,Euler_X,Euler_Y,Euler_Z,Acc_X,Acc_Y,Acc_Z,Gyr_X,Gyr_Y,Gyr_Z
0.0,-9.291586876,10.44504452,-130.4134216,0.029687962,-1.11055398,17.24925041,9.504932404,-14.41668224,1.633753061
0.008333000000220636,-9.206308365,10.32364655,-130.3869781,-0.847396374,0.460909516,16.85622597,11.06737709,-16.06091118,0.411313504
0.016665999999986525,-9.105378151,10.18193722,-130.3609467,-0.454534799,-2.098689318,15.413517,12.96507359,-18.46087837,-0.000204914
0.02499900000020716,-8.985443115,10.04883385,-130.3381042,-1.713433504,-1.706551194,13.0663662,15.31933117,-17.38725853,-0.173459679
0.03333199999997305,-8.889333725,9.901877403,-130.3131561,-1.159560442,-1.533388257,11.69228554,12.42281914,-19.06629562,-0.157655671
0.041665000000193686,-8.802339554,9.755993843,-130.2783813,-1.732893348,-1.686576962,16.50572777,11.1344614,-19.11013603,1.042448521
0.049997999999959575,-8.700745583,9.571080208,-130.2397766,-1.467504621,-2.570202351,16.73168564,12.82205868,-23.81616974,0.810306847
0.05833100000018021,-8.570996284,9.412179947,-130.1987915,-0.847854555,-2.557561874,17.19918823,16.16458893,-20.76066971,1.601300478
0.06666400000040085,-8.429009438,9.228367805,-130.1627045,-1.038379908,-0.009581989,17.48876762,17.74296951,-23.62852097,0.638409674
0.07499700000016674,-8.297038078,9.090389252,-130.117569,-0.379484355,-1.405021906,13.51277637,16.38430786,-18.34867668,2.555610418
0.08333000000038737,-8.185554504,8.923178673,-130.0697327,-2.406605959,-0.285241425,14.48209381,13.88809872,-21.85962677,2.406689405
0.09166300000015326,-8.085745811,8.7721138,-130.0243225,-0.878584146,-1.378907204,12.88121605,12.54382229,-19.88306046,2.437797308
0.0999960000003739,-7.981637001,8.620523453,-129.9909973,-3.77068162,-2.657939196,13.50737,13.29718876,-19.75324631,1.041821122
0.10832900000013979,-7.872677803,8.498574257,-129.948349,0.025456298,-1.92518568,13.9519968,13.71674919,-16.37098503,2.665969133
0.11666200000036042,-7.784710884,8.356028557,-129.8981628,-2.777806282,-1.563039422,12.04919529,11.07895565,-18.93821335,3.243070841
0.12499500000012631,-7.715877056,8.248785019,-129.8648224,-1.072877169,-1.527539253,13.06348324,9.090033531,-14.47397995,1.859517097
0.13332800000034695,-7.652951241,8.112390518,-129.8235779,-3.082944155,-2.325853825,13.59755135,8.255663872,-18.06408882,2.336083174
0.14166100000011284,-7.596880436,8.045855522,-129.8207092,0.255279541,-1.749705195,10.55959606,8.085261345,-9.138710022,-1.049658537
0.14999400000033347,-7.505098343,7.946968555,-129.8008881,-1.308942437,-0.754035652,12.39374161,12.0918951,-13.26194096,0.447071046
0.15832700000009936,-7.448467255,7.857243061,-129.8207855,-0.398855835,-1.949365258,9.924870491,8.543066978,-11.52803612,-4.199595451
0.16666000000032,-7.433848381,7.801653862,-129.8379822,-3.771309137,-2.911427498,4.848314285,3.444551229,-7.538896561,-3.217672825
0.17499300000008589,-7.466545105,7.774104118,-129.8575592,0.627477825,-0.795778871,4.400333405,-2.184087515,-4.13978529,-3.193467617
0.18332600000030652,-7.507390499,7.711508274,-129.8699036,-2.833168507,-2.920952797,10.39309025,-3.294619083,-8.44610405,-2.761868238
0.1916590000000724,-7.595744133,7.72501564,-129.8703766,-1.575374603,-3.130672693,5.404186249,-9.176326752,0.45174545,-0.292463362
0.19999200000029305,-7.681754112,7.737694263,-129.8743134,-1.768466115,-1.893028855,6.698993683,-8.850409508,0.38122946,-0.591022909
0.20832500000005894,-7.831306934,7.805510521,-129.8447571,-1.398778439,-0.322200477,2.192378044,-17.00398827,6.42455101,4.135354996
0.21665800000027957,-8.018006325,7.842595577,-129.8122253,-1.549093723,-3.152174234,4.437328815,-21.52792931,2.68535924,4.114557266
0.22499100000004546,-8.21446991,7.973285675,-129.795166,-0.897229373,-0.488289773,2.991077423,-22.43814659,14.07672215,3.77264595
0.2333240000002661,-8.442323685,8.027617455,-129.7631989,-0.066813149,-1.885745168,3.243243217,-26.46989632,4.712561607,4.373377323
0.24165700000003199,-8.691086769,8.242851257,-129.7658234,-1.958726883,-0.792698145,6.670948505,-28.38886642,24.42041206,3.118408918
0.24999000000025262,-8.877933502,8.299081802,-129.7285767,-0.781089783,-1.989726186,9.292747498,-21.65707588,4.805040836,5.074425697
0.2583230000000185,-9.060413361,8.437932968,-129.7154083,0.511761189,0.805118084,1.168851376,-20.7092247,15.04833412,3.721788883
0.26665600000023915,-9.263462067,8.474337578,-129.6936951,0.047990087,-0.097455412,1.597607017,-23.3409977,2.719208717,2.909599304
0.27498900000000503,-9.47558403,8.579304695,-129.6865845,0.181131944,-0.82986021,5.944893837,-24.17525291,11.10190678,2.555943251
0.28332200000022567,-9.638389587,8.617094994,-129.6797028,-0.075022765,-0.067852594,7.978197098,-18.25324821,3.148464203,1.227063179
0.29165499999999156,-9.739189148,8.686653137,-129.6719666,-1.157799721,0.090151913,4.96647501,-10.81518936,6.907315254,1.894531608
0.2999880000002122,-9.820346832,8.602462769,-129.6345825,1.34333694,-0.376272768,4.643790245,-9.005647659,-11.89839077,2.324850559
0.3083209999999781,-9.866924286,8.596716881,-129.6439514,0.640570223,1.591608524,3.686045408,-4.004696369,-1.655383825,-1.622777104
0.3166540000001987,-9.894646645,8.556418419,-129.5992279,-0.642059445,-0.733129859,3.802440166,-2.718989372,-6.86478138,4.07238102
0.3249869999999646,-9.89487648,8.493506432,-129.638443,-1.52473855,-0.193667784,6.875685215,2.089519739,-7.806118488,-6.292264938
0.33332000000018525,-9.819512367,8.376335144,-129.5464478,0.670025527,0.088487059,3.911493778,8.832572937,-16.91121483,8.022881508
0.3416530000004059,-9.744432449,8.253951073,-129.6052551,-1.191469312,0.538629889,1.200325847,11.44718552,-14.45215797,-9.788803101
0.34998600000017177,-9.674907684,8.158905029,-129.5105286,1.62381649,-0.327603608,4.478746891,8.128500938,-14.32849216,8.837451935
0.3583190000003924,-9.578240395,8.045576096,-129.5925598,-3.279290915,-0.693297923,7.192679405,14.40549088,-12.94759178,-12.29432487
0.3666520000001583,-9.415973663,7.953127861,-129.5033875,1.848468184,-1.578636765,6.233522892,19.39271355,-13.87854195,8.291395187
0.37498500000037893,-9.201060295,7.80974865,-129.5622864,-4.318849087,-0.366325706,3.330697536,28.17844009,-17.01463127,-10.10677338
0.3833180000001448,-8.984858513,7.70843792,-129.4773102,4.02241087,1.323842883,0.650596201,25.9771328,-14.78986263,7.724951744
0.39165100000036546,-8.825929642,7.604707718,-129.5324402,-6.163221836,-0.971228182,0.47120741,21.37132454,-12.45325089,-8.82197094
0.39998400000013135,-8.671644211,7.5086236,-129.4601746,6.317504406,0.191930115,3.912426949,18.78313065,-13.89305305,6.414037228
0.408317000000352,-8.516104698,7.421199322,-129.5068207,-8.332700729,-1.219489694,4.884431839,20.811306,-10.71328545,-7.480127811
0.41665000000011787,-8.304697037,7.300043106,-129.4361725,6.666080952,-2.319372892,6.664945126,25.69188118,-16.80054665,5.86273241
0.4249830000003385,-8.090518951,7.235442162,-129.4537201,-8.830399513,0.454381585,0.541347027,27.38586426,-8.543071747,-3.604617357
0.4333160000001044,-7.911882877,7.146468639,-129.4043579,7.108664513,-1.086708307,2.070849895,22.10466194,-12.58068275,4.005684853
0.44164900000032503,-7.70389843,7.08815527,-129.4006195,-8.057116508,-0.695056081,1.229562879,26.32246971,-8.162953377,-0.941246808
0.4499820000000909,-7.565073967,7.013799191,-129.3635864,7.512293816,0.57983917,4.345470905,17.52302551,-10.61874294,2.857127666
0.45831500000031156,-7.404653549,6.979840279,-129.3325348,-7.880369663,-4.138308525,2.959350109,20.21583748,-5.689397812,2.697615385
0.46664800000007745,-7.232986927,6.892797947,-129.3131104,6.915224552,1.757289171,4.869931221,21.72815514,-11.8434515,0.634746671
0.4749810000002981,-7.067004681,6.867695332,-129.2529755,-7.963355541,-1.574530125,0.891322792,20.4731102,-5.049887657,6.287350178
0.48331400000006397,-6.913784981,6.844247341,-129.2639771,4.869629383,-0.607056081,-0.305491477,19.95223999,-3.821708918,-1.972847223
0.4916470000002846,-6.767921448,6.837639332,-129.1962738,-6.072228432,-0.703010559,2.107699156,17.95710564,-2.915591955,7.45798254
0.4999800000000505,-6.636802197,6.833826065,-129.2081604,4.401233196,-0.093963623,4.508718014,17.31245041,-1.478172421,-1.78989768
0.5083130000002711,-6.484804153,6.823386669,-129.1415405,-4.372174263,-1.868541956,4.769809723,18.71111298,-3.319554567,7.272920609
0.516646000000037,-6.34365654,6.835655689,-129.1609497,1.361405969,-1.034435153,3.379216433,18.62479401,0.53243047,-2.464679241
0.5249790000002577,-6.208117962,6.847839355,-129.0952301,-0.710342109,0.676657438,0.599296868,16.75081635,-0.568546474,7.450183392
0.5333120000000235,-6.10827446,6.814247608,-129.1077271,0.992987871,-2.309121609,1.168577552,13.56860352,-5.036821842,-2.24090004
0.5416450000002442,-6.00477457,6.830351353,-129.0376434,-2.085125685,-0.440224499,2.606903315,12.84725761,-0.121936582,7.990515232
0.5499780000000101,-5.871227741,6.834709167,-129.0766754,-0.20735985,1.17412293,4.553652763,17.99172211,-0.187713951,-4.900477886
0.5583110000002307,-5.739723206,6.873029232,-129.0108185,-0.744918168,-1.896195292,4.273757935,16.27070618,2.621028662,7.713396072
0.5666439999999966,-5.629197598,6.841115475,-129.0350952,2.598760128,-1.116102815,2.328172207,15.01944828,-4.712315559,-3.586518764
0.5749770000002172,-5.526500702,6.835448265,-128.9766541,-3.107300043,0.29574874,2.316734552,12.92550659,-2.511181116,6.290164948
0.5833099999999831,-5.411923885,6.834506989,-128.9921417,1.105672836,-0.593856156,0.6965096,15.37884045,-1.125989199,-2.176224232
0.5916430000002038,-5.294728756,6.842303276,-128.9591675,-0.889907897,-0.590448618,5.554059982,15.03394508,-0.588423073,3.366018534
0.5999759999999696,-5.191636086,6.820410728,-128.9387054,1.758912802,-0.485613346,5.321916103,13.48734379,-4.026788712,1.85850513
0.6083090000001903,-5.090126514,6.780518532,-128.9277191,-1.967660546,-1.811975121,-0.646430492,13.46530247,-6.043538094,0.254451811
0.6166419999999562,-5.000702381,6.797144413,-128.9016876,0.635932267,0.788354874,-2.409746408,11.77053547,0.52578342,2.935288906
0.6249750000001768,-4.946294785,6.752086639,-128.9146576,-0.749986708,-1.677634954,7.496020317,8.149374962,-6.409950733,-2.62590766
0.6333080000003974,-4.88850975,6.74547863,-128.8576508,0.537819684,-2.795724154,5.016021252,7.53798914,-2.560950041,6.368980408
0.6416410000001633,-4.829905033,6.729565144,-128.9123688,-3.112756014,1.509356737,-2.477662325,9.243180275,-2.514255285,-7.260009766
0.649974000000384,-4.818356037,6.760011196,-128.8472137,1.239569664,-1.433982968,1.435669184,1.876319528,1.79929769,7.714675903
0.6583070000001499,-4.804715633,6.726147175,-128.9037781,-0.072605044,-2.998535156,10.19443417,3.871822119,-4.645820141,-7.66924715
0.6666400000003705,-4.798100948,6.76373291,-128.837204,-1.405931234,1.836126924,3.35452199,1.263447642,2.643081427,7.953911781
0.6749730000001364,-4.831392765,6.762140274,-128.909256,-1.205332637,-2.830537319,-2.989033937,-1.539146781,-0.629687607,-9.1773386
0.683306000000357,-4.865141869,6.846732616,-128.8441772,0.216541082,-0.291465372,2.927362204,-3.568152666,8.270784378,8.254648209
0.6916390000001229,-4.918420315,6.839021683,-128.9049072,-0.640916646,-0.06329947,10.02152729,-4.085150719,-1.466171741,-7.896012306
0.6999720000003435,-4.959300041,6.908343315,-128.842392,0.913891315,-3.002114296,7.577994823,-4.394929886,6.459219456,7.806580067
0.7083050000001094,-5.02190733,6.924147129,-128.8842621,-1.284967303,1.348175645,0.273432225,-5.468294144,1.16498673,-5.422111988
0.7166380000003301,-5.103721619,6.946167946,-128.8388214,3.301834822,-0.281384289,4.225076199,-9.067939758,0.970190406,5.302224159
0.724971000000096,-5.144832611,6.948154926,-128.8651123,-5.27493,-2.423629999,7.843240738,-3.143647909,-0.671105742,-3.428606033
0.7333040000003166,-5.178469658,6.965809822,-128.8247833,5.234027386,2.042722225,5.85603714,-3.215700388,0.4906919,4.645704746
0.7416370000000825,-5.181280613,6.948878765,-128.8319397,-6.652241707,-2.162143946,4.372601509,1.208325863,-3.105431557,-1.635199904
0.7499700000003031,-5.165873528,6.927426338,-128.8170624,7.309395313,1.376418233,4.486605167,3.041101217,-3.912536144,1.20253706
0.758303000000069,-5.147983074,6.89652586,-128.8170624,-8.055434227,1.491340995,4.890547276,3.55611372,-4.878205776,-0.659873903
0.7666360000002896,-5.097118855,6.768057346,-128.809494,8.304505348,-1.754149199,7.882268429,7.405103207,-16.61777878,-0.810998142
0.7749690000000555,-5.024492264,6.738825798,-128.7893677,-8.449645042,1.865968466,4.876697063,9.840402603,-4.895431519,1.752039433
0.7833020000002762,-4.960923195,6.60122776,-128.8108215,8.145508766,-0.093338482,11.71390152,9.336634636,-17.41466331,-4.3147192
0.791635000000042,-4.862761497,6.573326111,-128.7703705,-8.130502701,-3.279854774,10.14999294,12.62893486,-4.934224606,4.191450119
0.7999680000002627,-4.699201107,6.44977808,-128.8282013,4.807103157,0.59836638,10.41512203,21.82436752,-15.38782406,-8.439037323
0.8083010000000286,-4.523766994,6.363265514,-128.7633514,-4.213465214,-0.37885344,3.873382807,21.59437561,-12.15505028,6.547924995
0.8166340000002492,-4.400387287,6.178362846,-128.8415985,3.427142859,-0.74246794,6.555725098,17.24040604,-22.57863235,-11.36335468
0.8249670000000151,-4.317791462,6.156750679,-128.7655334,-4.33046627,-0.046388399,9.443849564,10.3396616,-4.464151859,8.523868561
0.8333000000002357,-4.184706688,5.928337097,-128.8373413,3.165416956,-2.611446857,15.87735271,18.28625488,-27.88818169,-10.90690041
0.8416330000000016,-3.971422195,5.793235302,-128.7434082,-2.443470001,-0.200849622,10.54139423,25.85467529,-18.15360832,9.704731941
0.8499660000002223,-3.825041771,5.543955326,-128.7936096,1.636963367,-1.213875771,8.62341404,19.5710659,-30.6264286,-8.345013618
0.8582989999999882,-3.660520315,5.340569496,-128.6911011,-1.337297797,1.379074097,6.390412331,19.98550415,-26.33759689,10.29532051
0.8666320000002088,-3.579628229,5.214958668,-128.7038879,-1.851289988,-3.864803791,11.09022999,11.25630665,-16.12954521,-2.805783987
0.8749649999999747,-3.454375029,4.894126415,-128.6237793,1.475489616,-0.377827525,23.2778759,15.59153748,-40.20479202,6.867443562
0.8832980000001953,-3.289574146,4.73917675,-128.6112213,-4.887611866,-2.36774826,0.068441734,21.05924606,-19.83932877,0.076765917
0.8916309999999612,-3.191569805,4.576460361,-128.5567627,3.255795956,1.438694239,18.92613029,12.64140034,-21.04713821,5.068649769
0.8999640000001818,-3.056552172,4.259251118,-128.5265503,-3.738614082,-3.213366747,17.23535347,17.33082581,-39.39556503,1.204485774
0.9082970000004025,-2.923042774,4.199841022,-128.4935303,-2.778069019,-1.436097264,9.690625191,17.13971901,-8.510293007,3.247783422
0.9166300000001684,-2.85076499,3.954351664,-128.4522095,0.307717323,-2.465225697,14.97148132,9.729703903,-30.85533142,3.124990702
0.924963000000389,-2.759055853,3.76926136,-128.4431,-0.349499285,-1.345888019,16.93193436,12.33953857,-23.42580986,-0.326517701
0.9332960000001549,-2.665988684,3.589786053,-128.3938599,-3.499111891,-2.094066858,9.675731659,12.19919586,-22.98091125,4.543583393
0.9416290000003755,-2.626801252,3.526355982,-128.3975067,-0.955489933,-1.404828787,10.76837921,6.138887405,-8.7687397,-1.115563989
0.9499620000001414,-2.588381529,3.387070656,-128.3675385,-2.091601849,-1.120381117,17.38238525,5.801741123,-18.04823112,2.496018171
0.958295000000362,-2.591504335,3.259970903,-128.38237,0.787191868,-2.48410368,11.47499752,1.139859319,-16.34243774,-2.792426348
0.9666280000001279,-2.581228256,3.156169653,-128.3272247,-4.217312813,-0.870220184,17.13739777,2.271829367,-13.92913914,5.708210468
0.9749610000003486,-2.593405008,3.117213011,-128.3584747,-0.373845816,-2.696115732,11.88395023,0.152238205,-5.689742088,-4.281675816
0.9832940000001145,-2.570200205,3.056192398,-128.3244781,-4.806358814,-3.938662052,18.91871452,3.974356174,-8.686902046,3.411124706
0.9916270000003351,-2.557429314,3.083013296,-128.3840485,0.721428633,1.658937335,12.81450272,3.32570076,2.348210573,-7.315771103
0.999960000000101,-2.634482622,3.056762695,-128.3471527,-3.151064157,-3.409657955,14.421381,-8.07619381,-4.534795761,3.943887949
1.0082930000003216,-2.690125704,3.093261003,-128.4069366,0.633597314,-0.494549364,16.74501801,-4.881523132,3.521343231,-7.279527664
1.0166260000000875,-2.810476065,3.131699562,-128.3766327,-3.854663849,-2.228448868,11.84264278,-13.23053741,3.245324612,3.51696372
1.0249590000003082,-2.878232479,3.235923767,-128.4570007,-0.914869368,-3.488814831,17.5871048,-6.187977314,11.7808342,-9.326028824
1.033292000000074,-2.99052453,3.369843483,-128.4324036,-3.427722454,-1.008566856,9.133586884,-12.23688316,14.71043777,3.434921265
1.0416250000002947,-3.11689806,3.490105867,-128.5299835,0.348969281,-0.943490148,18.59010124,-13.05285263,13.84647083,-11.22927189
1.0499580000000606,-3.289840937,3.62785244,-128.5097961,-3.412238598,-1.632697821,10.74494076,-19.49650383,15.18048859,3.007189512
1.0582910000002812,-3.452581406,3.773917437,-128.5840302,0.840723932,-2.263042688,18.31188583,-17.54235268,16.83141708,-8.172046661
1.066624000000047,-3.626549482,3.959353924,-128.5857544,-4.057244301,-0.421810538,10.74703026,-19.45241356,21.03379822,0.839238226
1.0749570000002677,-3.785329819,4.174768925,-128.6587219,0.261551738,-2.452575684,16.02244568,-17.02482224,25.17239761,-7.374984741
1.0832900000000336,-3.999294281,4.412535667,-128.6632996,-5.806941509,-1.186672688,7.664121151,-24.2276516,27.31605339,1.062838316
1.0916230000002543,-4.220144272,4.689314365,-128.7480774,-0.169352651,-2.069546461,17.91103363,-24.28441811,32.66744614,-8.063745499
1.0999560000000201,-4.452271461,4.901305676,-128.7726593,-3.113852262,-4.806007862,15.6353302,-26.20153427,24.40053177,-1.338332415
1.1082890000002408,-4.674006939,5.26926899,-128.8532104,-1.246183634,1.995264053,11.14061069,-24.33755875,43.59137344,-6.412345886
1.1166220000000067,-4.923266411,5.486165047,-128.8930206,-0.74676013,-2.200761318,23.00771523,-28.04947853,25.1435051,-2.890506029
1.1249550000002273,-5.168809891,5.866534233,-128.9608612,-2.301553965,-3.521668673,9.347820282,-27.25331688,44.99222946,-4.383156776
1.1332879999999932,-5.423373222,6.205954552,-128.9962769,-0.243095905,2.00063467,16.12115288,-28.69510078,39.75961685,-0.778520763
1.1416210000002138,-5.676998615,6.460634232,-129.0668793,-0.72067523,-3.007877827,16.83901978,-28.08986855,30.04576302,-5.752760887
1.1499539999999797,-5.906565189,6.90375185,-129.120697,-2.511788607,-1.017936945,10.34858322,-25.38941765,52.36224365,-1.34477675
1.1582870000002004,-6.152694702,7.217266083,-129.1885376,0.338827074,0.373725235,13.04446411,-27.1223774,37.07446289,-4.411931992
1.1666199999999662,-6.414624214,7.526350975,-129.232666,-2.422977448,-2.55340004,15.04728508,-29.34174919,36.25377274,-1.490546227
1.1749530000001869,-6.635793686,7.82142067,-129.286911,-0.916732967,-3.256319284,16.07331276,-24.26499367,34.72523499,-2.714524031
1.1832859999999528,-6.844926357,8.112799644,-129.3363953,-0.798948705,2.701299906,11.7211113,-22.86481094,34.22687912,-2.065432787
1.1916190000001734,-7.072296143,8.410793304,-129.3916626,-1.362195969,-3.846450567,13.09475422,-24.9216671,35.10235214,-2.514604807
1.199952000000394,-7.230622768,8.675615311,-129.4388428,0.167665169,-1.456694484,19.16412354,-16.74948311,31.04148483,-1.928177595
1.20828500000016,-7.393912792,8.899035454,-129.475174,-2.966991901,2.145323753,17.91055489,-17.5160923,25.95034409,-1.189513445
1.2166180000003806,-7.545023918,9.148584366,-129.5352325,1.323350549,-4.885793209,15.02270317,-15.59248924,29.43073273,-3.490852356
1.2249510000001465,-7.643518925,9.352473259,-129.5325928,-2.739103079,0.015244272,13.70792675,-10.46214104,23.02189636,3.213730097
1.233284000000367,-7.769622803,9.56905365,-129.5948792,2.44784236,1.952224255,16.33333588,-12.49733543,25.55541992,-4.151826859
1.241617000000133,-7.86482048,9.722909927,-129.5704956,-3.738233089,-3.575052738,13.57975101,-10.50342751,16.71355057,5.041471958
1.2499500000003536,-7.965685368,9.874814987,-129.6287384,1.782284617,-0.391468853,15.70987797,-9.5060606,17.81502533,-4.641992569
1.2582830000001195,-8.044116974,9.9775877,-129.5937653,-2.127296448,-1.054012656,14.22302151,-8.725208282,10.4525423,5.482022762
1.2666160000003401,-8.133500099,10.08051968,-129.639389,1.157769322,-1.227132201,14.91633701,-8.364293098,11.80314541,-3.929852724
1.274949000000106,-8.210600853,10.16335964,-129.6021881,-2.547959089,-1.48118782,13.55569839,-8.6292696,8.026503563,5.436851978
1.2832820000003267,-8.302706718,10.21797562,-129.6475677,-1.31050396,0.261202216,14.87141609,-8.681470871,6.067166805,-4.692643166
1.2916150000000926,-8.379980087,10.24884415,-129.5996399,-1.388535976,-3.391270876,15.89444351,-8.884362221,1.656651974,5.809027195
1.2999480000003132,-8.442155838,10.27267933,-129.6434326,-1.429152012,-2.415293694,15.41335583,-5.116354465,2.398209572,-5.025858879
1.308281000000079,-8.486696243,10.27607155,-129.5812073,0.083272055,1.875562072,13.65119076,-5.269681454,-1.863499761,6.999090672
1.3166140000002997,-8.556834221,10.25856781,-129.6108704,-1.118692875,-3.419854641,13.04728031,-6.375422478,-2.742401361,-4.105872631
1.3249470000000656,-8.605543137,10.21212769,-129.552597,-0.802536368,0.58813405,14.27474976,-5.681045532,-7.725369453,5.643456936
1.3332800000002862,-8.667906761,10.13391304,-129.5671844,-0.192349434,-1.522714734,14.89047337,-5.766571045,-10.20905304,-3.44300127
1.3416130000000521,-8.677020073,10.05798149,-129.5078583,-0.572279513,-1.756842971,15.39798069,-0.928887486,-11.25063133,5.228199005
1.3499460000002728,-8.691044807,9.944961548,-129.5011597,-0.785123527,-0.285621077,17.55978012,-0.414604932,-14.71472931,-1.593987107
1.3582790000000386,-8.687907219,9.859809875,-129.4626923,-0.585163176,-1.026688814,16.72530174,0.988927186,-11.97058296,2.622218609
1.3666120000002593,-8.678397179,9.73431015,-129.4424438,-2.650202513,-1.330411792,15.19610882,2.135881901,-16.43148613,-0.235574156
1.3749450000000252,-8.647510529,9.62653923,-129.4137573,-0.734177649,-0.603888154,16.33235741,4.535001278,-14.48376465,1.075490713
1.3832780000002458,-8.58399868,9.498221397,-129.3839417,-2.650197983,-1.163864613,15.72591496,8.436998367,-16.94157982,0.850495338
1.3916110000000117,-8.511956215,9.382940292,-129.3587036,-0.500253618,-0.284765303,12.66309166,9.556674004,-15.30846691,0.572427154
1.3999440000002323,-8.450707436,9.261296272,-129.3225708,-3.244399309,-1.978546858,13.31865788,8.054871559,-16.25763893,1.748850584
1.4082769999999982,-8.394728661,9.121183395,-129.2925568,-0.748023689,-1.796861649,15.01917934,7.548580647,-18.33452034,0.727610946
1.4166100000002189,-8.328848839,8.961651802,-129.2244568,-1.120753765,-2.618756533,15.89333344,8.029182434,-21.29396629,4.870613098
1.4249429999999847,-8.231404305,8.815761566,-129.2080994,-0.237054929,0.806107998,17.10969925,12.79773712,-18.79335403,-0.930360675
1.4332760000002054,-8.133556366,8.659454346,-129.1473236,-0.788674355,-1.274913192,14.92766285,12.04287243,-20.78003502,4.137674809
1.4416089999999713,-8.063844681,8.514353752,-129.1364136,-1.249408364,-1.629871964,12.76932907,9.576935768,-18.60427856,-1.500674486
1.449942000000192,-7.994093418,8.3510952,-129.0696564,-1.598564744,-0.78171742,15.48908615,8.604107857,-21.69535828,4.779055119
1.4582749999999578,-7.909311295,8.205562592,-129.0627136,-2.152290821,-1.581273198,14.38601494,11.46183681,-18.5921917,-1.926691175
1.4666080000001784,-7.803590298,8.059607506,-128.9942627,-1.782234192,-1.786241889,15.57261181,12.93149281,-19.64520454,5.331566811
1.474941000000399,-7.712850571,7.940546513,-128.9936676,-2.22132802,-2.903346777,12.81222153,12.28730488,-15.35359764,-2.189851046
1.483274000000165,-7.628468513,7.802687645,-128.9173737,-2.34672761,-1.174520612,14.48353386,10.28101826,-18.79507828,6.451075554
1.4916070000003856,-7.547295094,7.672083378,-128.8958282,-0.238604635,-0.309899628,16.57691574,10.79659653,-17.05309296,0.141787648
1.4999400000001515,-7.442447186,7.537356377,-128.8255005,-1.159296513,-1.847775459,13.91055679,12.87442493,-18.30949783,5.854507923
1.5082730000003721,-7.379977703,7.417703152,-128.8182983,-1.518283486,-1.636067152,11.95981216,8.791793823,-15.53042603,-1.329814434
1.516606000000138,-7.310788631,7.304528713,-128.7489777,-1.482507706,-1.390817881,16.06292915,8.643372536,-15.70456505,6.11727047
1.5249390000003586,-7.245309353,7.196895123,-128.7395172,-2.66353941,-1.070207477,16.4656086,9.123049736,-14.14396572,-0.849099219
1.5332720000001245,-7.191001892,7.088997841,-128.6798706,-1.029561162,-2.133615017,14.5178051,7.035130501,-14.92535496,5.090651035
1.5416050000003452,-7.140362263,7.007256985,-128.666748,-2.053909302,-1.710962176,14.12658024,7.28685379,-11.10848522,-0.004969162
1.549938000000111,-7.093263149,6.935477734,-128.6165009,-1.440813184,0.345067829,15.33766365,6.32870245,-10.47691631,4.544875145
1.5582710000003317,-7.060896397,6.868933678,-128.6085663,-2.162621021,-2.823963165,11.79326725,5.175498009,-9.222354889,-0.377118409
1.5666040000000976,-7.052363396,6.79610157,-128.571991,-1.534842134,-1.253783584,12.42257404,1.906608462,-10.38944149,2.921060324
1.5749370000003182,-7.021766186,6.721122742,-128.5503998,-1.62961328,-2.465137482,16.79267311,4.77592802,-10.43346024,1.122774482
1.583270000000084,-6.961300373,6.662448406,-128.5202332,-2.45285964,-0.957376719,16.46526337,8.242096901,-8.615463257,2.383737564
1.5916030000003047,-6.917870045,6.630225658,-128.4893799,-1.036327958,-2.423545122,12.94373131,6.188437939,-5.46318388,2.854053497
1.5999360000000706,-6.887660503,6.608753681,-128.4628906,-1.059032083,-2.381988525,14.00510216,4.666388512,-4.125787258,2.496581316
1.6082690000002913,-6.857159138,6.598310471,-128.4457245,-0.88437444,0.708369553,14.3870306,4.828590393,-2.670373201,1.552017689
1.6166020000000572,-6.834280968,6.584730625,-128.4389801,-1.803931594,-1.32717061,12.78368759,4.056526661,-2.895906925,0.273611248
1.6249350000002778,-6.796243668,6.572515011,-128.4470978,-0.992711902,-3.448154926,12.6778965,6.084686756,-2.528752565,-1.465710521
1.6332680000000437,-6.772990704,6.594495773,-128.4538879,-2.882981777,-0.907689273,7.7819767,4.293125153,1.525891304,-0.821256399
1.6416010000002643,-6.783798218,6.64203167,-128.4796906,-1.525118828,-0.590057552,7.740270138,0.49827373,4.881509781,-3.023542643
1.6499340000000302,-6.789038181,6.640599251,-128.5015869,-0.876280367,-2.785173893,11.80559063,1.083072305,-1.050042629,-2.940270901
1.6582670000002508,-6.799994946,6.713516712,-128.5326996,-1.282488585,0.159797758,4.732563972,0.54977119,7.979052544,-3.245759249
1.6666000000000167,-6.863306046,6.74398756,-128.5438232,-1.107038379,-3.093777657,8.477205276,-6.032357216,2.599447727,-1.21014452
1.6749330000002374,-6.963860989,6.805292606,-128.5798187,-2.336391449,-4.511267185,5.964534283,-10.12550068,6.669487,-3.960844755
1.6832660000000033,-7.058030128,6.89166975,-128.5953217,0.705352426,0.165116191,11.84369659,-9.67033577,9.324196815,-0.897971034
1.691599000000224,-7.259068966,6.934017658,-128.5884247,-3.40146184,-2.455651522,-3.859088898,-22.79316902,3.791869164,0.866747677
1.6999319999999898,-7.463044643,7.094712257,-128.5935364,-1.014407754,-2.284876347,5.986241341,-22.99606514,18.01344109,1.536688685
1.7082650000002104,-7.712454319,7.204608917,-128.557312,0.322964311,-0.262212068,10.96037388,-29.03790665,11.34963799,5.456489086
1.7165979999999763,-7.945402145,7.367263317,-128.5819244,-3.706511497,-3.48653698,0.968228459,-26.17342758,18.54682159,-0.570186198
1.724931000000197,-8.171356201,7.486400604,-128.532486,2.480254173,-0.064302109,1.79079926,-26.44965172,12.17376423,7.294427872
1.7332639999999628,-8.478029251,7.566274643,-128.5831146,-2.725568295,0.407117307,1.770552278,-34.59852982,9.169010162,-4.903197289
1.7415970000001835,-8.755705833,7.765978336,-128.5523071,2.619765282,-2.165454626,7.127168655,-32.38628387,21.9858036,6.716932774
1.749930000000404,-9.044456482,7.866568089,-128.6224518,-3.835999966,-1.277979493,5.031381607,-32.09959793,12.02840519,-6.701369286
1.75826300000017,-9.274483681,8.004535675,-128.5713348,2.429968834,-0.066085525,4.472229004,-27.02145195,14.21705055,8.152645111
1.7665960000003906,-9.501259804,8.047795296,-128.621994,-3.127398252,-2.318478584,2.978743076,-24.9587841,4.916463852,-5.423075199
1.7749290000001565,-9.702105522,8.156393051,-128.559967,3.216839075,2.662669897,-0.576292932,-23.72215462,10.45861912,8.970252037
1.7832620000003772,-9.970636368,8.211545944,-128.6081696,-3.52641654,0.058620084,0.778551936,-29.99416542,6.310442924,-4.842477322
1.791595000000143,-10.21087551,8.294895172,-128.5435791,3.198269367,-0.497621417,4.042677879,-28.52051353,7.344452858,8.855744362
1.7999280000003637,-10.4118166,8.331824303,-128.582489,-4.023510456,-1.581001282,6.817665577,-22.02995682,3.997922897,-4.084486485
1.8082610000001296,-10.5227108,8.353674889,-128.5188141,3.443393469,0.038889486,5.19527626,-12.9939518,0.042660523,7.471636295
1.8165940000003502,-10.613554,8.372554779,-128.5477448,-4.013233185,-0.847372472,-0.234703377,-8.988930702,1.668114185,-3.289686918
1.824927000000116,-10.68341255,8.370804787,-128.4967957,4.210488796,2.10898304,1.637778401,-7.852722168,-2.485746145,5.464566708
1.8332600000003367,-10.77161598,8.374430656,-128.5171204,-4.628272533,-0.593217552,1.204550982,-8.822171211,-0.312557757,-2.616533041
1.8415930000001026,-10.79485416,8.3618536,-128.4738922,4.275057793,-0.143738687,4.652614594,-2.121499062,-3.605613708,4.322363853
1.8499260000003233,-10.78375816,8.334337234,-128.4732208,-4.597094536,0.781762004,3.715019226,2.728210688,-4.446964741,-0.868706763
1.8582590000000891,-10.71305752,8.278701782,-128.4325714,4.42078352,-0.604630232,3.67543745,9.200863838,-8.626452446,3.065383673
1.8665920000003098,-10.60071659,8.228337288,-128.4120331,-4.419140339,1.985485554,2.004338026,14.535532,-7.57917738,0.948738694
1.8749250000000757,-10.47124195,8.140029907,-128.3746643,3.389493942,-0.129646569,1.711345553,16.31907845,-12.39493847,1.996899366
1.8832580000002963,-10.29683018,8.0939188,-128.3433533,-3.353101969,0.716786921,2.01884532,21.80758286,-7.301712036,2.331511259
1.8915910000000622,-10.12272167,7.988131523,-128.3169861,1.800362349,-0.38055104,2.219190121,21.87377357,-14.21553612,0.401042312
1.8999240000002828,-9.890899658,7.921011448,-128.2684326,-0.973750353,-0.073662661,2.817559242,28.42239571,-10.12343216,3.953611612
1.9082570000000487,-9.667778969,7.786262989,-128.2503357,0.007143836,0.47929579,1.093581557,27.89830589,-17.4655304,-1.056600928
1.9165900000002694,-9.39371109,7.706510067,-128.1985474,-0.613786042,-0.657102048,2.768409252,33.46020508,-11.6469593,4.159026623
1.9249230000000352,-9.123112679,7.577961922,-128.1809845,-0.48227644,1.287189603,1.616017461,33.61431885,-16.7285614,-0.862265885
1.9332560000002559,-8.853003502,7.524955273,-128.1338348,-1.358206987,-2.077404261,2.426820755,33.08043289,-8.347598076,4.219873428
1.9415890000000218,-8.556067467,7.389769554,-128.1081238,0.603667736,0.367889106,2.997625828,36.65412521,-17.66716194,0.123870619
1.9499220000002424,-8.261203766,7.317986965,-128.0595703,-1.179641724,0.293977946,3.05776906,36.04849243,-10.554986,4.126714706
1.9582550000000083,-7.973124981,7.225908279,-128.0364227,-1.851445913,-3.41803956,3.230809927,35.64066315,-12.49603558,0.712153494
1.966588000000229,-7.67544651,7.162159443,-127.9949722,1.725260019,1.488376617,1.775548697,36.50942612,-9.439100266,3.51527667
1.9749209999999948,-7.426291466,7.061985016,-127.9634476,-1.992859006,-1.610891342,2.424400806,30.85257912,-13.58000088,1.690003157
1.9832540000002155,-7.171754837,6.991780758,-127.9149628,1.362635255,-3.017694473,2.442217827,31.24222183,-10.27755547,4.329604149
1.9915869999999813,-6.923896313,6.908145905,-127.8933258,-3.099366903,2.385024548,-0.151295602,30.85076904,-11.44808578,0.859729648
1.999920000000202,-6.690363884,6.844105244,-127.8535995,1.243865132,-2.136158466,2.830679178,28.86379242,-9.379198074,3.456349134
2.008252999999968,-6.443430424,6.80598259,-127.8348618,-2.789715052,-1.885559678,3.654775143,30.78910637,-5.969159603,1.231661677
2.0165860000001885,-6.212584496,6.724282742,-127.7990189,2.259669542,2.118962526,4.051886559,28.6061039,-11.40361977,2.834371328
2.0249189999999544,-6.024936199,6.65775919,-127.7663498,-1.285232663,-3.913352013,2.878946781,23.48661232,-9.519919395,2.521223307
2.033252000000175,-5.822368145,6.569354057,-127.7364273,0.056705154,-0.413935721,0.094526477,25.30351067,-12.10895824,2.12187171
2.0415850000003957,-5.661341667,6.504627228,-127.7112503,-1.454810619,0.600830853,1.26437664,20.40948105,-9.194399834,1.682112932
2.0499180000001616,-5.486151218,6.438681126,-127.6865463,0.88316071,-2.147047043,3.769851446,22.09777069,-9.349725723,1.831188202
2.058251000000382,-5.322263241,6.346576214,-127.6540909,-0.569119513,-0.026317574,5.832120419,20.66574097,-12.53266716,2.254117966
2.066584000000148,-5.1966362,6.253199577,-127.6277695,0.337893158,-2.055752516,2.518544197,16.13725662,-12.63444328,1.768893957
2.0749170000003687,-5.056301117,6.165101528,-127.6041641,-1.067905784,0.413663685,-1.113791227,17.96424103,-11.94009304,1.278227687
2.0832500000001346,-4.964418888,6.085077286,-127.577034,-0.273448497,-0.851305604,2.317097664,12.08759117,-11.03870106,2.055414915
2.0915830000003552,-4.851944923,5.990672112,-127.5521698,1.287368298,-2.047244787,6.045700073,14.62012291,-12.69829845,1.343646407
2.099916000000121,-4.747484207,5.88412571,-127.5309067,-2.290318012,0.445713401,4.837299824,13.68097687,-14.14196777,1.130433202
2.1082490000003418,-4.664928436,5.792205811,-127.5054779,2.160399675,-1.064739108,-3.046313286,11.03646088,-12.39848518,1.43485868
2.1165820000001077,-4.600983143,5.696227551,-127.5011673,-2.929144382,-1.44542563,0.627093494,9.029967308,-12.70992565,-0.747846127
2.1249150000003283,-4.560508728,5.599772453,-127.4662628,2.071734667,0.559746623,4.361366272,5.882898808,-13.02613258,2.548130035
2.133248000000094,-4.518261433,5.507205486,-127.4832306,-2.933542252,-3.025183439,6.477542877,6.676735878,-12.10041046,-3.230122328
2.141581000000315,-4.461288452,5.441547394,-127.4470673,1.361650586,1.460945845,-0.724615574,7.860574722,-9.350209236,3.003935575
2.1499140000000807,-4.464187622,5.342878819,-127.4768753,-1.737345457,-1.851709962,-0.424364388,1.396769881,-12.71694374,-4.801196575
2.1582470000003013,-4.463541985,5.278636932,-127.4306259,1.039420485,-2.232736588,5.842773914,1.002259374,-9.274236679,4.223556995
2.1665800000000672,-4.437711239,5.197706699,-127.4710541,-3.114011765,2.304085255,7.251431942,4.950669765,-10.49560165,-5.900201797
2.174913000000288,-4.445133686,5.167857647,-127.4384232,2.778239489,-2.060126305,0.248213425,0.191748142,-5.029802799,2.929730415
2.1832460000000538,-4.452483177,5.059746742,-127.4714432,-1.887107134,-1.747567534,-0.39590168,0.879208803,-13.81651306,-5.270834446
2.1915790000002744,-4.487558365,5.02889967,-127.4361649,0.469151586,2.839888334,4.833908081,-3.147310734,-5.176290512,3.231030703
2.1999120000000403,-4.501787663,4.966264725,-127.492775,-2.325822592,-4.54936409,5.739967346,0.293539196,-8.150898933,-7.665688515
2.208245000000261,-4.517790794,4.957801819,-127.4497604,3.075377464,1.438463449,0.539404452,-0.934202313,-2.572463036,4.367201328
2.216578000000027,-4.59139061,4.844221115,-127.4908524,-2.973479509,-0.433235556,-0.532376826,-7.002306461,-14.38545799,-6.310286999
2.2249110000002474,-4.656635284,4.893969059,-127.4679031,-0.357931614,-3.58709383,1.809472799,-6.629515171,4.573626518,2.533068657
2.2332440000000133,-4.708077431,4.838701725,-127.4945526,-1.170661211,1.268532038,6.549213409,-4.493953705,-7.538025856,-4.045627594
2.241577000000234,-4.804603577,4.865371227,-127.4789124,2.143941641,1.027822018,2.84057188,-10.30718422,1.875602603,1.458269954
2.24991,-4.871818542,4.840709209,-127.500061,-4.94624567,-5.237652302,-0.162842721,-6.443632126,-3.92390871,-3.100666761
2.2582430000002205,-4.957397461,4.903958321,-127.4941025,4.277897835,4.461485386,2.251413584,-8.896708488,6.347591877,0.685821176
2.2665759999999864,-5.082426071,4.887644768,-127.511055,-5.558424473,-3.322936535,9.376833916,-13.4219408,-2.960776091,-2.521542788
2.274909000000207,-5.126157284,4.984010696,-127.5160522,4.35986948,-0.544964731,2.196512699,-3.761655807,10.41873264,-0.250507236
2.283241999999973,-5.233293533,4.975666523,-127.5193634,-4.662288666,1.55243361,-3.409043074,-11.41375542,-2.150366306,-0.814814448
2.2915750000001935,-5.337462902,5.066776752,-127.5301132,4.042138577,-1.584665179,5.157028198,-10.95445347,9.85103035,-0.934573829
2.2999079999999594,-5.428626537,5.111215115,-127.5365448,-6.409514904,-2.136583805,6.242002487,-9.463679314,4.192769051,-0.596030474
2.30824100000018,-5.51213932,5.205609322,-127.5356827,6.680202484,2.70682025,-0.431955874,-8.592243195,10.11082268,0.521057606
2.3165740000004007,-5.60683012,5.289311886,-127.5524597,-9.653516769,-1.976765037,0.586863279,-9.771050453,9.003071785,-1.352854252
2.3249070000001666,-5.676409721,5.439213753,-127.5473328,7.342394829,-0.207340956,6.670388222,-6.96967411,16.69228935,1.694279671
2.3332400000003872,-5.739234924,5.510611534,-127.5705338,-6.284599304,0.319523633,9.65191555,-5.865596294,7.612192154,-2.237672567
2.341573000000153,-5.751590729,5.676663876,-127.594986,4.765323639,1.131399989,4.416038513,0.215236455,18.93138313,-1.238743186
2.3499060000003738,-5.778963566,5.754802227,-127.6332092,-3.856562853,-1.719481945,1.572265863,-1.419771552,8.598866463,-3.92894268
2.3582390000001396,-5.722127438,5.856585503,-127.6706924,5.221739292,3.02146244,7.821957588,8.687261581,11.41558743,-3.558253288
2.3665720000003603,-5.668368816,5.872711658,-127.6893616,-4.042235374,0.17763114,8.202158928,8.08825779,0.960482657,-2.356548071
2.374905000000126,-5.539385319,5.828600883,-127.7161255,5.038267136,0.057063885,7.664818764,17.21585655,-6.144907951,-4.02714777
2.383238000000347,-5.377614021,5.791669369,-127.6981506,-3.546679497,1.566645741,8.640488625,20.60321808,-5.802958965,1.383259058
2.3915710000001127,-5.191779613,5.624633312,-127.7001114,5.989461899,-0.720311999,17.61539841,23.73385239,-21.12421036,-2.410276175
2.3999040000003333,-4.929830551,5.465702057,-127.6738434,-4.825190067,-0.579179466,6.289289474,32.5407753,-20.46284103,1.112529993
2.408237000000099,-4.616622448,5.235913277,-127.6578217,5.806910038,2.281281948,15.21835613,38.8151474,-28.8244133,-0.716674924
2.41657000000032,-4.329312325,4.920891762,-127.6324234,-3.685105562,-2.50535965,7.474000454,35.61846161,-39.11000443,-0.25265941
2.4249030000000857,-3.983906746,4.594824791,-127.6204605,2.570928574,0.502914608,17.74017525,42.74064255,-40.31726074,-1.74005723
2.4332360000003064,-3.588598013,4.217646599,-127.6086578,-2.142446995,1.891461015,9.966875076,48.73984528,-46.44560623,-1.911085725
2.4415690000000723,-3.184979677,3.871781111,-127.602562,0.347700417,-2.565340042,14.32006931,49.79141235,-42.66044998,-2.052694082
2.449902000000293,-2.752158165,3.465220451,-127.600708,-1.353830338,0.397108257,15.61638355,53.33594513,-49.92161942,-2.634039164
2.458235000000059,-2.301534891,3.001149893,-127.5916519,-0.856332898,-0.89178896,12.56759167,55.42245483,-56.86724472,-1.702754498
2.4665680000002794,-1.855503559,2.680799246,-127.6140366,-1.818327546,-1.723206282,7.244094849,55.06826401,-39.50498199,-4.402426243
2.4749010000000453,-1.465204,2.256418943,-127.599968,-0.015914984,-1.832615733,14.07231808,48.17375946,-52.14348602,-0.120617956
2.483234000000266,-1.041971445,1.859905362,-127.6274414,-0.776001453,0.735190988,20.21998405,52.31723404,-48.6867981,-4.666768074
2.491567000000032,-0.654940665,1.452796459,-127.6134949,-2.36511302,-3.588795424,11.56209373,47.80819702,-50.05916977,0.618740082
2.4999000000002525,-0.269898176,1.120127082,-127.6454468,-2.689873934,-3.659645557,13.96188927,47.70229721,-41.07757568,-4.483621597
2.5082330000000184,0.0732425,0.784466803,-127.6402435,-1.117628455,-1.315839291,13.4273138,42.57686996,-41.46480942,-0.063600339
2.516566000000239,0.363060296,0.503301263,-127.6943512,-2.783143997,-2.480508804,15.31729507,36.26131058,-34.95294571,-6.694744587
2.524899000000005,0.661528349,0.196845263,-127.6658096,-0.175444245,-1.079863667,16.4459362,37.20545959,-37.93406677,3.133320332
2.5332320000002255,0.882647455,0.027009718,-127.7145538,-4.958966255,-1.123380899,6.555490017,27.95660973,-21.64565277,-5.903076172
2.5415649999999914,1.053544402,-0.158887208,-127.6808777,-1.042840838,-2.636415958,16.09516144,21.91914558,-23.4294529,3.759840727
2.549898000000212,1.245584846,-0.272300601,-127.7303696,-3.418251991,-4.323986053,19.6535759,24.43138695,-14.91322136,-5.995976448
2.558230999999978,1.422380328,-0.436374456,-127.687149,1.995457172,-0.942267716,12.08375931,22.65427399,-20.75959969,4.984073162
2.5665640000001986,1.481333017,-0.467233062,-127.7303162,-4.36925745,-1.00050211,9.156968117,8.443118095,-5.021197319,-5.414760113
2.5748969999999645,1.513689041,-0.493352145,-127.6627502,-1.982684731,-4.581717014,16.25718307,5.355731964,-4.11829567,7.550487995
2.583230000000185,1.498745918,-0.484981418,-127.6978912,-2.41894722,-1.856663346,12.3388586,-0.419420302,-0.294576496,-4.570309639
2.5915630000004057,1.388950586,-0.407630354,-127.6403809,-1.453483343,-2.977894068,12.49116707,-11.7067976,8.261796951,6.334069252
2.5998960000001716,1.244951367,-0.319743067,-127.659668,-2.415861607,-2.672218561,19.72101593,-15.88719463,9.303272247,-2.888249159
2.6082290000003923,1.096109033,-0.251375169,-127.6133423,0.345105588,-3.450782061,13.78981113,-16.41793442,7.123769283,5.05882597
2.616562000000158,0.846773505,-0.084813237,-127.6306076,-3.291851282,-0.119074389,9.738190651,-28.51028633,18.75692558,-2.740085602
2.624895000000379,0.536780775,0.019580767,-127.5727692,-0.379248887,-5.581435204,13.78924179,-35.78916168,11.42370701,6.456101418
2.6332280000001447,0.242211267,0.21290952,-127.5873718,-4.650612831,-3.183210373,14.70200253,-33.93933105,21.99868774,-2.238981724
2.6415610000003653,-0.151595518,0.368004233,-127.5423355,1.262381196,-0.498443037,13.26555729,-45.86815643,17.42291641,5.060383797
2.649894000000131,-0.605745852,0.570943058,-127.5647125,-2.527239799,-4.835922241,15.85853386,-53.07048416,23.18200111,-2.856315851
2.658227000000352,-1.047928452,0.705223203,-127.5476227,0.727236331,-0.727676451,15.37747383,-51.66825104,14.89015388,1.953730583
2.6665600000001177,-1.574106216,0.910533726,-127.5814362,-2.388444662,-2.525964022,10.2785368,-61.66701126,23.52868652,-3.822234869
2.6748930000003384,-2.059664965,1.113680124,-127.6039581,-1.162146807,-1.572556853,17.23931122,-56.81501007,23.26359367,-2.257787466
2.6832260000001042,-2.608558178,1.381313205,-127.6438065,-2.901291847,-1.849938989,5.628687382,-64.35752106,31.09696007,-3.798890114
2.691559000000325,-3.169044018,1.592538714,-127.6812363,-1.253584385,-1.406327724,19.32415962,-65.72497559,24.34693527,-3.538724422
2.6998920000000908,-3.769226313,1.869978547,-127.7170944,-3.086185217,-2.071523428,8.540405273,-70.48664093,32.30438614,-2.609374523
2.7082250000003114,-4.356658459,2.086475372,-127.7647018,0.728653491,-1.397185326,22.11409187,-68.87836456,25.1262722,-4.186806679
2.7165580000000773,-4.947546482,2.444927454,-127.813591,-3.335474491,-0.886150479,8.528528214,-69.26096344,42.15478516,-2.683554411
2.724891000000298,-5.533279419,2.737163544,-127.8594894,-2.688454151,-3.154173851,18.76624107,-68.63347626,34.23705673,-2.605992556
2.733224000000064,-6.147390842,3.175141335,-127.9263611,-3.823431015,2.178414106,5.856163025,-71.87522888,51.91411209,-2.955429554
2.7415570000002845,-6.736534119,3.553490162,-128.00354,-0.574015081,-3.699066162,22.13641357,-68.73713684,44.95814133,-4.42543602
2.7498900000000503,-7.293701172,4.017220974,-128.0531464,-2.791193962,-0.084302336,13.72237682,-65.06329346,54.76893616,0.568972647
2.758223000000271,-7.839207172,4.525617123,-128.1571808,-0.279760629,2.803902864,13.82041264,-63.11569595,60.92406464,-4.636105537
2.766556000000037,-8.347846031,4.948601723,-128.2168121,-2.282021284,-2.625733614,18.26935959,-59.03261566,50.06008911,-0.244732514
2.7748890000002575,-8.829959869,5.522312164,-128.3149719,-3.527140141,-0.487280726,12.40404797,-55.37279892,68.63800049,-1.645469785
2.7832220000000234,-9.234002113,6.073156357,-128.3953094,-0.04829064,-0.57220453,19.75933266,-46.10391235,65.60041046,0.573518753
2.791555000000244,-9.572706223,6.627303123,-128.5136719,-1.507507801,1.852154136,13.81322861,-37.66083527,66.71537781,-3.396158218
2.79988800000001,-9.89453125,7.205792427,-128.5868988,-0.836858273,-1.158852816,13.4034071,-36.15378571,68.70695496,2.806528091
2.8082210000002306,-10.16467571,7.761919498,-128.7037811,-5.083259583,1.234977722,14.97649765,-29.17710686,66.94274139,-2.39911747
2.8165539999999964,-10.40000248,8.309593201,-128.7713928,0.904392302,0.456495821,15.8237381,-25.69470978,64.90226746,3.496793509
2.824887000000217,-10.57081413,8.845200539,-128.8736115,-0.054458331,-1.909885526,16.32337952,-17.2603569,64.22077179,-0.561145961
2.833219999999983,-10.68458939,9.358957291,-128.9401855,0.021406442,3.946058035,13.92214966,-10.98079491,60.86128998,3.286855459
2.8415530000002036,-10.81423283,9.843029022,-129.0453033,-0.421592623,-3.100792885,14.99263477,-12.04145527,58.19472122,-1.718041658
2.8498859999999695,-10.87613106,10.29982567,-129.1020813,-0.479574978,-2.80667901,17.3624649,-4.828001022,53.91205978,3.395073414
2.85821900000019,-10.91731071,10.70510101,-129.1798401,-0.693834126,1.98340857,18.379879,-1.830537915,48.2981987,-0.144041941
2.866551999999956,-10.93895149,11.07405281,-129.2176208,1.368527174,-2.425009251,15.09825802,-0.331666529,43.12432861,3.690607786
2.8748850000001767,-10.95335102,11.39616776,-129.2801208,-2.008243561,-1.461179972,11.92307568,1.142344952,38.15972519,-0.213354036
2.8832180000003973,-10.974123,11.69151115,-129.2974701,1.540949702,1.099395871,13.57051563,-0.667930305,33.99452972,4.407010555
2.891551000000163,-10.9900322,11.89608479,-129.3403473,-3.16201973,-1.921196222,14.52617359,0.550603867,23.87007141,-0.598976374
2.899884000000384,-11.00443935,12.06646347,-129.3450165,2.511440516,-1.363779664,16.37083817,-0.204696208,18.98535156,3.031112432
2.9082170000001497,-11.01603889,12.17868996,-129.3718719,-1.873570323,-1.113592029,16.98558235,0.690329432,12.6330719,-0.852224171
2.9165500000003703,-10.99870205,12.2704277,-129.3613892,1.274899006,0.20528698,16.0017128,3.220042467,9.383878708,2.977911234
2.9248830000001362,-10.98262024,12.32854271,-129.3577728,-1.633638024,-1.000755787,13.91978073,3.24622035,5.576731205,1.420001984
2.933216000000357,-10.96107864,12.3386116,-129.3344116,-0.629578948,-0.540271521,13.78526115,3.39447546,-0.522773802,2.583708286
2.9415490000001228,-10.91990376,12.31119728,-129.3017883,-1.615708828,-2.141999483,16.91995621,5.511723042,-5.139458656,2.796998024
2.9498820000003434,-10.83808804,12.25776386,-129.2703247,1.035028338,-1.219884157,19.60905838,10.42371273,-8.182839394,2.084589005
2.9582150000001093,-10.72459793,12.20126534,-129.2326508,-1.388412476,-0.352511138,17.23699951,14.06812191,-8.672161102,2.742017269
2.96654800000033,-10.60582638,12.11967754,-129.2077332,1.229192138,0.172631457,14.11741066,15.02662086,-11.3459444,0.730902374
2.974881000000096,-10.49006271,12.04449272,-129.1590881,-3.684183121,-1.315583944,11.61229038,14.07862186,-11.10221004,3.630753994
2.9832140000003164,-10.36971092,11.89869213,-129.1221008,-0.157348633,0.027661823,14.57670021,14.93233585,-19.1808815,0.769708097
2.9915470000000823,-10.23400497,11.74636555,-129.0701599,-2.040263653,-2.490532398,15.22634506,16.4127903,-20.26165009,2.403051853
2.999880000000303,-10.07524395,11.56076622,-129.0401001,1.309872389,0.063770063,16.24450111,19.73271179,-23.73490143,-0.780812263
3.008213000000069,-9.910872459,11.38744736,-128.9796906,-1.045229435,0.435810149,14.24323559,19.68703651,-22.89912987,3.057471037
3.0165460000002895,-9.746815681,11.18032265,-128.9421082,-0.450753272,-1.856114626,15.53117561,20.20933914,-26.42903328,-0.214224815
3.0248790000000554,-9.559916496,10.98058033,-128.8704224,-3.001396894,-1.949826241,17.59100723,22.18492126,-26.23465157,3.97443676
3.033212000000276,-9.357651711,10.74912167,-128.8326111,-0.805449009,-2.498739481,17.05197906,24.82648659,-29.31816673,-0.500323474
3.041545000000042,-9.130835533,10.55146122,-128.7505493,-2.301335812,-0.673351586,13.70086098,26.79938698,-26.14620972,5.40988636
3.0498780000002625,-8.925818443,10.34370422,-128.7061462,-1.378698468,-0.863801003,11.88558769,25.04626656,-26.63377571,0.932051897
3.0582110000000284,-8.741615295,10.15590954,-128.6268158,-2.210370541,-1.325593948,13.19500923,21.81282425,-24.88480377,5.464905262
3.066544000000249,-8.567931175,9.931019783,-128.5891113,-0.760715067,-1.604434609,17.13265419,21.45678711,-28.53066444,0.017648226
3.074877000000015,-8.375683784,9.752673149,-128.5102081,-0.740937114,-0.957916081,17.06075096,22.86061287,-23.73086929,5.743293285
3.0832100000002356,-8.177196503,9.567846298,-128.4791412,-2.067467928,-1.164927483,12.95707035,24.60190773,-23.66464424,0.111473255
3.0915430000000015,-7.98751545,9.400856018,-128.4197083,-0.545125484,-0.451081574,13.5907383,23.00692749,-21.99138832,3.702591419
3.099876000000222,-7.825845718,9.263305664,-128.386795,-2.3746562,-1.207513213,12.24365997,20.1690979,-18.07335091,1.258018374
3.108208999999988,-7.672739029,9.131686211,-128.3513794,-1.712587476,-1.652661324,12.51285839,19.09424591,-17.39439392,1.698404193
3.1165420000002086,-7.511207581,9.001708031,-128.3266907,-1.986629367,-2.227622747,11.20202541,20.32677841,-17.03464317,0.50641942
3.1248749999999745,-7.356734753,8.858879089,-128.324707,-1.19488287,-2.044814348,11.08758736,19.92091942,-18.19017601,-2.447351694
3.133208000000195,-7.235699177,8.774947166,-128.3461456,-2.826920748,-1.910735965,6.035319328,16.32817268,-10.85572624,-4.131654263
3.141540999999961,-7.156229973,8.690357208,-128.3701477,0.610459507,-1.705185652,8.112988472,11.39367485,-10.87671566,-4.568696976
3.1498740000001817,-7.093608856,8.656957626,-128.3938141,-2.900820971,-2.601549387,6.19914484,9.352052689,-4.816936493,-3.614655733
3.1582070000004023,-7.107718945,8.60618782,-128.4256897,-0.196960077,-2.16459465,9.237709045,0.306141317,-6.741294861,-4.979932308
3.166540000000168,-7.142840385,8.665516853,-128.4246521,-4.399149895,-2.238335609,-0.19133088,-2.82628727,5.861176968,0.673987269
3.174873000000389,-7.247899055,8.60567379,-128.4355927,1.663271904,-2.417194605,8.880063057,-10.98619175,-8.124721527,-2.65661931
3.1832060000001547,-7.355434418,8.725837708,-128.3800659,-3.222248077,-2.668614149,3.531491041,-12.49981499,12.27857208,8.037390709
3.1915390000003754,-7.471618176,8.80506134,-128.4015961,-2.457330227,-1.525295377,5.509294033,-12.12469292,8.593501091,-1.774106383
3.1998720000001413,-7.6417346,8.857543945,-128.3158264,0.961091161,-0.720964193,0.770290673,-20.58648872,3.717830896,10.58001518
3.208205000000362,-7.878114223,9.024236679,-128.3544464,-3.658203125,-1.000598907,4.287406921,-26.22355843,19.27314377,-2.290593624
3.216538000000128,-8.105975151,9.105851173,-128.3032684,3.371917725,-1.792255402,7.470989704,-26.90523529,7.667972565,7.040679932
3.2248710000003484,-8.33031559,9.290329933,-128.361557,-4.054658413,-2.292162418,1.146206141,-24.38064957,21.7326088,-4.113931179
3.2332040000001143,-8.530349731,9.405948639,-128.3404846,2.683598042,0.759412944,5.431707382,-23.00680733,12.16994381,4.17048645
3.241537000000335,-8.746899605,9.523915291,-128.3775024,-3.84543252,-1.857393384,2.712408781,-23.83374214,13.48923397,-2.648014307
3.249870000000101,-8.936089516,9.638619423,-128.3620453,2.929476738,1.238369107,2.35974288,-21.60570908,12.13231754,3.592065334
3.2582030000003215,-9.159567833,9.717718124,-128.3739166,-1.917823672,0.052906714,0.667662978,-25.15577126,8.428984642,-0.324724704
3.2665360000000874,-9.373901367,9.838742256,-128.3624878,0.450310528,-0.184828684,4.363633156,-24.54607582,12.92915344,3.340790272
3.274869000000308,-9.56679821,9.897886276,-128.3500824,-0.070971847,-0.413002372,5.637779713,-21.98180008,5.593767166,2.183870554
3.283202000000074,-9.726355553,9.977608681,-128.3404083,-2.148732424,-0.379532516,2.895292759,-17.94103432,8.052028656,2.399529457
3.2915350000002945,-9.839261055,10.00324821,-128.3070068,2.668891907,-0.87389493,4.375777245,-12.82225895,1.195275784,3.980158329
3.2998680000000604,-9.937801361,10.04472923,-128.3046722,-3.660026789,1.166102052,-0.109084167,-10.46485138,3.667497873,0.797038198
3.308201000000281,-10.0325985,10.06288242,-128.2672424,4.065711021,0.060811449,2.227381706,-10.7383585,0.217759445,4.297364235
3.316534000000047,-10.11489391,10.0815134,-128.2736206,-4.527302265,0.380373538,2.314488411,-8.334141731,1.145340443,-0.683451772
3.3248670000002676,-10.15255356,10.06620598,-128.2322083,4.354362965,-0.460632682,5.066843033,-3.96647954,-3.829802036,4.049584866
3.3332000000000335,-10.14965153,10.04790115,-128.2284241,-3.661733866,0.133204326,2.618939877,1.678218961,-3.428939104,-0.278798103
3.341533000000254,-10.1105566,9.991108894,-128.1864471,3.158822775,0.030764477,2.908853054,5.236907482,-8.745865822,3.24404335
3.34986600000002,-10.0544157,9.959922791,-128.173584,-2.848244905,0.894791245,1.878333092,7.877877235,-5.139112473,0.510735154
3.3581990000002406,-9.974508286,9.892648697,-128.134613,1.81620121,-0.036530152,1.607586741,10.21143627,-9.910917282,2.677161694
3.3665320000000065,-9.871626854,9.845088959,-128.1248474,-1.968020082,0.470260352,1.763383985,13.55264854,-7.008734703,-0.177493885
3.374865000000227,-9.733904839,9.744840622,-128.0731201,2.864233255,-0.298614472,3.071568966,16.89887047,-14.05260277,3.510560513
3.383197999999993,-9.56402874,9.660802841,-128.0609283,-3.369613886,0.430107772,2.963888884,21.54711723,-11.37285519,-0.600321174
3.3915310000002137,-9.379767418,9.552280426,-128.0007782,2.845967531,-0.10449452,1.551091433,22.34057045,-15.17128086,4.387029171
3.3998639999999796,-9.17046833,9.482807159,-127.999115,-3.878512383,0.631305337,0.737523139,26.49292374,-9.44893074,-1.47713542
3.4081970000002,-8.949940681,9.362457275,-127.9410019,2.828685045,0.022990754,2.457844496,26.7554493,-16.49941063,4.015444756
3.416529999999966,-8.712034225,9.28416729,-127.9129181,-2.399011374,-0.821172714,3.645549059,29.41244507,-10.98253632,1.513239264
3.4248630000001867,-8.464800835,9.176594734,-127.8636551,-0.126961067,0.294291824,1.393335938,30.15574646,-14.78937817,3.312666893
3.4331959999999526,-8.205382347,9.107535362,-127.8470459,-0.846625149,-1.193506837,2.847812891,32.22356796,-9.673761368,0.415604115
3.4415290000001733,-7.949984074,8.99932003,-127.7872849,0.883683622,-0.19210805,3.4274683,30.96310997,-15.00395203,4.618508339
3.449862000000394,-7.71895647,8.912847519,-127.7672119,-1.158658862,-1.261141777,1.993691683,28.75868988,-11.79343224,0.611489236
3.45819500000016,-7.465631008,8.809765816,-127.7136917,-0.560755968,-0.923948526,1.134547353,30.85487747,-14.25082779,4.080621243
3.4665280000003804,-7.2252841,8.75327301,-127.6903305,-0.75434339,1.080290079,0.516447365,29.82300758,-8.266168594,1.547664404
3.4748610000001463,-6.99946022,8.66039753,-127.6485596,-0.023966039,-2.228530169,3.368149281,27.79126167,-12.8158493,2.895256281
3.483194000000367,-6.740878105,8.59518528,-127.6109238,-1.688278556,-0.758077979,6.240488052,31.76309204,-9.492068291,3.164590597
3.491527000000133,-6.486947536,8.524950981,-127.585022,1.303038001,2.507375717,2.086274862,31.46509743,-9.866088867,1.386551261
3.4998600000003535,-6.255333424,8.445849419,-127.5521317,-1.335589767,-4.076817036,0.627744019,28.62263489,-11.05516338,2.494098663
3.5081930000001194,-6.035547733,8.357818604,-127.5107269,2.031736612,0.311982453,2.446809769,27.10214424,-12.17173862,3.052002192
3.51652600000034,-5.816469669,8.256447792,-127.4892273,-2.391316652,1.581910491,2.8839221,27.32668304,-13.5511961,0.95368278
3.524859000000106,-5.576057911,8.187958717,-127.4536438,0.580947101,-2.990523338,2.724428415,29.69595146,-9.742894173,2.688766956
3.5331920000003265,-5.3457551,8.104139328,-127.4421539,-0.18956241,0.657871366,2.557546139,28.85248566,-11.33019638,0.070387967
3.5415250000000924,-5.143018246,7.98542881,-127.405777,0.392713934,-0.29191494,1.973846555,25.17066383,-15.73202991,2.31765461
3.549858000000313,-4.949347019,7.898888588,-127.3843307,-0.876030982,-2.510239124,0.945974648,24.29419899,-11.7569561,1.294903159
3.558191000000079,-4.735116482,7.784156799,-127.3673325,-0.263029754,0.953304768,1.997489452,26.88426208,-15.04095936,0.139546469
3.5665240000002996,-4.569802761,7.725577354,-127.3505859,-1.072522879,-0.977408886,4.238851547,20.97659302,-8.355187416,1.080934048
3.5748570000000655,-4.380568027,7.589639664,-127.3364182,2.013744116,-2.346127748,5.035746098,23.93567657,-17.55067062,-0.298316419
3.583190000000286,-4.227340698,7.520466805,-127.3208618,-2.670660019,1.964782,1.364691854,19.55079079,-9.6046381,0.892400324
3.591523000000052,-4.082485676,7.392463207,-127.3172379,1.119089842,-3.087609768,0.964490116,18.78057098,-16.50611496,-1.39621985
3.5998560000002726,-3.933969975,7.365180969,-127.3144531,-2.802535295,-0.257307947,4.984988213,19.18771744,-4.477573872,-0.230400085
3.6081890000000385,-3.79784441,7.247956276,-127.3082962,2.365861177,1.0970577,6.337742805,17.69138718,-15.24137115,-0.922778726
3.616522000000259,-3.691964388,7.186538219,-127.3065872,-1.427138686,-3.59462285,2.307669878,14.08867931,-8.555067062,-0.611117423
3.624855000000025,-3.572844744,7.081138611,-127.3042755,0.001302901,0.839026332,-0.721461415,15.71111012,-13.80096531,-1.232211471
3.6331880000002457,-3.516398907,7.054990768,-127.3220749,-2.01950264,-0.207005724,3.425001621,8.445116043,-4.188811302,-2.642249346
3.6415210000000116,-3.418720961,6.97608614,-127.3050537,2.079842091,-3.05747962,7.430654049,12.92053986,-10.73168755,0.734411538
3.649854000000232,-3.353273392,6.935766697,-127.3223495,-2.223501205,2.274619341,3.149999619,9.513690948,-5.896973133,-2.672883749
3.658186999999998,-3.31952095,6.862735748,-127.3078842,1.369105935,-3.475607157,-2.058516979,5.292874813,-10.00934029,0.486516833
3.6665200000002187,-3.302484035,6.873057365,-127.3457108,-3.254456758,-0.432361454,1.941893101,3.995769024,0.308036774,-4.759778023
3.6748529999999846,-3.296753407,6.817486763,-127.3179779,2.403700352,1.245831132,7.151873112,1.741998434,-8.010326385,2.178336859
3.6831860000002052,-3.320272684,6.828683376,-127.3620453,-1.891877413,-3.675257206,5.093564034,-0.785831928,0.457239717,-5.49447155
3.691518999999971,-3.319520473,6.775885105,-127.3250122,0.713995457,0.152982131,-1.416719675,1.013350368,-7.741659164,3.320091486
3.6998520000001918,-3.411795855,6.824944973,-127.3841782,-2.382911682,0.60893482,-0.278849691,-8.823604584,5.103098869,-7.023794174
3.7081849999999577,-3.480598688,6.798116684,-127.3420181,2.0419209,-4.735143661,8.360361099,-7.408225536,-4.675059319,4.090196133
3.7165180000001783,-3.557985544,6.868901253,-127.3958054,-3.43939209,3.805301666,4.826179504,-7.110435486,7.684462547,-6.207609653
3.724851000000399,-3.672780991,6.875174522,-127.3665009,1.901506424,-4.082681656,-0.602751017,-12.7421751,-0.628688693,2.793668032
3.733184000000165,-3.796260595,6.985850811,-127.4078522,-3.085996151,-1.021878123,-0.192338929,-12.81107712,12.38627815,-4.380431652
3.7415170000003855,-3.95456934,7.034352779,-127.3704376,-0.113469094,1.745820642,6.723766327,-18.09462929,4.34919548,4.108985424
3.7498500000001513,-4.111620903,7.213983536,-127.4032059,-1.309375167,-2.836429119,6.086864471,-16.95084572,20.58943939,-2.707477808
3.758183000000372,-4.251891613,7.299318314,-127.3680878,0.378210157,-0.876734912,2.872229099,-15.91616249,8.748338699,4.22260952
3.766516000000138,-4.468978882,7.492597103,-127.3879318,-0.74336338,1.219994307,1.073135376,-24.33581161,22.11944771,-0.92330426
3.7748490000003585,-4.642878056,7.590829849,-127.3584976,-0.959345758,-3.130140543,5.405544281,-19.87820625,10.31700897,3.710684776
3.7831820000001244,-4.794713974,7.826257229,-127.3802872,-0.955747604,3.846237183,4.85300684,-16.460783,27.18090057,-0.589601815
3.791515000000345,-4.966760159,7.968291759,-127.377388,-0.32822293,-2.203770399,3.826808691,-19.23384094,15.80454063,1.061800241
3.799848000000111,-5.075251102,8.14815712,-127.3880157,1.330287218,0.187935784,6.423353672,-11.43247032,20.4242363,0.298662126
3.8081810000003316,-5.193425179,8.248847961,-127.385704,-1.035681367,2.455268383,7.28404665,-12.75849056,10.85792732,0.638486147
3.8165140000000974,-5.290553093,8.412695885,-127.3967056,0.346616089,-2.60091114,4.851736069,-10.05570412,18.51126099,0.163521349
3.824847000000318,-5.330402851,8.48513031,-127.3970718,-0.193193018,2.03347683,4.837361336,-3.319054127,7.507916451,0.061653465
3.833180000000084,-5.366992474,8.587492943,-127.4006958,2.337099075,2.305388212,5.104872227,-2.917448521,11.08248615,0.385647923
3.8415130000003046,-5.340182304,8.618139267,-127.4041901,-1.781313062,-1.336770296,5.533678055,4.738556862,2.552945137,-0.782604456
3.8498460000000705,-5.292564392,8.680265427,-127.3996124,2.880715609,2.532263041,6.368699074,7.041558743,6.185582161,0.900058627
3.858179000000291,-5.18834734,8.685757637,-127.4205856,-3.678155661,-0.606953502,10.6415844,14.34125805,-0.268117011,-3.092803717
3.866512000000057,-5.000864029,8.719513893,-127.4173737,5.260078907,0.3099401,9.079052925,23.84850311,2.818771362,0.402681559
3.8748450000002777,-4.811805725,8.692682266,-127.4387207,-7.289660454,0.705794156,6.640903473,24.48514557,-4.17864418,-3.129535675
3.8831780000000435,-4.580459595,8.669511795,-127.4686356,7.307179928,0.931181133,10.64226532,29.71284294,-3.669485569,-4.095220089
3.891511000000264,-4.296981812,8.564907074,-127.4561691,-5.30418539,-1.158884406,6.087055206,35.20557022,-13.8149271,0.171372265
3.89984400000003,-4.015608788,8.511908531,-127.5075684,5.511340618,2.052438974,9.301009178,36.09047318,-7.089632511,-6.878698349
3.9081770000002507,-3.750438452,8.33649826,-127.479187,-5.423526287,-2.130737782,9.225805283,32.73020172,-22.412117,1.604990244
3.9165100000000166,-3.381953478,8.172651291,-127.4986115,4.835716248,-0.969906569,17.29255295,45.95903397,-20.66232109,-3.858140469
3.9248430000002372,-3.036894321,7.991755009,-127.4536514,-4.52795887,-0.195317522,5.774367332,42.058918,-23.16186142,3.785996437
3.933176000000003,-2.715619087,7.694020271,-127.4769287,6.604406357,-1.743152261,17.52182579,40.34536743,-36.73181915,-4.88873291
3.9415090000002238,-2.363315821,7.409604549,-127.4140549,-7.08487606,-0.039820723,7.212474346,42.69412613,-35.61175156,5.628998756
3.9498419999999896,-2.00872016,7.211415291,-127.4578171,4.769972801,0.910241783,16.36343002,44.63065338,-24.75525475,-6.447156429
3.9581750000002103,-1.645732045,6.729278088,-127.4091339,-2.642409086,-3.051676273,17.55181122,44.2582283,-59.1967659,3.621178627
3.966507999999976,-1.277227879,6.465857983,-127.4396667,1.497173309,0.46681565,7.101671696,46.04975891,-32.68885803,-4.777592659
3.974841000000197,-0.938898385,6.148032665,-127.4211121,-3.792399406,-0.029799664,9.362636566,41.76556015,-39.36353683,1.144293547
3.9831739999999627,-0.581095994,5.816036224,-127.4652786,1.758449197,-2.668838501,19.98003769,44.89951324,-40.9550705,-6.131837368
3.9915070000001833,-0.207637414,5.485910416,-127.4624405,-3.121797562,-1.333590746,17.03113937,46.22183609,-40.79442978,-0.611964464
3.999840000000404,0.099042237,5.12430954,-127.490509,0.28056854,-1.872582078,12.62153816,38.52462387,-44.57783508,-3.727561712
4.00817300000017,0.414785236,4.792966843,-127.5008621,-2.797104597,-1.844959259,17.13544083,39.40750885,-40.94850159,-1.392124653
4.0165060000003905,0.739510894,4.512918949,-127.5200424,-0.657444894,-2.756907463,10.56293011,40.56480408,-34.81642914,-2.288522243
4.024839000000156,0.976718903,4.269615173,-127.5163574,-2.292432547,-0.146001443,10.80087185,29.86112595,-30.37111664,0.231553048
4.033172000000377,1.192318678,4.001334667,-127.5517349,-1.144287229,-1.758713484,16.28367615,27.58817673,-33.45716476,-3.954690218
4.041505000000143,1.389153719,3.8110075,-127.5600281,-2.65277648,-1.529410005,17.57952118,25.11825371,-24.04507637,-1.144598722
4.0498380000003635,1.525758862,3.570722818,-127.5823898,-0.761443675,-3.396249056,14.23171139,17.97539902,-30.08232498,-2.277966261
4.058171000000129,1.669959664,3.418318033,-127.6194916,-2.584227562,-2.650905848,14.86235809,19.00316238,-19.59491539,-4.606812954
4.06650400000035,1.822407365,3.239337206,-127.6389008,-1.017750621,-2.132747412,12.75721931,19.83903694,-22.72698212,-2.002151251
4.074837000000116,1.873561859,3.204167128,-127.6724396,-2.70410347,-1.030587196,5.778598785,7.792825222,-5.53870821,-4.551816463
4.083170000000337,1.887654901,3.11614275,-127.6699829,-2.234651327,-0.758879006,14.83308792,3.082519531,-11.73591709,0.308088034
4.0915030000001025,1.868553281,3.078320503,-127.7005234,-0.472656101,-3.417190552,16.87948227,-0.670234859,-5.848971844,-4.188708305
4.099836000000323,1.812104225,3.036267042,-127.6740799,-1.859143853,-3.780174494,15.34522438,-5.53412199,-6.1306777,2.994918823
4.108169000000089,1.726716042,3.017567873,-127.7196655,-0.83339262,-1.368966818,17.66505051,-8.532577515,-3.603705645,-6.041514874
4.11650200000031,1.619204402,2.959266663,-127.6776047,-1.104574561,-3.908377171,15.70354748,-11.75628185,-8.035531998,4.910634041
4.1248350000000755,1.410463929,2.952259064,-127.7197189,-0.619145036,-0.881269395,7.734142303,-23.3640995,-2.16426301,-5.684198856
4.133168000000296,1.12205565,2.909525156,-127.6929398,-0.704114854,-3.470096588,16.95190811,-33.36760712,-6.243924141,2.987877846
4.141501000000062,0.868521392,2.877156734,-127.7358475,-0.942095995,-2.504728079,16.5023632,-28.73577499,-5.164204597,-5.736606598
4.149834000000283,0.488537282,2.896992207,-127.7029266,-1.084108353,-1.770693064,8.608181953,-44.39112091,1.239756703,3.583079338
4.158167000000049,0.087095261,2.932087421,-127.7555923,-4.242115021,-2.260923624,16.92446136,-46.42657471,2.993259907,-6.977907658
4.166500000000269,-0.319339454,2.952138901,-127.7386932,-1.358312488,-2.863773584,16.29956055,-47.46981049,1.213835359,1.697407484
4.174833000000035,-0.776749134,3.012364626,-127.7676926,-1.678127408,-2.637122154,10.25992489,-53.27959442,6.07612133,-4.042179585
4.183166000000256,-1.23630631,3.06714654,-127.7828445,-0.362905443,-1.128955126,18.58034706,-53.64391708,5.416425228,-2.033864975
4.191499000000022,-1.703775644,3.156960487,-127.7924957,-2.55421567,-0.934855163,11.26751137,-54.61828613,9.618247032,-1.213336706
4.199832000000242,-2.272260427,3.226631641,-127.811348,0.798194706,-2.921446323,13.12286282,-66.68727875,7.246424198,-2.298490047
4.208165000000008,-2.81529665,3.301930189,-127.8242722,-1.91314733,-3.320256948,16.18909836,-63.64852524,7.927313805,-1.795410633
4.216498000000229,-3.40730691,3.399867296,-127.8627701,-0.982156634,-0.316286832,12.61042976,-69.3664093,10.79804707,-4.300264359
4.224830999999995,-3.985919237,3.493723869,-127.8877563,-1.768512011,-3.97492528,16.14556503,-67.82326508,10.26984119,-2.91817832
4.233164000000215,-4.648206711,3.608037233,-127.9469604,-2.001568794,-2.592726231,5.989509106,-77.62957764,13.0253191,-6.370230675
4.241496999999981,-5.32772541,3.647534132,-127.9918594,0.055698231,-1.353333473,21.87884712,-79.77279663,4.031319618,-5.588737488
4.249830000000202,-6.017374992,3.743613005,-128.0450592,-0.615356326,-1.83028698,12.05956078,-80.94314575,10.91469955,-5.532771587
4.258162999999968,-6.668300152,3.796567917,-128.0876923,-0.775674045,0.348997593,19.87182999,-76.35928345,5.691973686,-4.704040051
4.266496000000188,-7.351389885,3.971560717,-128.157074,-3.94613719,-1.298816204,3.851541758,-80.00169373,20.66960716,-6.015808105
4.274828999999954,-7.993507862,4.114472389,-128.1980591,-1.26671505,-0.315091878,17.74540329,-75.27733612,16.50989342,-3.222351313
4.283162000000175,-8.651429176,4.314651012,-128.283844,-4.981449127,-2.717026472,10.63738251,-76.7901001,24.06693459,-7.014407635
4.2914950000003955,-9.2324543,4.578161716,-128.3461609,-0.909491003,1.991636038,19.35232353,-67.72636414,31.20760345,-2.779721498
4.299828000000161,-9.807415962,4.760784149,-128.4265747,-1.113865256,-1.011948824,19.11697578,-66.80490112,22.01569557,-6.19413805
4.308161000000382,-10.36206818,5.189634323,-128.499939,-4.196117401,-0.019771352,7.369838238,-64.3629837,51.06019211,-0.201226622
4.316494000000148,-10.87827492,5.517370224,-128.6071472,-1.5021981,3.022065878,15.60463238,-59.33269882,39.82515717,-5.672835827
4.324827000000369,-11.35493946,5.964448929,-128.6831055,-4.791799068,-3.657674074,12.94139194,-54.88272858,53.20533371,1.114237666
4.3331600000001345,-11.74482346,6.403639793,-128.8232574,-1.948625445,1.210860252,20.74446869,-43.5678215,53.79776764,-6.16329813
4.341493000000355,-12.03337002,6.886213303,-128.8899994,1.819483399,1.498704433,18.64694023,-32.28472519,57.11685944,3.810669661
4.349826000000121,-12.28143311,7.31867075,-129.0497742,-2.2455194,0.818928957,12.75803757,-25.99008942,53.55002594,-8.001003265
4.358159000000342,-12.48203468,7.755361557,-129.0823822,-0.369864076,0.728294969,16.31673622,-22.14896584,50.8310585,7.115512848
4.3664920000001075,-12.62497139,8.180541039,-129.2354279,-1.733793497,-0.076610543,17.13668633,-13.19803905,52.56825638,-6.999966621
4.374825000000328,-12.70327091,8.633722305,-129.2722168,0.214666948,1.616566062,16.21390915,-7.343530178,52.8288002,7.328506947
4.383158000000094,-12.76568985,9.062405586,-129.4190979,-1.645286083,0.090557382,12.92830372,-3.370815516,52.82850266,-5.980374813
4.391491000000315,-12.76267052,9.47162056,-129.4568787,-0.708586097,-0.950208962,16.59274292,2.501939774,47.69601822,6.15384531
4.399824000000081,-12.708498,9.831169128,-129.5642853,-0.556496084,-1.120872378,19.54321098,10.07079124,43.69921494,-3.215091467
4.408157000000301,-12.59121323,10.17959309,-129.5791473,0.23189716,-1.763477206,14.81048965,15.78977013,39.99682617,7.109627724
4.416490000000067,-12.44843483,10.48238468,-129.6783905,-0.773326695,2.323805332,14.07046509,20.67771339,36.82449341,-3.891257048
4.424823000000288,-12.29182434,10.76146317,-129.6916046,0.709353864,-0.758539736,13.6523962,20.49555016,31.85801506,5.316792011
4.433156000000054,-12.13771152,11.00425148,-129.759079,-2.335905552,-1.806222558,14.05060673,21.43195534,28.97044182,-1.939358592
4.441489000000274,-11.96559048,11.17542171,-129.7384033,0.331646055,-0.042898398,15.57649326,21.58255577,18.39532471,6.334956169
4.44982200000004,-11.76935959,11.30622101,-129.7669067,-1.905983806,-2.756962061,16.91034508,25.62436104,14.86125088,-0.387390018
4.458155000000261,-11.54821873,11.40364838,-129.7368164,-0.594579041,-0.117984846,14.57386017,27.23096275,9.55243969,5.496422291
4.466488000000027,-11.35232735,11.49936295,-129.7371368,-0.633114636,-0.918145359,13.07662678,24.92234612,10.07988739,1.909529686
4.474821000000247,-11.16692638,11.5409317,-129.6992493,-1.449172974,-1.405747771,15.33667946,22.75035667,2.835023403,5.009595871
4.483154000000013,-10.98090076,11.56293201,-129.6653442,-0.347608387,-1.773736477,14.22190475,22.91765594,0.638204634,4.087086201
4.491487000000234,-10.80079937,11.55430031,-129.6270294,-0.539707065,-1.209261656,14.89777756,22.09600258,-3.050131559,3.894825697
4.49982,-10.60187531,11.54018307,-129.5698547,-0.364347756,-2.68021822,15.70594883,23.90739059,-4.100674629,5.957618237
4.50815300000022,-10.41808414,11.49641514,-129.5223846,-0.770832777,-1.08130455,17.4545784,22.32025528,-7.365056992,4.196561813
4.516485999999986,-10.24673557,11.45680618,-129.4684448,-0.902273595,-0.558208585,16.5057869,20.67780113,-6.994993687,5.057058334
4.524819000000207,-10.09016132,11.37805557,-129.4263611,-1.461541414,-1.874703765,14.02639294,19.19906807,-11.36386204,2.872035742
4.533151999999973,-9.924612999,11.29631519,-129.3727722,-1.601765394,-1.444968224,15.15637684,20.01124763,-11.94323158,4.173265457
4.541485000000193,-9.744670868,11.18738174,-129.3330994,-1.903059483,-0.116803832,14.06741714,22.06801987,-14.85785198,2.035090685
4.549817999999959,-9.591051102,11.10326767,-129.2962952,-2.406142473,-3.247631311,12.25316238,18.99083328,-11.86563206,2.242168427
4.55815100000018,-9.443401337,10.98177624,-129.2440491,-1.453976512,-1.255098462,15.29899597,17.91696167,-16.57522392,3.325344086
4.566484000000401,-9.294418335,10.85661316,-129.1879272,-0.260313809,-0.326276302,16.61672401,18.00534439,-17.07409859,3.746199131
4.5748170000001664,-9.12048912,10.70574665,-129.1308441,-1.098293662,-2.446013689,13.88102818,21.00145912,-20.13619614,3.412714958
4.583150000000387,-8.970302582,10.58613205,-129.0879517,-1.536904693,-1.260680795,12.04965115,18.48067856,-16.15955734,2.40735507
4.591483000000153,-8.83721447,10.46595192,-129.0372009,-2.300998926,-1.904831529,14.33582687,16.26115417,-16.35368538,3.349754572
4.599816000000374,-8.732771873,10.35479355,-128.988739,-1.792877793,-1.47517252,15.74635315,12.89067554,-15.24494457,3.283925295
4.6081490000001395,-8.637495041,10.25844383,-128.9498596,-1.305467963,-3.032189131,15.9374342,12.00198841,-13.30159092,2.462425232
4.61648200000036,-8.520999908,10.17655087,-128.9068604,-1.442997575,-0.684690893,16.15743446,14.46500587,-11.65290451,3.220119953
4.624815000000126,-8.414376259,10.10180759,-128.8889618,-1.936829209,-0.101325601,13.58144665,13.82526207,-10.3708353,0.437568098
4.633148000000347,-8.313231468,10.02964306,-128.8614502,-1.523700356,-1.685186505,14.49679375,12.97123241,-10.22844601,1.62391746
4.6414810000001125,-8.218845367,9.937163353,-128.835022,-3.120885372,-1.473315597,13.05889606,12.17273235,-12.60695744,1.160939813
4.649814000000333,-8.139546394,9.837620735,-128.8060455,-1.318588853,-1.645254016,13.59500408,10.32909679,-13.50058746,1.358067155
4.658147000000099,-8.054633141,9.768623352,-128.7827759,-2.394125223,-2.321992159,13.90605831,11.11555576,-9.762369156,1.225539088
4.66648000000032,-7.954069614,9.701141357,-128.734375,-0.426577449,0.17492573,13.57215595,12.48555946,-9.9926157,4.209803104
4.674813000000086,-7.870529652,9.644388199,-128.7012482,-2.819923162,0.127056703,9.578866959,10.76612568,-8.472640991,2.610142231
4.683146000000306,-7.799625397,9.589404106,-128.6624603,-1.269635916,-3.012996674,13.92579842,9.139443398,-8.349793434,3.312407732
4.691479000000072,-7.708285332,9.518488884,-128.6339722,-2.441474438,-0.783882499,13.78744698,11.81474876,-10.04684067,1.717127562
4.699812000000293,-7.622945309,9.502034187,-128.6313171,-0.258269429,-0.763952792,10.35271358,11.59766579,-3.186321735,-0.285381049
4.708145000000059,-7.527362823,9.485466957,-128.6299438,-1.833396792,-2.469777584,11.0605793,12.86942482,-3.149526596,-0.603522599
4.716478000000279,-7.4635005,9.471605301,-128.6464844,-1.084764838,-1.840242147,9.320279121,9.400309563,-2.582171202,-2.492623806
4.724811000000045,-7.441901684,9.503862381,-128.6904449,-3.851376534,-2.121593475,6.067548275,4.889988422,3.359204769,-5.165610313
4.733144000000266,-7.460958004,9.550556183,-128.7389679,0.322463751,-2.158621311,7.386565685,0.086371206,5.114163876,-5.30021286
4.741477000000032,-7.50419426,9.629968643,-128.7608032,-3.204666138,-1.560818315,5.947908401,-3.326252222,8.631793022,-1.832839489
4.749810000000252,-7.616873264,9.678586006,-128.7870331,0.353204131,-3.56159997,7.184642792,-11.58503723,5.003164768,-2.641647577
4.758143000000018,-7.706150055,9.888946533,-128.7847595,-6.093510151,-2.292967081,2.56931591,-9.330476761,23.82787132,3.121774673
4.766476000000239,-7.850827217,9.939888954,-128.7669525,2.910779238,0.422257394,7.580599785,-16.32166481,4.584616184,2.579763889
4.774809000000005,-8.044678688,10.14113426,-128.7370911,-3.106347799,-2.545167208,2.833789587,-22.46097946,22.27231598,6.34921217
4.783142000000225,-8.226243973,10.35683155,-128.7550049,-1.256705642,-1.627527475,3.610363245,-19.99716568,24.73627663,1.235170722
4.791474999999991,-8.408800125,10.46409702,-128.7153473,-0.176870838,0.06526009,4.520674229,-21.34065247,10.90203953,6.012049198
4.799808000000212,-8.643512726,10.65772438,-128.7175446,-1.025584936,-0.631793559,2.256352901,-26.7101078,21.83090782,2.856374502
4.808140999999978,-8.86188221,10.83209991,-128.7077789,0.836792529,-1.595052481,10.99610043,-25.00100327,19.35040665,3.860311985
4.816474000000198,-9.042187691,11.01465607,-128.7109985,-1.151001453,-0.770913243,2.622590303,-20.15607452,20.51153564,2.69833374
4.824806999999964,-9.19051075,11.08636665,-128.7056885,-0.864670873,0.726589739,3.683433771,-16.4956131,7.240685463,1.515927792
4.833140000000185,-9.336806297,11.16972542,-128.6814423,2.766577005,0.966683865,2.620057821,-16.70851517,8.224733353,4.095358372
4.841473000000406,-9.529768944,11.31029606,-128.7118073,-2.246915817,-0.260743052,8.296244621,-21.02316666,16.06728172,-1.209748387
4.8498060000001715,-9.617769241,11.33720493,-128.665451,0.796220839,-1.321008563,5.685714245,-10.2439661,1.089091659,5.583416939
4.858139000000392,-9.656077385,11.34671021,-128.6929779,-0.576284051,0.250593662,1.303241849,-2.522886992,0.506188512,-3.457115173
4.866472000000158,-9.709904671,11.35038567,-128.6403809,0.83248204,1.16732645,3.988583565,-6.292329311,-1.793367982,5.83848381
4.874805000000379,-9.746269226,11.34992599,-128.6815033,-1.562997937,-0.738583207,5.257868767,-1.964214921,-0.393396288,-5.240557671
4.8831380000001445,-9.745252609,11.3244524,-128.6239319,-0.361573666,-0.989077091,5.280152321,0.17366454,-5.347036839,5.826035976
4.891471000000365,-9.681580544,11.2805109,-128.6541595,-0.738631487,0.484736025,2.393899679,9.779080391,-5.750946999,-4.858751774
4.899804000000131,-9.618940353,11.22156239,-128.5887299,0.56215632,0.795600474,2.202357769,7.393190861,-9.451794624,6.071726799
4.908137000000352,-9.576775551,11.15907288,-128.6231842,-0.978615642,0.070277914,1.614737034,7.289221287,-7.874750614,-5.716495037
4.916470000000118,-9.510534286,11.12137508,-128.568985,-0.266987205,-1.00536871,5.711778164,8.100988388,-6.706306458,5.208859444
4.924803000000338,-9.388157845,11.0370388,-128.6105042,-1.062256694,-1.479124188,6.009183407,17.0736618,-10.33728123,-6.964884758
4.933136000000104,-9.223644257,10.98808575,-128.5611725,0.278439552,0.908783853,2.487005711,20.01991653,-7.924727917,4.453575134
4.941469000000325,-9.065469742,10.9040451,-128.6004791,-1.395478845,-1.35468626,1.215825796,21.30043793,-10.37515354,-6.649791718
4.949802000000091,-8.904273987,10.86726856,-128.5597229,0.843090951,2.371706724,0.993593693,19.83122635,-6.296442032,3.721813202
4.958135000000311,-8.773539543,10.78939915,-128.5809784,-1.35992837,-2.124803305,2.218117952,17.59724236,-10.00777817,-4.39682579
4.966468000000077,-8.598834038,10.74714756,-128.5518799,0.268359244,0.448888302,3.536208391,21.72220993,-6.71791172,2.292807817
4.974801000000298,-8.433040619,10.66649628,-128.5388794,-1.295165062,-0.843339503,2.507799149,21.04082108,-10.95251179,-0.418011695
4.983134000000064,-8.244364738,10.64627361,-128.5202179,-0.482652426,-1.231537342,1.633228898,23.63751984,-3.907671213,1.492183685
4.991467000000284,-8.059869766,10.55550194,-128.480957,-0.279759973,1.003056049,0.455614835,22.70882225,-12.59177113,2.518802643
4.99980000000005,-7.902822018,10.54338837,-128.473877,0.186908618,-0.7788378,3.122212648,20.10162354,-2.742888689,0.291003436
5.008133000000271,-7.73213625,10.47586441,-128.4231567,-2.735589504,-1.327250719,2.92478013,20.80478477,-9.992155075,4.303910255
5.016466000000037,-7.575724125,10.4677639,-128.4386749,1.504988551,-0.140860289,3.460737944,20.51829147,-1.908350825,-2.278527975
5.024799000000257,-7.3971982,10.4084549,-128.3746185,-2.671129704,-1.217256188,3.180048704,21.47393417,-9.194604874,6.010664463
5.033132000000023,-7.273528099,10.40856934,-128.401413,1.563257337,-1.727887988,1.892995358,16.83070755,-0.770284235,-3.46695137
5.041465000000244,-7.121646881,10.33093929,-128.320694,-1.439913392,-0.251089036,1.120777249,17.92944908,-11.58650208,7.714640617
5.04979800000001,-7.028403282,10.33800888,-128.3550262,-0.009407177,0.729853332,0.916890681,13.33680916,0.15346773,-4.25152874
5.05813100000023,-6.90524435,10.28662872,-128.2810822,-1.934464455,-3.482804298,2.059244633,14.64522362,-8.323770523,7.299469471
5.066463999999996,-6.777668476,10.30461788,-128.3160248,0.063958921,1.618255854,3.933986425,17.4666729,1.446884513,-4.17099762
5.074797000000217,-6.666291714,10.25553417,-128.2391663,0.012305176,-0.334649593,4.118131161,13.17815495,-8.053040504,7.666509151
5.083129999999983,-6.552041054,10.23160076,-128.2610626,0.163342327,-2.878534794,1.521330595,15.58544731,-3.743662596,-3.231198072
5.0914630000002035,-6.450619221,10.20062351,-128.1972656,-1.577792406,1.983383894,-0.371124357,12.2820549,-5.682993412,6.343187332
5.099795999999969,-6.374886513,10.17661572,-128.2226715,1.525117517,-1.027129769,2.445342541,11.03586769,-3.71528101,-3.635262012
5.10812900000019,-6.263408661,10.1243763,-128.1445465,-1.152052522,-1.723397493,7.059112072,13.19481754,-8.381069183,7.755633831
5.116461999999956,-6.150956154,10.07781029,-128.1640472,1.336041808,1.988417625,2.660658598,15.31406307,-6.494682789,-3.228303432
5.1247950000001765,-6.054769039,10.0096426,-128.1105804,-2.154794455,-2.873373032,-1.848518848,11.89508629,-9.944063187,4.682039261
5.133128000000397,-5.959814548,9.94900322,-128.0963135,2.734234095,0.433060288,0.28161785,12.50673008,-8.600902557,0.583530784
5.141461000000163,-5.892563343,9.836841583,-128.0656281,-2.278717756,0.440963447,5.785533905,8.909017563,-14.9011488,1.486906767
5.149794000000384,-5.811712742,9.811086655,-128.0387573,0.042933036,-3.404142618,3.328975916,10.560853,-4.586472988,2.510195255
5.15812700000015,-5.731179714,9.68491745,-128.0254364,0.77073729,1.900428295,0.078377612,10.86704636,-16.35918808,-0.71111536
5.16646000000037,-5.696838379,9.626835823,-127.9849625,-0.799539983,-0.713631213,1.693104029,4.714608192,-8.600403786,3.736221075
5.174793000000136,-5.613710403,9.497004509,-127.9860535,-0.07842274,-2.133914232,5.714853764,11.46347523,-16.63410568,-2.381061554
5.183126000000357,-5.554846287,9.441514015,-127.9527512,0.118871965,1.355513215,1.66157639,7.815414906,-8.198925018,2.941820621
5.191459000000123,-5.511892796,9.282725334,-127.9609833,0.074416712,-1.386160374,-0.32324478,6.77793932,-20.01729012,-3.517540455
5.199792000000343,-5.482120037,9.227982521,-127.9347076,-2.093025208,-1.27127862,1.919062614,4.475960255,-8.025415421,2.134972572
5.208125000000109,-5.442882061,9.116486549,-127.9625015,0.980163276,0.21375829,5.322940826,6.702120304,-14.15334034,-5.254031181
5.21645800000033,-5.429486275,9.061312675,-127.9345703,-1.880076408,-1.0553056,4.129041195,2.487347364,-8.092420578,2.335198879
5.224791000000096,-5.401218414,8.940909386,-127.9397888,0.792962313,-1.232043505,0.974164665,4.953499794,-15.46877384,-2.707886457
5.233124000000316,-5.391666889,8.94250679,-127.9374771,-2.570514441,1.522952914,1.616089582,2.511898041,-1.022930026,-0.043390509
5.241457000000082,-5.388902187,8.850613594,-127.9181747,1.042539477,-2.580215931,6.138554573,1.438815832,-12.33727741,0.51706183
5.249790000000303,-5.399783611,8.849385262,-127.9267426,-1.181975245,-1.187957644,7.802768707,0.260496765,-1.2391783,-1.358105063
5.258123000000069,-5.399348259,8.792750359,-127.9096222,-0.525442898,1.584476352,1.017413497,1.19997561,-8.099873543,0.665970087
5.266456000000289,-5.448213577,8.790740967,-127.9348526,0.071747325,-2.622106552,1.583550215,-3.992093563,-1.144175053,-3.336420298
5.274789000000055,-5.451403618,8.772902489,-127.8886261,-2.060415983,-1.268019676,6.666305065,0.225354061,-3.801574945,4.577263832
5.283122000000276,-5.495815277,8.769826889,-127.9216003,2.251772881,2.547142506,5.850920677,-3.317491531,-1.182314754,-4.263015747
5.291455000000042,-5.491577625,8.754169464,-127.8548584,-2.542546034,-3.087473869,5.450963974,0.749651968,-3.773169518,7.001626968
5.299788000000262,-5.461922646,8.651080132,-127.8751984,2.060456753,1.289638758,8.182488441,5.336676121,-13.27333832,-3.915149927
5.308121000000028,-5.417476654,8.603191376,-127.7925949,-0.914419532,2.321408033,5.641189098,5.306463718,-7.793977737,8.491415977
5.316454000000249,-5.366890907,8.450940132,-127.8052826,1.529566526,-2.683204889,9.408511162,7.70668602,-19.23608017,-3.551325083
5.324787000000015,-5.250797272,8.379739761,-127.73349,-2.325242996,1.703817129,8.327474594,14.11995506,-10.44655228,7.032570362
5.3331200000002354,-5.144702435,8.056001663,-127.720932,3.730356693,0.05044809,13.57291222,13.92696857,-40.0124588,-2.367591381
5.341453000000001,-4.986983299,8.015742302,-127.6774139,-3.177483082,-1.796584487,4.635568619,19.60270882,-6.449628353,4.389589787
5.349786000000222,-4.829914093,7.5814991,-127.6650925,3.178227186,0.547767401,14.53521729,20.05871964,-53.23279953,-3.332536936
5.358118999999988,-4.669354439,7.419329643,-127.6527405,-2.546732426,-0.035314016,8.426758766,20.47955513,-20.69749451,-0.482367605
5.3664520000002085,-4.398270607,7.003218651,-127.6231537,2.613535166,0.198847979,17.69568253,33.49355316,-51.23914337,-0.76914674
5.374784999999974,-4.217938423,6.714550495,-127.6026993,-3.082579374,-1.439942956,4.98009491,22.75738716,-35.91414261,-0.505459309
5.383118000000195,-3.995031834,6.265433311,-127.5766907,2.748004675,-1.651934505,20.16927147,27.80741882,-55.16552353,-1.100352764
5.391450999999961,-3.792433977,5.899740696,-127.5762177,-4.229122162,-0.813114762,2.519905567,25.71083832,-44.96786118,-3.255692482
5.3997840000001815,-3.593875647,5.528118134,-127.5596008,1.310733914,-0.994019032,21.41665649,25.03781891,-45.81875992,-1.227936387
5.408117000000402,-3.360612154,5.019760132,-127.5636597,-1.462367773,-0.390845895,9.114010811,29.4472847,-62.04638672,-4.514912128
5.416450000000168,-3.168127298,4.750133991,-127.5326691,-4.694649696,-2.085241079,7.608166695,24.19254303,-33.70213699,1.521859288
5.424783000000389,-2.964063168,4.351994514,-127.571434,2.107276678,-0.368678957,23.25567818,26.28852463,-48.61988449,-7.873363018
5.433116000000155,-2.789638042,3.995656013,-127.5154419,-4.80453825,-1.813374043,2.925010681,21.85295868,-44.23145676,4.213294029
5.441449000000375,-2.68956995,3.887091875,-127.5781555,-3.60834074,-1.005640507,15.3416214,13.94933891,-13.81700325,-8.785288811
5.449782000000141,-2.527432919,3.566940546,-127.516571,-0.588638425,-2.068432331,24.17956543,20.38504791,-39.9017601,5.284584999
5.458115000000362,-2.39324975,3.515179157,-127.5546722,-5.206399918,-3.536788464,0.308646351,17.80816269,-7.173986912,-5.501888752
5.466448000000128,-2.331039906,3.487598181,-127.5094147,-2.247950077,-0.482222557,18.32209969,8.54380703,-4.71846199,4.946185112
5.474781000000348,-2.267355442,3.452447176,-127.5354919,-2.037356615,-1.815081954,17.90291023,9.25865078,-5.256336212,-3.992478609
5.483114000000114,-2.238187075,3.629927635,-127.4937897,-5.858490944,-3.935425997,3.06737113,4.5999856,19.89678955,5.493947506
5.491447000000335,-2.300189495,3.80354023,-127.5169296,-0.19207117,0.506641746,18.81385612,-5.837575912,19.75731659,-2.610795736
5.499780000000101,-2.407751322,4.019955635,-127.4551163,-5.321535587,-4.762593746,13.64946651,-12.00501728,24.45722008,8.126315117
5.508113000000321,-2.455278635,4.427828789,-127.4888687,-2.281632185,-4.558931828,14.417202,-3.976784706,47.90460968,-2.651552677
5.516446000000087,-2.571036339,4.677647591,-127.4444199,-0.460860223,2.091628313,12.57652569,-12.90624428,28.52772903,6.291604519
5.524779000000308,-2.804605007,5.128476143,-127.4551315,-2.281319857,-4.88724184,12.7596941,-26.48293304,52.93502426,0.552295864
5.533112000000074,-2.968355417,5.537555218,-127.4209061,-3.771619797,-1.547057271,18.69485474,-18.62429428,47.63462067,6.221097469
5.541445000000294,-3.222910881,6.031618118,-127.4449081,-1.235222697,-0.832487047,7.698223114,-28.81515884,58.19116211,-0.367450297
5.54977800000006,-3.498093367,6.500486851,-127.4410172,-2.244543552,-5.887517452,19.48036194,-31.66491508,54.9538269,3.430001259
5.558111000000281,-3.732312918,7.012478352,-127.4524689,-0.209987551,1.929514885,17.12973976,-26.53383446,60.21466827,2.180535078
5.566444000000047,-4.004722118,7.461388588,-127.4737091,-0.356195211,0.022686794,14.5188446,-30.95833778,52.7327919,0.774256766
5.574777000000267,-4.317722797,8.018251419,-127.5107956,-2.037626505,-3.14919734,5.075244427,-35.55276108,65.78187561,0.115661666
5.583110000000033,-4.59956789,8.447748184,-127.5618286,0.944449127,0.466940016,22.79547691,-31.53730583,50.66765594,-2.37151432
5.591443000000254,-4.878597736,8.971371651,-127.6081238,-3.497871876,-1.783644438,11.22698784,-31.23044968,61.88714218,-0.613527536
5.59977600000002,-5.159453869,9.468929291,-127.6885986,0.330859512,-1.246714473,10.8068409,-30.74861336,59.12560272,-4.60559845
5.6081090000002405,-5.430962086,9.877067566,-127.7114487,-1.309786201,-1.233380079,17.94809151,-30.71092415,47.83059311,1.492699385
5.616442000000006,-5.722087383,10.29966354,-127.805069,-2.658036232,0.476406962,12.45222092,-31.55771828,50.35979462,-6.412249088
5.624775000000227,-5.97758913,10.703372,-127.8255692,1.316233158,-3.411827087,16.3553524,-28.80470467,47.25270462,2.196708441
5.633107999999993,-6.176474094,11.01545811,-127.8998566,-0.193648472,1.324495196,17.12898827,-20.77915764,36.97994232,-5.07563448
5.6414410000002135,-6.372243404,11.32286358,-127.9200363,0.66248399,1.353901267,13.8513813,-21.61233711,35.74187851,1.336629629
5.649773999999979,-6.564478874,11.6057291,-127.9791565,-1.218845248,-3.515356064,13.10937023,-20.25175667,33.32457352,-3.418825865
5.6581070000002,-6.708779335,11.8436203,-127.9588852,-1.071267009,-0.176703796,16.37849045,-16.39728737,26.89627838,5.33237648
5.666439999999966,-6.873010635,12.06210232,-128.0358582,-1.361243963,-0.341671646,14.20720863,-16.3869133,25.92024422,-6.206552029
5.674773000000187,-6.978384018,12.23446369,-128.0168304,0.90241468,-4.140934944,13.45294094,-11.71635151,19.07659149,4.375425339
5.6831059999999525,-7.077740192,12.38719654,-128.0890198,-2.018249035,2.559875965,17.38465118,-8.66674614,18.03819084,-6.491302013
5.691439000000173,-7.167757034,12.52612495,-128.0796356,1.285503864,-1.751551747,17.92807961,-9.632374763,15.22366714,2.823713541
5.699772000000394,-7.253726006,12.63769722,-128.1475372,-2.947223425,-2.513289213,13.98872471,-7.134244442,13.09282112,-6.540993214
5.70810500000016,-7.315974712,12.71374893,-128.1235046,2.197689295,0.338632822,14.63858795,-6.69396162,7.516498566,3.612324953
5.71643800000038,-7.359570026,12.75063705,-128.1772308,-2.406262398,-1.066845298,17.42539024,-2.402115583,4.012162209,-6.004475594
5.724771000000146,-7.364052296,12.79111671,-128.1594543,1.243510246,-0.755465508,13.36961651,0.400337666,3.364211798,2.350656271
5.733104000000367,-7.422491074,12.77265453,-128.2034607,-2.864161253,-1.818849325,11.12604904,-4.437423706,-2.722063541,-5.724794865
5.741437000000133,-7.462718487,12.75623703,-128.1578522,-0.493037909,-0.481321365,17.18154907,-4.625790596,-3.823399067,4.705873489
5.749770000000353,-7.493156433,12.68476391,-128.1694489,-2.817991018,-2.728765488,18.19016266,-1.937140703,-9.514447212,-2.797651052
5.758103000000119,-7.501828194,12.60554886,-128.1411438,-0.760890841,-1.759607077,13.49190807,-0.376849473,-11.03347397,1.71105659
5.76643600000034,-7.515779018,12.55160236,-128.1361237,-1.841315031,-0.548731983,16.27750587,-0.396751732,-7.673321247,-0.596696496
5.774769000000106,-7.521713257,12.4419632,-128.0948792,0.042974718,-1.69468534,14.51240158,-0.374377728,-14.86568451,2.737675428
5.783102000000326,-7.551067829,12.33183765,-128.0700989,-1.712301612,-0.133503169,11.53313828,-2.751955509,-14.66777802,0.808334231
5.791435000000092,-7.582041264,12.17568398,-128.0362854,-0.190603092,-1.49022162,15.04860401,-3.168853998,-20.2750473,1.132636428
5.799768000000313,-7.572146893,12.01915455,-127.9915009,-0.498092294,-1.197905898,16.03872108,1.469809294,-20.5001297,2.399222136
5.808101000000079,-7.572291851,11.84494019,-127.9550018,-0.847361684,-0.995594919,14.71735764,0.487759292,-22.46336174,1.157546163
5.816434000000299,-7.583563328,11.67517567,-127.9133224,-1.113884449,-1.870684981,16.08537292,-0.966028452,-22.01520348,1.833877444
5.824767000000065,-7.586479664,11.48113537,-127.8819504,-1.958846331,-1.989155173,15.9511261,0.301889569,-24.75610733,0.24804838
5.833100000000286,-7.584290028,11.30786133,-127.8479996,-0.512327611,-0.724734902,16.74100113,0.866786063,-22.32661819,0.880643308
5.841433000000052,-7.55772543,11.12055683,-127.821907,-2.256387234,-1.710430384,14.6064682,3.987907648,-23.86122322,-0.251262963
5.8497660000002725,-7.52946043,10.95759583,-127.7879639,-0.99074322,-0.227796957,13.34459305,4.021385193,-21.09943962,1.061812997
5.858099000000038,-7.514128685,10.75894642,-127.7631531,-2.219459534,-1.580893993,12.19576168,2.687242031,-25.1897831,-0.550642312
5.866432000000259,-7.515050411,10.56382275,-127.7187347,-2.050882101,-1.508126855,15.06608963,0.308882207,-25.07387543,1.796634316
5.874765000000025,-7.504234791,10.33048058,-127.6910553,-1.335491776,-2.007689953,15.95660305,2.104031801,-29.37497711,-0.755044162
5.8830980000002455,-7.482859135,10.13275433,-127.6573181,-1.820124149,-1.034945846,14.1672945,3.254316092,-25.23217583,0.522377014
5.891431000000011,-7.462427616,9.935803413,-127.6249695,-0.179672688,-0.101308368,14.47215176,3.184670448,-25.10794258,0.383496523
5.899764000000232,-7.437179565,9.737380028,-127.5841751,-0.899941504,-0.936666191,14.65435028,3.601849556,-25.4235611,1.360628724
5.908096999999998,-7.423220634,9.518490791,-127.5616379,-2.026926994,-0.519895971,14.54162407,2.628150463,-27.5652256,-1.086851239
5.916430000000219,-7.400351048,9.307003975,-127.5257416,-1.037004828,-2.98920989,14.18837833,3.446448326,-26.88864899,0.606340528
5.9247629999999845,-7.36748457,9.09990406,-127.4919281,-2.09966445,-0.977356076,14.49942017,4.704966545,-26.34753609,0.443344265
5.933096000000205,-7.34835577,8.902462959,-127.4525909,-1.182045817,-1.376291156,16.92630196,2.964734077,-25.28413391,1.25539279
5.941428999999971,-7.322457314,8.731184006,-127.4236145,-3.452147245,-1.690630078,15.1694994,3.983962297,-21.99547577,0.449529976
5.949762000000192,-7.304377556,8.577880859,-127.3841324,-1.071609616,-0.332253724,13.06846333,2.864748001,-20.03081131,1.970401168
5.9580949999999575,-7.286361217,8.43360424,-127.3576736,-2.740583181,-1.240564704,15.33525372,3.09907937,-18.74759865,0.583863735
5.966428000000178,-7.233109951,8.291025162,-127.3179092,-0.956574738,-1.73181355,15.26480198,7.101740837,-18.74242783,2.189492702
5.974761000000399,-7.194890499,8.155526161,-127.2814255,-2.969109774,-1.016315579,13.02922726,5.369846821,-17.86389923,1.921350121
5.983094000000165,-7.182283878,8.038341522,-127.2666855,-2.924034595,-0.812782824,12.81415939,2.672359228,-15.35915565,-0.357228994
5.991427000000385,-7.180094719,7.935720921,-127.2337494,-0.916358232,-2.0747087,16.41693687,1.114898443,-13.88097286,2.011115074
5.999760000000151,-7.149729729,7.841928005,-127.2149811,-1.97537601,-2.065119028,16.40093994,4.745127201,-12.63245583,0.473466367
6.008093000000372,-7.12746048,7.755159855,-127.2028351,-1.486466289,0.201302201,9.704303741,3.879301548,-11.68745518,-0.194015041
6.016426000000138,-7.117424488,7.691057682,-127.1866989,-1.716497779,-2.96416378,13.53746223,2.347788334,-9.043311119,0.617392838
6.024759000000358,-7.08273077,7.620792389,-127.1737823,-2.560310364,0.057405528,18.64254951,5.366208553,-9.744564056,0.146129236
6.033092000000124,-7.060520172,7.567398071,-127.1576767,-1.007285714,-1.681001902,15.5704174,3.814113379,-7.771116257,0.782284439
6.041425000000345,-7.018863678,7.523188591,-127.1471863,-1.407349229,-3.347885132,14.35974598,6.242280006,-6.605707169,0.253901124
6.049758000000111,-6.950187206,7.48358202,-127.1226044,-0.400080502,1.523332238,15.07247353,9.265014648,-6.261733055,1.989649892
6.058091000000331,-6.904676437,7.453621387,-127.1232376,-2.505557299,-0.224312663,11.57032585,6.877614021,-4.735764503,-0.842554569
6.066424000000097,-6.876053333,7.41145277,-127.0959854,-1.234598756,-2.925676107,14.57997227,4.421336651,-6.600634575,2.278398991
6.074757000000318,-6.840219498,7.36975956,-127.0913925,-2.10018301,-1.150921822,17.43169785,5.633044243,-6.207046032,-0.384623319
6.083090000000084,-6.780507088,7.350564957,-127.0651398,-2.087641001,-0.476920664,13.96103287,8.16707325,-3.834131479,2.496056318
6.0914230000003045,-6.725317478,7.329727173,-127.0549927,-1.696368575,-1.607736468,11.59999371,7.874609947,-3.813818455,0.571914613
6.09975600000007,-6.680253983,7.349419594,-127.0324936,-2.991877556,-0.810438931,12.09606934,6.472435951,0.846960366,2.600382805
6.108089000000291,-6.64883709,7.360490322,-127.035347,-2.530732632,-1.347227812,14.96299362,5.220796108,0.181502476,-0.518444955
6.116422000000057,-6.608520031,7.375739574,-127.0140915,-1.582409382,-4.039503574,14.83605957,5.919142246,0.337928593,2.389526606
6.1247550000002775,-6.538349628,7.396276951,-127.000267,-1.720987082,-1.059380412,14.44837093,9.610870361,1.083072305,1.581935167
6.133088000000043,-6.474572659,7.408735275,-126.9840546,-0.204015434,0.686102331,14.98474216,8.807250023,0.088164203,1.752705455
6.141421000000264,-6.410753727,7.444342613,-126.9646683,-1.172879815,-1.878472447,13.47727203,8.766870499,2.798137903,2.436490536
6.14975400000003,-6.383378506,7.443716049,-126.9596786,-1.79071486,-0.877794027,12.39864445,4.616287708,-1.327304006,0.244808063
6.1580870000002506,-6.365741253,7.457741261,-126.937645,-1.507554054,-2.143415213,14.82553864,3.181569338,0.203351378,2.463167191
6.166420000000016,-6.317259312,7.475896358,-126.9261856,-2.351243734,-0.886024415,16.62931252,7.048307896,0.826020718,1.261898279
6.174753000000237,-6.279607773,7.507865429,-126.90168,-1.136715174,-1.744111538,13.0465126,5.540704727,2.314156532,2.986068964
6.183086000000003,-6.254787445,7.563453674,-126.9115524,-2.854857922,-1.342344999,11.10980701,4.543607712,5.571532249,-0.776072979
6.191419000000224,-6.24313879,7.60176754,-126.8846817,-0.830928743,-0.251182854,12.97717953,2.41808629,3.085798264,3.000886917
6.1997519999999895,-6.233165264,7.645596981,-126.8883591,-1.415863514,-2.292940378,12.81986427,2.66503334,4.088877201,-0.196525216
6.20808500000021,-6.196610928,7.688719273,-126.8856277,-1.326508164,-1.537948489,13.81512451,5.788240433,3.972063303,0.194066241
6.216417999999976,-6.161018848,7.741090775,-126.8911438,-2.066598892,-1.16615963,11.66558838,5.769517422,5.131800175,-0.311008096
6.224751000000197,-6.144467354,7.810512543,-126.901474,-0.674393177,-1.007264137,8.712825775,3.557907581,7.237136841,-0.659669101
6.2330839999999625,-6.130557537,7.847290516,-126.9011307,-0.157012418,-0.732169271,10.88964748,3.072145939,3.195785999,0.177071229
6.241417000000183,-6.143541813,7.897996426,-126.9272537,-1.685099959,-1.526649714,9.547625542,0.319742531,5.243541718,-3.120492697
6.249750000000404,-6.161487103,7.974263191,-126.9339066,-1.445185065,-2.455031872,10.72500992,-0.633952439,7.99641943,-0.141390607
6.25808300000017,-6.166514874,8.012943268,-126.962532,-1.774811268,-2.070043087,11.61205006,1.325075626,3.847898006,-3.595739126
6.26641600000039,-6.183813095,8.073048592,-126.9728775,-1.992765069,-1.237117648,10.1031971,-0.494060189,6.115450382,-0.782886386
6.274749000000156,-6.18766737,8.101305008,-126.9988174,0.282049894,-0.876512289,8.761118889,1.430273414,2.571003437,-3.42860651
6.283082000000377,-6.229564667,8.197834015,-127.0249634,-2.583658218,-1.001110435,3.019858837,-3.174013615,10.66329575,-2.168885231
6.291415000000143,-6.307901382,8.24829483,-127.0514526,0.034532458,-2.565086842,11.02835655,-7.489422798,5.232847214,-3.191251993
6.299748000000363,-6.37256813,8.294980049,-127.0755997,-1.840952039,-0.859875858,3.499087811,-5.935255051,4.696844578,-2.565342903
6.308081000000129,-6.458148479,8.494833946,-127.1180038,-2.311817408,-2.637366533,5.940415859,-8.065657616,23.26137543,-3.048877001
6.31641400000035,-6.6003232,8.493187904,-127.125,-0.726597846,-1.406157255,8.115123749,-15.52905464,-1.290099502,-1.181059718
6.324747000000116,-6.747666359,8.760355949,-127.1732864,-2.877899885,-2.749651194,4.859687805,-15.35450745,31.37883186,-2.688255548
6.333080000000336,-6.88763237,8.746500015,-127.1493301,-0.036029954,-0.887335777,2.90180254,-15.8254118,-3.17492342,2.288811684
6.341413000000102,-7.11115694,9.02676487,-127.1818924,-1.800114274,-1.34497118,4.072832108,-24.76094627,32.72359467,-0.44521451
6.349746000000323,-7.309968948,9.167822838,-127.1795197,0.211623415,-1.206942439,10.18576145,-22.49406433,15.56939125,2.07024622
6.358079000000089,-7.506300449,9.344261169,-127.1707993,-2.995106936,-1.618648529,-3.865195036,-22.27908516,19.72625351,3.122403145
6.3664120000003095,-7.760403156,9.509609222,-127.1966629,1.785101533,0.103237979,5.717163563,-28.57686996,18.88577843,-0.733733237
6.374745000000075,-8.034286499,9.702194214,-127.1845016,-1.780721903,-1.496558189,3.166376114,-31.66171074,21.54990005,4.007736683
6.383078000000296,-8.277600288,9.913114548,-127.2367401,-1.299513221,-2.145234823,10.29368019,-26.72224617,24.74373436,-2.857975245
6.391411000000062,-8.453669548,10.04324055,-127.2260284,1.000254273,0.083410554,0.178228825,-19.90542221,14.12191677,2.955179691
6.3997440000002825,-8.689716339,10.2361145,-127.2730942,-2.484511137,0.171360761,-1.655947685,-25.92291069,22.52736855,-2.382382393
6.408077000000048,-8.939944267,10.36012077,-127.2646179,1.666704774,0.025674799,4.19636488,-28.76314545,13.41015244,2.696015835
6.416410000000269,-9.182266235,10.5498848,-127.3075562,-1.306796789,-0.925854445,4.535943508,-26.73622131,22.0976963,-1.750786304
6.424743000000035,-9.350860596,10.67080975,-127.2962036,0.471466303,-1.485974073,3.732898474,-19.03863335,12.9618721,3.117573977
6.433076000000256,-9.525010109,10.83030987,-127.3416367,-0.738881171,0.502045751,2.106186867,-18.47272682,18.57099533,-2.479958773
6.4414090000000215,-9.668186188,10.9168663,-127.3192368,-0.682947397,0.426385343,2.941612959,-16.25096893,8.654873848,3.821260691
6.449742000000242,-9.831600189,11.04757786,-127.3640442,0.248654813,-0.173492834,2.849176168,-17.17709351,15.16556931,-2.881833315
6.458075000000008,-9.923358917,11.1115427,-127.3268204,-1.260709405,0.134458572,3.576953411,-10.43255138,5.659735203,5.135565281
6.466408000000229,-10.02633095,11.18510818,-127.3706284,1.272764683,0.095735349,2.911627054,-9.931958199,8.401007652,-3.887229204
6.4747409999999945,-10.05606651,11.21304131,-127.3206177,-2.46381712,0.200963318,2.117715359,-3.29794836,1.125771284,5.875982761
6.483074000000215,-10.1046772,11.25772285,-127.3696136,2.351048946,0.596297145,2.882650852,-3.27799511,5.101255417,-5.073348045
6.491406999999981,-10.08005524,11.25164986,-127.3108215,-3.130824327,-0.00678509,1.159929276,3.015461683,-3.079945803,6.18834877
6.499740000000202,-10.07315922,11.27224541,-127.3598633,2.989964724,0.474683464,3.277256012,3.385254383,2.25459075,-5.584300518
6.508072999999968,-9.989313126,11.22527504,-127.289566,-3.049190283,-0.403859168,1.217046857,9.85418129,-8.145288467,6.684342384
6.516406000000188,-9.914031982,11.20665169,-127.330574,3.017903328,0.881944716,2.855886221,11.40033245,-2.554289818,-5.475875378
6.524738999999954,-9.785078049,11.12191391,-127.2453079,-2.782278061,-0.877626598,2.09066534,14.92669868,-12.89130306,7.668085098
6.533072000000175,-9.643040657,11.06572247,-127.2807922,2.55758667,1.109338641,3.00727272,19.27473259,-7.128187656,-5.592178822
6.541405000000395,-9.468175888,10.9549942,-127.1934509,-2.635105371,-0.457496226,1.643066168,20.42029953,-15.96571064,7.448701382
6.549738000000161,-9.280578613,10.88569832,-127.2237473,1.548746824,-0.832881749,2.39716506,24.61088562,-8.809546471,-5.212589264
6.558071000000382,-9.077060699,10.76908779,-127.1440582,-2.018699408,0.998717546,1.878739476,24.06259346,-16.46659851,6.546388149
6.566404000000148,-8.890665054,10.67801476,-127.1585999,1.794597983,-2.639084578,2.162806511,24.10190964,-11.71469021,-3.736312866
6.574737000000368,-8.65304184,10.54482937,-127.0998611,-2.805905581,1.54413414,2.022211313,28.65433693,-18.01037407,3.918956041
6.583070000000134,-8.451745987,10.45495892,-127.0908051,1.978102803,-1.123739123,1.904787779,25.36791801,-12.01107216,-0.88042587
6.591403000000355,-8.224030495,10.35807323,-127.0522842,-4.126572132,-1.853737116,1.237384677,27.92564964,-13.31403446,2.304219961
6.599736000000121,-8.013374329,10.27242279,-127.0248795,3.299926281,1.936009407,1.259918809,26.10150146,-11.82077408,1.416455388
6.6080690000003415,-7.804576397,10.16251755,-127.0009613,-4.092895508,-2.679146528,2.744460583,25.98661041,-14.6062603,0.465103656
6.616402000000107,-7.566273689,10.10058212,-126.9635849,1.238022447,0.2463305,1.962915659,29.21758842,-9.144711494,3.047942638
6.624735000000328,-7.351085186,10.0233469,-126.9731064,-3.056113958,0.404574901,1.977237701,27.46703339,-10.19607449,-2.867938519
6.633068000000094,-7.115733624,9.962335587,-126.9206772,2.663846731,-2.058098078,4.13287735,28.56063271,-9.229878426,4.890836239
6.6414010000003145,-6.926055908,9.882867813,-126.9389572,-3.21428299,-0.490440488,2.757706881,24.58348274,-10.35170555,-3.879854918
6.64973400000008,-6.724781036,9.796768188,-126.8811493,3.239125729,-0.454341561,1.592152834,24.37828636,-12.25927639,5.225333214
6.658067000000301,-6.559559822,9.729797363,-126.9069138,-3.942782164,-1.224754453,0.454352438,21.79831123,-8.782958031,-4.539574623
6.666400000000067,-6.387475014,9.646327972,-126.8423004,2.678997993,-1.189199924,0.599206567,20.75555992,-12.00108337,6.129771709
6.674733000000288,-6.226696014,9.567084312,-126.8628387,-3.486485481,-0.364808142,3.014156103,21.16031647,-10.33131504,-4.090326786
6.6830660000000535,-6.056429863,9.490797997,-126.7941818,2.552248955,-0.106054574,3.832739592,20.47777367,-11.15944958,6.763596058
6.691399000000274,-5.904523373,9.41422081,-126.8186264,-3.594812155,-2.27226305,1.346001863,20.17511368,-9.979067802,-4.5263834
6.69973200000004,-5.768201351,9.340044975,-126.7598267,3.116292238,0.024379812,0.562023163,16.61865044,-10.75002861,5.686131477
6.708065000000261,-5.673396111,9.247190475,-126.7713699,-3.105012417,-0.839649856,0.3413423,13.07525063,-12.08852673,-3.232223034
6.7163980000000265,-5.567722321,9.14593792,-126.7095184,2.075832844,-1.622141361,3.627773523,12.90421295,-13.99731255,5.766623974
6.724731000000247,-5.46096611,9.098617554,-126.7286453,-4.012905598,0.331517547,3.161432028,14.65763378,-6.571871281,-3.616142035
6.733064000000013,-5.364218712,9.007520676,-126.6902847,2.168373108,-1.549764752,4.882946968,12.29611588,-12.49996567,3.158876181
6.741397000000234,-5.289883137,8.93817234,-126.6784668,-0.52012217,-0.920679808,0.313870788,10.18040562,-9.55461216,-0.187790811
6.74973,-5.223317146,8.811498642,-126.6598663,-0.123138763,0.362451345,1.345539808,9.05321312,-16.5275383,0.469752401
6.75806300000022,-5.161893368,8.764012337,-126.6389923,-1.810862184,-1.496570945,1.104282141,8.462226868,-7.031556606,1.146493316
6.766395999999986,-5.099514961,8.641655922,-126.6394424,1.760538816,-0.708992779,5.417011738,8.903383255,-15.80658627,-1.702873349
6.774729000000207,-5.052278042,8.558684349,-126.5915909,-1.363512158,0.245027572,1.466789603,6.283928871,-11.55635071,3.972345829
6.783061999999973,-5.02930975,8.434986115,-126.6136093,-0.244818866,-2.758136272,-2.398290396,4.555044174,-15.7435627,-4.243382931
6.791395000000193,-5.01378727,8.38038826,-126.5618896,-1.130621552,-0.129534647,2.09530282,2.431699991,-8.201855659,4.723840714
6.799727999999959,-5.005877972,8.255456924,-126.5840988,0.578035474,1.257543445,8.004872322,2.744655848,-15.89330578,-4.273045063
6.80806100000018,-4.984033108,8.197394371,-126.5344162,-0.602854192,-2.832242727,2.743137598,3.240059853,-8.591936111,4.457760811
6.8163940000004,-4.951161861,8.053376198,-126.5570297,1.057077408,1.04027009,-3.674011469,5.737693787,-18.17224503,-4.508965015
6.824727000000166,-4.98404789,7.976710796,-126.5169449,-1.610020995,0.285854906,2.803109646,-3.149782658,-10.71597195,3.155635118
6.833060000000387,-4.961256027,7.824642658,-126.5410156,0.241278917,-4.143142223,7.265256882,4.542032719,-19.11859894,-4.769346714
6.841393000000153,-4.955445766,7.80159235,-126.528862,-1.156480312,3.398302078,-0.130254626,1.968940735,-4.019911289,0.381626487
6.8497260000003735,-5.000122547,7.629276276,-126.5453491,1.12919116,-3.130406857,0.101304635,-3.686811447,-21.61765289,-4.082321167
6.858059000000139,-5.013694286,7.614186764,-126.5534058,-3.369735956,-0.753300607,3.697078228,-0.031659197,-2.858267069,-1.936948657
6.86639200000036,-4.998835564,7.512630939,-126.5764771,0.625627995,2.457186937,6.096939087,3.556754827,-13.08823586,-4.133984566
6.874725000000126,-5.025134087,7.515881538,-126.5844269,-0.245203003,-1.993587136,3.964657784,-1.56254518,-0.668633997,-1.72632277
6.8830580000003465,-5.017402649,7.415044785,-126.5452957,-1.310153008,-2.729801178,1.998268008,1.727437139,-13.6489315,3.245157719
6.891391000000112,-5.061783791,7.484373569,-126.5755234,-0.698792517,3.267249584,-0.401978612,-3.393988848,7.466767311,-3.632815361
6.899724000000333,-5.090856075,7.428355694,-126.5265884,-1.464642048,-3.502480745,5.543130875,-2.841195345,-8.398434639,4.869010448
6.908057000000099,-5.100865841,7.496571541,-126.5594559,1.325880408,0.669370711,8.151791573,0.775073946,7.359367371,-3.951200485
6.91639000000032,-5.107574463,7.495727062,-126.5275345,-3.796091318,-0.066922352,3.930969477,0.104915902,-1.625082135,3.43671298
6.9247230000000854,-5.109692097,7.524065495,-126.5865479,4.546515465,-1.52261138,6.01038599,2.132026196,2.872585058,-7.449579716
6.933056000000306,-5.070457935,7.525689602,-126.5443115,-4.359824181,1.304463744,7.474265099,5.454730511,-1.440992832,4.685304642
6.941389000000072,-5.031780243,7.473893642,-126.6139069,4.090791225,-0.010267801,8.282874107,7.190814018,-6.606386662,-9.515806198
6.949722000000293,-4.995284557,7.362331867,-126.5300369,-2.294856548,-0.927990317,7.58157444,4.488869667,-15.39593792,8.436152458
6.9580550000000585,-4.942601204,7.300186634,-126.6003036,2.66511631,0.02069902,11.31251717,8.810529709,-7.888532162,-9.312709808
6.966388000000279,-4.772127628,7.074494362,-126.4763794,-2.154649258,-0.645637691,10.45031834,20.00750923,-29.42281342,12.07348824
6.974721000000045,-4.641179085,6.860445976,-126.5270309,4.38201046,1.036405921,12.27700806,17.86292267,-26.28695107,-8.456943512
6.983054000000266,-4.528018951,6.519111156,-126.4324417,-2.348551035,-1.108006716,4.549118519,13.66734505,-42.91187286,7.626473427
6.9913870000000315,-4.393042088,6.262773037,-126.4952545,1.920540094,-0.203977883,14.46564484,18.44548416,-31.27317238,-10.19427299
6.999720000000252,-4.22153616,5.819748878,-126.4084854,-0.713730037,0.522937655,11.80436134,20.89552689,-54.9782753,5.996067047
7.008053000000018,-4.019479752,5.519971848,-126.4739151,-0.655374229,-2.083215237,15.01975155,26.46134758,-36.47160721,-11.08100796
7.016386000000239,-3.794263601,4.991415024,-126.4195633,1.571032166,1.11072588,14.9443512,27.83905411,-64.91110229,1.820642233
7.024719000000005,-3.562721968,4.566188335,-126.4677429,-2.881288767,-1.057979465,10.48719215,29.70477295,-51.705513,-9.713397026
7.033052000000225,-3.362049818,4.217597485,-126.4544373,-1.77769804,-1.503082156,13.45587635,25.36858559,-43.03956604,-1.272389889
7.041384999999991,-3.129503012,3.705438375,-126.498085,-1.11546433,-1.290920138,19.56541252,29.69907379,-62.2205162,-9.408941269
7.049718000000212,-2.890970945,3.323353291,-126.4967422,-2.075881243,-0.447768241,10.08316803,30.02449799,-46.98336029,-2.584931612
7.058050999999978,-2.64478755,2.934411764,-126.5226059,-3.053815603,-2.987850904,13.91917419,31.13734055,-47.63020706,-6.056004047
7.066384000000198,-2.423027515,2.61084938,-126.5429001,-0.698789179,-1.306726336,12.77880478,28.14031982,-39.87100983,-4.48264122
7.074716999999964,-2.207126856,2.176673174,-126.5690918,-0.296141207,-1.741992235,18.82985306,27.4620285,-53.09428406,-5.970350742
7.083050000000185,-1.98562336,1.970365763,-126.6094589,-4.856454849,0.396257699,6.516120434,28.16677856,-25.7526207,-6.079661369
7.0913830000004054,-1.857748032,1.718989611,-126.6063309,-1.331780791,-2.557995081,11.4823513,16.75042152,-31.32272148,-1.3950423
7.099716000000171,-1.72428143,1.491320968,-126.6715393,-1.554000974,-1.822917461,19.1789608,17.64528084,-28.25069809,-9.010622025
7.108049000000392,-1.600308061,1.255828381,-126.6451263,-1.928063869,-2.062827587,13.85500813,16.21323776,-29.50979233,1.616131902
7.116382000000158,-1.452953339,1.175649881,-126.7122879,-2.731740952,-2.198709726,12.53704929,19.26534653,-10.59024811,-8.648125648
7.1247150000003785,-1.370589256,1.014714956,-126.6825104,-2.002287149,-2.992940187,10.01076889,11.23004055,-20.56552315,2.311928988
7.133048000000144,-1.323641539,0.894679189,-126.7700577,0.471149743,-0.854426205,19.00572205,7.218119144,-15.34081841,-11.17709446
7.141381000000365,-1.305220485,0.863071382,-126.7416992,-5.383058548,-1.498493433,10.01503277,3.568447351,-5.041559696,2.535066605
7.149714000000131,-1.385962367,0.918824494,-126.8227768,-2.362319469,-3.505609035,7.404376507,-8.1282444,5.729713917,-9.904233932
7.1580470000003515,-1.429673314,0.896058202,-126.8133774,-1.714463949,-2.267733574,23.69682121,-3.848974228,-3.935217857,0.313659132
7.166380000000117,-1.46381557,1.000044942,-126.8777084,-2.035831213,1.201221228,14.90664482,-2.560783863,11.48205757,-7.737883091
7.174713000000338,-1.538838267,1.152513027,-126.8525162,-4.654624939,-5.592422485,9.20331192,-7.642663479,17.02251053,3.162616491
7.183046000000104,-1.673617959,1.413535357,-126.9299011,-2.203336716,-0.136912405,8.693535805,-14.5566721,30.38388824,-8.736779213
7.191379000000325,-1.866337061,1.529432893,-126.9232483,-0.804300368,-3.045689344,24.41855621,-21.72937202,12.70059395,0.526500821
7.1997120000000905,-1.978239059,1.839467049,-126.9739151,-3.004681587,-2.743044376,15.07663727,-11.83989906,36.19928741,-5.162824631
7.208045000000311,-2.202145815,2.124766588,-126.9746933,-2.020843983,-0.500618637,5.927022934,-25.44881821,33.0267601,0.819016397
7.216378000000077,-2.451280594,2.522729397,-127.0437088,-2.977966309,-4.040423393,15.49108696,-28.15233231,46.86646271,-6.665008545
7.224711000000298,-2.706699371,2.81184268,-127.0700531,-1.796536684,-1.469021082,18.74748802,-29.07319641,33.62773514,-2.303376913
7.2330440000000635,-2.961408377,3.212685823,-127.109108,0.91369772,-0.888555765,13.59230137,-28.90332603,47.08119583,-2.632190228
7.241377000000284,-3.274410725,3.519168615,-127.1502533,-2.248183489,-2.083358288,12.21637726,-35.86421967,35.8041687,-3.258509159
7.24971000000005,-3.581624031,4.047171593,-127.206604,-2.308157444,-0.430624932,10.54244804,-35.01146317,62.46422577,-3.283683062
7.258043000000271,-3.896552086,4.389911175,-127.2498398,-2.376367331,-2.025742054,17.23085022,-35.97676849,40.21125793,-3.124944448
7.266376000000037,-4.283042908,4.928897381,-127.3037338,-2.981233358,-1.868433237,6.726771355,-44.44658661,63.78798294,-2.15395093
7.274709000000257,-4.635920525,5.354258537,-127.3350143,0.486302286,-1.910360932,20.38532829,-40.59298325,49.98733521,-0.093402654
7.283042000000023,-4.979705334,5.800692558,-127.3903656,-2.880424023,0.140898451,16.72776604,-39.19070816,52.7461853,-2.433015585
7.291375000000244,-5.351822853,6.321093559,-127.4348145,-1.294288158,-2.418012619,9.712357521,-42.6827774,61.48503494,0.002356521
7.29970800000001,-5.704869747,6.75797987,-127.4661942,0.384675294,-0.565743804,18.60861969,-40.53087997,51.3572464,0.991325855
7.30804100000023,-6.044935703,7.173553944,-127.4852371,-1.650782824,0.426788211,16.12070847,-39.11404037,48.64586258,2.512034893
7.316373999999996,-6.365071297,7.627439022,-127.5541229,-0.201347649,-2.33484602,16.30364037,-35.94516373,53.84794998,-2.600917339
7.324707000000217,-6.64572382,8.061964989,-127.5719681,-1.992753386,1.784177303,11.1111393,-31.94887543,50.87897491,3.289979935
7.333039999999983,-6.948102951,8.504277229,-127.6562653,1.850422978,0.37716189,14.4258604,-33.41361237,52.69836807,-3.994284868
7.341373000000203,-7.206885338,8.859104156,-127.6687088,-2.708190918,-2.630366087,15.07962322,-29.42158699,41.24892807,3.445685863
7.349705999999969,-7.434549332,9.246406555,-127.7388992,0.726903558,-0.588383019,18.78294373,-24.58649635,45.97108841,-2.665730953
7.35803900000019,-7.615316868,9.556389809,-127.7613525,-3.627519369,0.033627946,14.99547005,-19.83857536,36.03963852,1.900092244
7.366371999999956,-7.768515587,9.916525841,-127.832756,1.395638704,-0.098595873,15.74425793,-15.52672577,42.77080917,-2.921014547
7.374705000000176,-7.901275635,10.23811245,-127.8502121,-2.175448895,-2.35538578,13.66479492,-14.15135956,37.32222366,2.881631374
7.383038000000397,-8.039191246,10.53262997,-127.9149475,-0.126755983,0.55645436,12.75323009,-13.73638058,34.87269592,-3.00413084
7.391371000000163,-8.163392067,10.77920151,-127.9345016,-2.254371405,-1.199754834,16.1703949,-13.06236076,28.43113136,1.549918652
7.3997040000003835,-8.249051094,10.98360252,-127.9729767,0.983337104,-2.444954395,13.13114357,-7.998778343,23.7376709,-1.323577881
7.408037000000149,-8.317303658,11.16814613,-127.9792786,-2.124944925,1.194177985,14.25696373,-6.610025406,20.85314751,1.994043469
7.41637000000037,-8.391156197,11.28673267,-127.9988098,1.881167531,-1.263608575,15.33424568,-6.997131348,13.22681046,-0.542881072
7.424703000000136,-8.462906837,11.40316582,-128.0130157,-2.875337839,-0.655833364,14.84186745,-6.864781857,12.88267994,0.057862561
7.433036000000357,-8.543458939,11.45168686,-128.0209656,1.645766258,-0.900409579,15.78653145,-8.065821648,4.712520123,-0.397046298
7.4413690000001225,-8.606190681,11.51223564,-128.0192108,-1.210252881,-2.504554272,15.48421097,-6.161901951,5.96568346,0.949238062
7.449702000000343,-8.629007339,11.51567459,-128.0050201,0.706668377,1.705150247,16.62242317,-1.667909503,-1.02783525,1.373128057
7.458035000000109,-8.668405533,11.52865696,-128.0138245,-2.149746418,-1.946351767,12.46830654,-3.107890368,0.514077663,-1.122684836
7.46636800000033,-8.702973366,11.50713825,-128.0016022,-1.937039256,-2.609085083,14.00887871,-3.032533169,-3.958360195,0.693198025
7.4747010000000955,-8.730484962,11.46836662,-127.9821625,-1.062609076,-1.315557122,18.47355843,-2.335877657,-6.105037212,1.100771666
7.483034000000316,-8.726742744,11.38379478,-127.9471359,-0.542550862,-1.745765328,15.96714783,1.022392392,-11.83435345,2.195575476
7.491367000000082,-8.713078499,11.32523251,-127.9306488,-1.416654825,0.536374748,13.89354706,2.659474611,-8.428658485,0.515332758
7.499700000000303,-8.699476242,11.21391296,-127.877327,0.011797866,-1.149350405,14.7921505,1.791357398,-15.34230042,3.843775272
7.508033000000069,-8.688624382,11.12613106,-127.8579483,-2.413140059,-1.005446672,14.95704937,2.260533333,-11.93752861,0.329296619
7.516366000000289,-8.675930023,10.98869991,-127.7935791,-0.744123459,-1.991759777,15.28421974,1.450918555,-18.63421822,4.666555405
7.524699000000055,-8.657675743,10.88298798,-127.7777481,-2.5964396,-1.462503433,15.56583881,3.239586592,-14.0019331,-0.401797742
7.533032000000276,-8.611151695,10.75550461,-127.7141876,0.383049369,0.636077881,16.46527481,5.559930325,-17.4295826,4.776262283
7.541365000000042,-8.571733475,10.67278767,-127.700264,-1.953105569,-0.728631079,13.23412514,5.828801632,-11.24735355,-0.196653306
7.549698000000262,-8.54877758,10.55695915,-127.6437759,-0.923244715,-0.233103082,12.15530682,2.916155577,-15.92494869,4.181806564
7.558031000000028,-8.533981323,10.45144176,-127.6347351,-2.134161472,-2.789507627,16.25865555,2.982637405,-13.85604858,-1.160965323
7.566364000000249,-8.462591171,10.32996178,-127.5761185,-1.639878273,-2.349290848,15.89002419,8.708304405,-16.62829208,4.349733353
7.574697000000015,-8.383960724,10.22114277,-127.5534439,-1.663850784,0.126189649,15.45081997,10.37758446,-14.46839714,0.271485358
7.583030000000235,-8.31464386,10.09427261,-127.5000153,-0.916293383,-2.734143019,12.35547066,8.598189354,-17.16714096,3.697467804
7.591363000000001,-8.261198044,9.982327461,-127.4821091,-2.874473572,-1.145929337,12.93354321,7.462760448,-14.75117874,-0.30830583
7.599696000000222,-8.208490372,9.846969604,-127.4268646,-0.282510698,0.182426065,14.46125221,6.59259367,-18.19936752,3.80089736
7.608028999999988,-8.141716003,9.740356445,-127.398674,-2.64811945,-1.732044101,15.25326824,8.843174934,-14.31252003,1.145763159
7.616362000000208,-8.063132286,9.616564751,-127.3538132,-0.466192663,-1.535700679,15.25674057,9.935329437,-16.641716,2.822510242
7.624694999999974,-7.99219656,9.518120766,-127.3157272,-1.538364887,-0.756874204,14.33491993,9.157577515,-13.50122738,2.476000547
7.633028000000195,-7.937749863,9.407743454,-127.2850037,-1.593415022,0.500950992,15.33589268,7.329027653,-14.79567051,1.430965185
7.641360999999961,-7.887751102,9.321076393,-127.2569275,-0.853548229,-2.050564528,15.54388237,6.861363888,-11.94626522,1.523278952
7.649694000000181,-7.812448978,9.211309433,-127.2155533,-2.365267038,-1.213870764,14.32940865,9.647938728,-14.90665722,2.71887517
7.658027000000402,-7.738969803,9.111491203,-127.1838608,-1.217428088,-1.476678491,13.26119137,9.614227295,-13.54897022,1.765128255
