,time,Euler_X,Euler_Y,Euler_Z,Acc_X,Acc_Y,Acc_Z,Gyr_X,Gyr_Y,Gyr_Z
0,0.0,-11.971110026666667,19.649324416666666,-152.24937946666668,1.1880514423333333,-0.5674674013333333,5.746947369,-13.721711156666666,-0.7991728583333332,1.343044281
1,0.0083330000002206,-12.072195690000001,19.706546146666664,-152.24886066666667,-3.5213522909999995,-0.04819118733333333,9.294062257,-12.507775303333332,6.1910349516666665,1.024360468
2,0.0166659999999865,-12.165296236666668,19.717461266666668,-152.23664346666666,1.9278039933333335,0.029437105,4.214773075,-11.985901514666667,0.46578645699999993,1.1562394996666667
3,0.0249990000002071,-12.25986767,19.697478613333335,-152.210317,-2.6199164786666667,-0.8366529246666667,11.082470099333333,-12.79330444,-3.480706055,1.9305921000000001
4,0.033331999999973,-12.331623713333334,19.775061926666666,-152.2045949333333,-1.3515740633333333,0.5451916553333334,4.698153972666667,-9.163399219333334,8.430494944333333,2.1486118636666665
5,0.0416650000001936,-12.39618524,19.708751680000002,-152.1656138333333,0.936273982,0.12630732733333336,8.623621780333332,-9.659095445666667,-9.223371664333333,2.1326287983333336
6,0.0499979999999595,-12.415528296666666,19.70353317333333,-152.13833616666668,-1.99391822,-0.03185462966666666,12.459248544,-3.7879611653333334,-1.7916306653333336,2.410431862
7,0.0583310000001802,-12.444609643333335,19.673372269999998,-152.10643516666667,-0.3390945543333333,-0.7064769663333333,8.932436943,-5.1082558633333335,-4.821026285333333,2.275197267333333
8,0.0666639999999461,-12.462693853333333,19.562461853333332,-152.05370073333333,-0.5432760813333335,-0.03801651800000002,11.376778285999999,-4.6349904933333335,-14.802135786666668,2.4867285886666664
9,0.0749970000001667,-12.465396883333334,19.495100660000002,-152.02008053333333,-1.6431882876666666,-0.17594885833333332,10.581592878333334,-2.011387547,-9.223507722,1.5089646180000003
10,0.0833299999999326,-12.438135783333331,19.36718305,-151.97068786666668,-0.062883119,0.17964181833333334,10.686546645333332,0.9556031623333333,-16.71418349,1.676588555333333
11,0.0916630000001532,-12.379599253333334,19.22438876,-151.91465253333334,-1.2880899506666668,0.09029583900000003,12.874644913333332,4.457603931666667,-18.60299619,2.0506250263333334
12,0.0999959999999191,-12.298063913333332,19.084255853333335,-151.85325623333333,-1.4690614143333331,-0.004632154999999989,12.38741048,7.026999632666667,-18.430729866666667,2.748019933666667
13,0.1083290000001397,-12.201947850000002,18.93681717,-151.79010516666665,-1.2041267949999999,-0.3256247686666666,12.355646766666666,8.719382922,-19.31636747,2.779909491333333
14,0.1166620000003604,-12.08292262,18.76436488,-151.7218119,-1.0445072353333333,-0.24168121799999998,10.827864330000002,11.291712760000001,-22.376342773333334,2.7580611703333333
15,0.1249950000001263,-11.953144389999999,18.56140709,-151.64623006666667,-1.3361323276666666,-0.5764065286666666,13.064435323333333,12.330978392333334,-26.115643820000003,2.8647789956666667
16,0.1333280000003469,-11.812192920000001,18.380144756666667,-151.57365416666667,-1.6872237523333335,-0.48680777366666667,13.624822616666668,13.805907246666669,-23.499488196666665,3.144606034
17,0.1416610000001128,-11.676210723333334,18.20821571333333,-151.50939433333335,-1.5558728376666666,-0.9514251946666666,12.361202876666667,13.575820286666668,-22.198990503333334,2.5091845986666668
18,0.1499940000003334,-11.538827896666666,18.011569976666664,-151.44057210000003,-1.5403068266666669,-1.0023088653333334,12.380567553333334,13.566012383333332,-25.203741069999996,2.470037778
19,0.1583270000000993,-11.40094948,17.827742896666667,-151.37353516666667,-1.9026766816666667,-0.7939114869999999,13.881443339999999,13.73019886,-23.646017073333336,2.6519331533333332
20,0.16666000000032,-11.256867093333334,17.653521856666668,-151.30531313333333,-1.978259166,-0.9398123423333332,14.379918736666667,14.43979009,-22.538738883333334,3.0690013566666665
21,0.1749930000000858,-11.11215782,17.490585963333334,-151.24409993333333,-1.8337385256666667,-0.8857656323333334,13.589513779999999,14.813893953333334,-21.04680125,2.6067748863333335
22,0.1833260000003065,-10.960820196666667,17.315595943333335,-151.18386840000002,-1.771758,-0.48398182799999995,13.340288163333334,15.641176539999998,-22.43463579666667,2.2725263036666665
23,0.1916590000000724,-10.807542483333334,17.138750393333336,-151.12732949999997,-2.5455254713333333,-0.6101944346666667,13.851121266666667,16.05732091,-22.57199414666667,1.8923765023333334
24,0.199992000000293,-10.6435016,16.98388067666667,-151.07280476666665,-1.9178138973333334,-0.6325933736666666,13.852725663333333,17.415338836666667,-19.927657446666668,2.2233299016666668
25,0.2083250000000589,-10.466399826666667,16.841757456666667,-151.02065023333333,-2.63380305,-0.617173026,15.621035893333334,19.093541463333334,-18.36921692,2.3040487766666664
26,0.2166580000002795,-10.289381344,16.711530366666665,-150.96347046666665,-2.2725404103333333,-0.970469435,14.377190273333332,18.90619723,-17.05488014333333,3.175974687
27,0.2249910000000454,-10.130269048,16.578552246666668,-150.89675393333334,-1.5206429163333333,-0.6968917846666666,13.451562883333333,16.460223513333332,-17.566891986666665,4.252797603333334
28,0.2333240000002661,-9.981648763,16.465119043333335,-150.8349762,-2.794079264,-1.8193741243333335,12.101169904333332,15.36154175,-15.142057416666667,4.145840803666666
29,0.2416570000000319,-9.836389860999999,16.367736496666666,-150.77078756666666,-2.587922215666667,-1.7595686316666665,12.630619686666668,14.92354552,-13.289002420000001,4.80630366
30,0.2499900000002526,-9.696153958666667,16.27385839,-150.7076619333333,-1.8785915770000001,-1.4744322696666667,13.128940900000002,14.353525163333332,-12.839855833333331,4.786964734333334
31,0.2583230000000185,-9.574841499,16.17877674,-150.65327456666665,-1.4960207143333335,-1.612470945,14.608574866666666,12.393131256333334,-12.800265633333334,3.8032753466666662
32,0.2666560000002391,-9.475075086333332,16.079363506666667,-150.60078430000002,-2.5491704146666665,-0.7831798,15.697264036666667,9.869243304,-13.26900005,3.5286774636666665
33,0.274989000000005,-9.395000775333331,15.959464070000001,-150.55419413333334,-0.7069625006666667,-0.7526666669999998,13.641962686666666,7.730092683,-15.57796796,2.483467102
34,0.2833220000002256,-9.327559789,15.830427173333334,-150.5112254,-1.9525708356666664,-2.103252530333333,12.439990680000001,6.313317616666666,-16.581218716666665,1.9125515323333333
35,0.2916549999999915,-9.263724008999999,15.65282758,-150.46692913333334,-0.744725749,-1.6466420890000002,12.17038504,5.893799781666668,-22.366718289999998,1.146950503
36,0.2999880000002122,-9.205490112333333,15.44969018,-150.42298383333332,-1.2507929503333333,-1.5840824443333332,13.03523286,5.217823187333333,-25.375200270000004,0.6400230330000001
37,0.3083209999999781,-9.162312189666666,15.228064216666667,-150.38504030000001,-1.6082427696666668,-1.545401732,14.504804293333331,3.6461329460000003,-27.45828056666667,-0.3699337243333334
38,0.3166540000001987,-9.145411491333332,14.987059276666665,-150.34399923333334,-2.1365438303333333,-1.1978769503333333,14.419113476666666,0.37805380466666666,-29.804857890000005,-0.37416887299999996
39,0.3249869999999646,-9.157528559333334,14.751083376666669,-150.31179806666668,-1.8081935839999999,-1.0733374556666666,12.562347413333333,-2.7695327996666665,-29.05554707666667,-1.276042362
40,0.3333200000001852,-9.173821449333333,14.499014536666666,-150.27588906666668,-2.0057936906666667,-2.441871961,11.829150516666665,-3.4270679156666666,-31.0127182,-1.1745545713333334
41,0.3416529999999511,-9.191257477,14.228683473333334,-150.23503113333334,-1.539341012666667,-1.4838097293333334,12.904885290000001,-3.621668418,-33.293114980000006,-0.9439963970000002
42,0.3499860000001717,-9.217282931,13.964221316666666,-150.19204713333332,-2.1974245706666666,-1.831698994,13.906211533333334,-4.751282533,-32.619725546666665,-0.6032798786666667
43,0.3583189999999376,-9.253976822,13.690167109999999,-150.1502990666667,-2.141987443,-0.9520778233333332,14.763379093333334,-5.914290269333333,-33.74738057333333,-0.93393446
44,0.3666520000001583,-9.319049199666667,13.427674926666668,-150.108195,-1.975055098333333,-0.9171922803333333,13.248359043333332,-9.366324586,-32.371181486666664,-0.7012543976666668
45,0.3749849999999242,-9.404515584333334,13.156225203333333,-150.06787106666664,-2.1341538826666664,-2.140909075666667,12.02169927,-11.697120029999999,-33.41090393,-1.1160731316666668
46,0.3833180000001448,-9.490840594,12.890624046666668,-150.0239156,-2.273335595666667,-1.5496729613333333,14.496626216666668,-11.925326345999999,-32.76741218666667,-0.6283989149999999
47,0.3916510000003654,-9.579390525666668,12.646228153333333,-149.98783873333332,-2.7314331929999995,-0.9537907343333334,13.679025653333333,-11.900675456,-30.13278516,-1.1573975433333332
48,0.3999840000001313,-9.687118530333334,12.429062206666666,-149.95448303333333,-2.6335506043333337,-1.1727566123333333,11.457377433333335,-14.092128116666666,-26.776521683333332,-1.3400056759999999
49,0.408317000000352,-9.798515955333334,12.213350293333335,-149.91622416666667,-2.774705092,-1.3459311326666665,12.440253256666667,-14.670659063333334,-26.77523104333333,-0.420522044
50,0.4166500000001178,-9.904628435666666,12.023262343333334,-149.88032023333332,-2.049833655,-1.4869112173333334,14.52895228,-13.934468586666668,-23.626543046666665,-0.5721756620000001
51,0.4249830000003385,-9.994442940333334,11.849493343333334,-149.8474528,-3.4943771363333336,-0.21982191999999998,16.035668056666665,-11.927907625666668,-21.70949427333333,-0.26203363166666666
52,0.4333160000001044,-10.080327351333333,11.675979616666666,-149.80721540000002,-1.1292902626666665,-0.7085617506666666,12.517057099666667,-11.578912416666666,-21.747700373333334,0.1838291733333334
53,0.441649000000325,-10.168795587333333,11.512297945333332,-149.76371766666668,-2.9695210456666667,-1.5385893383333336,13.522338866666667,-11.987893742333334,-20.746199926666666,1.123543342
54,0.4499820000000909,-10.246253966666666,11.348518050666664,-149.71909586666666,-1.4607306619999998,-0.11456269033333333,16.011022883333332,-10.650992711333332,-20.70347468,0.8774927906666666
55,0.4583150000003115,-10.329192796666666,11.210661253,-149.6837565,-2.690752824333334,-0.805547138,14.982874866666668,-11.118076641000002,-17.52437083,0.6800922553333333
56,0.4666480000000774,-10.41137441,11.074285188,-149.65849813333332,-2.3160857756666666,-1.3625386160000001,12.356596313666666,-10.813932419666665,-17.121516543333332,-0.4892704886666666
57,0.4749810000002981,-10.484166143333335,10.968128840333334,-149.63209533333335,-3.124325434333333,-1.041226104,12.172395705666666,-9.675694147333333,-13.596235593333333,0.2931208413333333
58,0.4833140000000639,-10.533485096666666,10.847428958666667,-149.6058502333333,-1.0294890203333333,-0.9118643043333333,12.93915558,-6.822387458333334,-15.227102913333335,-0.41581737999999996
59,0.4916470000002846,-10.564247766666668,10.730353356,-149.57895916666666,-2.6668952303333335,0.3496952793333333,14.678956033333334,-4.615135827333333,-14.901554743333334,0.07949812233333335
60,0.4999800000000505,-10.59535408,10.640645028333333,-149.5527191,-2.8376876513333333,-0.5804593963333333,14.924019496666665,-4.679682930666667,-11.639400799999999,0.601149256
61,0.5083130000002711,-10.61472988,10.558619496666667,-149.5155232666667,-2.598003665333333,-0.9180198509999999,14.702146529999998,-3.4853124713333337,-10.986586570333332,2.0416810113333335
62,0.516646000000037,-10.613418260000001,10.496748926333334,-149.4785614,-1.967042923,0.004953379333333323,12.274831138666665,-0.9513684113333335,-8.524144808666668,2.088905135666667
63,0.5249790000002577,-10.595027286666665,10.424032846666664,-149.4366404,-2.76992929,-0.6976849236666668,12.359462419666665,0.9621179056666667,-9.992610297,2.797557512666667
64,0.5333120000000235,-10.538933753333334,10.377992632666666,-149.39456683333333,-2.1106259423333333,-1.1946888466666667,13.556356746666665,5.493540684333333,-6.7617915470000005,3.0651746593333336
65,0.5416450000002442,-10.458679516666665,10.342145284666667,-149.35447183333335,-3.1588235693333337,0.37669743099999997,16.59983571333333,8.449396062333333,-5.605624993666666,3.411761005666666
66,0.5499780000000101,-10.388521513333332,10.333882968333334,-149.31970723333333,-2.205855568,-0.5585377213333333,14.13898754,7.349023620666667,-2.1438434523333334,3.060572624
67,0.5583110000002307,-10.320713043333333,10.332543691,-149.28334556666667,-3.193102042,-1.5740742686666669,14.376837414333336,7.027320863,-1.4369330406666665,3.7321775356666667
68,0.5666439999999966,-10.249260901,10.335526147666668,-149.2461955,-1.0320346753333334,-0.518719425,12.828353883333333,7.4519117669999995,-0.8542560836666668,3.5670513710000002
69,0.5749770000002172,-10.170006751,10.341120718333334,-149.20710753333333,-2.3432242673333334,-1.1605852196666666,11.848793981999998,8.345143795666667,-0.6653426933333333,4.204004764666666
70,0.5833099999999831,-10.098103523,10.358698525000001,-149.16645813333332,-2.235248724333333,-1.915750782,12.351257323333334,7.416896979000001,0.8085988463333332,4.305919727
71,0.5916430000002038,-10.02924188,10.363172847333333,-149.12099203333332,-2.259141028,-1.4242960809999998,13.222699166666667,6.966948906666668,-0.9252117873333333,4.928294658333333
72,0.5999759999999696,-9.963538804666667,10.358792938333334,-149.0800222,-0.21591569999999996,-1.0072982856666666,13.46353817,6.6787881056666665,-1.784360091,3.8620503743333336
73,0.6083090000001903,-9.895160991333332,10.330064771666665,-149.03367106666667,-2.8969875973333337,-0.3606582483333334,13.425760906666667,6.889755726666667,-4.849116404666667,4.335008899333332
74,0.6166419999999562,-9.829365094333333,10.307552656333334,-148.99099223333334,-1.9305095376666666,-1.0332993466666667,13.266952513333335,6.660857677666667,-3.9502528509999997,3.681913932
75,0.6249750000001768,-9.748896917666668,10.300204278333334,-148.95628866666667,-2.2319263019999998,-1.2790004313333334,10.279743830666666,8.583650908000001,-2.0760508773333335,3.4343141216666666
76,0.6333079999999427,-9.659566878999998,10.260674795333333,-148.93276466666666,-0.8148706950000001,-0.418634792,11.221385639,9.892846744666668,-5.570789337,1.1419597266666666
77,0.6416410000001633,-9.571956316666666,10.273031233333334,-148.92196653333335,-3.6130565403333335,-1.7025166550000002,11.053573610666666,9.954934913333334,0.7350689633333335,1.0540769496666667
78,0.6499739999999292,-9.481161117666666,10.240651450666668,-148.90409853333333,-0.5357403656666667,-0.7972772716666666,9.137239456,10.221297261666665,-4.619344036,0.6338499386666666
79,0.6583070000001499,-9.408602396666668,10.239048959666667,-148.9018707,-4.260523359333334,-1.528263641,11.210484505666665,8.285373211,-0.73637108,-0.22520450733333344
80,0.6666399999999157,-9.348659515333333,10.298063595666667,-148.93511453333335,-1.6154576343333333,-2.026304602666667,6.907662072666667,7.624504566,7.179021597999999,-3.4868789909999998
81,0.6749730000001364,-9.31731383,10.290907541666668,-148.96388246666666,-2.2400873776666663,-1.9117785293333334,8.389914276,4.009925524333333,-0.7981738050000001,-3.959555069666667
82,0.683306000000357,-9.333126703666666,10.424984931,-149.0310211,-3.935395558666667,-1.196091791,7.699378213333333,-0.8155103523333334,16.67376709,-5.667817195333332
83,0.6916390000001229,-9.358304977666668,10.527581534333333,-149.0768687,-1.71906359,-2.221410195,4.556532402666666,-2.3678913116666664,12.521848996666668,-3.809204439333333
84,0.6999720000003435,-9.387595176666666,10.741534549999999,-149.14302569999998,-3.215377728,-0.938124642,6.608888626,-2.3965464033333332,26.105632146666668,-3.978831887
85,0.7083050000001094,-9.452447891333334,10.901448248333333,-149.19095356666665,-2.432806184,-1.7396851183333333,5.069007913,-7.0542643866666666,19.35617510333333,-2.8998355119999997
86,0.7166380000003301,-9.544729232666667,11.220037775333333,-149.25634766666667,-2.8514105083333328,-1.5690214633333337,7.391043622333334,-9.928944905333333,38.48067728666667,-1.7412109180000002
87,0.724971000000096,-9.681996981666666,11.490456899333333,-149.3031718,-1.2614911796666666,-2.0844939943333336,3.346708218,-15.737813313333334,32.42142868,-0.4864360493333333
88,0.7333040000003166,-9.80723667,11.876077653333335,-149.35638426666665,-3.4985867736666663,-0.681031201,4.963121374666666,-14.015105566666668,46.213663739999994,0.9155589743333336
89,0.7416370000000825,-9.958469709333334,12.182798066666665,-149.38361106666667,-0.6867363056666665,-1.657440463333333,3.171209713,-17.842894873333332,36.3143247,2.694016278
90,0.7499700000003031,-10.132445336333333,12.670364063333333,-149.4565328,-2.0171511966666666,-0.28888507666666663,6.353830259333333,-19.30021159,58.593416850000004,1.3380581539999998
91,0.758303000000069,-10.318499883333333,13.00626882,-149.48643493333333,-1.6242024896666667,-2.1360784373333335,3.0460844836666663,-21.944260279999998,39.80061340333333,3.254515409333333
92,0.7666360000002896,-10.515625953333332,13.494066236666667,-149.5638377,-1.6872812906666665,-0.27044009166666666,2.367854058666667,-21.812679289999995,58.69579569333333,1.229806582
93,0.7749690000000555,-10.757939656666666,13.912094433333332,-149.61556496666665,-0.6081293026666666,-1.6652395726666667,4.77292943,-28.03927358,49.92693710333333,2.8621680736666666
94,0.7833020000002762,-10.97162056,14.412206966666666,-149.6888478666667,-2.6310352656666667,-1.7802622516666666,1.8476831913333334,-23.787326813333333,60.04351679333333,2.4820880886666665
95,0.791635000000042,-11.196891783333333,14.879768053333335,-149.76433813333333,0.5404861766666667,-0.30163892633333333,2.6751403806666665,-25.124523800000002,56.24268722333333,1.7223025163333334
96,0.7999680000002627,-11.449069976666669,15.35756874,-149.8369141,-2.619050741,-0.43686578600000003,3.954281568666667,-28.3308061,57.37335459333334,2.5565419593333334
97,0.8083010000000286,-11.70948728,15.812653856666666,-149.92112223333334,1.1054044566666665,-0.3249695626666667,3.037553106666667,-28.882778166666668,54.948513029999994,0.9630726576666667
98,0.8166340000002492,-11.95026207,16.259579023333334,-149.99351503333332,-1.0147408846666666,-0.8501202266666668,1.9660960833333334,-26.879653293333334,53.71357472666667,2.3531741896666665
99,0.8249670000000151,-12.163298606666666,16.675831159999998,-150.07085166666667,0.19604225966666666,-0.3195298119999999,0.9873374303333334,-23.245022456666664,50.19706344666667,1.2704093456666667
100,0.8333000000002357,-12.355159443333333,17.055493673333334,-150.12700399999997,-0.21420135333333334,-0.906236301,2.0081635016666666,-21.480162940000003,45.403995513333335,2.89033816
101,0.8416330000000016,-12.541195236666667,17.422267913333332,-150.1898346,-0.5177796486666667,0.6283144223333333,3.395265698333333,-20.375324886666665,44.01626714,2.006465345666667
102,0.8499660000002223,-12.724372863333334,17.75311788,-150.23899333333333,0.877700021,-0.5743794143333333,3.2269896370000004,-20.6186835,39.48256175,2.7118089199999997
103,0.8582989999999882,-12.884717306666666,18.04809824666667,-150.28112793333335,-0.8121276893333333,-0.37018372600000005,2.8113334180000003,-17.985803923333332,35.073992409999995,2.706233779333333
104,0.8666320000002088,-13.012774786666666,18.30805460666667,-150.30959066666668,1.4831759336666668,-0.032931924,1.6317788956666668,-14.709783236666667,30.640160243333337,3.3438347939999997
105,0.8749649999999747,-13.118536946666666,18.500240963333333,-150.31741333333332,-0.6272766096666667,-0.2796418666666667,2.412893792,-12.699852944,22.15598933,3.8978151876666662
106,0.8832980000001953,-13.19577535,18.669179913333334,-150.32530723333335,1.698995014,0.11560936766666667,2.293091933,-9.362529276666667,19.45954164,3.2627377309999996
107,0.8916309999999612,-13.251038233333333,18.759950003333334,-150.31278483333332,-0.6874003806666668,0.02846780900000001,2.5331573486666668,-7.428394477666667,9.764331978666666,3.424538851
108,0.8999640000001818,-13.286944073333332,18.830239613333333,-150.31085713333331,1.365902968,0.16653945066666667,2.396786029,-4.7519536019999995,7.668514173666666,1.6810370486666668
109,0.9082969999999476,-13.29294205,18.83693886,-150.28660583333334,-0.9782033363333333,-0.5478224456666666,1.8672563236666668,-2.002465168666667,-0.3585481246666668,2.405364752
110,0.9166300000001684,-13.276019413333335,18.827604930000003,-150.27573650000002,0.9481555223333333,0.556195627,2.4369128943333336,1.2664106683333334,-1.8670005003333332,0.4840065636666668
111,0.9249629999999344,-13.231922786666667,18.778676986666667,-150.24603273333332,-1.3393856486666664,-0.5142930746666666,1.7225458026666665,3.7831934293333336,-6.993814309666667,1.4675759176666665
112,0.9332960000001548,-13.18011315666667,18.724878946666667,-150.23436993333334,0.04419142000000006,0.13252435133333332,2.8857670426666666,5.441971262333333,-7.079468489,-0.6372137466666666
113,0.9416289999999208,-13.112315809999998,18.665756860000002,-150.21405029999997,-1.560766806,-0.45367996899999996,1.420491715,6.980452061000001,-7.941015561333333,0.15622123099999996
114,0.9499620000001414,-13.039484026666665,18.603581109999997,-150.20708213333333,-0.4618679683333333,-0.014666855333333359,2.861288786,8.167522272000001,-7.9468084973333335,-1.3632582526666666
115,0.958295000000362,-12.948401133333334,18.55488205,-150.18882243333334,-1.3350278933333335,-0.7678929663333333,1.2582431833333334,9.833429973,-6.656893253333333,0.22095680233333337
116,0.966628000000128,-12.855340323333332,18.507013956666665,-150.1773681666667,-1.1194928483333333,0.08960374199999999,2.395052313666667,10.432546615666666,-6.393749475666667,-0.45769630000000006
117,0.9749610000003486,-12.746004106666666,18.471708930000002,-150.15352886666668,-1.2162954706666664,-1.1882086993333332,0.8241022726666666,11.816335201666666,-5.224182208333334,1.2217776773333333
118,0.9832940000001144,-12.630581853333334,18.441507976666667,-150.13183086666666,-1.1722708543333333,0.5414047636666667,2.49775513,12.728075346666666,-4.582007825333333,1.1676851513333333
119,0.9916270000003352,-12.517389929999998,18.422155380000003,-150.10134886666665,-0.6245056686666666,-1.412379066,1.7090690433333335,12.041344007000001,-3.5159211953333336,2.395845452666667
120,0.999960000000101,-12.40363407,18.422629036666667,-150.0722097,-1.6312013466666666,-0.3122737483333334,1.9896347123333336,12.22757403,-1.1666216053333336,2.795465253666667
121,1.0082930000003216,-12.29952367,18.416784286666665,-150.03825376666668,-0.2647488713333333,-0.3465368473333334,1.4708984743333335,10.826759019999999,-2.0039002299999997,3.1518022613333336
122,1.0166260000000875,-12.177808123333335,18.442711513333332,-150.0104014,-2.5968227783333333,-1.4303030473333334,2.306637168,13.225558283333333,1.8597429099999998,3.2983452476666666
123,1.0249590000003082,-12.058002473333334,18.469092053333334,-149.98702493333334,0.16369595133333328,0.6318980853333334,2.3107955849999997,13.137325923333334,2.0420440036666667,2.7921399276666663
124,1.033292000000074,-11.949909210000001,18.536609650000003,-149.96581523333336,-2.3471952676666668,-0.9860996006666666,2.3799584706666668,11.795011201666668,6.9240110716666665,3.576746573
125,1.041625000000295,-11.83279673,18.582926433333338,-149.9500834,-0.06479593099999992,-0.9971535206666666,2.2560453220000003,13.127421380333333,4.566224535333333,2.4331648746666663
126,1.0499580000000606,-11.724213599999999,18.694597243333334,-149.94690960000003,-3.5237981526666666,-0.03281162166666659,3.5217141313333333,12.52497514,12.547652243333333,2.6089469593333336
127,1.0582910000002812,-11.633242923333334,18.788560866666668,-149.95492553333335,0.47458201399999994,-1.3527593609999997,2.668916218,10.938762666666667,10.715986889333331,0.9417078496666669
128,1.066624000000047,-11.52755483,18.91323153,-149.95602926666666,-3.5255190926666664,-2.195861936,4.881354888333333,12.30656338,14.192702926666668,2.3885454733333336
129,1.0749570000002675,-11.451209703333333,19.04696083,-149.9682363,0.12836439400000005,0.5843618709999999,4.827568293,9.388367813333332,15.486836433333332,1.4005872406666668
130,1.0832900000000336,-11.42491881,19.195550916666665,-149.97281393333333,-2.7912991843333335,-1.764735957,6.167451183,2.8624852896666666,17.10192744,2.524113019
131,1.0916230000002545,-11.424770673333333,19.35106150333333,-149.99532063333334,-0.40479441499999985,-0.41399041799999997,5.316553117,0.7098944983333334,18.265126546666668,0.7780628206666664
132,1.09995600000002,-11.37592697,19.508597693333332,-150.0079956,-0.19501845066666665,-0.795592606,4.276480217,5.860227664333333,18.347068786666668,1.821445306
133,1.1082890000002408,-11.331068359999998,19.607750576666664,-150.01700846666665,-2.702369511,-0.23054689166666656,5.533264557333333,5.528424978333333,11.334177653333333,0.9222707153333335
134,1.1166220000000069,-11.260043779999998,19.684207916666665,-150.02136233333331,3.5266114870000003,-0.2153541843333334,5.664256372333333,8.262714705333334,8.618625044333333,0.8225118516666665
135,1.1249550000002273,-11.196153323333334,19.795846303333335,-150.0287933333333,-4.749214569666667,-0.730495413,10.948118686333332,7.673885982333334,12.781409262666665,1.3452178636666667
136,1.1332879999999932,-11.112545650000001,19.72511546,-150.0148417,3.9469669263333333,-0.9709066353333333,4.269352495333333,9.082334996999998,-9.111143586333332,-0.5680847166666666
137,1.1416210000002138,-11.059871673333333,19.808046976666663,-150.01752213333333,-4.1197978656666665,-0.873981118,9.577192665666667,6.103894630999999,9.309259891333333,1.1622377236666668
138,1.1499539999999795,-10.988668123333333,19.666110356666664,-149.99497986666668,3.030318141,-1.3070001603333334,3.6141713460000005,7.276126861666666,-17.69565519,-1.223361690666667
139,1.1582870000002004,-10.89013386,19.63274510666667,-149.9812418666667,-3.7277975480000003,-0.545802459,13.294752121999998,10.929168701333333,-4.734135201666667,0.31511875000000006
140,1.1666199999999662,-10.829897879999999,19.474405286666666,-149.96143086666666,3.3719406923333337,-1.4689368209999998,5.351967274666667,6.087357997666667,-19.57106812666667,-1.8548000453333333
141,1.1749530000001869,-10.76011022,19.262949626666664,-149.9156189,-4.198592106333333,-0.6947836080000002,12.353780069,6.183072010666667,-26.401590983333335,-0.1028375800000001
142,1.1832859999999528,-10.700889586666667,19.130858103333335,-149.90387976666668,1.5200199286666667,-1.4296027223333334,4.878650031,6.310917695333333,-16.30421098,-2.126306494
143,1.1916190000001734,-10.625276566666665,18.778817493333335,-149.8454793666667,-2.2992991209999993,-0.8800037106666667,15.341384253333333,6.441671053333333,-43.25166575,-1.7586039006666667
144,1.1999519999999393,-10.574449856666666,18.653790153333333,-149.84866333333332,-2.4890580376666667,-1.0645522276666666,9.256206988666667,5.901269117999999,-15.172296522666665,-3.5653226376666667
145,1.20828500000016,-10.502994853333334,18.284262339999998,-149.7881368,0.537578563,-0.9772970823333335,10.639639218333334,5.9165953,-45.35262298666666,-1.8196600080000003
146,1.2166179999999258,-10.43147882,18.070011776666664,-149.75760906666667,-4.233060677666667,-0.7463360379999999,14.154671193,7.069990158,-26.399030683333336,-1.6969526706666667
147,1.2249510000001465,-10.37252331,17.8192393,-149.71222433333332,-0.517822395,-1.5676767426666665,6.880930343,5.0661205449999995,-31.031292596666663,-0.8248180003333333
148,1.233284000000367,-10.316322963333333,17.487208366666668,-149.64965823333333,-2.4108084443333335,-0.904054781,15.787382126666666,4.106058121,-40.961091360000005,-0.5647911233333333
149,1.241617000000133,-10.252806026666667,17.30169964,-149.60477703333333,-2.9564222496666672,-1.2381160456666667,9.84051927,5.667762279666667,-23.32243728666667,0.6122743586666667
150,1.2499500000003536,-10.195728303666666,17.03743267,-149.53643290000002,-1.5573227406666668,-1.0256466666666666,11.635628381333333,4.097969611333333,-33.08956082666666,1.6109535096666667
151,1.2582830000001195,-10.127312976666666,16.832705816666667,-149.4776408,-2.7331601383333335,-0.6894474330000001,13.62058862,5.776512782,-25.86423683,1.8380786183333335
152,1.26661600000034,-10.066258111000002,16.662745793333333,-149.42975363333332,-2.902031898666667,-0.403734746,12.969300590000001,5.352340380333334,-21.53614362,1.3916344050000002
153,1.274949000000106,-9.996412914333332,16.529238066666668,-149.393041,-2.3623827299999998,-1.8529625733333333,12.004653929333335,6.7450108533333335,-17.000403086666665,0.877552271
154,1.2832820000003269,-9.938861848333334,16.355907123333335,-149.35486346666667,-3.154127359333333,-0.42239764333333335,15.28690084,5.266874154333333,-21.727301916666665,0.2693037913333334
155,1.2916150000000926,-9.886991818666667,16.292773246666666,-149.34403993333333,-3.1078654130000003,-0.6740237619999999,13.001476606666666,5.486962636,-8.174890836000001,-0.548806429
156,1.2999480000003132,-9.824747720666666,16.195236203333334,-149.34055073333334,-2.2359419663333333,-0.8304518660000001,13.871729213666667,7.041324615666667,-12.096580186666666,-2.0553762116666667
157,1.308281000000079,-9.752421696333334,16.18273735,-149.35965473333331,-2.6578096149999997,-0.6688304643333334,10.960680964,8.932901064666666,-1.5880014896666668,-2.9123347603333336
158,1.3166140000002995,-9.676975886000001,16.11047299666667,-149.3762156,-3.0231794520000004,-0.7342499690000001,11.727319082000001,9.284355162999999,-8.717353663333334,-3.806720028333333
159,1.3249470000000656,-9.602834065666668,16.119797703333333,-149.40575156666668,-1.9846173326666667,-1.264590442,14.374294919999999,9.498976071,1.1892091533333333,-3.640760620666667
160,1.3332800000002862,-9.510155042333333,16.120259283333333,-149.43485516666667,-1.4679131110000003,-0.770441532,12.643616198666665,11.753405572,0.1324212553333334,-3.7582499183333336
161,1.341613000000052,-9.448323885666667,16.10876274,-149.46989946666667,-2.1457847556666665,-1.620040181,15.126967110999999,8.221935112666666,-1.1925175986666667,-4.669189418333333
162,1.3499460000002728,-9.408281326666668,16.123368900000003,-149.49839269999998,-1.8253383239999998,-1.9744783643333335,10.262280148666667,5.509703000333334,1.8385683696666666,-3.7757002113333336
163,1.3582790000000386,-9.385559082,16.051252683333335,-149.5186615,-0.7903177343333333,-1.8640442689999999,15.205061276666667,3.0321068963333335,-8.642381032333333,-4.1850210033333335
164,1.3666120000002593,-9.346427599666667,16.07185427,-149.54356383333334,-4.316530863333333,-1.7196917736666666,14.650995256666667,5.164534568333333,2.4251218736666664,-2.890118082333333
165,1.3749450000000252,-9.311525980333334,16.011917433333334,-149.56824746666666,-0.12864759566666664,-0.3402621846666667,13.207044603999998,4.680784543333334,-7.130466461,-4.4444294053333335
166,1.3832780000002458,-9.287796338333331,15.932111423333334,-149.58158876666667,-2.8162466686666665,-1.9041350086666666,14.991280873333332,2.987132728,-9.609011809666667,-3.883319149666667
167,1.3916110000000117,-9.277542114333334,15.877696356666666,-149.61080423333334,-0.5567919836666666,-1.0955248376666666,14.625913303333334,1.898219744333333,-6.408664981333334,-4.835549354666666
168,1.3999440000002323,-9.266444206333333,15.74430434,-149.61597189999998,-2.078952699666667,-1.0403388786666665,14.816639899999998,1.2086000146666664,-16.120657283333333,-4.004023055333334
169,1.4082769999999982,-9.28098011,15.611758866666667,-149.64094543333334,-1.2682917913333334,-1.0989678996666667,15.643665949999999,-1.2521991730000002,-15.727707226666666,-5.857686758
170,1.4166100000002189,-9.281387647,15.48345661,-149.66614786666668,-3.342682252333333,-2.090291222,13.804422376666666,0.36262071133333335,-15.198741276666667,-5.824987093666667
171,1.4249429999999847,-9.265051206,15.314867336666666,-149.69877623333332,-0.6103472263333334,0.017742604000000013,14.47445043,2.6950922610000005,-19.855002719999998,-7.446453411
172,1.4332760000002054,-9.210811297000001,15.115667976666666,-149.71946716666665,-2.049325595333333,-0.7109181236666666,13.728350003333333,6.755532264666667,-23.66434733,-6.670497338
173,1.4416089999999713,-9.137173970666666,14.90086937,-149.7545827,-1.6430035233333333,-0.4694837483333334,14.366631826666667,9.643865902666667,-25.31321970666666,-8.576727547666666
174,1.449942000000192,-9.041855812,14.707414313333333,-149.79417420000001,-2.633665859666667,-0.6213444443333334,14.717161813333334,12.250174363333334,-22.66773478,-8.669562340333334
175,1.4582749999999578,-8.930279096,14.461233453333334,-149.83221436666668,-0.8001415926666665,-1.1483494836666666,16.199958803333335,14.232125283333334,-28.98496183,-9.432904719
176,1.4666080000001784,-8.799099922333333,14.216699283333334,-149.86287943333332,-2.1914676626666667,-1.6411717336666667,17.27607568,16.246754963333334,-28.912174223333334,-8.502841790666666
177,1.4749409999999443,-8.651146253,13.977165223333335,-149.89535523333333,-2.3655211526666666,-0.15839448766666667,14.89551417,18.397337596666667,-28.335301079999997,-8.551816941333334
178,1.483274000000165,-8.484251022333334,13.694532713333333,-149.92082216666668,-0.944152395,-1.8466281493333334,11.575654028,20.360625586666668,-33.55142339333333,-8.460649967333334
179,1.4916069999999308,-8.302916367666667,13.397466020000001,-149.94773866666668,-1.9642318883333332,-1.2054043413333335,15.620812729999999,22.215122859999997,-35.31616528666666,-8.767903487
180,1.4999400000001517,-8.123446464666667,13.122417766666667,-149.9706777,-2.4013787903333332,-1.4141660133333334,16.896033286666665,21.791356403333335,-32.75646083,-7.811302821000001
181,1.5082729999999174,-7.942572911666666,12.83430227,-149.9905497,-1.5032789309999997,-1.5423497753333333,14.13716602,21.91227277333333,-34.40380477666667,-7.60133489
182,1.516606000000138,-7.765113830333334,12.50420475,-150.00146483333333,-1.617527408,-1.647022128,14.54304981,21.293038050000003,-39.49291992,-7.494994958333333
183,1.5249390000003586,-7.589607874666666,12.20510928,-150.01759846666667,-3.284851685,-1.4967131810000003,15.937440553333333,21.12390836,-35.80702336666667,-7.119598388666667
184,1.5332720000001243,-7.410760243666668,11.913356466666665,-150.02982583333335,-1.001539866,-1.6800237696666667,11.64846166,21.41711362,-34.98347282666667,-6.4658967653333335
185,1.5416050000003452,-7.236378352,11.565770465,-150.033432,-2.4544478453333336,-1.1567537980000002,16.329840023333333,20.68729654666667,-41.82314936333333,-6.198682467
186,1.549938000000111,-7.089742025,11.262207347999999,-150.03809103333333,-2.1143910536666666,-1.8011331956666667,15.274719873333334,17.345213570000002,-36.548868813333335,-5.540990511666666
187,1.5582710000003317,-6.9558909736666665,10.936112083666666,-150.0300293,-1.0664560796666667,-2.0193417866666663,12.311542193333333,15.550115266666666,-39.447203316666666,-4.308201630999999
188,1.5666040000000976,-6.833139578333333,10.567276003,-150.01092530000003,-1.968680819,-2.2388188443333332,14.991201716666668,13.995939893333334,-44.64889907666667,-3.855564435666667
189,1.5749370000003182,-6.732119878333333,10.245818455666667,-150.00116476666668,-2.608413855,-2.331588268333333,14.426142056666668,11.578313826666667,-38.93781535,-3.863324006333334
190,1.583270000000084,-6.640343507333334,9.910711289666667,-149.98842366666665,-1.4496317010000002,-1.7250083683333333,13.388530096666665,10.379797300666668,-40.57529322333333,-3.6603908540000005
191,1.5916030000003047,-6.595650990666667,9.546162923333334,-149.97746783333332,-2.1425329446666663,-2.152099172333333,16.965753556666666,4.812107801333333,-44.11274973333334,-4.202611446333333
192,1.5999360000000706,-6.588398774333334,9.238242468666668,-149.97273253333333,-2.609222610666667,-3.147760232,13.109278360666666,0.4721349553333334,-37.215513863333335,-4.449591080333334
193,1.6082690000002913,-6.608476797666666,8.883981388,-149.96591696666667,-1.183499336,-1.521645685,13.32120228,-2.885375758,-42.81246312666667,-4.554585576
194,1.6166020000000572,-6.656658966999999,8.551763534666668,-149.95540366666668,-3.0846269129999997,-3.6090065636666666,15.563971836666667,-6.280073166,-40.18615214333334,-4.139957984333333
195,1.6249350000002778,-6.721666335999999,8.289691448000001,-149.95906066666666,-2.328035513666667,-1.8388442943333334,13.623905183333333,-8.079394181333333,-31.676837286666665,-4.562873124999999
196,1.6332680000000437,-6.815525691,7.9616123833333345,-149.95303346666665,-2.4243977466666666,-0.5608502973333334,15.785541853333333,-11.66773764,-39.60923258666667,-4.734354178
197,1.6416010000002643,-6.936677297,7.7092037200000005,-149.964625,-2.880147139,-2.380280494666667,16.24302514333333,-14.698539416666668,-30.41064262333333,-5.448469321
198,1.6499340000000302,-7.036710898,7.439570904,-149.95952350000002,-1.4266789556666666,-0.950023403,13.486551286666668,-12.375027976666667,-32.63430532,-4.123323996666667
199,1.6582670000002508,-7.1132376986666666,7.149745941333333,-149.95483396666665,-1.3388162800000003,0.01863668366666667,15.395728749999998,-9.608798664,-35.075986226666664,-4.190826535333334
200,1.6666000000000167,-7.181035041666667,6.926348845333334,-149.95437113333332,-3.464400371,-1.24359561,13.233437223333333,-8.410781223999999,-27.01956113,-4.330789963333333
201,1.6749330000002374,-7.229852994333332,6.712924003333334,-149.9646454,-1.6731737653333336,-1.1044016083333335,11.534389495,-6.058991791333333,-25.746816,-4.897701581333333
202,1.6832660000000033,-7.276756445666667,6.492637952,-149.9650472,-2.000574708,-1.2949942743333334,13.1924874,-5.9415593546666665,-26.657034553333332,-4.131203254
203,1.691599000000224,-7.327323754666668,6.325080394666667,-149.9683431,-2.473868688,-2.133690675,13.091053962666665,-6.357865174666666,-20.40053368,-3.3969868420000005
204,1.6999319999999898,-7.356769721,6.1571718849999995,-149.96340433333333,-2.454565763333333,-0.8159000276666667,12.605467476666668,-3.954881986,-20.533411026666666,-2.458813727
205,1.7082650000002104,-7.379985649999999,6.009418646333334,-149.9623566,-2.1318776209999997,-1.257951637,12.687672933333332,-3.1382570266666665,-18.104846,-2.599431435
206,1.7165979999999763,-7.395226637666666,5.9301541643333335,-149.9717865,-2.721320788,-2.092288534,8.891102154333334,-2.063307990666667,-9.772668679666666,-2.8205033613333335
207,1.724931000000197,-7.440004031,5.7724262873333325,-149.9811452,-1.5883809523333332,-0.44100296499999986,14.043759663333333,-5.564719756333333,-19.13056151,-3.998366276
208,1.7332639999999628,-7.485950628666667,5.775150617333334,-150.0205078,-5.154259443333333,-1.6029641823333334,10.048930804333333,-5.431669632666666,0.45528462533333336,-5.084297895333333
209,1.7415970000001837,-7.5587302843333335,5.731713771666667,-150.06420390000002,-0.36044116833333334,-1.271797895333333,9.973583539,-8.510715007666667,-4.988667130333333,-6.323131402666665
210,1.7499299999999494,-7.629257679000001,5.770560264666667,-150.11787413333334,-6.726020495,-1.2878114183333336,10.807866493333334,-8.21871352,4.991046788,-6.169028123333334
211,1.75826300000017,-7.72410202,5.873191674666667,-150.18057756666667,0.030233323666666683,-0.9507572223333334,4.116696163666666,-10.907791614666666,12.692545095,-6.253743091666666
212,1.766595999999936,-7.822113672666667,5.967852433666667,-150.22148643333335,-3.8761896293333336,-2.6099545956666668,6.812873839999999,-11.641741750666668,11.432024795666669,-3.7528796196666665
213,1.7749290000001563,-7.929910819,6.122327168666666,-150.2542521,-2.208061807,0.4071667886666666,8.678867498666667,-12.839628538,18.391417503333333,-1.7903212306666667
214,1.7832619999999224,-8.052203973333334,6.404141267,-150.27582803333334,-3.6347844996666665,-1.2688917516666667,5.697997411333334,-14.765616096666667,33.36090596333333,1.6830361846666666
215,1.791595000000143,-8.190108935333333,6.560225168666666,-150.27079263333334,0.8625903523333335,-0.37578035400000004,6.051171581000001,-16.926706953333333,17.950146043333334,2.782314221
216,1.7999280000003637,-8.309272130333333,6.989320596333333,-150.28337096666667,-6.775075753666667,-0.8120285673333334,5.866579454333333,-14.50704511,50.73085530666666,5.222954829333333
217,1.8082610000001296,-8.416895230666668,7.240518728666667,-150.28181963333336,1.9070526159999999,0.28878300400000007,1.7442628933333335,-13.19375992,29.274380363333336,4.088325738999999
218,1.8165940000003504,-8.513257026666667,7.665005207,-150.29144286666667,-4.663529316666666,-1.8898233573333334,7.917053381666666,-11.814917881999998,50.11342112,5.645181597333334
219,1.824927000000116,-8.604388237,8.096879005666667,-150.3286845,-0.3952815329999999,0.7901137173333334,2.3006737233333334,-10.581000170333335,51.389914196666666,2.8741807143333333
220,1.8332600000003367,-8.703173955333334,8.451408068,-150.34802243333334,-1.913571357333333,-1.109996557,6.181605021333333,-11.947259267666666,41.92132568333333,3.6777998209999994
221,1.8415930000001024,-8.771337827333333,8.918164571,-150.38959250000002,0.040692647333333255,0.10105406899999998,3.8055426279999995,-7.705167928000001,55.59688186333333,3.175847689333333
222,1.8499260000003237,-8.842870076666665,9.349052747333333,-150.41377256666667,-1.6983796259999997,-0.7176782286666668,5.156167030333333,-8.539550462666666,51.05436197666666,4.624578555333334
223,1.8582590000000887,-8.899736086333332,9.791428565999999,-150.4506327,-1.5023139516666666,-0.16816724833333332,4.992388566333333,-6.370130856666667,52.60629908000001,3.4229879776666667
224,1.8665920000003096,-8.914062182,10.181841216666667,-150.48088073333335,-0.10240221033333323,-0.9575773476666666,2.4564106663333334,-1.481881092,46.35040156,3.2429397403333335
225,1.874925000000076,-8.927282333333332,10.577294032333333,-150.52878316666667,-0.6887392206666667,0.9346699316666666,3.301357110666667,-0.8228563366666667,47.24276733666667,1.3272765873333334
226,1.8832580000002963,-8.942391395666666,10.956630071333334,-150.5791727666667,-0.049864887999999996,-0.24996898566666662,2.8839306533333335,-1.0938205720000003,45.40360896000001,0.7329270046666667
227,1.8915910000000624,-8.918703079333334,11.306392669333334,-150.62830606666668,-0.6491153146666667,0.5773339620000001,4.540178457666666,3.6921476920000003,41.84685389333333,0.3593473039999999
228,1.8999240000002828,-8.862670263,11.633346558,-150.67585756666665,0.26639881233333335,-0.2839720746666667,2.8354943990000003,7.457368532666667,39.14217122333333,0.07303472366666657
229,1.9082570000000487,-8.779906273,11.927025796666669,-150.7111562,-0.345650832,-0.3423980373333333,2.4093819063333335,10.489106497333333,34.949559529999995,0.8518536139999999
230,1.9165900000002691,-8.684396108,12.190145176666666,-150.737971,0.17571305233333334,-0.383569706,2.5271603663333333,11.771625520666667,31.191041310000003,1.2218213303333332
231,1.9249230000000352,-8.572662989333333,12.418917653333333,-150.75395203333335,-0.6024546026666666,-0.16751724333333332,2.882905523,13.481589318,26.918784459999998,1.8033844233333334
232,1.933256000000256,-8.458591143333335,12.622419676666667,-150.7641143666667,0.5289751093333334,0.10060136533333335,2.8145534793333336,13.622766176666667,23.829866409999998,1.9894332886666668
233,1.9415890000000215,-8.335872332333333,12.78291734,-150.76746113333334,-0.5766210356666667,-1.1267945566666666,2.297156334,14.462780953333334,18.60419528,1.9625636640000002
234,1.9499220000002424,-8.200521786666666,12.910987856666665,-150.7679952,1.1990701356666669,0.17538112399999997,2.1548280316666664,15.930954613333334,14.722466787333333,1.7041920026666668
235,1.9582550000000083,-8.057290712666667,12.997151056666667,-150.75756326666666,-0.7474995849999999,-1.3139074993333333,1.7051034173333335,16.562832833333335,9.552726429333333,2.199836512666667
236,1.966588000000229,-7.909011046,13.041148819999998,-150.74931336666666,1.344962994,-0.07152193800000002,2.3587739466666666,17.24802843666667,4.598643906333334,1.2375867370000002
237,1.9749209999999948,-7.7581114766666674,13.038196246666667,-150.72563173333336,-0.23085437200000006,-0.5589688666666667,2.720671415,17.124361356666665,-1.2398874363333334,2.2364556393333337
238,1.9832540000002157,-7.608434677000001,13.000123343333334,-150.7111562,1.0616341433333334,-0.3088391423333333,1.9118055426666667,17.227170943333334,-5.247470786333333,0.6238522333333333
239,1.9915869999999811,-7.444678306333333,12.913201013333333,-150.67771403333333,-0.06449437133333324,-0.048651357666666645,2.673618694,18.410177866666668,-11.359571776666668,2.0507531563333337
240,1.999920000000202,-7.267635981333332,12.812399546666668,-150.65677896666668,-0.5285244783333333,-0.4314129353333333,2.2273548890000003,20.3526535,-12.809329987666667,0.4247098466666667
241,2.008252999999968,-7.065327803333333,12.697610216666668,-150.63090006666667,-0.6998997530000001,-0.16971635833333334,1.119042615,23.265272773333333,-14.548345247999999,0.8152888116666667
242,2.0165860000001885,-6.851056575666667,12.539607046666667,-150.60611473333333,0.4669475556666667,0.2553955913333333,2.3576367296666665,24.748835243333332,-19.68542798333333,0.13281818233333334
243,2.0249189999999544,-6.621588071333334,12.36141173,-150.58424376666665,-0.620449193,-1.0530219933333334,4.245484352333334,26.609518050000002,-22.029383980000002,-0.4222378336666668
244,2.033252000000175,-6.390107154666667,12.177099546666668,-150.559021,-0.9659397553333333,-0.3482848203333333,3.789264043333334,26.82375462666667,-22.822743093333333,-0.028073191666666553
245,2.041584999999941,-6.162658373666666,11.981660843333332,-150.53693646666667,-0.023942112666666644,-0.5946388543333333,2.6378992396666665,26.394933063333337,-24.089959463333333,-0.4438898963333333
246,2.0499180000001616,-5.927678585,11.777487756666666,-150.50320943333335,-1.2217167816666665,-1.1906674306666665,3.106915712333333,27.044974006666664,-25.29110018333333,0.8963969150000001
247,2.0582509999999274,-5.707409699666666,11.574419657,-150.46673586666665,-0.3416993606666667,-1.0751776896666667,2.0899034343333334,25.180838903333335,-25.168488819999997,1.333790729333333
248,2.066584000000148,-5.4820218086666666,11.363458954,-150.42373146666668,-1.6808235643333334,-0.5504749566666667,1.761318639,25.72224426,-26.20637512,2.113082846
249,2.074916999999914,-5.257197220999999,11.17631944,-150.38608299999999,-1.2437827983333334,-0.7182074336666666,2.346499423333333,25.744624459999997,-23.262264886666667,1.8296992083333332
250,2.0832500000001346,-5.038838227666666,10.997907636999999,-150.33718363333332,-1.48435092,-0.722526908,2.4668643476666667,24.769929886666663,-22.355202993333336,3.3561936973333335
251,2.0915830000003552,-4.817340532999999,10.816993713333332,-150.2919515,-0.012976248999999976,-0.16391577333333332,3.6571132343333335,25.192978540000002,-22.579705556666667,2.989333808
252,2.099916000000121,-4.587216854,10.634893416666666,-150.2376353,-2.549868385,-1.2525470356666666,3.5959386826666666,26.083503723333337,-22.81235377,4.117488662
253,2.1082490000003418,-4.368386109666667,10.482021331,-150.20097856666666,-0.4096423983333333,-0.802377194,3.192670822,25.147160850000002,-19.13732656,2.4196211893333337
254,2.116582000000108,-4.1680866876666665,10.313817976333333,-150.1566467,-1.1920596956666667,-0.723449826,4.392706155666667,22.715793610000002,-21.017394383333336,3.241257866
255,2.1249150000003283,-3.9790257610000004,10.163156508,-150.1222025666667,-1.1070049803333333,-1.3399323619999999,3.7630678813333334,21.641836803333334,-18.83565489333333,2.325983167
256,2.133248000000094,-3.7913170653333332,10.027422269666667,-150.09809876666668,-2.164594252666667,-1.733129541,3.4247792559999994,21.681008019999997,-16.94801108,1.252549708
257,2.141581000000315,-3.6340444086666666,9.937941551333333,-150.0921224,-1.7207356293333333,-0.25146772466666667,3.3909916483333338,18.427693686666668,-11.273085278000002,-0.45543839
258,2.1499140000000807,-3.4982837836666665,9.847508429,-150.0921987,-1.1118896206666669,-1.5809241930000002,3.8399819533333335,15.937050820000001,-11.328216553333334,-1.1445342699999999
259,2.1582470000003013,-3.363319397,9.795385679333334,-150.09377543333332,-3.0666683613333334,-1.5967120776666668,5.122624636,15.907959939999998,-6.743248461333333,-1.0340939086666665
260,2.1665800000000672,-3.2406404813333336,9.773513476333333,-150.09798683333335,-1.480789644,-0.643904686,3.1264563399999994,14.472434993333332,-3.094794035,-1.0936468446666667
261,2.174913000000288,-3.135162115,9.818749426666667,-150.09085593333333,-2.186953008,-1.5725905896666665,6.252662341,12.19244544,4.866334119333334,0.652830094
262,2.1832460000000538,-3.0579535166666667,9.892043748666666,-150.07180276666668,-2.4785927136666666,-1.3789868156666667,7.062314350333334,8.523663361999999,8.159902728666667,2.268222133
263,2.1915790000002744,-2.972816865,9.921920778666667,-150.03714496666666,-1.1349809963333333,-0.981987223,4.4581463736666676,9.193987210666668,2.8542927403333334,3.8184210459999997
264,2.1999120000000403,-2.917223056333333,10.064731914666666,-149.9985300666667,-1.4345664333333332,-1.0683112443333334,9.756638048666668,5.5567159649999995,16.398081780000002,4.667568365666667
265,2.208245000000261,-2.8356814386666667,10.095879872333335,-149.94792683333336,-1.5680545963333337,-0.9184971366666668,7.4529782933333335,8.434969107666667,2.9138032596666665,5.707095543333334
266,2.216578000000027,-2.7645028433333336,10.176754950666668,-149.89431763333334,0.7366940576666666,-0.7266934910000001,11.389464536333334,7.090077082333334,8.904222487666667,6.026642323333333
267,2.2249110000002474,-2.6845829486666664,10.215091705333334,-149.83820089999998,-3.4718476633333335,-1.2126041253333333,10.461593150333334,8.074201267,3.766445239333333,6.388049841
268,2.2332440000000133,-2.572715759,10.241219519333333,-149.7891744,1.7557754116666668,0.4677353006666667,7.337635358,12.083966097000001,2.3586277166666667,5.457391341666667
269,2.241577000000234,-2.4787123996666667,10.167686782,-149.72711183333334,-1.7942426996666665,-0.7799381613333333,15.735827126666669,9.585553169666667,-9.641833544999999,6.467864117
270,2.24991,-2.327856938333333,10.186489422333333,-149.69125366666665,-2.1086390416666663,-0.09429667400000004,11.392081578666668,17.113135656666667,1.5746182003333333,3.5875178176666664
271,2.2582430000002205,-2.1576250790000002,10.066739085,-149.6515096,-0.20177449766666658,-0.567968726,11.102897483,19.219639776666668,-15.045563377666667,3.644219676666667
272,2.2665759999999864,-1.970613758,10.001319883999999,-149.62121583333334,-3.614949306,-0.263964524,14.897376379333332,21.57610766,-8.479076567666667,2.5695359806666667
273,2.274909000000207,-1.7511979736666667,9.934804913999999,-149.5968068666667,-1.1210863986666666,-0.8682698806666668,10.047110398333333,25.445485433333335,-8.568190495,2.1224480470000002
274,2.283241999999973,-1.4823309976666665,9.754848799666668,-149.56104533333334,-1.8597453483333333,0.42293463166666667,17.09408665,31.26638793666667,-22.22339248666667,3.187093496333333
275,2.291575000000193,-1.1993245483333335,9.738164741,-149.53871156666668,-3.527948618,-1.165840427,11.681191763000001,33.10086441,-2.555138111,2.126300017
276,2.2999079999999594,-0.9246045746666667,9.582950274333333,-149.51946513333334,0.06779189899999997,-0.8066709836666667,10.331873576,32.32641410666667,-19.1890227,1.4487219453333333
277,2.30824100000018,-0.6317584366666665,9.469090461333334,-149.50682066666664,-2.301204483,-1.3093746103333335,17.380510963333332,34.501160936666665,-14.174962360999999,0.8719017503333334
278,2.316573999999946,-0.31603616500000004,9.408472696333334,-149.5011495,-3.030294299,-1.498476733333333,14.177715303333335,37.52020009666667,-7.805478890333333,0.15258872499999976
279,2.3249070000001666,-0.040490806000000025,9.322788080333334,-149.4953359,-2.2950618413333332,-2.247600873,11.155048846333335,32.54518445666667,-10.765621663,0.1660408973333333
280,2.3332399999999325,0.20468544966666666,9.236592294,-149.49266053333335,-3.6663428346666667,-1.9189050596666668,14.723525366666669,29.129980086666666,-10.877931914333333,-0.11905102933333349
281,2.341573000000153,0.47409026299999996,9.193821114,-149.49546816666665,-1.1790334383333334,-1.7258297603333332,14.699966746666666,31.979646683333332,-5.614996036000001,-0.763624986
282,2.349905999999919,0.708241095,9.214924811666668,-149.48958336666666,-4.257343133,-2.510093411,11.314209938666664,27.70561854,2.018317064,0.19598348933333343
283,2.35823900000014,0.8790817853333334,9.197056771999998,-149.4877472,-1.925945549,-3.1249756813333334,12.635522206666666,20.111180623333333,-2.635940591333333,-0.22871438666666677
284,2.3665720000003603,1.035975754,9.212886333999998,-149.47232563333333,-4.468615611666666,-2.575492302666667,16.389697710000004,18.23026529666667,1.4138122199999998,1.3406750360000002
285,2.374905000000126,1.1461692846666667,9.345646539666667,-149.4721934,-2.7485836743333336,-2.883355140666667,12.212359109666666,12.873560904333333,15.430715876666667,-0.7561023236666665
286,2.383238000000347,1.1599779526666667,9.457203388333333,-149.46784466666668,-2.721117814333333,-2.2434625030000004,14.095987003333335,1.2796532313333333,12.877354303999999,-0.23008871066666656
287,2.3915710000001127,1.1093495886666667,9.646536987,-149.4747162,-3.6317358016666668,-2.5718263786666666,15.080732026666666,-6.316823820000001,22.20311737,-1.7133246260000004
288,2.3999040000003333,1.0195845763333333,9.962407746,-149.4909362666667,-4.574937542333333,-3.8092864750000004,9.106220326333334,-10.713709828666666,37.34640884333333,-3.088207163
289,2.408237000000099,0.8726891280000001,10.170618054666667,-149.50677493333333,-1.8357362153333334,-2.5016484260000005,14.259658333666666,-17.669424056666667,24.450615563333333,-2.761237700666666
290,2.41657000000032,0.6960318783333334,10.587468784,-149.52817786666665,-6.035584608666667,-2.247294426,11.827938716333334,-21.014132816666663,49.47245407,-3.6351897716666666
291,2.4249030000000857,0.4628815499999999,10.957025208333334,-149.55230206666667,1.1930466693333333,-2.316249887,11.481992403333331,-27.83460617,43.81421915666667,-3.7878870966666667
292,2.4332360000003064,0.18252526966666668,11.424417177666667,-149.56661986666666,-7.644012769333333,-2.629817088333333,15.583700377666666,-33.57282257,55.56816101333334,-2.412970702
293,2.4415690000000723,-0.179624776,11.974031446666666,-149.59054056666665,-0.3480145736666667,-3.345544775333334,8.983936627,-43.27162170666667,65.45161056333333,-3.310486714
294,2.449902000000293,-0.5492391883333334,12.436718943333332,-149.60251873333334,-5.088156104333334,-2.1937199036666666,11.011899154666667,-44.30866368666667,55.02364985333333,-1.453553637
295,2.458235000000059,-0.992706418,13.070625306666665,-149.62315366666667,0.36088172599999996,-2.986723423333333,8.085007508666667,-53.0603714,75.58416239666667,-1.8880143166666663
296,2.4665680000002794,-1.4545151393333333,13.560117720000001,-149.63656620000003,-5.647512038333335,-1.690338666,11.526532491333333,-55.351601916666674,58.269270580000004,-0.7189764180000001
297,2.4749010000000453,-1.9542735416666668,14.255951246666667,-149.66736346666667,0.09510030366666673,-1.9018816153333333,11.85782242,-59.43439864999999,83.04285939666666,-1.6033957006666666
298,2.483234000000266,-2.441020409,14.80099106,-149.67688496666668,-4.338046789,-1.7449247836666666,7.1232724979999995,-58.408491770000005,64.91555150333333,1.0019313493333335
299,2.491567000000032,-2.9687588216666665,15.424866360000001,-149.70995076666665,2.231244723,-0.7324880613333334,8.741093556000001,-62.65077336666667,74.43922551333334,-0.8013037046666662
300,2.4999000000002525,-3.4856538773333328,15.969294229999997,-149.73976136666667,-4.783104082,-2.0353585086666666,11.2299455,-61.364025116666674,64.93768056,-0.1754362486666666
301,2.5082330000000184,-3.9869920413333335,16.52783998,-149.7775523,1.1529942749999997,0.57866025,13.991933823333332,-59.21915944333333,66.63769277,-0.4778957963333334
302,2.516566000000239,-4.465444247000001,17.096646946666667,-149.81453956666667,-4.461742341666667,-0.8813744583333333,9.522740204,-56.47673925,67.90853246,0.3483624856666667
303,2.524899000000005,-4.920291106,17.56689230666667,-149.85695393333333,3.476073503333333,0.7239187956666666,9.470458031333333,-53.37490209,56.109713236666664,-0.7062797943333333
304,2.533232000000225,-5.351101398333333,18.09669749,-149.88928223333335,-4.985834121666667,-2.267789086,9.684647323,-50.906824746666665,63.17483902,1.5556145526666671
305,2.5415649999999914,-5.75645717,18.489931740000003,-149.92858883333332,1.6360541183333333,0.9106317163333335,8.998836160666666,-47.392908733333336,46.86653010333333,-0.3360380330000002
306,2.549898000000212,-6.099650224,18.956754683333333,-149.96255493333334,-4.414442668333333,-1.147998884,11.360371113,-40.29307556333333,55.64145533333333,1.4667122099999998
307,2.558230999999978,-6.401955445333333,19.304754256666666,-149.98355103333333,1.8378181456666667,1.338439206,8.156828084666666,-35.70632235,41.246699013333334,1.7331887880000003
308,2.5665640000001986,-6.674681981333333,19.693089803333333,-150.00283306666665,-3.836348533666667,-0.9249389766666667,8.534636181000002,-32.36243438666666,46.058017729999996,2.6698286136666667
309,2.5748969999999645,-6.890032768,19.949008943333332,-150.02570596666666,2.7677930193333338,0.44976299999999997,8.594707001000002,-25.14028104,30.280021666666666,0.6186127463333332
310,2.583230000000185,-7.080023288666666,20.23919804666667,-150.0482635333333,-3.835475524333333,-1.2858716646666666,12.206764141666667,-22.296262103333333,34.38626607333333,1.2333602906666667
311,2.591562999999951,-7.229924678666666,20.462103523333337,-150.07465616666664,1.2951173933333333,0.7499059836666667,9.030863286333334,-17.10839430333333,26.39083608333333,-0.05306092900000022
312,2.599896000000172,-7.306126276666667,20.589913050000003,-150.07140603333332,-1.9811873036666665,0.033774639333333356,15.520190873333334,-9.706297078666667,14.686309339333334,1.8299832343333333
313,2.608228999999937,-7.358693758666667,20.800134656666668,-150.08663433333334,-2.0198865730000004,-0.5791182753333334,8.282810371333333,-5.907859206,24.716698963333332,1.0864834786666666
314,2.616562000000158,-7.388408502,20.829579673333335,-150.07059223333331,0.05158937999999994,-0.8731607,11.290582497333332,-4.6539191403333335,2.788481215333334,1.7474549613333334
315,2.624894999999924,-7.361037254,20.91742388333333,-150.05395,-3.0427947640000004,0.08298331499999996,13.89772097,2.3209230106666667,9.694814123666667,2.7835932573333335
316,2.6332280000001447,-7.294822057,20.92822774,-150.027949,-0.27005580066666673,-0.7768445116666666,11.609919863666667,6.440465687666666,0.4306862753333332,2.575964530333333
317,2.6415610000003653,-7.215724150333334,20.92547798,-149.99204,-2.1193380753333333,-0.6328265073333333,10.734701156666667,7.690849781333334,-1.3550099533333337,3.528804918
318,2.649894000000131,-7.119445164999999,20.895050683333334,-149.95624286666666,0.257481056,-1.03027761,9.757133008666665,9.650091807,-4.602110147333334,3.0406582356666667
319,2.658227000000352,-7.005819479666667,20.806118646666665,-149.90872190000002,-2.524859349,-1.5384051006666668,13.98891799,11.325860659999998,-11.768992423333332,3.537958582
320,2.6665600000001177,-6.884836673666666,20.766089120000004,-149.87309266666668,-2.9176654023333337,-1.698489229,13.786093076666667,12.631162326666667,-5.736778418333333,2.9175558986666665
321,2.6748930000003384,-6.755038102333334,20.672191623333333,-149.83673603333332,-1.8916026356666666,-0.5653775353333333,12.06157716,13.748850186666667,-12.191081366666666,2.26904583
322,2.683226000000104,-6.629764398,20.564071023333337,-149.81430056666667,-1.3208120663333334,-1.2465801836666666,12.519888876666668,13.710215886666667,-13.659948983333331,0.5257543326666667
323,2.691559000000325,-6.493328412333333,20.48123868333333,-149.79643253333333,-3.013287623666667,-1.781675736333333,12.651638349999999,15.342747053333333,-10.625231742333334,0.4191170536666669
324,2.6998920000000908,-6.315972805,20.337841033333333,-149.78027343333335,-1.2739344240000001,-0.818668154,13.589645703333334,20.24102528666667,-17.77570088666667,-0.5846325556666668
325,2.7082250000003114,-6.1300271356666665,20.173113506666667,-149.76312256666665,-2.305158337,-1.0975979120000001,13.565586723333332,21.312515256666668,-20.385566076666667,-0.6700096526666665
326,2.7165580000000773,-5.960695107666666,19.993318560000002,-149.75314333333336,-1.0093871256666667,-2.0321810246666665,15.02376874,19.5497427,-22.050151823333334,-1.618098576666667
327,2.724891000000298,-5.789299328999999,19.82137044,-149.7260742,-3.407279968333333,-1.7578543026666669,14.179002763333331,19.16075452,-21.354184466666666,0.473598798
328,2.733224000000064,-5.620508829666666,19.59305763,-149.6965789666667,-1.0573078889999998,-0.8881674009999999,13.67695904,18.732627230000002,-28.07194137666667,0.12840044466666653
329,2.7415570000002845,-5.468532403333334,19.398370106666665,-149.65938313333334,-3.6821338336666667,-2.3279659746666668,13.262100219999999,16.428706486666666,-24.17402712333333,1.4779422283333332
330,2.7498900000000503,-5.320386250666667,19.20621808,-149.63139346666665,-1.8846778873333332,-1.759017547,11.86221027,16.360221546666665,-23.732067110000003,0.5407597023333333
331,2.758223000000271,-5.156995137666667,18.981133143333334,-149.58934023333333,-2.5598356326666667,-1.9828189213333332,13.174370127000001,17.618439353333333,-27.8462499,1.8089643713333334
332,2.766556000000037,-5.008128484333334,18.776503246666667,-149.5623169,-1.9257179496666665,-2.1329078673333335,15.898681326666667,16.50782012666667,-25.221101763333333,0.44379321733333327
333,2.774889000000257,-4.882678826666667,18.58674177,-149.53172303333332,-3.460519711,-1.3429325419999998,13.134104412,13.528411233333335,-23.486989336666667,1.027375107
334,2.7832220000000234,-4.801688194333334,18.37548828,-149.5130666,-1.7142116629999997,-1.3217736880000002,13.0149409,8.712397575666666,-25.932214103333333,-0.47736853366666665
335,2.791555000000244,-4.744742870333334,18.17773374,-149.4969177,-3.612205664333333,-3.191185713,13.18527349,5.870602131333334,-24.30095609,-0.606532693
336,2.79988800000001,-4.709305763333334,18.00052897,-149.48951723333334,-1.5886085233333336,-1.605291128,10.326977728333333,3.693322388,-21.747869493333337,-1.3609530303333335
337,2.8082210000002306,-4.689670562666667,17.754513423333332,-149.47138466666667,-2.1371380886666667,-2.310994784,11.758508684,1.3220201036666668,-30.09647751,-0.8333811363333332
338,2.8165539999999964,-4.705202261666667,17.586699483333334,-149.4682668,-2.497185031666666,-2.7426780063333336,12.914099056666666,-2.268184170333333,-20.595885596666665,-1.7352840403333334
339,2.824887000000217,-4.741071542333334,17.372637433333335,-149.46867876666667,-2.7131091753333334,-1.9820516110000002,12.492647490000001,-4.642906427666667,-26.091775896666665,-2.631800323666667
340,2.833219999999983,-4.831362565333333,17.202752433333334,-149.4937388,-2.7762943903333337,-1.569189747,10.864329177333332,-10.233071645333334,-20.57374827,-5.003410577666666
341,2.841553000000204,-4.963183085,16.994692483333335,-149.5339559,-1.6588654716666664,-3.487938563,10.343209743333333,-14.771401086666666,-24.972602206666668,-7.209610860999999
342,2.849885999999969,-5.11198616,16.813970246666667,-149.58351643333333,-4.173701207,-1.0449312823333332,9.411727587,-16.417002363333335,-21.592560133333336,-7.9945162136666665
343,2.85821900000019,-5.297517935666667,16.734953883333333,-149.649058,-1.6852325623333335,-1.7603383063333335,4.579339980333334,-20.345781963333334,-9.262544373333332,-8.842815717
344,2.866551999999956,-5.4794017476666665,16.549197513333333,-149.68976336666665,-3.548956950333333,-1.656806945666667,9.703445275333333,-20.749019623333332,-22.246223450000002,-7.193611463
345,2.8748850000001767,-5.704430898000001,16.57587465,-149.74225873333333,-4.416627566,-1.7513177396666666,9.109746616,-25.531038919999997,3.274743259333333,-6.158135732000001
346,2.8832179999999425,-5.916772683333332,16.563951810000002,-149.7720489333333,-2.772597869,-0.8678172033333332,5.891464074666666,-24.774801256666667,-1.5713787873333338,-4.001193364666666
347,2.891551000000163,-6.134042740000001,16.607990263333335,-149.7923126,-2.7461002269999994,-1.331703087,6.951545,-25.713488263333335,5.001348416333333,-2.2206871906666668
348,2.899883999999929,-6.3874530793333335,16.723426183333334,-149.80934143333334,-4.703045924666667,-0.7178972413333332,9.099435449666666,-30.14400228,13.497326216666666,-0.8858651713333332
349,2.9082170000001497,-6.638446967,16.97588793333333,-149.81906636666665,-1.8175957103333333,-1.5737718740000002,2.762944380333334,-30.111282349999996,29.720746993333336,1.8636820316666667
350,2.916549999999916,-6.881410598666666,17.104207993333333,-149.79736836666666,-3.625759959333333,-0.780568138,6.561878384333333,-30.26348877,14.504745165333333,3.835108121333333
351,2.924883000000136,-7.106427828666668,17.546939213333335,-149.80289713333335,-3.1154542763333333,-0.910268426,2.9810254573333332,-27.104905446666667,52.30622609666667,5.392270088333333
352,2.933216000000357,-7.316932519333332,17.77689743,-149.77944946666665,-2.467388848666667,0.037708183000000006,4.761635781666667,-26.467903773333333,26.54922422,5.664522488999999
353,2.9415490000001228,-7.525013287666667,18.189001716666667,-149.77090963333333,-0.8494075140000001,-0.828947951,4.800983072666667,-25.57616361,48.40678278666667,6.908327579666666
354,2.9498820000003434,-7.722411155666667,18.639266966666668,-149.77530923333333,-3.8487095829999998,-0.7419593186666668,5.2822588286666665,-23.892015456666666,53.14123789333333,6.211252769000001
355,2.9582150000001093,-7.910219987333332,19.01119804,-149.7673899333333,-1.159553595,-0.5757102366666668,4.427784582,-23.13557052666667,43.58227412,6.515997727666666
356,2.96654800000033,-8.061703046333333,19.478254953333334,-149.77773539999998,-1.5173297626666666,-0.5455287816666666,2.7753305833333335,-18.141449613333332,55.18041229666667,6.1412494980000005
357,2.974881000000096,-8.240085919333334,19.921531043333335,-149.77990723333335,-1.3079535563333333,-0.084780097,2.499742428333333,-21.608118056666665,52.182632446666666,6.859140555
358,2.9832140000003164,-8.410990715,20.3701121,-149.7777354,-1.4764078733333335,-0.9390040436666666,2.079367717,-20.968829473333333,52.73970413333333,7.565967241999999
359,2.9915470000000823,-8.526674905999998,20.785257976666667,-149.7674154,-1.1340506076666665,-0.3877456983333334,1.3291867773333335,-14.613415400000001,48.598346709999994,8.035857043333335
360,2.999880000000303,-8.610203107000002,21.191480636666668,-149.7491709666667,-0.5389545563333333,-0.19807161866666667,2.1889615653333334,-11.146829605999999,47.40936788,8.822607357
361,3.008213000000069,-8.680008888333333,21.557718913333332,-149.72465006666667,-0.7646066746666667,0.19121903166666665,3.9496574400000006,-9.765976847666666,42.52947108,8.857251962
362,3.016546000000289,-8.727924347,21.900608700000003,-149.69030763333333,0.3211146693333333,0.49967600900000003,6.2338518206666675,-7.621998771666667,39.60188675,9.554546515666667
363,3.0248790000000554,-8.763750076333332,22.211552936666667,-149.64722186666665,-1.2745761173333332,-0.6074203749999999,3.6911753813333337,-6.565159320666667,35.64589436666667,9.957448960333334
364,3.033212000000276,-8.774227778333334,22.47857475666667,-149.59717816666665,0.7630469503333334,-0.37255559866666665,2.2063109676666666,-3.8786476553333333,30.33067639666667,9.920295078333334
365,3.041545000000042,-8.752360344333333,22.699130376666663,-149.53171283333336,-1.4564374683333334,-1.1995588443333334,1.2279690503333336,-0.7246741753333333,24.54820696666667,10.744175593333333
366,3.0498780000002625,-8.708608627333334,22.874327976666667,-149.46210226666668,0.9348658323333333,0.29700634900000006,1.6523889203333333,1.6956458486666666,19.124428113333334,10.354435443333333
367,3.0582110000000284,-8.657232920333334,22.999566396666665,-149.37393699999998,-1.2295472026666667,-0.8857661283333335,2.4890272616666667,1.7097924549999999,12.873654366666669,11.439248401999999
368,3.066544000000249,-8.597627004,23.090349196666665,-149.28686523333332,0.9431361843333333,-0.22335412366666665,2.4389006893333334,2.748651266,8.838675697666668,10.696536701
369,3.074877000000015,-8.536235173666666,23.111300786666664,-149.17615766666668,-0.9206347319999999,-1.1144871116666666,2.103297333,1.830760618,0.15635367233333333,11.996389229666667
370,3.083210000000236,-8.461135864333334,23.104422253333336,-149.0674286,1.0140972136666666,-0.19124461199999998,2.548643906666667,3.565685749,-3.0768904690000003,11.300964516333332
371,3.091543000000001,-8.364939053999999,23.020163216666663,-148.92866513333334,-0.8074188430000001,-0.736125966,3.0605759619999997,4.708030224,-12.758180936666667,13.215988953333335
372,3.099876000000222,-8.261244297,22.901307423333332,-148.79504393333332,1.1497419673333331,-0.11898751066666668,3.9216482640000003,5.852770487333333,-16.725435258333334,12.105584145
373,3.108208999999988,-8.139570713,22.71063805,-148.63422649999998,-0.6483938693333334,-0.5328953266666666,3.8796405793333335,6.815321604333334,-25.706519443333335,13.878523191999998
374,3.1165420000002086,-8.012423197333334,22.469346366666667,-148.4721934,1.2812792459999998,-0.6794556576666667,4.770104805666667,7.441067854666667,-31.67276255,13.259862899333333
375,3.1248749999999745,-7.853323300666666,22.156645456666666,-148.28050233333332,-1.2399796646666668,-0.6063560846666666,4.942365646333333,10.063974697666668,-40.619325,15.437381743333333
376,3.133208000000195,-7.687143008,21.81158956,-148.09098816666665,0.5642544826666668,-0.1330194723333333,6.5536616646666666,11.090121986333335,-44.359491983333335,14.851682666666667
377,3.141540999999961,-7.526514848333334,21.418857573333337,-147.88059486666668,-1.9551286696666665,0.47043612600000007,6.832932869666667,9.681341728,-50.33942922,16.563043913333335
378,3.1498740000001817,-7.392634868666666,21.008461633333333,-147.6811981333333,-0.550197502,-1.157234346,6.036506493666667,7.055881422,-52.200018566666664,15.277282396666669
379,3.158206999999948,-7.222122987,20.612908683333334,-147.47295123333333,-1.7303659916666667,-0.8844621973333333,4.772485534333334,11.301006317333334,-50.580115,16.668790496666666
380,3.166540000000168,-7.056335449,20.1853377,-147.26140336666666,-3.2825861773333336,-1.1100778186666667,5.837825538,10.658153691666667,-54.342861176666666,16.75871531
381,3.174872999999934,-6.886782169666667,19.758515040000002,-147.0418294,-1.387244423333333,-0.10517398633333334,5.192939758333334,11.117580734666667,-54.37341817,17.911839163333333
382,3.1832060000001547,-6.742873351,19.448753993333337,-146.83906046666667,-3.8223784863333337,-0.9156249306666667,9.857326826666666,8.682442666333333,-40.09475072,17.863772710000003
383,3.1915389999999206,-6.591766834333332,19.01273918,-146.6067454,-1.2805699510000002,-0.6572112193333334,3.294427325333333,8.722054002999998,-55.55730057,19.622674306666667
384,3.1998720000001413,-6.455590725,18.825696946666667,-146.4107767666667,-4.068070491333334,-0.6501175463333334,7.683664003,8.304565431,-25.286266959999995,19.05745856
385,3.208205000000362,-6.277998923999999,18.43936093666667,-146.17062886666668,-2.4733820756666662,-0.07654070866666662,5.455922155,11.870680173333334,-49.643152869999994,21.551709813333332
386,3.216538000000128,-6.119408766666666,18.337231953333333,-145.97414143333333,-3.28709054,-0.9658007223333334,8.407981236666666,11.175156594,-15.0647796,20.425915720000003
387,3.2248710000003484,-5.947062333000001,18.06337292666667,-145.7409312,-3.081346978666667,0.027161638000000005,4.057183424333333,11.707603137666666,-36.01007843,22.538073856666667
388,3.2332040000001143,-5.803245385333334,18.044777550000003,-145.55618286666666,-3.833272337666667,-1.52834483,8.932620366,9.982115109333334,-4.848503589666667,20.251951853333335
389,3.241537000000335,-5.625720342,17.953819276666664,-145.3568166,-3.045892993666666,-0.078917059,7.581558386666667,13.660290716666665,-13.652475676333331,21.08501816
390,3.249870000000101,-5.48032554,17.99620183,-145.1763102,-2.537743767,-1.9923706453333334,6.604822953666667,10.364297548666666,2.5968661513333333,20.522429146666664
391,3.258203000000321,-5.373448054,18.055227276666667,-144.98817446666666,-4.533644437666666,-1.163638681,4.679441354000001,5.563461303333333,4.500230193333333,21.58002345
392,3.266536000000088,-5.254064878,18.16218567,-144.80418396666667,-0.075350523,-0.436132868,4.6279382710000005,7.102109749999999,10.348144214,21.59799067
393,3.274869000000308,-5.118251482666667,18.260304766666664,-144.61416116666666,-4.915841660333333,0.6012097200000001,13.932053566333332,8.880105972666668,9.257737081333334,22.20088196
394,3.283202000000074,-4.952440103,18.50729815,-144.44386799999998,-0.5171481766666671,-0.4073076446666666,3.709126949333333,13.102564176666666,27.32870229,21.430751799999996
395,3.2915350000002945,-4.761136373,18.533419926666667,-144.2518107,-0.9209281606666663,1.347742299,10.811901967333334,15.336417518666666,0.76799198,21.574684143333332
396,3.2998680000000604,-4.538203557333333,18.792471563333333,-144.07136536666667,-3.654775359666667,-0.037224636666666644,10.147948225333334,19.44637966,28.839309056666668,22.544513066666667
397,3.308201000000281,-4.3057957490000005,18.887912113333332,-143.87914023333335,-0.374652048,-0.6846157709999999,6.930031855,20.157119113333334,9.220782916666668,22.14902878
398,3.316534000000047,-4.078652064,19.028579713333333,-143.69478353333332,-1.8835703926666667,-1.6291350126666666,9.682435192999998,19.7329216,14.807882626666666,21.662865319999998
399,3.324867000000268,-3.8376906713333336,19.091471353333333,-143.50659183333332,-1.2758262956666668,-0.42653696699999993,11.389602025666667,21.221586863333332,5.551941393333333,21.34277598
400,3.333200000000033,-3.649206320333333,19.171426773333334,-143.34305826666665,-1.0186262576666665,-1.4358685813333334,13.886652626666667,15.850713410000003,7.862205303666666,18.692289353333333
401,3.341533000000254,-3.4759030343333333,19.184932710000002,-143.19723256666666,-0.9819183749999999,-0.6994321843333333,11.370329061,14.754978813333333,0.07945132266666673,16.147001903333333
402,3.34986600000002,-3.330152591333333,19.128109616666666,-143.06355793333333,0.983715375333333,-1.6283957960000002,11.520569799666667,11.867724099999998,-8.188361643333334,14.254672686666666
403,3.3581990000002406,-3.161214431,19.00693321,-142.9423116,-2.040149768333334,-0.30369738733333335,13.259984653333333,15.20516904,-15.809790294333334,12.456854186666668
404,3.3665320000000065,-3.0380937256666667,18.90298335,-142.84034983333333,-0.8319000403333332,-1.4882548653333334,12.127301536666666,10.468025208666665,-13.57698377,10.416667939
405,3.374865000000227,-2.9089162346666666,18.636542640000002,-142.7473297,-1.3346778549999998,-0.7702843843333333,16.462791126666666,11.603018441666668,-32.98591423,8.446759700666666
406,3.383197999999993,-2.7861467199999996,18.493962606666667,-142.6765035,-3.027545189,-0.5321921456666666,12.222231386333334,11.668600400333332,-17.975115773333332,6.739488442666667
407,3.3915310000002137,-2.668425004,18.22184181,-142.61309053333332,-1.0234704813333333,-1.1062649586666666,14.869575499333331,11.459390006000001,-33.47530046666667,5.193655411333332
408,3.39986399999998,-2.5108096596666667,17.957808813333333,-142.55157723333335,-3.335178415,0.45017888133333334,17.597503026666665,16.249421436666665,-32.43816948,5.127255042333333
409,3.4081970000002,-2.359362085666666,17.74527867666667,-142.50109103333332,-3.425227821,0.558848083,12.887374878000001,16.017367043333333,-26.24252446666667,4.216469685333333
410,3.416529999999966,-2.1866584223333336,17.48189449666667,-142.46091713333334,-1.6229830086666663,-0.9657489856666667,10.712883628999998,18.911585493333334,-32.24704679,2.8597649733333337
411,3.4248630000001867,-2.002674381,17.248136203333335,-142.42150116666667,-3.0143570499999996,-0.775652538,15.38990307,20.3845431,-28.707961400000002,3.0447457633333332
412,3.4331959999999526,-1.7945685386666668,17.053759576666668,-142.37664286666669,-3.200461944,-1.5528118013333334,16.534590086666668,23.03333791,-23.961628596666667,3.899211645
413,3.4415290000001733,-1.5600516396666668,16.90542157333333,-142.33154806666667,-4.6901017823333335,0.20146103699999998,13.986867903333334,26.265832899999996,-18.450625736666666,4.187321265666667
414,3.449861999999939,-1.3435938360000002,16.704059283333333,-142.28519693333334,-1.5324702410000002,-0.7861747543333334,14.399509113333332,24.034711836666663,-24.76417668666667,4.230131228666667
415,3.45819500000016,-1.1160767673333334,16.55747922333333,-142.23855590000002,-2.9367788633333336,-1.3757476806666666,16.69789982,25.38900121333333,-18.21640746,4.531550089666667
416,3.4665279999999257,-0.9067387776666668,16.441772146666665,-142.19920349999998,-3.5423541466666664,-1.2279931923333334,16.253905613999997,23.434433616666666,-14.44625982,3.8252881366666664
417,3.4748610000001463,-0.7245091796666667,16.343213083333335,-142.17397563333336,-3.182406326,-0.6786872643333334,16.67587153,20.70868301333333,-12.370063146666666,2.2805475393333334
418,3.483194000000367,-0.5497894186666666,16.240874610000002,-142.15223949999998,-2.0262599983333334,-1.8092050650000002,12.74107488,19.89673614333333,-12.791945297666667,1.8887735006666666
419,3.491527000000133,-0.41487233133333334,16.148731233333333,-142.1362966,-3.677937030666667,-2.798407793333334,12.721544583333333,15.340640705333334,-11.572251,1.2756875356666668
420,3.499860000000353,-0.278851452,16.07634576,-142.12913766666668,-3.6871987980000003,-1.58591641,12.863182703333335,15.724708239999998,-9.169728757666666,0.494824489
421,3.50819300000012,-0.17315406033333333,16.026936213333332,-142.12234750000002,-2.259921193,-2.265466173666667,12.574781416666667,12.131639321333333,-6.439133167333334,0.30663224566666664
422,3.51652600000034,-0.06338066999999999,16.00480334,-142.11379243333332,-3.591576338,-1.777988414,17.68972015333333,12.571080207333333,-3.1458850303333334,0.5013944606666667
423,3.524859000000106,0.00988296666666666,15.988914806666665,-142.102122,-2.947889844666667,-0.10903402366666663,16.382842381,8.072091977333335,-2.400813718666667,0.889655024
424,3.5331920000003265,0.036474560666666676,15.973292033333331,-142.09677123333333,-2.3525855339999997,-2.2950737873333336,14.17807579,2.696777781,-2.363489707333333,0.16730365633333336
425,3.5415250000000924,0.05823530233333333,15.975716273333333,-142.09009806666668,-3.4275981586666666,-2.1152558723333335,14.017800016666667,2.066599215,-0.20461505766666654,0.314290936
426,3.549858000000313,0.03749189766666668,15.978146553333332,-142.08743536666665,-3.073129177333333,-2.1959721643333334,12.232571283333334,-2.89654769,-0.17620456100000004,-0.19519752766666668
427,3.558191000000079,0.011924187333333345,16.026339213333333,-142.09883116666666,-2.296533187,-2.5681607323333333,12.770227115666666,-3.0088786283333335,5.2717727026666665,-1.778319518
428,3.5665240000003,-0.030179500666666675,16.02625815,-142.10818226666666,-3.8218235173333333,-0.8600738246666667,15.567749656666665,-5.061458667,-0.49551165100000016,-1.5219467083333331
429,3.574857000000065,-0.10250351833333333,16.076327956666663,-142.12429556666666,-2.260852873333333,-1.2238146463333333,15.349370319999998,-8.480938275,5.519603411333333,-2.325077057
430,3.583190000000286,-0.213494039,16.097921053333334,-142.13126883333334,-2.9784410796666663,-2.796873172,14.972113926666667,-13.37885475,2.1061266463333332,-1.3105951743333335
431,3.591523000000052,-0.317817043,16.138676959999998,-142.1465454,-3.652266422666667,-1.3461561203333334,12.737378281666667,-12.323258081333334,4.402511337,-2.192869186333333
432,3.5998560000002726,-0.4565172193333334,16.17812284,-142.16435746666664,-1.5148281256666667,-1.8313093783333334,10.823458669666666,-16.359841346666666,4.275311311,-2.471774141
433,3.6081890000000394,-0.5999722086666667,16.23786958333333,-142.186142,-2.926195224,-3.4208786090000003,13.777600606666667,-16.826739309999997,6.689292430333334,-2.9224484763333334
434,3.616522000000259,-0.7693520286666665,16.291910169999998,-142.20008596666665,-3.453342438,-0.752969861,16.223622639000002,-20.15934372,6.015044239000001,-1.9593533676666663
435,3.624855000000025,-0.9860195519999998,16.330109913333335,-142.2281138,-2.549565633,-2.667288780333333,16.13363107,-25.393296556666666,4.145611206666667,-3.6298556326666667
436,3.6331880000002457,-1.20092084,16.382597286666666,-142.2551651,-2.9263977210000003,-1.6266362816666666,14.917944909999997,-25.215103146666667,5.868195056666667,-3.327854633333333
437,3.641521000000012,-1.4502822560000002,16.402385393333333,-142.28360496666667,-2.092796683,-1.6488406260000001,12.108856201666667,-29.30123964666667,1.9639817076666668,-3.688759804
438,3.649854000000232,-1.7260629733333335,16.462098120000004,-142.32770026666665,-3.045847505333333,-1.3348089256666669,12.867674826666667,-31.88174311333334,6.830772082,-5.315129677333334
439,3.658186999999998,-1.9864416123333335,16.475612323333333,-142.3722636,-1.847118666,-1.5486001573333334,16.872303643333336,-30.094954806666667,1.2866346440000003,-5.549256165666667
440,3.6665200000002183,-2.2761466903333334,16.507694243333333,-142.41117606666668,-2.7206495603333334,-1.6070492416666664,13.485470216333335,-33.710221606666664,3.5220164356666666,-4.752217849333333
441,3.6748529999999846,-2.600030899,16.50439072,-142.45684559999998,-2.3816004596666667,-0.8927260440000001,11.781805037333333,-37.68879318,-0.6484260559999999,-5.756602765333334
442,3.683186000000205,-2.9084240596666664,16.493810333333332,-142.4876226,-3.5975015960000003,-0.8996147713333332,15.566001256666667,-36.23820749666667,-1.591170748,-4.029183467
443,3.691518999999971,-3.2032009759999998,16.508527756666666,-142.51746366666669,-1.490710765,-2.2791533866666662,11.39452076,-34.69428507333333,1.4585147103333334,-3.808020750666666
444,3.699852000000192,-3.516198317,16.47516441666667,-142.53977203333332,-4.206133286333333,0.03904549266666665,16.22489738333333,-37.08580907333333,-4.31751136,-3.227551738666667
445,3.7081849999999577,-3.816824277333333,16.551105500000002,-142.56615703333333,-2.410749078,-0.8740477053333334,13.725592933,-35.52609825,8.785176754,-2.9117020766666672
446,3.7165180000001774,-4.138006925333333,16.477434156666664,-142.5838979,-1.8194484513333335,-1.224508325333333,13.0220232,-38.24618657333333,-9.162490605,-3.062441826
447,3.724850999999944,-4.4591650959999996,16.54384835666667,-142.59601846666666,-4.1036899883333335,0.024554292333333283,13.963405926666667,-38.4770991,7.5660839079999995,-1.2593981423333331
448,3.733184000000165,-4.750975450000001,16.49441305666667,-142.59324900000001,-2.638879617,-1.085815112,12.889293032333333,-35.39901351666667,-6.423754215333333,-0.599864453
449,3.7415169999999303,-5.050459862,16.585591633333333,-142.6071625,-3.049007296333334,-0.7280869683333333,9.081445572,-35.807640076666665,10.549184798666667,-1.1154503823333335
450,3.7498500000001513,-5.350280602666667,16.562198003333336,-142.60394033333333,-1.0697005790000003,-0.9721584716666666,11.532250405666666,-36.372997283333326,-3.2936115266666666,-0.34783691166666664
451,3.758182999999917,-5.619128386333333,16.611262319999998,-142.60654956666667,-4.391476154666666,-0.271526365,14.526981194666668,-32.541286469999996,5.386235872,-0.17458291866666661
452,3.766516000000138,-5.921601454,16.68631967,-142.62197113333332,-1.9541407919999998,-0.7301081270000002,8.640708006333334,-36.023501079999996,8.650668066,-1.313794613
453,3.7748490000003594,-6.181187947333332,16.637338956666667,-142.63009136666668,-2.6976158223333333,-0.12177021299999997,12.082293830666666,-31.261613846666666,-6.221327769333333,-2.00149403
454,3.783182000000125,-6.475593884999999,16.79007753,-142.66743466666665,-3.1365840436666663,-1.9049528836666667,6.799796104333335,-34.30539449,18.200325013333337,-2.705161819666667
455,3.791515000000345,-6.766030311666667,16.76303641,-142.697436,-2.2149437863333334,-0.818416079,8.341890969333333,-34.17084567,-3.308398749666667,-4.237760305333333
456,3.799848000000111,-7.079929987666667,16.898252806666665,-142.74243163333335,-2.843848785,-0.4929319223333333,9.983465036,-36.404071810000005,16.265608153333332,-3.6306560836666666
457,3.808181000000332,-7.377094268666667,17.000107763333336,-142.79155983333337,-4.324385086666666,-1.4299779683333333,9.712436039,-34.297182719999995,12.334840299333335,-4.504921833666667
458,3.8165140000000974,-7.6413110096666665,17.14787705666667,-142.84143830000002,-3.2968898613333337,0.4529694516666667,7.8596426636666665,-30.23140653,17.83620771,-3.7940786676666662
459,3.824847000000318,-7.908768495,17.307642939999997,-142.8771693,-2.1670235,0.6486583403333334,5.5755688349999994,-31.209819156666665,19.077004113333334,-1.9439601946666667
460,3.833180000000084,-8.156655311333333,17.497784933333335,-142.91509246666666,-2.4237400296666665,0.41230595833333333,7.1745973623333335,-28.632743836666666,22.696881610000002,-1.5276981990000003
461,3.8415130000003046,-8.361913680999999,17.70446268666667,-142.94915006666668,-2.406591097333333,-0.6023388503333333,7.463520368666667,-23.806335450000002,24.63463719666667,-0.7720951040000003
462,3.8498460000000714,-8.508161545,17.93031502,-142.9833323,-4.503433227333333,1.0832256673333334,7.111790260333334,-16.523433366666666,26.8924071,-0.30062993366666674
463,3.858179000000291,-8.598696390999999,18.16329066,-143.00900523333334,-0.681439921,0.8903818229999999,6.098008314666667,-10.307382822000001,27.594234466666666,0.7719364366666669
464,3.866512000000057,-8.690107345333333,18.43284352666667,-143.044693,-3.5883005459999997,0.5271529753333334,7.483882746666667,-9.896948695333334,32.09515063,0.40791559233333324
465,3.8748450000002777,-8.740014711999999,18.658172606666668,-143.08282213333334,-0.7711443106666666,0.615732491,6.114476124666666,-4.901731054,26.90654564333333,-0.665812492
466,3.883178000000044,-8.753151258,19.001078923333335,-143.1300532,-5.167405684666667,-0.24287928399999992,4.6216600193333335,-0.053526481000000015,40.995422363333326,0.536542813
467,3.891511000000264,-8.727736472999998,19.218765893333334,-143.17612203333331,1.4185313776666666,0.17901595466666667,2.7146318753333336,4.550000627666667,26.124638876666666,-1.6928667230000005
468,3.89984400000003,-8.687700589333334,19.54958598,-143.22685493333333,-6.9496350289999995,-0.3943690853333333,9.607632319000002,6.4729025763333325,39.64223734333333,-0.06578134500000014
469,3.9081770000002503,-8.608817736666666,19.804706573333334,-143.28114573333335,4.542551438666667,0.378311475,0.36380003000000016,11.385101001333334,30.67966206866667,-1.9773062863333335
470,3.9165100000000166,-8.549832661666668,20.065448126666666,-143.3284988,-7.948929548333335,-0.5433579486666668,11.441070715,8.610018253,31.26174004666667,-1.008302212
471,3.924843000000237,-8.444166819333333,20.35887273,-143.39245096666667,4.619525073666666,0.03266716266666667,-1.0310033766666666,15.095247586666668,35.3869915,-2.4225059646666667
472,3.933176000000003,-8.331354141333334,20.508254366666666,-143.42698416666667,-6.580033936666666,-0.45749768133333335,14.918240744666667,14.575856208333335,17.827212014333334,-1.631147146
473,3.941509000000224,-8.180847168,20.777113596666666,-143.48867289999998,3.4147347213333332,0.6534015633333333,-0.9198517986666666,20.423425676666664,32.42252540333333,-2.712181806666667
474,3.9498419999999896,-8.056553840666666,20.79872004,-143.50704446666666,-4.4053327436666665,-1.1810734070000002,10.885210247333331,15.296146393666666,2.402902491666667,-2.0936704476666663
475,3.9581750000002094,-7.876038392333334,20.99599711,-143.55950929999997,2.472621758666667,0.3183790296666667,-0.42923879499999956,23.66752433666667,23.738507589333334,-3.0090589123333333
476,3.966507999999976,-7.692004521666667,20.93872579,-143.57498676666668,-3.5727853473333333,-0.4030827883333333,9.505425134333334,22.348009110000003,-7.043939113666667,-3.0889291366666662
477,3.974841000000197,-7.482788562666666,21.021987276666668,-143.62639363333335,0.587369124,-0.6390833903333334,2.376218001333333,27.066895166666665,10.155631593333332,-4.842759589333333
478,3.9831739999999622,-7.279448986000001,20.965090433333334,-143.67063903333334,-3.0849693219999996,-0.39444443833333337,6.571157803666666,25.906140646666667,-6.603896816333332,-6.255726417666668
479,3.9915070000001833,-7.1092120806666665,20.952522913333336,-143.73487853333336,-0.810106352,-0.921582043,3.3832045789999996,22.931737263333332,-1.1011564729999999,-7.772605657333333
480,3.999839999999949,-6.911186854,20.912327446666666,-143.78651426666667,-1.2423633333333333,-1.4766235950000002,3.8128286400000007,25.5843722,-4.5286341310000005,-6.79890108
481,4.00817300000017,-6.7330708506666666,20.904197056666664,-143.84048463333332,-3.255699782666667,-0.6733433206666667,4.118274897666667,23.425411226666665,-0.7742629846666665,-6.567860285666666
482,4.016505999999936,-6.56497701,20.813025793333335,-143.8613230666667,0.1663109463333332,-1.373287459,1.8732736110000001,20.681783676666665,-11.059087434666665,-4.052374164333333
483,4.024839000000156,-6.386527856333333,20.768589653333333,-143.87119036666664,-2.271035353333333,-0.8267292520000001,3.719052702333333,21.569239933333336,-5.680394906,-2.133022109666667
484,4.033171999999922,-6.234122594,20.712454476666668,-143.8712616,-0.8109699786666665,-1.0456469656666665,4.274793466,17.93242709,-7.164537906666666,-1.211929242
485,4.041505000000143,-6.134959221,20.67107582,-143.86512756666664,-3.1051755350000003,-2.1155505976666666,2.394498248666667,11.341976483000002,-5.512786706333333,-0.31132821233333335
486,4.049838000000364,-6.043724696000001,20.619788486666664,-143.86509196666665,-1.055711806,-2.094817122,-0.5546158950000001,10.606720289333333,-6.5811731023333335,-1.1127082903333332
487,4.058171000000129,-5.956363201333333,20.572411856666665,-143.85378013333332,-1.7004492283333335,-0.6928559343333333,2.1563907466666667,9.714925766666667,-6.304744561666666,0.2250294686666666
488,4.06650400000035,-5.9030871393333335,20.54763921,-143.8412526666667,-1.9175162509999997,-1.5785542626666667,4.324361672333334,5.504431407333333,-3.5757559933333334,0.6259094276666666
489,4.074837000000116,-5.9047946929999995,20.542771656666666,-143.8168538333333,-2.3978672426666665,-0.8767632346666666,4.603253901,-1.5397695896666665,-1.3588819853333334,2.2097441753333333
490,4.083170000000337,-5.9290196103333335,20.53733444,-143.78513083333334,-1.6007555176666666,-1.4166471563333332,1.5640365283333333,-4.579522609666666,-1.4991796013333332,3.037562132
491,4.091503000000103,-5.9407130876666665,20.57186889666667,-143.74824523333334,-3.3966026703333334,-1.8408645990000003,0.3723031876666667,-3.2633522349999997,3.196784496333333,4.0831182796666665
492,4.099836000000323,-5.963582674666667,20.614412306666665,-143.69967143333335,-1.1572277946666667,-1.0511216123333333,0.1874942780000001,-5.1046525633333335,4.0379137993333325,5.487393379333334
493,4.108169000000089,-6.004936377333334,20.655319849999998,-143.63938903333334,-1.4418375986666667,-0.262773514,3.237687588,-7.848929087666668,3.6691800756666666,6.7930455206666664
494,4.11650200000031,-6.079449177000001,20.730185826666666,-143.58189393333333,-2.6020011853333336,-0.9736691613333334,5.6519240286666665,-11.685600439,7.765020848,6.903511842333333
495,4.124835000000076,-6.177053451333333,20.825867336666665,-143.52590943333334,-1.6714591109999999,-1.024708072,2.988018393666667,-14.426820756666666,10.252489087999999,7.017418384666667
496,4.133168000000296,-6.293015162333333,20.91756757,-143.46644593333332,-0.417934579,-0.7620659073333332,1.6175342799999999,-16.765285808666665,9.722088494333333,7.383797327333333
497,4.141501000000062,-6.421340624666667,21.01149368,-143.4023920666667,-2.359740093333333,-2.598407546666667,-1.2506170673333334,-18.53179486666667,9.927538712333334,7.910126845000001
498,4.149834000000283,-6.553384463,21.102952956666666,-143.3495,-1.6435180606666666,-0.37285131200000005,-1.8851488630000002,-18.36476008,9.740063986666668,6.698731183666666
499,4.158167000000049,-6.702237923999999,21.202490490000002,-143.29302216666667,-0.8930324913333333,0.1047837433333334,2.481350263,-20.717278163333333,10.647902966666667,7.1656282739999995
500,4.166500000000269,-6.847649256666667,21.302460989999997,-143.23240916666666,-2.601469476666667,-0.926093986,3.5193042979999998,-20.336261746666665,10.606881141666667,7.7048382753333335
501,4.174833000000035,-6.997561454666666,21.405644733333332,-143.18229169999998,-0.38893349466666666,-0.8565100433333334,4.624373038666667,-20.527310690000004,11.125588101,6.591378371
502,4.183166000000256,-7.180685202333333,21.505925496666666,-143.12277986666666,-1.159954473,-0.865098536,1.3095603386666663,-24.911571499999997,10.63565159,7.623817284666667
503,4.191499000000022,-7.387455781333334,21.583094276666667,-143.07155353333334,-1.3819552353333335,-1.337720712,-1.2726819316666667,-27.406013486666666,7.962289413,6.406162897666667
504,4.199832000000242,-7.578662713666667,21.67070134333333,-143.02287036666667,-1.9472816586666666,-0.6808244286666666,1.1793978413333333,-25.38007672666667,9.231363774666667,6.298514445666666
505,4.208165000000008,-7.767274538666666,21.762936273333334,-142.9808121,-1.223075827,0.638450379,2.6845056616666665,-24.870241800000002,9.84629027,5.6373555663333335
506,4.216498000000229,-7.943822066,21.840941113333333,-142.93748216666668,-1.4910264809999998,-0.21802963833333336,4.461707274000001,-23.366544086666664,8.105133692333334,5.624975084333333
507,4.224830999999995,-8.123809019666666,21.914512000000002,-142.88907113333335,0.2633662223333333,-1.3643640973333333,1.8472257353333335,-24.164807639999996,7.507096845333334,6.100379268
508,4.233164000000215,-8.305360476,21.95114008666667,-142.83193206666667,-1.983806073666667,0.7977165976666667,-0.9827224413333333,-24.621388119999995,2.9411690233333334,6.482116262333332
509,4.241496999999981,-8.467956542666668,21.981877646666664,-142.79374696666665,0.0943462353333333,0.2638862406666667,0.5358907613333334,-21.567881263333334,2.5342953206666667,4.285869121666667
510,4.249830000000202,-8.587543487666666,21.960215886666663,-142.741478,-1.5656549336666667,0.060410023000000056,3.063479523,-17.012331643333333,-3.9174204083333333,4.927305380666667
511,4.258162999999968,-8.672477086333332,21.931111016666666,-142.70555113333333,-0.1153962613333334,1.706376095666667,4.787925879,-12.110781032,-4.565640057,2.9655956426666665
512,4.266496000000188,-8.736887614,21.869008383333334,-142.66877746666668,-1.148885449,-0.284342885,3.7498390280000002,-9.708035309666666,-8.472062766,2.4501256146666663
513,4.274828999999954,-8.770915349333334,21.76131184666667,-142.62430823333332,0.539185802,0.21824336066666672,5.140033642333333,-6.362406769,-14.032257713333335,2.4721455573333335
514,4.283162000000175,-8.760984738666666,21.616164523333335,-142.57970176666666,-0.8627416293333333,1.2714037896666668,6.075226624666667,-1.1467282646666666,-18.45699405666667,1.8205796903333333
515,4.291494999999941,-8.700129191333334,21.394311270000003,-142.52144113333335,-0.5748925603333334,0.6833695326666667,6.6602980296666665,4.447556574666667,-27.803853990000004,1.9262517493333335
516,4.299828000000161,-8.601084709333334,21.081865309999998,-142.45669046666669,0.22539027533333345,0.16167465600000006,5.733480135333333,8.745021821333333,-38.64018377,1.0901113946666667
517,4.308160999999927,-8.440307617,20.756381353333335,-142.3951848,1.0164282319999998,1.438605527,8.945007007666666,16.37954553,-40.16220474333333,0.5789903006666667
518,4.316494000000148,-8.246145089333334,20.284497576666666,-142.30890146666667,-1.8699124653333332,-0.7624322136666667,8.963984014,19.26672109,-57.90892919,0.9321721793333332
519,4.324826999999914,-8.015498797,19.845206576666666,-142.2451121,0.339410782,1.2369393706666667,6.922753492999999,24.860251106666666,-53.727523803333334,-0.7777370216666668
520,4.333160000000135,-7.746456623,19.221052806666666,-142.1443634,-1.5174838703333335,-0.36244350666666675,12.34756851,27.79504839666667,-76.20722707333333,0.5533157986666666
521,4.341493000000355,-7.440432230666666,18.67304738333333,-142.06259153333335,-1.7111882963333336,0.44000141800000003,11.35357984,33.356534323333335,-66.94414138666666,0.07968664166666646
522,4.349826000000121,-7.143137454999999,18.006535846666665,-141.95614876666667,-0.40109622500000014,-1.4021658163333335,10.210165659,31.253917693333335,-81.31956990666667,1.4152578516666665
523,4.358159000000342,-6.837793668,17.33404572666667,-141.84613546666665,-3.0956689616666666,-0.10064587966666665,12.421225546666667,32.37635485333333,-82.15919240666666,2.2149813669999996
524,4.366492000000108,-6.542548179666667,16.685590106666666,-141.73431906666667,-1.9434709946666668,-1.657326420333333,11.000473341333334,31.125501633333332,-79.23868560666666,3.208422065
525,4.374825000000328,-6.260920524666666,16.06076908,-141.63751473333332,-5.342083374666667,0.11700987800000001,13.025979040666668,30.278984070000003,-76.28964487666667,2.2674885789999997
526,4.383158000000094,-5.979708830666667,15.42326387,-141.5349655,-1.6182682910000004,-1.5550128020000002,10.856223423333333,30.011432009999996,-77.77139790666666,3.13930869
527,4.391491000000315,-5.708712260000001,14.88822778,-141.44866436666666,-5.636052290666666,-1.2685168486666667,13.821121216666667,29.548360823333336,-65.42241032999999,2.9383351006666665
528,4.399824000000081,-5.442118962666666,14.348171553333335,-141.3806661,-2.8055589396666663,0.05533552166666661,12.51803398,29.591387433333335,-65.71893437333334,1.1022401253333334
529,4.408157000000301,-5.210784117333334,13.886855123333333,-141.3159586666667,-4.639836748333333,-1.6043579776666668,15.430289270000001,25.55235863,-56.34377670333333,1.8649368286666668
530,4.416490000000067,-4.970434189,13.476397833333335,-141.28208416666666,-4.716241439333333,-1.3935164613333335,13.877715109999999,27.557456333333334,-49.88969166999999,-0.8915539579999999
531,4.424823000000288,-4.731081326999999,13.051291466666667,-141.23978426666667,-3.8191135723333325,-0.17099481433333333,12.533892629666667,27.240125656666667,-51.75084304999999,0.11867092033333322
532,4.433156000000054,-4.5383655229999995,12.767237026666669,-141.2278620333333,-2.9883160986666666,-0.395405357,13.688866933333331,22.489391326666667,-34.567482633333334,-1.8163340886666663
533,4.441489000000274,-4.331187645666667,12.40486622,-141.2030182,-2.14632684,-1.5700207033333333,15.176495233333334,23.873984016666668,-44.078132633333325,-0.9290090006666668
534,4.44982200000004,-4.136809349,12.204779306666666,-141.20237476666668,-4.611118038666667,-1.765805761,14.501487730666666,22.99722099,-24.419688543333336,-2.152118762333333
535,4.458155000000261,-3.9906567733333334,11.881494206666666,-141.18129473333332,-3.0621343853333336,-1.4471482733333332,16.094518660000002,16.681297303333334,-39.383318583333335,-0.7476040123333334
536,4.466488000000027,-3.8608395256666665,11.708911896666665,-141.17745463333335,-3.9988848366666665,-0.7542059223333334,16.52748044333333,15.177320479999999,-21.178768793333333,-1.4034692793333334
537,4.474821000000247,-3.7293680510000002,11.428195000666667,-141.15648906666667,-1.2189603646666667,-1.4839436609999999,14.055610021333331,14.9298865,-34.26752726,-0.2631567716666667
538,4.483154000000013,-3.627492348666667,11.272373198333332,-141.1517639333333,-5.855155944666667,-1.5067911643333334,15.137094816666666,11.829230943333334,-19.181539533333336,-1.163267106
539,4.491487000000234,-3.577401082,11.078740437333332,-141.14753723333334,-2.8884581726666667,-1.901838958,10.416950385666667,5.555530468666667,-23.711153030000002,-1.4250702856666668
540,4.49982,-3.512026945666667,10.907590548333333,-141.14826713333335,-2.834903796666667,-0.6247283220000001,16.485877990000002,7.655658085666666,-20.968471530000002,-2.0864729086666665
541,4.50815300000022,-3.4543240073333332,10.848437309333335,-141.15940346666665,-3.9451550643333335,-2.5073656636666666,17.067228316666668,6.784370581333334,-7.490321160333334,-2.250796059666667
542,4.516485999999986,-3.4039494196666666,10.669426598333333,-141.15864816666667,-4.477978348666667,0.6796405116666667,20.3269825,5.785178501,-21.945169766666666,-1.7704699039999998
543,4.524819000000207,-3.4016000429999997,10.688942273999999,-141.18058013333334,-3.1260646980000004,-1.8175425926666666,12.666049322333334,0.39308032400000004,2.012937307666667,-2.918371032
544,4.533151999999973,-3.4222333430000003,10.563086508666666,-141.18581393333332,-2.395538568666667,-1.343246261,15.660206476666668,-2.606121063333333,-15.534973622,-2.128910024666667
545,4.541485000000193,-3.4387677513333337,10.572408994,-141.19609073333334,-6.454783280666667,-1.2916132213333331,14.744020776666668,-2.1317319473333334,0.7061637243333333,-1.5841807920000004
546,4.549817999999959,-3.494928201,10.564002988333334,-141.21317546666666,-0.9110379946666667,-1.9805821976666664,14.25736363566667,-6.5853266716666665,-1.3750358423333335,-2.730294108666667
547,4.55815100000018,-3.5208821296666666,10.559164047666668,-141.22585553333334,-5.263169129666666,-0.04624083633333329,19.079138436666664,-3.238002499,-0.9734899203333333,-1.9611924563333334
548,4.566483999999946,-3.586865981666667,10.663132669333335,-141.25197853333333,-3.5064651666666666,0.6004210289999999,13.865984280000001,-7.593729336999999,12.147749106666666,-2.9107252953333336
549,4.5748170000001664,-3.660695871,10.639845212333334,-141.27871956666667,-0.8147815763333334,-1.991151730333333,13.213129999333333,-8.647405625333333,-3.070690542333333,-3.7838337420000006
550,4.583149999999932,-3.7384676933333334,10.760446229666664,-141.3120829,-7.277340888666665,-1.5757201509999998,14.648940565666665,-8.831893601333334,14.18811639,-3.504280408333333
551,4.591483000000153,-3.8067055543333335,10.821817715333333,-141.34902446666666,0.9512913230000001,-0.8517432346666666,13.474908272999999,-7.742979685333334,7.157238057666667,-4.360217649333333
552,4.599815999999919,-3.8735352356666666,10.881793658333335,-141.36536913333336,-5.438778321,-1.063429723,18.64266777,-7.969553392000001,6.8191030023333346,-1.8028749376666668
553,4.60814900000014,-3.960536718,11.044991494,-141.40035503333334,-3.4325293526666667,-0.115025163,13.882851283333332,-9.974718450666666,19.315606433333333,-3.2649544180000003
554,4.61648200000036,-4.056392987333333,11.105333330999999,-141.4048411,-2.0946649313333334,0.7218422493333335,18.462334950000002,-11.733815194,6.768814126333333,-0.385980902
555,4.624815000000126,-4.1462315720000005,11.280376752,-141.43049623333334,-4.053548495,-1.9298902353333336,15.323450407333333,-10.521360399,20.66143004,-1.9481426476666666
556,4.633148000000347,-4.234822591333333,11.458213170999999,-141.44688413333333,-3.325232028666667,-0.7554578386666666,11.88189125,-10.564186732333333,20.9361674,-0.8578382133333333
557,4.6414810000001125,-4.311891079,11.527518271333335,-141.45836643333334,-1.7048196793333332,-0.5178052186666667,16.44517358,-9.303271294,7.902859370333332,-1.2490698493333332
558,4.649814000000333,-4.3823847769999995,11.784485496666667,-141.48426053333333,-4.363500356666666,-0.8165860073333334,12.448782761666665,-8.150345484333334,30.476701100000003,-1.1032700936666666
559,4.658147000000099,-4.482483386999999,11.883918443333334,-141.49654133333334,-1.9898141023333336,-1.037904764,12.993923823666668,-12.063684462,11.518549283333334,-0.9927013206666667
560,4.66648000000032,-4.603908856666667,12.064965566666666,-141.51317600000002,-4.1993573306666665,-1.6863479613333332,18.09030977666667,-14.454325676666668,21.319862046666668,-0.666614771
561,4.674813000000086,-4.675311565666667,12.265064240000001,-141.5404434333333,-2.9297054706666668,-0.43127125033333336,14.896992681999999,-8.235745588999999,23.694821039999997,-1.7315232953333333
562,4.683146000000306,-4.749890645333333,12.435010273333333,-141.5604604,-3.328354557333333,0.928653717,14.724378903333333,-8.737283705000001,20.01776568,-1.1143775383333334
563,4.691479000000072,-4.830477396666667,12.609448116666664,-141.58485156666666,-1.6623680193333332,-1.228295202,12.905086836666667,-9.381674132333334,20.603013993333334,-1.5660079756666667
564,4.699812000000293,-4.897496382666667,12.825826326666666,-141.60838569999999,-5.585491180666666,-0.74712193,18.430108706666665,-7.761904556000001,25.619925183333333,-1.0060294369999998
565,4.708145000000059,-4.951828638666667,13.05276394,-141.63684336666668,-0.9829656443333333,0.9659301686666667,13.184981347333334,-6.073942025333333,26.9153773,-1.4448614423333332
566,4.716478000000279,-5.03618145,13.18802325,-141.6565221333333,-3.1935766539999997,-2.124176502,14.478441236666667,-9.930761655,15.893821396666667,-1.3662594559999999
567,4.724811000000045,-5.097139676333334,13.425600366666666,-141.675738,-4.0210842289999995,0.230053117,14.11653169,-7.079019229,28.073969523333332,-0.1485282976666666
568,4.733144000000266,-5.1424272853333335,13.587955156666666,-141.6878306,-1.5304708083333332,-2.0968770429999997,9.955433687333333,-5.4675395490000005,19.06236426,-0.19559012866666667
569,4.741477000000032,-5.2010272340000006,13.76111539,-141.70992786666667,-3.2627067566666668,-1.085775455,15.775306383333335,-6.676686447333332,20.405208586666664,-1.121395667
570,4.749810000000252,-5.241318384666667,13.93424956,-141.71874746666666,-1.7151487466666666,1.2133255503333333,15.494321186666665,-4.988447983333333,20.31732718,0.3731999396666666
571,4.758143000000018,-5.296163241333333,14.023229596666667,-141.7279409,-2.0276557603333334,-0.24728644533333333,18.246431986666668,-6.5716199983333325,10.205162526666667,-0.502401352
572,4.766476000000239,-5.366305669,14.204580626666667,-141.74863943333332,-3.3272902966666664,-1.7989122870000003,13.146809576666667,-8.225008330333333,21.435894963333336,-0.8431446156666667
573,4.774809000000005,-5.437741120999999,14.261705396666668,-141.75192513333334,-0.8255889020000001,0.11577294533333332,11.403083166333332,-8.732371809,6.329572677333334,-0.19042881333333325
574,4.783142000000225,-5.505840778333333,14.322721483333334,-141.75676726666666,-1.4460847876666667,-1.213889519,15.261479696666667,-8.451986153999998,6.876176914666668,-0.29235708233333363
575,4.791474999999991,-5.576155662666667,14.403657596666667,-141.75196583333332,-3.9928853513333333,-0.19036352633333334,14.591225943333333,-8.828313985000001,9.086476008,1.054768701666667
576,4.799808000000212,-5.646966298666666,14.439586640000002,-141.7488098,-1.2848012793333334,-1.574486176,14.43647893,-9.009423892333333,3.7869753046666665,0.34452023099999973
577,4.808140999999978,-5.726699829,14.475746793333334,-141.74468233333334,-3.22975866,-0.329585356,15.691508930000003,-9.951498032666668,3.7467437586666663,0.4818250416666669
578,4.816474000000198,-5.787957191666667,14.520690283333336,-141.74369553333335,-1.867409229,0.36703668033333336,13.179617246666666,-7.796060403666668,4.897130648,0.2080819310000003
579,4.824806999999964,-5.812341213333333,14.492088953333335,-141.7268829,-1.6152557533333332,0.345835492,14.160652796666668,-3.6799761056666664,-4.145058075666667,1.1438037156666665
580,4.833140000000185,-5.815624078,14.470515569999998,-141.71118926666668,-1.673462182,-0.828469187,18.320500373333335,-1.293035984,-3.218954072666667,1.1149026553333332
581,4.841472999999951,-5.794073582,14.448039053333334,-141.6895065,-3.0817079446666664,1.4241922893333332,15.975752829000001,1.6809299190000002,-3.467501540666667,1.8064315316666664
582,4.849806000000172,-5.762972673,14.381154700000002,-141.66841126666668,0.2807452876666668,-0.251146386,10.977560677333335,2.6828779380000003,-8.682299771333334,1.156853825
583,4.858138999999937,-5.692414442666667,14.273653349999998,-141.62738036666667,-4.064862648666667,-1.0463782449999999,13.533156078,6.983466625333333,-13.837551753333335,3.0146811406666667
584,4.866472000000158,-5.582515557333333,14.157441456666668,-141.5873642,-2.056213359,-0.40977793933333334,15.388852436666667,11.611961047333333,-14.797617913333335,2.876893987333333
585,4.874804999999924,-5.441371123,14.042054810000002,-141.53253173333334,-2.399353127,0.04117528600000001,14.839742976666665,15.046068669999999,-14.917796453333333,4.548172116333333
586,4.8831380000001445,-5.311103503000001,13.877521833333333,-141.48081463333332,-2.187517444333333,-0.5457680226666667,17.26527627666667,13.789359092333333,-20.695450463333334,3.69353652
587,4.891471000000365,-5.208726406,13.764509519999999,-141.42247263333334,-4.502688328333333,-1.3233493203333333,17.078931486666665,10.282055856,-14.63101641,5.079547246333333
588,4.899804000000131,-5.126749197333333,13.649526596666666,-141.37489319999997,-1.2851305406666667,-2.287403186,12.708247183333333,8.122229894333335,-14.727130256666667,3.9209809303333336
589,4.908137000000352,-5.055506070666666,13.484362283333333,-141.3204422,-3.6450418633333332,-0.7070337436666668,12.841603596666667,6.695141157333334,-20.80948321,4.100349903000001
590,4.916470000000118,-5.020282904333333,13.400834083333335,-141.28117626666668,-2.9235253730000004,-2.54551057,9.742449763000002,2.7743978499999997,-10.862708409666666,3.2990328466666665
591,4.924803000000338,-4.954806804666666,13.260744729999999,-141.23992156666668,-3.080224593666667,-1.5637954076666667,13.304476263,6.387230952666667,-17.674585343333334,2.866844217
592,4.933136000000104,-4.8791149460000005,13.145139376666668,-141.2105102666667,-2.712527792,0.4239796896666666,20.122891743333334,7.991093693,-14.576355936666667,1.5475484533333332
593,4.941469000000325,-4.834433237333333,13.04826673,-141.18773396666666,-2.121181845666667,-1.6844354866666666,13.628400325666666,4.406110346333333,-12.306625683,1.2045949273333332
594,4.949802000000091,-4.8086029686666665,12.875635466666667,-141.1710358,-2.2489133409999997,-1.4992498756666668,12.925443969999998,2.3347128233333336,-21.293378833333332,-0.2544647253333333
595,4.958135000000311,-4.791125456333334,12.687910396666666,-141.1499964666667,-2.652128935,-0.346669495,17.281579336666667,1.1834464866666667,-23.14306196,0.12067334866666653
596,4.966468000000077,-4.756539980333334,12.521864573333332,-141.12996676666668,-1.430995941,-1.9308475183333336,11.916032474666666,3.312383056,-20.53105227,0.22114057833333342
597,4.974801000000298,-4.731693109,12.265950836666667,-141.10401153333336,-2.0965994196666666,-1.1732815403333332,11.84394582,1.9726904483333334,-31.356824876666668,0.02149871999999986
598,4.983134000000064,-4.7380805016666665,12.041635513333333,-141.07615153333333,-4.278767347666666,-0.540019922,13.67877229,-1.8362985053333334,-27.59115537,0.7506384053333335
599,4.991467000000284,-4.707979997,11.797904966666666,-141.05151623333333,-1.7935526866666667,-2.542679191,13.651820979,2.671272079,-29.883511226666666,-0.0031549930000000317
600,4.99980000000005,-4.644593874666666,11.497498195333334,-141.021609,-3.732799371,0.13580693800000002,18.357469876666666,6.537772655333332,-36.71307373333334,0.2553911606666666
601,5.008133000000271,-4.625341256333333,11.252928736333336,-140.99965410000001,-2.470778703666667,-1.4515596229999999,14.436657903333334,1.4512615999999998,-29.956752776666665,-0.2577263463333333
602,5.016466000000037,-4.606486956333334,10.946094194666665,-140.9729182,-2.6714463693333337,-1.413716644,13.793651580333332,1.3841872613333333,-37.41440200666667,-0.5510098139999999
603,5.024799000000257,-4.605200449333333,10.655909222333333,-140.94781243333333,-3.7719885509999997,-0.8861143636666666,19.26239999,-0.7636757296666667,-35.44580777666667,-0.2890948456666667
604,5.033132000000023,-4.6183009146666665,10.400837582000001,-140.93293253333331,-2.408463955,-2.358228008,10.906601270000001,-2.1825528146666664,-31.123319626666667,-1.3939703246666666
605,5.041465000000244,-4.647524674666666,10.054200172,-140.9244868,-3.4294285773333333,-1.3088865953333333,13.296711606666667,-4.014282067666667,-42.03889083666667,-2.8320597709999995
606,5.04979800000001,-4.672071774666667,9.825837452666667,-140.91725160000001,-4.055545648,-1.9595447406666666,10.591409526333335,-3.36928157,-27.83978971,-2.1772583373333334
607,5.05813100000023,-4.675611655,9.526981512666667,-140.91830953333331,-2.270038485666667,-1.665990630666667,14.785850523333332,-0.7272189756666666,-36.23527908333333,-3.515318473
608,5.066463999999996,-4.681343237666667,9.30989011,-140.91362256666667,-5.518174012666667,-0.542314147,17.64733219,-1.0900577706666665,-26.457262036666663,-2.2998182773333333
609,5.074797000000217,-4.709517955666667,9.099829673,-140.92414349999999,-1.917559743,-1.7915993529999998,12.198045729999999,-3.483995358333333,-25.533123653333334,-3.7884928383333336
610,5.083129999999983,-4.7561809219999995,8.861768881333333,-140.92798873333334,-5.028833786666667,-1.9449594616666668,14.539188066666666,-5.840921083999999,-28.893981296666666,-3.5150696039999993
611,5.091463000000204,-4.811946074333333,8.685964584666666,-140.94162243333332,-1.7860396106666665,-1.2316571473333333,11.721163429333332,-6.746690670666666,-21.403418860000002,-3.7909936903333334
612,5.099795999999969,-4.899092515333333,8.482890764666665,-140.94238536666668,-4.411630471333333,-3.304219643333333,13.115568796666667,-10.844323474666666,-24.763194400000003,-2.4077266453333337
613,5.10812900000019,-4.979754607,8.398102760333336,-140.96127320000002,-3.9838364126666668,-0.5572178586666667,11.614974023,-9.633054733333333,-10.461017607666667,-3.5629918573333335
614,5.116461999999956,-5.114171505000001,8.240066528333333,-140.98859406666668,-2.775723556666667,-1.9151653646666669,12.447690326666667,-16.042034153333333,-19.10258706666667,-5.13262558
615,5.1247950000001765,-5.2674736976666665,8.172344843666666,-141.0440725,-4.743249813666667,-2.150110642,12.627671558333333,-17.779204686666667,-8.005577882333332,-7.743271033
616,5.133127999999942,-5.463469505333333,8.231727917999999,-141.12613423333335,-5.081486860666666,-2.729446490333333,6.451942523333333,-22.45188141,7.522971828999999,-9.506900468
617,5.141461000000163,-5.674528916333333,8.177396933333334,-141.19940946666665,-3.2508227030000003,-1.0850691796666667,8.114033578333334,-24.391404469999998,-6.155027866666667,-9.744805653666665
618,5.149793999999929,-5.939601262333333,8.396739642,-141.28732046666664,-5.638009866,-2.466109514,8.131000360333333,-30.64929517,26.759680430000003,-8.187337716
619,5.15812700000015,-6.213132222666666,8.512611389,-141.3543803,-3.525771538333333,-1.3329472740000001,9.237455050333333,-31.956570943333336,14.153995831333333,-6.879811764
620,5.166459999999916,-6.520120620666667,8.811411380666668,-141.41948190000002,-6.141403675,-0.8740178,7.841918308333334,-36.045398713333334,35.99142392666667,-4.027139425333334
621,5.174793000000136,-6.848641395333334,9.132284164,-141.46489463333333,-1.387418628,-0.9501148660000002,2.748076399,-38.88190332666667,38.35056432,-1.3221071016666663
622,5.183126000000357,-7.208491007666666,9.453860919333332,-141.50832366666668,-3.932012399,-2.0890507696666667,7.6391535610000005,-42.73127746666666,38.42547480666667,-0.6864423753333333
623,5.191459000000123,-7.533351262333333,9.922228493333334,-141.5549596,-4.484740337,-0.14084398733333328,4.710749666,-38.34790802,55.922035216666664,1.3194223246666665
624,5.199792000000343,-7.875110467,10.290219941333334,-141.58425396666667,-1.006699145,-1.9552829663333335,3.516690554,-40.79657364,43.71815490666666,2.222197095666667
625,5.208125000000109,-8.231665293333334,10.907958032333333,-141.6570562,-6.447811126666667,-0.315451741,6.393695991333334,-41.50638198666667,74.07790247666667,1.4769200483333333
626,5.21645800000033,-8.601050059333334,11.287757875000002,-141.7036031,0.25646925466666665,-1.504951338,-1.1611804956666667,-43.61712265,45.38034312,0.89797767
627,5.224791000000096,-8.957043965666665,12.007147153333333,-141.83406576666667,-5.2634749413333335,0.5364648399999999,9.067250372333332,-39.86461512333333,87.12960561,-2.3908448220000005
628,5.233124000000316,-9.319871266333331,12.487160366666666,-141.93027243333333,-1.2680072786666667,-1.2216236443333333,-2.262631675333333,-41.48829269666666,58.15266545666666,-2.265902996
629,5.241457000000082,-9.655073166000001,13.073928836666667,-142.05911509999999,-1.8539164163333333,0.4683342303333334,2.987367788666667,-37.109363556666665,71.41065725,-3.744986812333334
630,5.249790000000303,-9.956702233666666,13.657679876666664,-142.17232256666668,-0.162264327,-0.5348065989999999,3.7082192100000007,-33.476406733333334,70.77385965666666,-1.470836401
631,5.258123000000069,-10.241089186666665,14.219187416666665,-142.28239440000002,-2.6617013613333333,0.36477890500000004,4.531712194,-31.24149767666667,68.05982716999999,-1.2244205476666667
632,5.266456000000289,-10.51099046,14.77438831,-142.38805643333333,-0.9320684773333333,0.3831576186666666,2.178338607,-29.639866513333335,67.22933959999999,-0.42828065166666685
633,5.274789000000055,-10.734170593333332,15.283210436666666,-142.48675536666667,-1.3540579873333334,0.3211268583333333,2.5541790326666667,-23.990276656666666,61.59967167999999,-0.4274981020000001
634,5.283122000000276,-10.920139313333332,15.76396338,-142.58640286666665,-0.04016375500000002,0.583279133,1.8225387336666667,-19.52017911333333,58.31682459333334,-0.8761509656666666
635,5.291455000000042,-11.086853346666667,16.19270261,-142.67341869999998,-0.16283062133333337,0.6663451393333333,0.25427969300000003,-17.424386343333335,51.897452036666664,-0.4804593176666665
636,5.299788000000262,-11.213165916666668,16.549093566666667,-142.7554906,0.41816524166666663,0.041968802666666694,2.4428716300000004,-12.775925953333333,43.279658000000005,-1.4167133173333335
637,5.308121000000028,-11.294464113333333,16.852554006666665,-142.82198333333335,-0.14517386766666673,0.508398841,1.4456891613333334,-7.772863389,36.687303543333336,-0.8278140623333335
638,5.316454000000249,-11.340271313333332,17.07954374666667,-142.8766072666667,0.6057914693333334,0.14667146900000003,3.195214152333333,-3.9390550853333335,27.43791580333333,-1.2873936689999999
639,5.324787000000015,-11.354778293333332,17.237360636666665,-142.91575113333332,-0.06665161233333332,0.4803242433333333,2.7037550209999996,-0.6796147026666666,18.938316025333332,-1.1094252666666666
640,5.3331200000002354,-11.342157363333333,17.339310963333332,-142.9458033,0.4483420053333334,-0.12404688733333331,2.3603041173333335,2.246846676,12.170814832333335,-1.4485832850000004
641,5.341453000000001,-11.310217539999998,17.365099906666668,-142.9566854,-0.0075987580000000205,-0.05013868699999999,0.7927383976666666,3.894102335,2.763793627333334,-1.0453551906666665
642,5.349786000000222,-11.245942433333333,17.33622741666667,-142.95343016666666,0.31153412666666647,0.072859779,1.8630018830000001,7.254614513,-3.984008630666666,-0.7364733216666665
643,5.358118999999988,-11.149345079999998,17.240614576666665,-142.92869056666666,-0.42298994500000003,-0.2872485716666667,1.1054626803333332,10.377239226,-12.322304089333334,0.12314430866666666
644,5.3664520000002085,-11.038725853333332,17.09564908333333,-142.89296466666667,0.29811509466666664,-0.07593980166666665,2.640479465333333,11.701821328666668,-18.364399275333334,0.18952467033333345
645,5.374784999999974,-10.911192576666666,16.89673551,-142.84508006666667,-0.7420730193333333,-0.566579106,1.862180705,13.282277425666669,-24.995953243333332,0.4152234793333334
646,5.383118000000195,-10.77770265,16.65451240333333,-142.79937233333334,0.20133707933333334,-0.105068644,3.6386719146666664,14.14155229,-30.040013630000004,-0.7931062780000002
647,5.391450999999961,-10.639261246666665,16.37844880333333,-142.74854533333334,-1.3552337886666666,-1.095201075,1.6291634640000001,14.512517926666666,-34.15339724333333,-0.8522508143333335
648,5.3997840000001815,-10.501952173333335,16.068664549999998,-142.70940396666666,-0.3213195800000002,-0.11050583399999998,3.592576106333334,14.87605826,-37.877084733333334,-2.8515637713333337
649,5.408116999999947,-10.35807387,15.738418260000001,-142.66268413333333,-1.496919820666667,-1.151751727,1.5091338356666668,15.348403929999998,-40.46454112,-2.3138446013333334
650,5.416450000000168,-10.210025787333334,15.38642152,-142.62954456666665,-0.958102147,0.09513619066666668,4.379019658,16.42592462,-42.758543653333334,-4.224472529000001
651,5.424782999999934,-10.070303597333334,15.049013136666668,-142.5866038,-2.1567490093333337,-1.316846689,1.6234525836666664,15.039684293333332,-41.23860677,-2.7013367019999994
652,5.433116000000155,-9.956977846000001,14.721051533333332,-142.55893196666668,-1.4687506356666669,-0.598255694,1.4128832820000004,12.488293646666667,-39.829643886666666,-4.165383299
