,time,Euler_X,Euler_Y,Euler_Z,Acc_X,Acc_Y,Acc_Z,Gyr_X,Gyr_Y,Gyr_Z
0,0.0,0.4937344393333332,24.375033693333336,-35.74879456666667,-1.7314728896666667,0.18240516366666668,11.790351869666665,47.7539711,-7.032121798333335,13.722288133666666
1,0.0083329999999932,1.0158581386666665,24.159044899999998,-35.60306293333333,-1.3779730996666666,0.32678481933333337,9.228436152666667,55.096594493333335,-26.100754416666664,15.928251266666669
2,0.0166659999999865,1.5582241019999998,24.092205046666667,-35.45194246666667,-3.68928198,0.9025995460000001,11.523217281666666,57.27989196666667,-8.229554494,16.44440174
3,0.0249989999999797,2.1423533756666666,23.89775785,-35.30780536666666,0.023297707333333362,-0.028123790999999992,9.003978094,62.693304700000006,-23.20546023,16.19448058
4,0.033331999999973,2.7728179293333337,23.774943033333333,-35.1493912,-4.229539235666667,0.4544477463333334,8.592147509333335,67.58553187333332,-14.511621793333333,17.69567744
5,0.0416649999999663,3.478513797,23.654313403333333,-34.98932646666667,-1.1895628966666667,1.6545199356666664,11.87506326,76.57523600333333,-13.945051192333333,17.99360784
6,0.0499979999999595,4.193246841333333,23.48061307333333,-34.82946523333333,-3.142404158666667,-0.5414023173333333,7.581429799333333,77.70346323666668,-20.19752216666667,18.574788726666668
7,0.0583309999999528,4.9592424233333325,23.424891153333334,-34.66856636666667,-1.8000514856666667,0.015801459666666684,10.187089443,83.86246999000001,-5.658283233333333,17.828297293333332
8,0.0666639999999461,5.758748849333333,23.26641146333333,-34.5134786,-2.243454456333333,1.4090046880000002,9.484141984333334,88.15815480333333,-17.936427433333336,18.386605583333335
9,0.0749969999999393,6.599033038000001,23.214635213333334,-34.344078033333325,-3.385239124,-0.842833857,10.610250154666666,92.439888,-4.573238988666667,18.87963295333333
10,0.0833299999999326,7.467307567666668,23.08130264,-34.19609069999999,-1.131750097,-0.16036108666666665,9.323323883999999,96.83437855,-14.401424086666667,17.820533436666665
11,0.0916629999999258,8.348619302333335,23.018484753333336,-34.03419493333334,-3.2220719653333334,1.055996835,10.913129331999999,97.75069174666665,-5.494590501,18.339455923333333
12,0.0999959999999191,9.248897552666666,22.910630546666667,-33.8926341,-0.7888089316666665,-1.62803787,9.990613303,100.99424489666667,-11.006611822666665,17.16209094
13,0.1083289999999124,10.162992162666667,22.80472374333333,-33.737742100000006,-3.4386770726666662,0.06581401833333338,11.366292001666666,102.0988541,-10.04426074,18.605197906666668
14,0.1166619999999056,11.071816761666668,22.716410320000005,-33.60353343333333,-1.411850949,-0.320100407,8.825094223,102.41525013333334,-8.285451413666665,16.314800263333332
15,0.1249949999998989,11.992411616666667,22.58874321,-33.45797223333334,-2.483524322666667,-1.6418839693333334,11.71622467,103.38860066666666,-12.171650093000002,18.409952166666667
16,0.1333279999998922,12.903558413333334,22.486685433333335,-33.34049736666666,-1.963141183,-0.12510267433333333,10.311447144333334,103.51822153333335,-9.735957067,15.126659393333334
17,0.1416609999998854,13.791640916666665,22.362665813333333,-33.20902253333333,-2.6428969700000002,-1.8406484923333333,13.595550853333334,100.18419138333333,-11.547794500666667,17.204924266666666
18,0.1499939999998787,14.667298953333335,22.244018556666663,-33.099861133333334,-3.2276084419999997,-1.731030225666667,8.714589278333333,99.65911864666667,-11.477742035666667,14.987863223333335
19,0.158326999999872,15.532085420000001,22.15143458333333,-32.97807566666666,-1.288051804,-0.9075647689999999,13.634128250000002,97.93440756666666,-7.560593526999999,15.513071696666664
20,0.1666599999998652,16.334797226666666,22.000500363333334,-32.901435866666674,-2.4691871009999997,-2.457110007666667,9.672156652,92.40522765333333,-15.765021006666666,12.865727743333332
21,0.1749929999998585,17.12898858666667,21.91596158333333,-32.794283533333335,-2.536153048,-2.3571143146666667,12.444101809000001,90.16722615333333,-6.646069208666667,13.957513490000002
22,0.1833259999998517,17.847871146666666,21.770115536666665,-32.72482806666667,-0.7613528173333334,-1.5383855103333335,12.518505732,82.75977579666666,-14.965058643333334,12.273086229999999
23,0.191658999999845,18.534173963333334,21.642045336666666,-32.65878803333333,-3.057566404333334,-2.9476724463333333,7.787949403000002,79.05890401333333,-12.719609736666667,11.478650093333334
24,0.1999919999998383,19.20889282,21.545573553333337,-32.57754006666667,-0.7226815223333333,-1.6260130406666666,16.12151432,76.95526885999999,-8.674774169333334,11.927007678
25,0.2083249999998315,19.789007190000003,21.38380305,-32.53438823333334,-2.5560578306666666,-2.330649376,6.645545482666667,67.3955396,-17.042459486666665,10.693122226999998
26,0.2166579999998248,20.340520223333332,21.275522866666666,-32.47952016666667,-1.0050965003333332,-2.8434684276666666,12.128930728666667,63.34320322666667,-10.750206470666667,9.871121247666666
27,0.2249909999998181,20.836785000000003,21.154539106666665,-32.44073996666666,-2.5950647593333334,-1.857408285,14.78334109,57.567802426666674,-12.41983954,8.782470860666665
28,0.2333239999998113,21.239976883333334,20.998064680000002,-32.40413666666667,-1.2741584973333333,-2.6951398053333335,5.722023407666668,46.407068890000005,-16.61691125333333,10.231983503
29,0.2416569999998046,21.59910202,20.85311126666667,-32.406796766666666,-2.040875117,-3.9568912186666663,12.60711765,42.84955724,-16.729797998,5.732353687333333
30,0.2499899999997978,21.90787887666667,20.70708402,-32.382522599999994,-0.8630445176666667,-1.763919135,13.586123149999999,35.59460449,-15.889782586666668,8.683373611
31,0.2583229999997911,22.103185016666668,20.538083393333334,-32.406260133333326,-3.372188568,-2.688634435333334,7.83995978,24.11626498,-20.164868356666666,4.751442114666666
32,0.2666559999997844,22.27357546666667,20.38673528,-32.40813956666667,-2.0747610726666665,-2.6328847406666664,14.75769615,20.096288363333333,-17.508196196666663,6.318690935666667
33,0.274989000000005,22.393602373333334,20.255514146666666,-32.43386586666667,-2.4799549183333336,-1.4359745186666668,14.669451076666668,15.202417054666666,-16.018392563333332,2.9376777806666667
34,0.2833219999999983,22.428925833333334,20.086736043333335,-32.44516503333333,-1.036594361,-2.3725294273333337,8.389328481000002,4.3502310123333325,-19.743132273333334,6.214861393
35,0.2916549999999915,22.443632126666667,19.955958046666666,-32.47685243333333,-2.6769277253333335,-2.690568645666667,11.320301690333332,2.7333097446666668,-16.29013761,2.3025284606666667
36,0.2999879999999848,22.442061106666667,19.821943923333333,-32.47377013333334,-1.2922180346666667,-1.1492443086666666,13.098478,-0.6746640206666665,-15.337007682000001,6.186765512
37,0.3083209999999781,22.36063385,19.677687326666668,-32.50400033333333,-2.023699839666667,-1.8630377850000002,7.979033630666667,-8.810596069333332,-17.64859009,3.0556042196666664
38,0.3166539999999713,22.278557460000002,19.616217296666665,-32.485031133333344,-3.4866409303333334,-1.578475932,12.865083059999998,-11.008642353,-6.622826336333333,4.471601764333333
39,0.3249869999999646,22.144107180000002,19.479704536666667,-32.5107193,-1.6402054033333335,-0.8364653590000001,13.069931983666669,-15.338690916333334,-16.59226926,3.170723676666667
40,0.3333199999999578,22.00651487,19.432291666666668,-32.482246366666665,-4.2424708209999995,-1.7528037226666668,9.640887579333333,-17.997376442666667,-4.605005899999999,4.781317472333334
41,0.3416529999999511,21.806062063333332,19.392192203333334,-32.479906699999994,-0.1277086736666667,-1.1206902063333333,12.877702076666667,-24.432300886666667,-4.761914332666667,1.7294178059999998
42,0.3499859999999444,21.587148663333334,19.26802508,-32.4883906,-2.994390567,-1.192664447,6.459918657999999,-26.35610835,-14.814901034333333,4.274315118666666
43,0.3583189999999376,21.35844167,19.275658923333335,-32.47342426666666,-1.0967726013333332,-2.0352966390000002,11.392868041333335,-28.262973146666667,1.153127432,0.8873922826666666
44,0.3666519999999309,21.066836676666668,19.126068753333332,-32.511960333333334,-1.1398325763333332,-0.6781537036666667,11.060114225333335,-33.883495329999995,-18.931845983333336,2.1009381563333336
45,0.3749849999999242,20.765445706666668,19.140345253333333,-32.49199166666667,-2.1801564693333333,-0.851178944,7.010010083333333,-37.18512217333333,2.0927537283333333,1.1271042426666666
46,0.3833179999999174,20.476667403333334,18.997927983333337,-32.54107413333333,-1.7407157023333335,-0.014300897666666682,11.873527049666668,-33.073710760000004,-18.494162876666667,0.48031457266666666
47,0.3916509999999107,20.20386187,18.963020323333335,-32.54177603333333,-2.1459492443333334,-0.30953004466666667,12.168913048,-33.002181369999995,-4.3472607136666666,1.0143033066666667
48,0.3999839999999039,19.90556971,18.886781053333333,-32.5589549,-2.2017589213333335,0.7714063823333334,11.734409969,-35.53411356666667,-9.886901536666665,0.9760999283333334
49,0.4083169999998972,19.602577846666666,18.791690826666667,-32.58859253333333,-1.0289580076666667,-0.44440143800000004,9.277687867,-35.41273752666667,-12.195489883,0.33185428366666664
50,0.4166499999998905,19.36376572,18.727867126666666,-32.60368343333334,-2.982343514666667,-0.174948988,11.746226311000001,-28.476392110000003,-8.408366361666667,0.650721411
51,0.4249829999998837,19.104453406666668,18.608768463333334,-32.61781056666666,-0.5822862830000001,0.05767860033333335,11.667382558,-30.76058514666667,-14.357647735666665,2.8180341720000004
52,0.433315999999877,18.84614690333333,18.562782923333334,-32.65008796666667,-3.5216938656666663,-0.33751755933333333,8.305036385666668,-30.09365336,-6.934710027333334,-1.9513965843333334
53,0.4416489999998703,18.600102106666668,18.449295046666666,-32.67071533333333,-1.2128807903333334,-0.6055664023333333,10.747358161333333,-29.02463976333333,-14.051909606666667,1.744595607
54,0.4499819999998635,18.381237663333334,18.38691584,-32.720024099999996,-2.7034459510000004,0.33959012233333336,11.411236922999999,-24.820394516666664,-9.463829677333335,-3.234200666
55,0.4583149999998568,18.15085093,18.314256669999995,-32.7649841,-2.584518969,0.6946596106666667,11.51660347,-26.156247460000003,-10.195168971666666,-2.5239471989999998
56,0.46664799999985,17.922789256666665,18.216002146666668,-32.8473002,-2.342373391,0.14626024166666665,10.657838504333332,-24.74012374666667,-14.69059372,-5.634269058666665
57,0.4749809999998433,17.73395157,18.127159753333334,-32.9246928,-1.591551304,0.48907566566666666,11.330354689666665,-19.94040235,-13.158535003333332,-5.4536151093333345
58,0.4833139999998366,17.56656456,18.043561299999997,-33.01551056666667,-2.3508685029999996,0.003669872666666666,11.551176706666666,-17.071307496666666,-13.211563744666668,-7.199490547
59,0.4916469999998298,17.403028486666667,17.923139573333334,-33.111651099999996,-1.2573751323333333,0.571436728,9.671369236333332,-16.304656026666667,-17.484558743333334,-6.464028835333334
60,0.4999799999998231,17.221757253333333,17.78830401,-33.227829,-0.05469020200000019,-0.7600992000000001,9.632270971333334,-17.898256936666666,-19.99667104,-8.166447003666667
61,0.5083129999998164,17.093233743333332,17.681821186666667,-33.30992636666666,-3.490935445,-0.9693027339999999,8.329961935999998,-12.572000823333333,-15.304955483333332,-5.556489229333334
62,0.5166459999998096,16.99715360333333,17.553410213333333,-33.41826886666667,-1.8235171633333334,1.1516429186666668,10.329692524,-8.013289293333333,-18.970398586666665,-7.658292611333334
63,0.5249789999998029,16.90778541666667,17.41615931,-33.48839316666667,-3.6999991736666664,0.9885398546666666,13.70516157,-8.313718637000001,-18.41440614,-3.1770378153333336
64,0.5333119999997962,16.791065216666667,17.357138316666667,-33.5469462,-1.736808141,0.1224171423333333,10.833447139666665,-12.218709313333335,-9.243521690333333,-4.655149141999999
65,0.5416449999997894,16.69651158666667,17.266321816666665,-33.60969036666667,-2.5405348539999997,-0.7357957860000001,6.786546785333333,-9.317640621666667,-12.907989503333333,-4.053752422333333
66,0.5499779999997827,16.63041877666667,17.24277814,-33.64340970000001,-2.981424351333333,-1.515643259,7.6054763796666665,-7.139021991666667,-4.417791061,-3.1866676013333333
67,0.5583110000000033,16.56478309666667,17.23012542666667,-33.68578593333333,-5.065280258666667,0.32018882,10.181792258,-6.500398635666667,-3.152438601,-4.517583291
68,0.5666439999999966,16.505831716666666,17.326333363333333,-33.66887916666666,-4.98879989,0.35835418133333335,12.83534781,-8.064712524333332,11.010197959000001,-1.6947834886666666
69,0.5749769999999899,16.39973418,17.423470816666665,-33.68022663333334,-1.6663284003333334,-0.5972899993333333,7.770168781333333,-12.450153669999999,10.499057809,-4.824229240333334
70,0.5833099999999831,16.32019043,17.578997293333334,-33.632202166666666,-3.069419264666667,-0.586615133,4.725408077333333,-11.591593899000001,18.93173106433333,-0.26290862466666665
71,0.5916429999999764,16.244490306666666,17.796644843333333,-33.59738923333334,-3.232795278333333,-0.3435883573333332,11.483985267666668,-10.580926100333333,25.78561433,-3.7896806400000003
72,0.5999759999999696,16.19855944,18.022913613333333,-33.523788466666666,-4.11894838,-0.7088994783333332,7.955314317,-8.641037781666666,27.799263636666666,0.19343153633333335
73,0.6083089999999629,16.149699530000003,18.260378520000003,-33.4474818,0.23402365066666656,0.03808248066666664,1.3204525313333333,-8.837388036999998,29.47163264,0.10600876800000003
74,0.6166419999999562,16.11723296,18.50367419,-33.3869171,-3.4066258270000005,0.326280713,8.935247261666666,-6.620192686666667,29.35239728,-1.8335749906666667
75,0.6249749999999494,16.107846576666667,18.721469879999997,-33.287132266666674,-0.963416656,-0.8895981313333333,11.91051515,-5.066900968333333,27.93677775,3.3484362759999997
76,0.6333079999999427,16.068225226666666,18.91556168,-33.249013266666665,-2.4199093179999998,0.8202198346666667,6.944432893666668,-6.5594167709999995,23.056512833333333,-2.638447125666666
77,0.641640999999936,16.037245113333334,19.091165543333332,-33.170967100000006,0.2354088826666667,-0.7119326156666667,7.813024998,-6.998102107666667,22.300530116666668,2.340053658
78,0.6499739999999292,16.04329014,19.221412023333333,-33.14424386666666,-2.6395328043333333,-1.3832231363333332,9.084290025,-0.7567727963333333,15.256438253333334,-1.7514930563333335
79,0.6583069999999225,16.057787573333332,19.318826036666668,-33.11164346666667,-1.0840946633333333,1.4750773510000001,8.729846556333333,0.3178895909999999,11.939067840666667,-0.017029216000000003
80,0.6666399999999157,16.05674076,19.37101809,-33.11883543333334,-1.3103755516666666,-0.8696980873333334,8.220985094666668,-0.27744084566666666,5.190666558,-2.8589074226666664
81,0.674972999999909,16.08483855,19.374931973333332,-33.11206309999999,-0.5751003026666667,0.427483032,11.410803160666667,2.969637473666667,0.3482472889999997,0.27023009466666664
82,0.6833059999999023,16.09780216333333,19.351020176666665,-33.158955866666666,-2.2507316866666667,-0.526281769,7.359878063333333,3.0713734626666667,-4.747321924333334,-4.643767436
83,0.6916389999998955,16.152661003333332,19.276707329999997,-33.181124366666666,-0.9718361,0.014016773333333349,10.515341122333332,7.242916742666666,-9.662348747666668,-0.27166438099999995
84,0.6999719999998888,16.18055375333333,19.180508296666662,-33.25068663333333,-2.803548654,-0.4712903896666667,10.623507660000001,5.7290948230000005,-13.799752275000001,-4.695249120333333
85,0.7083049999998821,16.234340666666668,19.04347547,-33.297383599999996,-1.2946477319999998,-0.39734933766666664,8.347845235,8.084132671333332,-17.664257686666666,-0.8213717143333333
86,0.7166379999998753,16.261340776666668,18.889932633333334,-33.38531749999999,-2.3135756653333335,-0.6004703343333334,10.595307032333332,6.206498622666666,-21.08684508,-4.770457347
87,0.7249709999998686,16.320431393333333,18.700454076666663,-33.4555817,-0.9139090973333334,0.04295513033333331,10.563989638,9.713832535666667,-24.373887383333336,-1.5903205376666667
88,0.7333039999998618,16.337796530000002,18.502660753333334,-33.55535126666667,-3.5371348856666667,-1.1014072596666666,12.469480516666666,5.440846681333333,-26.572439193333334,-4.55883344
89,0.7416369999998551,16.373429613333332,18.291183469999996,-33.6317164,-1.5665249426666668,-0.940265159,7.568280538000001,7.086870033666667,-27.10777537,-1.500615279
90,0.7499699999998484,16.38290659666667,18.095322926666665,-33.740280166666665,-2.982046286333334,-0.189277634,12.49726709,4.865081548666667,-26.556098936666668,-5.565696001
91,0.7583029999998416,16.399589536666667,17.884720483333336,-33.81908163333333,-2.4692877133333333,-1.2194479703333334,8.568807441333332,4.735337554333333,-27.182262423333338,-1.81021066
92,0.7666359999998349,16.391130126666667,17.687671026666667,-33.917505899999995,-3.7742535273333337,-1.0776504279999999,11.553474428333333,2.149825414,-26.462221780000004,-4.451270420999999
93,0.7749689999998282,16.361302376666668,17.52747281666667,-33.98966216666667,-2.367649595,-0.41706843666666665,11.542140959333333,-1.013737360333333,-21.088892936666667,-2.774288356333333
94,0.7833019999998214,16.313811303333335,17.381526313333335,-34.082560199999996,-4.359045823333333,-0.6273893416666666,8.759546596,-2.803627809,-20.39460945,-5.610475301666667
95,0.7916349999998147,16.273302076666667,17.246857960000003,-34.14156846666666,-3.4094343183333335,-1.0226681233333335,12.869425775666668,-2.8228212989999997,-17.734840713333334,-2.2387192596666665
96,0.7999679999998079,16.217139243333335,17.180183413333335,-34.21007793333333,-3.3617497286666667,-0.30793593333333336,11.158156394999999,-4.615373492333333,-10.392680884333332,-5.584962725666667
97,0.8083009999998012,16.135983783333334,17.12005488,-34.261576333333345,-4.290722529333333,-0.11389935500000004,9.754945594666665,-8.108562469333334,-8.991682212333332,-3.9686702093333337
98,0.8166339999997945,16.076148986666666,17.07162475666667,-34.30604296666667,-3.7325713633333333,-0.7693152576666668,11.84938717,-6.0265179080000015,-7.599138577999999,-3.5868559676666667
99,0.8249669999997877,15.998426756666667,17.087607066666667,-34.32756293333333,-2.301832795333333,-0.739070316,11.694148380000001,-8.636634030666666,0.8144981863333332,-3.1681309343333335
100,0.833299999999781,15.909572283333333,17.110652286666667,-34.359120700000005,-3.7035012246666668,-0.09135431066666665,8.925679526,-9.975132782666668,1.0641440553333334,-4.560871561333333
101,0.8416330000000016,15.826942443333332,17.11350695333333,-34.360725433333336,-3.141901572666667,-1.5031563043333331,9.948762101333331,-9.943900902666668,-0.07485330133333316,-0.5425349473333333
102,0.8499659999999949,15.722400346666666,17.176820756666668,-34.37441253333333,-1.2449605066666667,-0.7288207906666667,10.963234898666665,-12.367245990666667,6.358624059666668,-3.861620108
103,0.8582989999999882,15.617408433333333,17.271730426666668,-34.371673599999994,-5.152577638333333,-0.01607515400000002,9.939935842333332,-12.917748132666667,10.617875577333335,-3.0928936003333334
104,0.8666319999999814,15.503939946666668,17.331314723333335,-34.35081736666667,-2.654135227333333,-0.7294488250000001,10.275797843,-14.782311758,6.9289125600000006,0.06922231100000002
105,0.8749649999999747,15.393342973333333,17.455993013333337,-34.3507894,-2.3964988786666663,0.012454474666666696,9.315286318333333,-13.3769118,14.054054735999998,-4.243810653666666
106,0.8832979999999679,15.287675536666669,17.597117106666666,-34.32396189999999,-2.455748439,-0.6241571903333333,9.387555441333333,-14.075442313333333,16.543643,-1.8550518853333333
107,0.8916309999999612,15.160404523333334,17.667931873333334,-34.309028633333334,-2.3934773403333334,-0.9245830573333335,7.951324620666665,-15.943402290000002,8.279342651666665,-0.8672768273333332
108,0.8999639999999545,14.988692916666665,17.768954593333333,-34.315460200000004,-0.9180998403333334,-0.7478051386666666,11.902220248666666,-20.686667443333334,10.977787653333335,-4.177038828666667
109,0.9082969999999476,14.834041596666665,17.899152116666667,-34.29646043333333,-4.652629773,0.2645745773333334,11.243686359666668,-19.502586683333334,15.214876813333335,-2.240051468
110,0.916629999999941,14.685931206666666,17.98934301,-34.27844493333333,-2.1832529706666666,-0.7524320059999999,9.046706676000001,-18.860306419999997,10.381798586666667,-1.119829178
111,0.9249629999999344,14.500999133333332,18.063065846666664,-34.294423433333336,-1.4751772683333335,-0.6720804523333334,9.393531482333332,-21.730309166666668,7.715980610666666,-4.279364108999999
112,0.9332959999999276,14.317772233333335,18.169891993333334,-34.2855072,-0.6176013796666667,-0.8660026866666666,9.157773018,-22.748451233333338,12.069685936333334,-2.557932993
113,0.9416289999999208,14.094822563333333,18.221888223333334,-34.309816999999995,-4.379535277666666,-1.060287853,10.585092863333335,-26.01471392666667,4.984012166,-4.565902868999999
114,0.949961999999914,13.872387566666667,18.261617023333333,-34.3422699,-0.48467194033333333,-0.4200366836666667,11.07107862,-25.796581903333333,3.193708658333333,-5.050472736333333
115,0.9582949999999072,13.647680283333335,18.336515430000002,-34.3815562,-3.3321865000000006,-0.13949178633333334,8.970446109666666,-25.75580342666667,7.221216361666667,-6.820784568666666
116,0.9666279999999006,13.389434496666667,18.32883962,-34.41827393333333,-0.3287706786666667,-0.6923351090000001,6.989457448333333,-30.035511653333334,-2.4743857383333334,-4.243352254333334
117,0.9749609999998938,13.093605996666668,18.311110176666666,-34.51614126666667,-2.0639034906666667,-1.7646975520000001,8.765535196333333,-31.993981039999998,-5.009146849333333,-10.676029683333333
118,0.9832939999998872,12.777692796666669,18.292233783333334,-34.58919779999999,-2.6246960043333334,-0.0003342046666666663,12.706537883333333,-35.59636942666667,-4.663538733666667,-7.973806699000001
119,0.9916269999998804,12.401198703333334,18.283479056666668,-34.691574066666675,-3.852925698,-1.755325595333333,11.585980732000001,-41.52019500666667,-3.947151601333333,-11.435675462333334
120,0.9999599999998736,11.976358096666667,18.23930740333333,-34.813929233333326,-0.835232993,-1.6972556909999998,8.103851477333334,-46.72605768666667,-8.658680756999999,-12.83662828
121,1.0082929999998669,11.499012630000001,18.195071536666667,-34.95567320000001,-3.057504097666667,-2.051624497,9.846895535666667,-52.27265421333333,-8.908960065333334,-15.126549085333332
122,1.01662599999986,10.991496084333335,18.162969590000003,-35.08058676666668,-1.8779333429999998,-0.560841193,12.532877286666666,-56.64885966333333,-7.1532636499999995,-13.499522526666667
123,1.0249589999998534,10.38521417,18.08745384,-35.25318143333333,-3.436335325,-2.5223064423333335,11.074598790000001,-66.52147674666666,-12.956230003333333,-18.03129832333333
124,1.0332919999998469,9.765414872333332,18.02983983333333,-35.3925527,-1.3760597060000002,-1.6008433103333335,5.050282637333333,-69.60754267333334,-10.207330702999998,-14.788080216666666
125,1.04162499999984,9.087831180666667,17.89514859333333,-35.57251226666667,-0.8290672503333333,-0.44986611066666665,9.840970358333333,-74.87758001,-19.709541636,-18.062359173333334
126,1.0499579999998332,8.379814623666666,17.809498466666668,-35.73153943333333,-4.006518205,-1.7072024343333334,13.063778560000001,-79.43884277000001,-13.501136143333333,-16.635929426666667
127,1.0582909999998265,7.609519164000001,17.66623624,-35.903991700000006,-1.8316770196666667,-1.6687668166666667,10.774864196000001,-86.43033599666667,-20.232733726666666,-17.536641756666665
128,1.0666239999998195,6.7972731589999995,17.505006156666667,-36.08050793333333,-0.8614786766666667,-1.3984559376666665,7.605022113333334,-91.48384094333333,-22.358720146666666,-18.031679153333332
129,1.074956999999813,5.970260938,17.32332166,-36.26065316666667,-2.59817034,0.021751741333333324,11.116047226333334,-93.01752726,-24.358230593333335,-18.455155373333337
130,1.0832899999998062,5.087623914000001,17.13888486333333,-36.41587320000001,-3.1784142653333336,-2.233694434,13.171675046666666,-100.78496806999999,-24.425968806666663,-15.958708763333334
131,1.0916229999997995,4.193466425,16.912276266666666,-36.60007473333334,-1.3617023026666668,-0.7110981383333335,5.681143283666667,-101.05426789,-29.250181833333333,-19.16668701
132,1.0999559999997928,3.2565149466666665,16.67677466,-36.764127066666674,-1.8434357446666667,-0.422085156,9.225810527333332,-107.08640798333333,-30.025432586666668,-17.491079966666668
133,1.108288999999786,2.2925904193333335,16.435723623333335,-36.92821250000001,-3.1345249020000003,-1.4795740643333335,12.427494366,-110.37199147333332,-30.278811136666665,-17.66128476333333
134,1.1166220000000069,1.3026055393333333,16.216459909999998,-37.088083899999994,-3.5206939380000004,-0.484406973,10.828660962666667,-113.79577383333333,-27.54131698333333,-17.822833380000002
135,1.124955,0.29640417300000005,15.972511609999998,-37.25731149999999,-2.2535360653333334,-0.42734458033333333,11.136206944999998,-115.37057750000001,-29.972901030000003,-19.414338429999997
136,1.1332879999999932,-0.7343114216666667,15.728773436666666,-37.40361276666666,-2.086785674,-1.3074845073333332,8.052585282333332,-119.28892259999999,-29.840196610000003,-17.272869426666663
137,1.1416209999999865,-1.808805565,15.520132063333334,-37.5732295,-3.6922391256666667,-0.4547192853333333,10.927549521333333,-123.7287089,-25.01933225,-20.37073962
138,1.1499539999999795,-2.8625005286666667,15.309685703333335,-37.7209752,-4.309777021333333,-0.10248558700000003,12.763860702666667,-122.05813346666666,-25.18430201,-18.33968162666667
139,1.158286999999973,-3.950724681,15.06985887,-37.868052166666665,-0.35025155533333335,-0.005930801666666652,8.422733942999999,-126.30242413333332,-28.190975823333332,-18.944193523333333
140,1.1666199999999662,-5.083766142666666,14.87526258,-38.0167745,-2.728840589666666,-0.8282146949999999,6.432749908000001,-131.74882506666665,-22.591461183333333,-19.384667713333332
141,1.1749529999999595,-6.1795252960000004,14.65819486,-38.16019186666667,-4.075878143,-0.4471238503333333,10.960885209666666,-127.3878123,-24.73645210333333,-19.407791136666667
142,1.1832859999999528,-7.288158734333334,14.427439686666666,-38.2929357,-2.6673512460000004,0.8186490633333333,15.172123909333335,-129.4321925,-26.381263096666668,-18.725681943333335
143,1.191618999999946,-8.445105552666666,14.22888565,-38.42699176666667,-1.566643576,0.19517300533333334,9.075373172,-135.08014933333334,-21.921108246666666,-19.15934372
144,1.1999519999999393,-9.570063909666667,14.042885146666668,-38.55032093333333,-2.2507008313333334,-0.8640503883333334,5.983867962666667,-131.71935016666666,-20.43810272333333,-18.071513496666668
145,1.2082849999999326,-10.651112874,13.776625950000001,-38.643936133333334,-2.9805874823333327,1.1212314369999998,13.838591573333334,-127.27891033333333,-30.088137309999997,-16.869092623333334
146,1.2166179999999258,-11.763477006333332,13.551527980000001,-38.7508952,-2.0834081369999997,1.6580474973333335,12.315834044333334,-130.84270223333334,-24.75718116666667,-17.78988933333333
147,1.224950999999919,-12.870489436666666,13.340067543333333,-38.8296814,-1.8611166083333333,-0.413137421,6.742139816000001,-130.85512543333334,-23.335045496666666,-15.000607806666666
148,1.2332839999999123,-13.903838473333332,13.05713749,-38.9044647,-0.5813200873333334,0.8811346516666667,7.794829368666666,-122.34355673333334,-31.63456408,-16.857908883333334
149,1.2416169999999056,-14.902715046666666,12.741548219999999,-38.96926116666666,-3.4761530363333333,2.0099683206666668,11.59841331,-118.44573213333332,-35.34178416,-16.98935318
150,1.2499499999998989,-15.923391340000002,12.407688776666667,-39.007990533333334,-1.0806737396666666,0.8004597223333333,12.442769686666665,-121.8403473,-37.99037297666666,-15.384029706666666
151,1.258282999999892,-16.921553296666666,12.120036443333333,-39.077117900000005,-2.827254613333333,0.38352301466666666,11.601594923333332,-118.38809713333335,-31.431146623333333,-17.693229676666665
152,1.2666159999998854,-17.849266053333334,11.798983573333333,-39.1255595,-2.4100647766666667,0.8082137306666667,10.283178011333334,-110.52384186666666,-35.6685702,-17.363117853333332
153,1.2749489999998789,-18.74680964,11.427785236666665,-39.1459198,-3.0962283613333335,1.1333460016666668,12.445560776,-107.54096220000001,-42.16407775666667,-16.389695166666666
154,1.283281999999872,-19.677415846666666,11.077988626666667,-39.176551833333335,-0.31211872900000004,1.6101867956666667,13.829511006666666,-111.35312653333334,-39.082656863333334,-17.547157926666667
155,1.2916149999998652,-20.58009084,10.743181547333334,-39.208142599999995,-3.3920902410000005,-0.14783611900000002,9.902856826666666,-107.96985626666667,-37.12220764,-17.287473996666666
156,1.2999479999998584,-21.380942663333332,10.40181287,-39.20977023333334,-2.7181433836666664,0.4860666666666667,6.950478552333334,-96.43437450666666,-38.79395548666667,-15.137826286666666
157,1.3082809999998517,-22.11971473666667,10.061474482,-39.22094726666666,-2.6642493406666667,2.7740494410000003,11.100509961333335,-88.83133188666666,-38.186056773333334,-16.238054273333333
158,1.316613999999845,-22.851428350000003,9.729367254666668,-39.19752246666666,-2.163002332,2.8791699410000002,11.360602378666668,-88.66591135333333,-38.53687540333333,-13.025550206666665
159,1.3249469999998382,-23.543812433333333,9.428811074,-39.19529723333333,-2.8494466939999996,1.9606099726666668,12.481560386666667,-83.47203064,-33.874857586666664,-14.123421033333335
160,1.3332799999998317,-24.147401813333335,9.141275407333334,-39.14645386666667,-2.325152198666667,1.5949607293333334,11.204295477333332,-73.73798370333333,-34.582360586666674,-8.956024646666668
161,1.3416129999998248,-24.682023366666666,8.854051907,-39.11941276666666,-2.607676108666667,1.6774934129999999,6.659725507333334,-65.03503418000001,-33.33755938,-11.443625770000002
162,1.349945999999818,-25.135014853333335,8.585151195333333,-39.05713906666667,-2.4272518553333335,1.7176839906666668,8.716656049,-55.84394963666667,-33.02922503,-7.153533695999999
163,1.3582789999998113,-25.561513899999998,8.361474513666666,-39.02568816666666,-3.012234449333333,2.0208925406666665,11.575924239999999,-52.18829472666667,-26.491164526666665,-8.191859245333333
164,1.3666119999998043,-25.92474683,8.121714274,-38.97909033333333,-2.793951432,1.4038267926666663,10.540702184,-44.77560933666666,-28.953718183333336,-7.823106608333333
165,1.3749449999997978,-26.211085640000004,7.929513772333333,-38.943832366666676,-2.8701456386666666,1.5616740383333332,12.561854996666668,-35.40812301333333,-23.189817426666668,-6.423786481333333
166,1.383277999999791,-26.45417913,7.758208910333333,-38.93216196666666,-2.7809468109999997,1.284413278,7.792133013333334,-29.78861046,-19.651234306666666,-8.167997201
167,1.3916109999997843,-26.63932991,7.581160863333333,-38.900520300000004,-1.5367025736666668,1.326418082,9.900779089333332,-23.161665596666666,-21.31293678333333,-6.259500980333333
168,1.399944000000005,-26.777897516666666,7.438339869333333,-38.923156733333336,-3.7285297710000003,1.351754129,11.524972915666666,-16.694695473333333,-14.684530259999997,-10.408896127666667
169,1.4082769999999982,-26.886308036666666,7.332031091,-38.90719096666667,-2.7536365986666667,1.2556260229999998,9.222675324999999,-13.688279150333335,-12.916282336,-4.179570357
170,1.4166099999999917,-26.961988450000003,7.200207551000001,-38.94315336666667,-2.7237792016666673,0.9303493563333333,8.945529619666667,-8.980473756333334,-12.76666069,-11.306724867999998
171,1.4249429999999847,-26.97351010666667,7.1178331376666675,-38.942914333333334,-2.657062252333333,0.33763767299999997,7.838935057333333,-1.7973214389999999,-9.498656750666667,-4.541063229333333
172,1.433275999999978,-26.97916349,7.058363914666667,-38.98323056666667,-2.481447339,0.6110669203333333,11.687389689333335,-0.5266371566666663,-4.789212942,-7.853538354333334
173,1.4416089999999713,-26.989986419999997,6.985451380333333,-39.01405083333334,-3.522211075,0.7141160489999999,11.900102613333333,-1.2444892623333332,-6.801638921333333,-7.342047850333333
174,1.4499419999999643,-26.978078210000003,6.925391038333334,-39.023996999999994,-1.7647124526666669,0.42335055766666674,12.681958516666668,1.1477056540000001,-6.482263247333333,-4.641555786
175,1.4582749999999578,-26.970197043333332,6.894049962333334,-39.07122293333333,-2.6905962626666664,-0.49601508666666666,11.562754949333334,1.2083774853333333,-1.4851948019999999,-6.811756929333334
176,1.466607999999951,-26.943447116666665,6.835108915666667,-39.09664153333333,-1.6894859073333333,-0.5030305486666666,6.991658528666666,3.142128279,-5.538446505666666,-6.247824351000001
177,1.4749409999999443,-26.907306669999997,6.754346211333334,-39.10031383333334,-3.648508548666667,-0.284593632,11.003424646666668,3.9660792746666664,-9.125542641666668,-4.862010002
178,1.4832739999999376,-26.90454673666667,6.713077068666667,-39.135073333333345,0.06868823333333325,0.3799267313333334,11.768523853333335,0.3847132126666666,-3.1511745849999997,-6.260512113666667
179,1.4916069999999308,-26.91576258666667,6.676133156,-39.18919626666668,-5.184205134666667,-1.0686030336666665,8.868881541999999,-1.020125309666667,-1.7134514646666663,-7.866131623666667
180,1.499939999999924,-26.907721199999997,6.613391876333334,-39.1892344,-0.920300563,-0.725374023,10.637342133666667,0.5547742443333332,-7.313095887666667,-3.733864386666667
181,1.5082729999999174,-26.918706256666667,6.552880923,-39.24033099999999,-2.538531542,0.0076494216666666654,10.456260047,-1.0567278066666665,-4.399108728,-8.829167524666667
182,1.5166059999999106,-26.960132599999998,6.506906509333334,-39.2647756,-1.2555721203333334,-0.5221371946666667,8.980935732666667,-5.048224290333334,-4.2064978680000005,-5.431934039000001
183,1.524938999999904,-26.99821980666667,6.41084226,-39.27509563333333,-3.075829187666667,-1.4617023466666665,10.130291781333334,-4.858833191333333,-10.396358489,-6.432512124333333
184,1.5332719999998972,-27.049804686666665,6.336763064,-39.28647106666667,-0.1170116166666667,0.057137503,11.364845911666668,-6.457174495666667,-7.915594101333333,-5.558887163666667
185,1.5416049999998904,-27.1139946,6.262437343666666,-39.31851703333333,-4.535564542,-0.25960016233333333,9.896990139333335,-7.722726026999999,-6.862984657000001,-7.630207220666667
186,1.5499379999998837,-27.177322386666663,6.166222731333332,-39.29148356666666,-1.5979702073333335,-0.4532266756666667,11.724294980666665,-8.342157918,-12.351495740333334,-2.7172783613333333
187,1.558270999999877,-27.25035477,6.0923253693333335,-39.32654826666667,-3.128534476,-0.364116275,11.863665263333331,-8.781560581333332,-6.643351712,-7.916106383000002
188,1.5666039999998702,-27.315949123333336,6.0085166296666666,-39.31377413333333,-1.6861224176666667,0.02661019566666667,10.099032083333332,-8.408258279,-10.251972039666667,-3.6140921909999997
189,1.5749369999998637,-27.393799463333334,5.865534941333333,-39.288297,-2.9960172176666666,-0.901079436,12.367145856666667,-10.103693165333333,-17.283289273333335,-5.34837389
190,1.5832699999998567,-27.4847463,5.783552805666667,-39.26884713333333,-0.09313867499999999,-0.9148587386666666,11.747307139999998,-11.537285167333332,-10.424371720333333,-2.789292236
191,1.59160299999985,-27.570166906666667,5.645204067000001,-39.25702666666667,-3.6547609966666665,-0.647535493,9.730238279,-10.823683104333334,-16.028156601333333,-6.623024145666666
192,1.5999359999998433,-27.63931528666667,5.506394227666667,-39.17854563333333,-2.498154084,0.48731329566666665,12.07001877066667,-9.596905869666667,-19.71578725,0.2759168149999998
193,1.6082689999998363,-27.704149243333333,5.3925598463333335,-39.16922759999999,-1.8413688343333332,-0.566567282,10.285141311333334,-8.354025046,-13.274443623333333,-5.540992021666667
194,1.6166019999998298,-27.75061671,5.303367456,-39.12888336666666,-4.113877614333333,0.3466345476666666,10.777177811,-6.411926428,-12.328695933333334,-1.0517547926666666
195,1.624934999999823,-27.774859106666668,5.178175767,-39.0769933,-2.6629680793333335,-0.1220286886666667,12.164796829333334,-3.956888119333333,-16.831211726666666,-1.71519351
196,1.6332679999998163,-27.799309410000003,5.093764305333333,-39.04343416666666,-2.1438494523333333,0.58608373,12.188975016666667,-3.6914556819999995,-11.443579515333333,-1.4866509833333332
197,1.6416009999998096,-27.835729599999997,5.029420852333334,-39.028505966666664,-3.207964023,-0.8109042746666667,12.973253566666665,-5.012151241333334,-8.309899169666666,-2.229049285
198,1.6499339999998028,-27.85794957666667,4.975615024333333,-38.990941366666654,-3.887986103666666,-1.126696527,9.764071782,-3.4603255839999996,-8.413072903666666,0.6215039093333333
199,1.658266999999796,-27.88111559666667,4.893248717,-38.96942646666667,-0.6850656373333334,-0.17081622533333332,10.194422403999999,-3.479536255333333,-10.591351194333333,-2.5495686330000003
200,1.6665999999997894,-27.935395556666663,4.865279515666667,-38.942298900000004,-3.453844308666666,-1.0894627173333333,12.260860125333332,-7.195175647666666,-5.091708659999999,0.9822120666666665
201,1.6749329999997826,-28.01830164333333,4.875682989333333,-38.9558411,-1.684536035,-1.6498818796666666,8.429372151666668,-10.296420417666667,1.215882778,-1.0604424873333331
202,1.6832660000000033,-28.08348719333333,4.873407523,-38.9661331,-4.943925063,0.12574919333333331,9.472642580666665,-8.141519387,-0.2671484153333334,-1.544875979333333
203,1.6915989999999963,-28.14182345,4.929415543666667,-38.97141776666667,-2.75957342,-0.5298133690000001,11.784714697,-7.4321249326666665,5.5734540610000005,2.4025000533333336
204,1.6999319999999898,-28.224015553333334,4.9851145746666665,-39.036554966666664,-2.5963641803333335,-0.31469531833333336,11.952322324666667,-9.621254921,8.966380039666666,-4.022750377666667
205,1.708264999999983,-28.31101036,5.097294807333333,-39.07646686666667,-2.334649245,0.483646956,11.16940689,-10.483986217666667,13.464199703666665,1.9687744776666667
206,1.7165979999999763,-28.393536253333334,5.21566995,-39.158289599999996,-2.0008619623333335,-1.3148272236666667,9.351455688,-9.452304999,16.53873793,-2.1717634796666667
207,1.7249309999999696,-28.444225306666667,5.331402778666667,-39.23297373333333,-3.433895032,0.4567203993333333,9.472091992666668,-5.723305861,15.816123965333333,-1.4722808996666668
208,1.7332639999999628,-28.48251788,5.464460055,-39.294815066666665,-3.154873848,0.582471579,12.007625580000001,-4.321305910666666,16.951668103333333,0.783112685
209,1.741596999999956,-28.542446773333335,5.617228666666667,-39.39809416666666,-1.7407129206666667,0.11542724566666668,12.258594511,-6.458845297666667,21.343928020000003,-2.302140037333333
210,1.7499299999999494,-28.59795634,5.7951909703333335,-39.4758301,-1.9463097056666667,-0.7277045646666668,7.502498626333332,-6.162386099333333,22.58896955,1.751489381
211,1.7582629999999426,-28.64494641666667,5.957746187666667,-39.57082619999999,-1.7595219313333335,-0.8505443733333333,6.999801794666666,-4.9253849186666665,21.897576016666665,-0.861189456
212,1.766595999999936,-28.675087610000002,6.081424077333334,-39.64791866666667,-2.4395065506666667,-0.6833939576666667,10.465679807,-3.0603766043333334,16.830971716666667,-1.293702642
213,1.7749289999999291,-28.696544646666666,6.237210433,-39.7206116,-1.7171949943333331,0.3052671963333333,12.475351015333336,-2.105303009,19.911099753333335,1.128866541
214,1.7832619999999224,-28.745993933333335,6.421907425,-39.82772823333333,-2.4929621616666666,-0.8882115286666666,11.616241452333332,-4.925099452333334,24.967622119999998,-0.8738131226666667
215,1.7915949999999157,-28.77164395666667,6.514488378999999,-39.88357036666667,-0.054894546666666676,-0.1804120886666666,7.393504142666667,-2.780143710666666,12.289308229333335,-0.7395980356666666
216,1.799927999999909,-28.77851422333333,6.600277582666667,-39.93234759999999,-2.773591279666667,-0.8148975073333333,11.504902840333335,-0.5757864713333333,11.220543227999999,-0.4609837433333333
217,1.8082609999999024,-28.793385186666665,6.701704820333334,-39.98861183333333,-1.2810957133333334,0.281079726,13.084382060000001,-1.4556485909999999,13.243667603333334,-0.273675293
218,1.8165939999998957,-28.810125350000003,6.740924040333333,-40.03579713333334,-3.1494930586666663,-0.15556991066666667,9.511862754333333,-1.7490552413333331,6.228934011333333,-2.9978818100000004
219,1.8249269999998887,-28.81025123666667,6.786283651999999,-40.05518596666666,-0.657575071,-1.040765191,8.543614705333333,-0.21512543166666656,5.228416184666667,0.3941646220000001
220,1.833259999999882,-28.810479483333335,6.818530400333334,-40.0885188,-1.4369062583333332,-0.11725003633333335,8.349581083666665,0.04612697066666666,4.696080606,-1.9647998013333332
221,1.8415929999998752,-28.815364836666664,6.787422974666666,-40.104337066666666,-1.7879392653333335,-0.3698751536666667,8.868822733333333,-0.8137728470000001,-3.023124376666667,-3.6756687163333335
222,1.8499259999998685,-28.789496103333335,6.770749092,-40.10544586666666,-2.4865235486666664,-1.097610255,12.294168153333333,2.683842381,-2.290104746666667,-1.4262176156666666
223,1.8582589999998615,-28.776067096666665,6.767552693666666,-40.1122767,-2.174494982,-0.25267786566666667,12.841060796333332,1.2843488453333334,-0.611185392,-1.120678132
224,1.866591999999855,-28.759798686666667,6.713944117333334,-40.100649499999996,-1.9198584756666666,-0.3590368033333333,9.118581613333333,1.3920056026666667,-6.910960038666666,-2.1988284190000003
225,1.8749249999998483,-28.721345266666663,6.682991981333333,-40.0848541,-1.0855501043333333,-0.6006164846666667,11.278162638666666,3.9304060936666665,-4.831083933666666,-0.35072291533333333
226,1.8832579999998416,-28.70220947333333,6.632304827666666,-40.04851533333334,-3.16836826,-1.3411917686666666,12.216995236999999,1.4053721826666665,-8.019970576,0.5561447146666666
227,1.8915909999998348,-28.692326863333335,6.569057782666666,-40.021390266666664,-1.206215312,-1.1928704976666666,7.167324701999999,0.33073548466666686,-8.876101651666666,-1.0352421203333333
228,1.899923999999828,-28.676752093333334,6.524969100666667,-39.989863066666665,-3.818812052333333,-0.46850054466666663,12.70177682,1.0193227603333332,-7.049780369,0.42391556499999994
229,1.9082569999998211,-28.666365306666666,6.502858479666666,-39.96549226666667,-2.750188827666667,-0.9418732526666665,10.196610133666667,0.43262028700000005,-4.391287327,1.0701115873333333
230,1.9165899999998144,-28.673013049999998,6.448556105333334,-39.933547966666666,-2.1641041043333336,-0.5583104280000001,9.674941698666666,-1.6386282643333334,-8.152892271666666,-0.11622033499999995
231,1.924922999999808,-28.67367363,6.408734639333333,-39.914827966666664,-1.8136797746666666,-1.3863544463333335,10.836761475333333,-0.8165776729999998,-5.934716303999999,-0.5282040836666667
232,1.9332559999998007,-28.693862913333334,6.381917794333333,-39.895413733333335,-2.689154227333333,-0.8257662606666667,9.998620352333333,-3.112526675,-4.538979371333333,0.154411147
233,1.9415889999997944,-28.737371446666668,6.306799094,-39.86465196666668,-2.1730896633333336,-1.2836423913333335,11.213944115333334,-6.096658229666667,-10.348963100666667,-1.308994266
234,1.949921999999788,-28.756312053333335,6.288340727666667,-39.85521186666667,-2.615184148,-1.4137617350000002,9.309751828666666,-2.845071037666667,-3.0907594446666664,-0.3965853156666667
235,1.958254999999781,-28.790928523333335,6.250458240666667,-39.84382373333334,-2.735507091,-0.018360895333333366,11.985387803333333,-4.763871828666667,-5.323756457333333,-1.2076812783333335
236,1.9665880000000016,-28.831408183333334,6.230617046333333,-39.82985433333334,-3.551133156,-0.739866982,11.451146603666666,-5.458111961666667,-3.4942898203333335,0.00048679133333336583
237,1.9749209999999948,-28.851571396666667,6.198194503666667,-39.807996100000004,-1.8809636433333334,-0.8956937193333333,10.975735347666665,-3.1841911476666667,-5.363023678333334,0.2190529503333333
238,1.983253999999988,-28.903170266666667,6.2042063076666665,-39.80586243333334,-2.9713389076666665,-0.754991124,11.890991849,-6.612716356666667,-0.10045043633333339,0.256338795
239,1.9915869999999811,-28.943663916666665,6.171131293333333,-39.77613066666667,-1.4342132013333335,-0.672149976,9.634803135666667,-5.745008667333333,-5.8874147746666665,1.0242235376666666
240,1.9999199999999744,-28.98871549333333,6.158387820000001,-39.7466507,-3.6725183329999997,-1.483133733,11.367198626666665,-6.184096495333333,-3.6528677789999997,2.0051594180000003
241,2.008252999999968,-29.04721578,6.178210735,-39.73845926666666,-1.2508548893333333,-0.955379943,10.859544116666667,-7.618007145,0.8941754500000002,1.8777668276666668
242,2.016585999999961,-29.11203257,6.157510280333334,-39.71585336666667,-3.945628484,-0.3674907086666666,8.300866446333332,-8.482350349333334,-4.0833531616666665,0.8089915693333333
243,2.0249189999999544,-29.14878527333333,6.191130956333333,-39.69760133333333,-2.4959314266666666,-1.0537035463333333,12.609269140666669,-5.1443804103333335,1.7444748879999998,3.743473689
244,2.033251999999948,-29.193870546666663,6.214293797666667,-39.70661416666667,-3.399010817,0.11751648799999999,10.047786077,-5.715995709,2.3477839036666666,0.08208933966666666
245,2.041584999999941,-29.25653139666667,6.238085746666666,-39.70019023333333,-1.6715391476666666,-0.40894482066666665,10.920486448666667,-8.094790616666666,1.4004200896666668,1.9146599273333333
246,2.049917999999934,-29.283676783333334,6.264975865666667,-39.70830026666666,-4.077488104333334,-1.4089747666666668,11.843464536666666,-3.5940187973333324,2.686907669,0.4187244176666667
247,2.0582509999999274,-29.333701449999996,6.327738444,-39.709294666666665,-0.755548477,-0.2813628963333334,10.430681545,-6.462728023333334,5.889989455333333,3.466267864
248,2.0665839999999207,-29.38926506,6.326196034666666,-39.72763059999999,-3.5250402289999996,-1.2160023053333333,8.880451837333334,-6.839624404666668,0.30724265200000006,-2.314724326
249,2.074916999999914,-29.407852173333335,6.399702071999999,-39.73310600000001,-1.2503611446666667,-0.650492102,9.429785251666667,-2.662301063666667,7.2781055793333325,3.6450295446666665
250,2.0832499999999072,-29.43031184,6.433182239333333,-39.73744453333333,-3.178124666,-1.1232434413333332,11.146953266666666,-3.0450029769999998,3.1438099939999997,1.190101405
251,2.0915829999999005,-29.46294912,6.496916929666667,-39.766530366666665,-2.076093495,-0.061502372333333354,9.004237968333333,-4.014911810666667,7.636658069666667,0.615091801
252,2.0999159999998938,-29.46812248,6.5486235619999995,-39.77155306666666,-3.304139753,-0.793374896,11.346112884333332,-0.9853710953333333,5.090406378,2.184044838
253,2.108248999999887,-29.458468116666666,6.631744543666667,-39.791338599999996,-1.8982054243333335,-0.31741517300000005,12.296800615333334,0.9667368926666667,9.12007332,2.7337604463333336
254,2.1165819999998803,-29.457806270000003,6.688670317000001,-39.8134791,-3.827242076333333,-0.5307316383333333,9.922211012666667,-0.033930360999999985,6.640025138666666,0.7145347296666666
255,2.124914999999873,-29.45198440333333,6.750816822,-39.82451123333333,-1.2833320896666667,-1.4524553219999998,10.304881414333334,0.38280470133333333,6.4192736943333335,2.395532965666667
256,2.133247999999867,-29.415069583333334,6.814554373333333,-39.84937536666667,-2.709417323,-0.8484209279999999,10.835623423333333,4.344059626333333,7.512156486666668,0.8502689996666667
257,2.14158099999986,-29.415999733333333,6.845187664333334,-39.85313923333333,-1.5166721443333333,-0.5832567313333333,11.300486245666667,-0.518897435,2.7132432053333333,1.253334413
258,2.1499139999998533,-29.40772756,6.903487523333332,-39.883761099999994,-2.8488851983333334,-2.1809713046666666,7.5736328760000005,0.9787882566666667,7.278759203,-0.06612332666666661
259,2.1582469999998466,-29.36441802666667,6.937919139666666,-39.88526663333334,-1.5127728183333333,0.36089493833333336,11.392866134,4.763731003,2.9650354386666664,1.72522972
260,2.16657999999984,-29.341224670000003,6.996047814333334,-39.93029023333333,-4.3788796266666665,-1.177239279,10.952823322333332,3.00364089,8.106791338333332,-1.582349261
261,2.174912999999833,-29.30423482333333,7.032421111666667,-39.91916656666667,-1.8432831766666666,-0.9226942383333333,8.589621544,3.808772723,2.4379290146666666,3.1309476396666667
262,2.1832459999998264,-29.26311683666667,7.097389857,-39.97382866666666,-1.9567097026666669,-1.088837262,12.219955442,5.305498600333333,9.376600584,-2.1768817103333333
263,2.19157899999982,-29.22533543666667,7.119283040333333,-39.977078766666665,-2.8761673373333334,-0.05634615833333334,11.073329925333333,4.107528408333334,1.7648803789999998,0.783727288
264,2.199911999999813,-29.220284776666663,7.185009479333334,-40.014025366666665,-2.9617772896666668,-2.9895575046666667,9.947733720999999,0.713185787,8.422793546333333,-0.2968218326666669
265,2.208244999999806,-29.170787809999997,7.193418344,-40.01415253333334,-0.08729376500000001,-0.732335458,9.610886256333332,5.488358338666667,0.18350453166666666,0.30769499166666686
266,2.2165779999997994,-29.164250056666663,7.241329034333333,-40.0526377,-3.408696730666667,-1.144738853,8.961224237333333,0.9379590846666668,6.646351337666666,-1.5138227540000002
267,2.2249109999997927,-29.130646386666665,7.260697205666666,-40.053008999999996,-2.3345946870000005,-1.6359984873333333,8.994267145333334,3.5636187393333336,1.349682224333333,0.9006646869999999
268,2.233243999999786,-29.10751215666667,7.313137372333332,-40.08259073333333,-2.502722581333334,-0.9567919570000001,13.065998714666668,2.798778216,6.601254621333333,-0.32533925766666666
269,2.2415770000000066,-29.07743581,7.335771878333333,-40.098889666666665,-3.1090833346666664,-0.46787777533333336,10.744868753666667,3.388058940666667,2.6128312746666666,-0.5645078843333333
270,2.24991,-29.08518092,7.409305572666667,-40.128596,-2.2934161026666664,-1.844795783333333,9.932878494333332,-0.9129894673333334,8.819285073666668,0.888062552
271,2.258242999999993,-29.043002446666662,7.419868151666667,-40.146786999999996,-1.944845557,-0.8011488316666666,11.70713043,4.876690228,1.4535438569999999,-1.448100964
272,2.2665759999999864,-29.04460398666667,7.4728705086666665,-40.1629842,-2.4556322099999996,-1.8394621610000002,10.472455978,-0.3526737690000002,5.8901897273333335,1.1006180246666666
273,2.27490899999998,-29.032482783333332,7.489305496,-40.186930366666665,-2.257986545666667,-1.2823426323333333,5.807062149,1.3391721446666667,2.401949197,-1.7261176903333333
274,2.283241999999973,-29.026785533333335,7.539911111333333,-40.21102653333333,-1.4469742973333333,-2.4997200963333333,12.251327196333333,0.6492611566666665,6.093648591333333,0.1369764013333333
275,2.291574999999966,-28.997416816666668,7.541003545333333,-40.22771203333333,-3.328300158333333,0.40197974433333333,9.710018156666667,3.2891369659999996,0.37119746233333345,-1.8685544729999999
276,2.2999079999999594,-29.016984303333334,7.618569215000001,-40.27147676666667,-2.558104515,-2.3491812546666666,10.632254759333334,-2.073259056,10.057383375999999,-0.3437430163333333
277,2.3082409999999527,-28.991184233333332,7.603852589666666,-40.2746455,-1.7429633936666666,-0.9292642376666667,11.523576579333332,2.6720385550000003,-2.047503868666667,-1.4091969529999997
278,2.316573999999946,-28.999915443333332,7.680426756333333,-40.33101906666667,-2.408035953666667,-0.8538677293333333,9.548712729333333,-0.5559695563333333,10.683070979,-1.7075219153333334
279,2.324906999999939,-28.989255266666664,7.641837914666667,-40.316932666666666,-1.2770189443333333,-1.8004667760000002,6.974799632666667,0.5720383826666667,-5.549623012666667,-1.0107162003333334
280,2.3332399999999325,-28.980267843333333,7.705760320333333,-40.36481476666666,-2.4463584423333335,-2.1971238453333335,12.225510598,1.439106087,8.864025117333334,-1.5663404973333332
281,2.3415729999999257,-28.9736468,7.635273774333332,-40.33577726666667,-1.0769542056666668,-0.3224215133333333,8.990901471666666,-0.146603147,-9.76126178,-1.2956065136666666
282,2.349905999999919,-28.98512586,7.707525571000001,-40.38260396666667,-4.208479960666667,-3.189832886,7.499041556666666,-1.041137775,9.676115991000001,-1.0033225663333332
283,2.3582389999999123,-28.963816963333333,7.662564595666667,-40.35426843333334,-0.594773352,-0.43965352566666666,14.046342533333336,1.6372409463333335,-7.046963215000001,0.14974089466666665
284,2.366571999999905,-28.967079163333334,7.72363774,-40.39496103333334,-5.268198331,-1.052059074,9.122170468666667,-0.14412705100000003,8.154424984,-1.0301747126666667
285,2.374904999999899,-28.966948826666666,7.691895008,-40.36525216666667,-0.2387502243333334,-1.9999434153333333,10.486314771666667,-0.936289976,-5.743727606,1.088899493
286,2.383237999999892,-28.957056046666665,7.725315729666666,-40.39124043333334,-3.6386680603333335,-1.1484427796666667,12.324289957333333,1.1903062066666665,4.4003759623333325,-1.110419713
287,2.3915709999998853,-28.979702633333332,7.6984259286666665,-40.356534333333336,-0.3076182836666667,-1.796386083,9.140947597999999,-3.7382313410000005,-5.511663546333334,1.8850752513333333
288,2.3999039999998786,-28.99231084,7.709174315333333,-40.371520999999994,-4.761713584333333,-2.5092057786666664,9.499253113,-1.7089348236666666,1.3885608516666663,-1.3047720293333331
289,2.408236999999872,-29.011213303333335,7.741188525999999,-40.36280566666667,-1.7461264829999996,-0.5736197953333334,13.814848896666668,-2.8627365430000005,2.1594250200000005,2.6243191756666664
290,2.416569999999865,-29.021656673333336,7.73080349,-40.37395983333334,-4.600068648666666,-0.6706113019999999,6.297514200333334,-1.5175539256666666,-1.045227369,-2.14132911
291,2.4249029999998584,-29.051631293333333,7.813771088999999,-40.40149686666667,-1.3533313073333335,-2.355051041,10.912289937666666,-3.628333449333334,9.588070712,1.844972173333333
292,2.433235999999852,-29.04165395,7.801327387333333,-40.40764363333334,-3.1128787596666663,-0.6844264766666667,10.002824465666665,0.8503158490000001,-1.5541225273333332,-1.7230482893333334
293,2.441568999999845,-29.091147106666668,7.9120939576666665,-40.4593226,-2.3858943383333333,-2.4411598443333333,10.73057,-5.555608670000001,13.918304444999999,0.9243667520000001
294,2.449901999999838,-29.10896682666667,7.877463340333333,-40.459025066666676,-0.800340454,-1.2452137466666666,8.15933927,-2.596651752666667,-4.255792578333334,-2.345141132666667
295,2.4582349999998314,-29.130298613333338,8.0226264,-40.53049723333333,-4.198251724333333,-1.6816205579999999,10.057526589333333,-1.8228120806666663,18.664352733333335,0.8718919753333333
296,2.4665679999998247,-29.148307799999998,7.9679034553333326,-40.521537766666675,0.634295126,-0.5621062416666667,9.219936488,-2.745176037,-6.858570894,-2.6019501686666664
297,2.474900999999818,-29.167221703333336,8.133088747666667,-40.61850486666666,-6.542704820666667,-2.2914043266666666,9.976399937666669,-1.112260194,22.22022628666667,-0.5888283653333332
298,2.483233999999811,-29.198574066666666,8.149878025,-40.63774110000001,1.3410324406666667,-1.3839153696666668,10.298434895333333,-3.871151844666666,2.265297373,-1.31778876
299,2.4915669999998045,-29.21422640333333,8.275610923666667,-40.7125524,-6.280629794,-1.325009068,8.551832634666665,-1.0669614076666667,16.81034406066667,-0.6159620683333333
300,2.4998999999997977,-29.252557116666665,8.346729914333332,-40.769668599999996,1.5431876576666665,-1.3519699176666666,12.666933535333333,-4.049018164666667,10.152873395,-2.0331005253333334
301,2.508232999999791,-29.28270403666667,8.429360707666666,-40.80867006666666,-5.719749768333333,-2.688501040333333,5.952980917333334,-3.380618651666666,10.232474962666666,0.5552743276666666
302,2.5165659999997843,-29.31771214666667,8.559596379333334,-40.8784841,0.6100337106666668,-1.1944422423333334,13.380941708,-3.382385969,17.073203562333333,0.1538095646666667
303,2.524899000000005,-29.32901255333333,8.617427825999998,-40.89001463333333,-5.786669095666667,-0.9398374863333334,6.979994217666666,-1.6096971829999998,6.040607263666668,1.9370177586666664
304,2.533231999999998,-29.350439706666666,8.825918515666666,-40.96206153333333,-0.25770461566666647,-1.3485509880000002,8.654491743666666,-1.6735620103333335,25.3835907,4.530260245
305,2.5415649999999914,-29.30888621,8.891192754,-40.95037333333334,-5.201482971333333,0.11330362633333335,9.032221476,4.305535634333333,5.473302681333333,4.786865711333333
306,2.5498979999999847,-29.263756433333338,9.149135907333333,-41.0185038,-1.5293195186666668,-0.8769157006666667,9.487795047,6.275365987666667,30.33316294333333,7.803670088333333
307,2.558230999999978,-29.14950688333333,9.228373527666667,-40.99358623333333,-3.964724876,-0.013527313666666632,7.794126988666666,12.781043211000002,6.204978435,6.937639077666667
308,2.566563999999971,-29.01716105,9.507730484,-41.045313533333335,-1.2678661943333334,-0.3702111013333333,9.73739004,16.47654128066667,31.66228866666667,10.642605462666666
309,2.5748969999999645,-28.813674293333335,9.610964138999998,-41.0197042,-3.9190282423333334,-0.25842042300000007,8.931397278,23.460134506666666,8.766568342333333,8.287785689
310,2.5832299999999577,-28.593772253333338,9.903270403999999,-41.05442303333333,-1.7745070456666667,-0.7705153476666666,11.984803834666666,26.67935467,32.13521957333334,12.93092092
311,2.591562999999951,-28.325298946666667,10.021916071333333,-41.026997866666655,-2.8214929103333333,-0.018537640333333345,8.331111350666665,31.201770780000004,10.357506434333333,9.269856770999999
312,2.5998959999999443,-28.014145533333334,10.32773908,-41.047419233333336,-2.5270154276666665,-0.8023793896666667,8.384957469666666,37.34906514333334,32.90054957,14.856325786666668
313,2.608228999999937,-27.633534113333337,10.508973123333334,-41.021331800000006,-2.460710128,-0.1900207993333333,10.146001339,44.67494328666667,17.197703996666664,12.49176979
314,2.6165619999999308,-27.22262573,10.821139656666666,-41.015803033333334,-3.5193451546666665,-0.057781918666666675,8.257744986666667,48.77939606,32.38990338666667,17.471785546666666
315,2.624894999999924,-26.721885043333334,11.095543863333333,-41.00455726666667,-3.2688160340000003,0.13551723966666668,10.980676016333334,59.39936955666667,28.160050076666668,15.658365249999997
316,2.6332279999999173,-26.19742584333333,11.394696233333333,-40.964706400000004,-1.6151716610000004,0.10290181033333336,9.324002108333334,61.59149297000001,29.50322215,19.868619600000002
317,2.6415609999999106,-25.598087946666666,11.769819256666667,-40.977859533333344,-6.299754222,0.7302254836666666,11.612218221666666,71.74869537333333,40.43603452,18.019722623333333
318,2.649893999999904,-24.948830286666666,12.091797826666665,-40.925109899999995,-1.792295138,-0.5097966143333333,11.008951821000002,76.17504882666667,31.76417732,21.786022823333337
319,2.658226999999897,-24.24430592666667,12.482488946666669,-40.9312185,-5.884483138666667,0.07079868533333329,8.529406469666666,84.24243672666667,42.19448534666667,18.523188593333334
320,2.6665599999998904,-23.505172093333332,12.891174953333334,-40.9077708,-1.2568722766666667,-0.9521530866666668,13.051595685999999,87.65955353,43.19022242333333,22.04836591
321,2.674892999999884,-22.722551346666666,13.24408595,-40.89589946666667,-4.411388317666667,-0.3184881756666667,7.12614727,93.14504496333332,37.643313729999996,17.533839226666668
322,2.683225999999877,-21.92070516,13.72801717,-40.89095559999999,-3.5423895716666665,-2.1207059223333333,12.816850662999999,95.65742746,52.99517949666666,22.269765853333336
323,2.69155899999987,-21.086815516666665,14.05815792,-40.860214266666674,-1.007635221,-1.315497816,9.071285565333334,98.73430124666667,34.78417714333333,17.51306661
324,2.6998919999998634,-20.26767222,14.576521556666668,-40.85179646666666,-3.9329215686666665,-2.4616019726666667,10.377870397666667,97.60413869000001,57.374123893333326,22.566778819999996
325,2.7082249999998567,-19.42992401,14.880497933333332,-40.800537133333336,1.2562734533333333,-0.8083352543333334,7.586265730333334,98.53602599333333,31.519840240000004,17.749694823333332
326,2.71655799999985,-18.589085263333335,15.37043794,-40.76944986666667,-5.946779569333333,-2.958263437,11.498102504666667,99.49697877,53.96236419666667,22.217327753333333
327,2.724890999999843,-17.74982706666667,15.655793826666667,-40.69249980000001,2.318777958666667,-2.2383694249999997,8.727657676,97.78558349333333,28.99110476,19.065688769999998
328,2.7332239999998365,-16.905580523333334,16.072556176666666,-40.647674599999995,-6.595762968,-0.328037699,10.900925397,99.42356365333335,45.70944087,19.46469688666667
329,2.7415569999998297,-16.077974003333335,16.369891483333333,-40.56145223333334,2.3157416976666667,-2.398556033666667,10.325405358333335,96.05244446,30.69721158333333,19.336161933333333
330,2.749889999999823,-15.219245276666664,16.673275630000003,-40.48650103333333,-7.069473266666667,-2.7975008486666666,9.570308288666666,100.07302857,32.201574326666666,17.755517956666665
331,2.758222999999816,-14.394235293333333,17.047532399999998,-40.40469866666666,0.36254316566666667,-1.4635726013333334,12.350940706666668,95.79854074999999,40.38908386333333,20.068840026666667
332,2.766555999999809,-13.554563203333336,17.248939513333333,-40.30858613333333,-3.731987714666667,-3.3844236530000003,7.143733024666666,96.94963328,20.254470189999996,16.19226360333333
333,2.7748889999998028,-12.717371936666666,17.603208543333334,-40.21921793333333,-2.7481766143333335,-2.449442228,12.23584779,96.88136800000001,38.45684051666667,19.157782236666666
334,2.783221999999796,-11.941988626666665,17.86367607,-40.12607573333334,-3.260003567,-3.259943246666667,10.052197615666666,89.22990417666666,27.68257649666667,16.716310503333332
335,2.7915549999997893,-11.162987393333333,18.12224388,-40.00455983333333,-2.0515976449999997,-2.7407718103333334,8.513959886,88.60428365,27.024115246666668,19.305025736666664
336,2.7998879999997826,-10.431291261333334,18.466889066666667,-39.94650523333333,-5.369469245333334,-2.887614011666667,16.971150713333333,85.19769795666667,38.76904932666667,13.851533253333335
337,2.808221000000003,-9.779003144666666,18.754044216666667,-39.830589333333336,-0.7566924693333332,-4.289843241333333,10.866477647000002,73.41073481333332,30.97650464333334,18.636166253333332
338,2.8165539999999964,-9.174130121666666,19.010915756666666,-39.77656553333333,-3.733084400333334,-4.161367972666667,5.200844764333333,70.07680130333334,28.73091379666667,10.838919639666665
339,2.8248869999999897,-8.584012508666666,19.325597763333334,-39.680781033333325,-0.6956530413333333,-2.7865959803333333,12.865015982000001,66.60709253666666,35.017189026666664,16.212005933333334
340,2.833219999999983,-8.07693847,19.561288833333332,-39.62443796666667,-1.5612567860000002,-3.622793436,9.574175674666668,58.18332926666667,26.4040184,10.095335166
341,2.841552999999976,-7.617258866333334,19.84055837,-39.5423889,-2.9738644756666663,-3.3763863246666665,7.510160524333333,51.41357294666667,31.34267807,13.470318476666668
342,2.849885999999969,-7.202259699333333,20.070489246666664,-39.46455126666667,-0.17332619433333332,-2.64918526,8.332244478666667,46.18972778333333,25.597110113333333,11.972938856666666
343,2.8582189999999628,-6.798556963666667,20.220355986666664,-39.35924533333333,-1.4658091663333332,-3.3018640680000004,8.682075499,43.67627334333333,15.83041954,13.671240488
344,2.866551999999956,-6.429300307999999,20.50917434666667,-39.27916463333333,-4.554045915666666,-1.8190730013333332,14.461680093333335,40.55437851,32.779653546666665,12.584306083333333
345,2.8748849999999493,-6.077641010333333,20.679112113333332,-39.15052793333333,0.023068388333333356,-2.7376424470000003,7.5287735866666665,36.34489504333333,18.118304256666665,16.286327359999998
346,2.8832179999999425,-5.717092673,20.834576926666667,-39.0580978,-2.8224862516666662,-1.7080356083333335,5.012011845666667,38.91887156000001,16.855914748666667,11.932209649999999
347,2.891550999999936,-5.341373920333333,21.057446799999997,-38.9208679,-2.06485794,-3.010420719666667,13.972428323333332,38.778970083333334,24.56175740666667,17.572879793333332
348,2.899883999999929,-4.980331262,21.15295537,-38.8043111,-1.69692113,-0.42099539466666663,7.318799018666667,37.86436081,9.609510899,13.675683336666665
349,2.9082169999999223,-4.6007640363333335,21.407469430000003,-38.672431933333336,-4.257822990666667,-2.237149516666667,9.104609647,39.39705022333333,28.63906160666667,16.93550682
350,2.916549999999916,-4.205847183666667,21.455486929999996,-38.537902833333334,1.7708262206666667,-1.7795761823333331,8.282217351666667,41.06459554,3.9420557019999998,15.143678983333336
351,2.924882999999909,-3.787354549,21.642102559999998,-38.4039612,-4.479830424333333,-1.758613825,6.187079689000001,43.90674336666667,20.72902552333333,16.149028143333332
352,2.933215999999902,-3.3883264066666663,21.70649211,-38.2760849,0.535711656,-1.255140146,12.404476005333334,41.78407796333334,6.167573293,14.436122576666667
353,2.9415489999998954,-2.9174710116666667,21.796486536666666,-38.12647499999999,-5.133908033333333,-1.3060078823333334,7.2538612670000004,49.441427866666665,9.302474498999999,16.883454636666666
354,2.9498819999998886,-2.431370775,21.921951293333336,-37.999717700000005,-0.137416189,-0.40352131799999996,11.162043094666666,52.23654810666667,13.732837041333333,14.526999473333333
355,2.958214999999882,-1.8792856136666665,21.921448390000005,-37.85100813333334,-3.6990293463333335,-0.8025221033333335,10.607748825000002,59.18905258,-1.246280034,16.234223046666667
356,2.966547999999875,-1.3249883056666667,22.024001443333333,-37.70760093333333,-1.0339483423333333,-0.7989376983333333,11.154357593,59.646804806666665,11.204097272666667,16.02829933
357,2.9748809999998684,-0.7175230036666665,21.985418953333333,-37.556330366666664,-2.1773873169999995,-1.3682334423333333,6.518637976,65.69814936333333,-5.480988582999999,16.44063536333333
358,2.9832139999998617,-0.07032782833333329,22.036271413333335,-37.40822346666666,-0.3476703960000001,-1.861587922,10.928028584000002,70.58223724333334,5.3514519993333325,16.24997679666667
359,2.991546999999855,0.6245390973333332,21.94275729,-37.254864999999995,-2.8324024283333333,-0.12339382133333336,8.761840820666666,76.08426920333333,-11.707407476,16.846114476666667
360,2.999879999999848,1.3470985666666664,21.960220969999998,-37.08856203333333,-2.082623830666667,-1.1662267843333334,9.367562491333333,78.83198801666667,1.8037854033333334,18.24472490666667
361,3.008212999999841,2.120878080666667,21.835401533333336,-36.9246979,-2.122661352,-0.11164764066666666,11.242529867333333,85.12337239666667,-14.976708733333334,18.394573213333334
362,3.0165459999998347,2.929459691,21.782381689999998,-36.7539037,-1.0180625163333332,-0.577745423,6.886156240999999,89.00607045333334,-6.131013075333333,19.051996866666666
363,3.024878999999828,3.7736411886666663,21.6133461,-36.594535833333325,-1.835669756,-0.9618165690000001,12.488518397333332,93.80427805666666,-19.81481107,18.662128446666667
364,3.0332119999998213,4.6423912839999995,21.50172424333333,-36.414075233333335,-2.117103239,-1.4485330583333333,8.572843073333333,95.88473256333334,-12.484512645333334,20.758360543333335
365,3.0415449999998145,5.526330312,21.288518906666667,-36.27021533333333,-1.1533665260000001,-1.030830582,10.464790343999999,99.34541574999999,-24.6670386,18.047052383333334
366,3.049877999999808,6.4602257409999995,21.133163453333335,-36.106730133333336,-2.4299508333333333,-0.8218206763333332,10.329802829666667,104.55524190666667,-17.237086933333334,19.77797254
367,3.058210999999801,7.380618095333333,20.931404113333333,-35.963305133333336,-3.3711261350000004,-1.9677862326666666,10.224733035333331,103.82571410000001,-22.729036646666668,18.656323116666666
368,3.0665439999997943,8.346533934333333,20.72133064666667,-35.81373086666667,-1.446907211,-1.3783751329999998,12.209815661666667,109.12199913333332,-23.275951386666666,19.70869890666667
369,3.074876999999788,9.282300632,20.51532936,-35.69080859999999,-2.4891350296666666,-1.6387384733333334,15.398662566666667,106.64744823333332,-22.951470696666664,17.21199894
370,3.083209999999781,10.220380145,20.258267723333333,-35.546686833333325,-2.052298208,-2.4681221643333333,7.337646166666667,106.13454693333334,-28.242679596666665,20.917177836666667
371,3.091543000000001,11.139810878666667,20.00564448,-35.45068106666666,-0.6024664443333333,-2.570561568,12.353603842,105.90589143333334,-28.43771998,16.004221913333335
372,3.0998759999999947,12.078132946666665,19.703863143333333,-35.33741506666666,-3.2200092473333335,-1.8297096886666664,14.048312189999999,107.56321716666667,-33.48567772,19.480998356666667
373,3.108208999999988,12.953019143333334,19.488362629999997,-35.231780966666676,-2.7689700123333334,-1.8694805303333333,13.194552738666667,100.27635447333334,-23.32394854333333,16.94524034
374,3.1165419999999813,13.806098936666666,19.122292836666666,-35.15417223333334,-1.11835288,-2.838333686,8.382411163666667,98.88592019666667,-41.27860387,18.42235311
375,3.1248749999999745,14.649128593333332,18.86930275,-35.0814514,-2.412302375,-3.271564801666667,9.332185746999999,97.83262889333332,-28.08811315,15.151021003333334
376,3.133207999999968,15.466471036666666,18.464875539999998,-35.038513200000004,-0.8325023676666666,-1.3252289493333336,12.802959123333332,95.99507395333335,-46.199031829999996,17.050626753333333
377,3.141540999999961,16.2381773,18.233975726666667,-34.99427793333333,-6.453968366000001,-3.8116992313333333,14.269515197333334,90.45934041333332,-25.967039743333334,11.976026535666668
378,3.1498739999999543,16.957208313333336,17.898649213333332,-34.953877799999994,1.129340728,-2.2151148713333333,14.721926373333332,84.37488301666666,-37.84651057,15.611061413333331
379,3.158206999999948,17.614427566666667,17.6522452,-34.95292663333334,-5.942923068666666,-3.5273180803333335,10.875286578666667,78.33586883333334,-28.901918413333334,8.465495349
380,3.166539999999941,18.23027610666667,17.38028272,-34.90721386666666,-0.37472114933333334,-2.528810938,15.391060826666667,71.88213602666667,-30.02160453666666,14.612014133333332
381,3.174872999999934,18.767669676666667,17.189146993333335,-34.9065043,-6.401271820333332,-5.114599863666666,12.434945423333334,64.02920786666667,-22.380843796666667,6.913530030333334
382,3.183205999999928,19.253199256666665,16.946970303333334,-34.854042099999994,1.467778643,-1.4214175539999998,5.370869795333333,56.058818816666665,-26.06826782,14.850503283666667
383,3.1915389999999206,19.660310109999998,16.806691806666667,-34.8474172,-7.672473429333333,-4.229744195666666,12.859111310333333,48.152779896666665,-16.271375019999997,5.896389862666666
384,3.199871999999914,20.027813596666668,16.659331323333333,-34.756894466666665,0.5408113946666667,-3.533015887,12.7241656,40.67957814333334,-13.653430102000002,15.425263723333336
385,3.208204999999907,20.287275949999998,16.493706703333334,-34.77473703333334,-5.283199866333334,-2.9177614053333336,7.350096939666666,31.246098836666665,-20.016584396666666,4.569342534
386,3.2165379999999004,20.540332793333334,16.441945396666668,-34.650426200000005,-0.6547902426666667,-2.7528490226666666,16.507350920000004,25.811441419999998,-1.399020910666667,15.235190391333333
387,3.2248709999998937,20.681641893333335,16.312324526666668,-34.65398919999999,-2.6601537863333333,-4.104221979666666,7.919440951333333,16.626827876666667,-15.335529325666668,4.757642417333334
388,3.233203999999887,20.83356031,16.236516313333333,-34.5532074,-3.1673259396666666,-1.3847356836666667,9.531957308,14.458796024333333,-4.977271357333334,13.730623959666666
389,3.24153699999988,20.931111016666666,16.242414793333335,-34.49341836666667,-3.061553816,-3.041030327666667,15.779914853333333,9.279100417333334,2.5057546276666667,5.869117199999999
390,3.249869999999873,20.978447596666665,16.120704970000002,-34.421025566666664,-1.453876257,-2.615543047333333,3.014879465,2.898785255,-11.252295176666669,12.696277141333333
391,3.2582029999998667,21.05069351,16.2078015,-34.299151099999996,-5.056139469333333,-0.7495386003333334,11.689574719666666,4.147855502,14.187556109,9.001609802333332
392,3.26653599999986,21.052187603333333,16.120007513333334,-34.219505299999994,0.9975643953333333,-3.641236543666667,6.553871394666667,-2.8177340823333332,-7.141921598,12.082123118333334
393,3.2748689999998533,21.057595573333334,16.11632856,-34.1340332,-3.139376481333333,-0.8726399246666666,5.004699387333334,-2.6657249133333334,2.52950867,8.982423306666666
394,3.2832019999998465,21.104967116666668,16.16314093,-33.99605559999999,-4.252176771666666,-1.4116506180000001,17.255331036666668,0.6971129623333333,10.352819442666666,12.499900501333334
395,3.29153499999984,21.08564885666667,16.06901614,-33.951980600000006,1.613718827666667,-1.949683835,7.682575860333334,-4.205298662,-9.311600208,8.486876804333333
396,3.299867999999833,21.086205163333332,16.082068126666666,-33.84678906666666,-5.181892931666666,-0.5965122383333333,10.213565348333333,-3.8546442986666665,5.2222649253333335,10.403646312
397,3.3082009999998263,21.12053808,16.052609763333333,-33.7642873,0.5840338866666667,-0.49821158266666665,14.785514194333333,0.9556202033333333,-0.4753704466666668,9.830817064
398,3.31653399999982,21.154295603333335,15.97860813,-33.734522500000004,-4.259547948666667,-2.1067531506666666,4.469450791666667,2.638526956333333,-7.652215401666667,6.061075925666667
399,3.324866999999813,21.225009916666668,15.889360426666665,-33.66641490000001,3.1031713483333334,0.6843889726666667,7.656867346666668,5.799084981,-7.750330746666666,10.864258605666668
400,3.333199999999806,21.298508326666667,15.813511533333333,-33.6553116,-6.556021889,-1.3024476273333334,14.568299293333332,8.019464055,-8.619003771333333,4.1463433106666665
401,3.3415329999998,21.386305493333335,15.701781273333333,-33.60153453333333,1.4933985076666663,-0.5604750216666666,9.801928202000001,8.383357999666666,-10.833936373999999,10.350847245666667
402,3.3498659999997926,21.474428813333333,15.543546673333333,-33.634852066666674,-3.1164372366666666,-1.5450428823333333,8.554840725,11.205289206666665,-19.687938373333335,3.0235440136666667
403,3.358198999999786,21.601186116666668,15.41000843,-33.586092666666666,0.20761299133333333,0.5064885573333333,12.740005173333335,13.247409183333334,-13.436746595333332,10.795511248333334
404,3.3665320000000065,21.742664336666667,15.23126825,-33.64516703333333,-5.668735524,-1.0443134553333333,11.706127484,18.365997633333333,-23.07081095,1.2266102306666664
405,3.374865,21.92248726,15.05011336,-33.61052956666668,1.1497755846666664,-1.1781626936666667,5.652759949333333,20.1534125,-19.276273726666663,11.515431883
406,3.383197999999993,22.074398040000002,14.840523083333332,-33.68916576666666,-1.7865748403333335,-0.688815102,8.590112208999999,20.141360603333336,-27.366253533333335,0.6165466310000003
407,3.3915309999999863,22.250012716666664,14.631112100000001,-33.69159700000001,-2.517754087333333,-1.0307025113333335,10.391069253666666,20.809892653333332,-23.955147426666667,8.909515678
408,3.39986399999998,22.418984730000002,14.44083913,-33.763491300000005,-4.196056366,-1.0470176933333333,15.069819766666667,21.950213113333334,-24.927320480000002,0.5843772893333335
409,3.408196999999973,22.59769885,14.267650603333331,-33.76565296666667,-3.0002975463333335,-1.9791095653333333,12.008173624666668,21.190677643333334,-19.86459732,7.4139177006666666
410,3.416529999999966,22.76838112,14.076118153333333,-33.84130346666666,0.14455848933333335,-0.9311357833333332,8.322204112,22.20807329666667,-25.247296653333336,0.4057871483333333
411,3.42486299999996,22.94240443,13.925476713333333,-33.8632711,-3.807803154,-1.5297810136666667,10.031242054333333,21.1986351,-18.220393813333335,4.340897401
412,3.4331959999999526,23.10244178666667,13.749949136666666,-33.93125406666666,-1.9330275293333334,-1.7226096096666665,14.875172933333332,20.642894106666667,-23.12315178,0.5980625143333338
413,3.441528999999946,23.253651939999997,13.632710136666667,-33.95826466666667,-5.590152899333333,-0.9683376253333335,11.973398524333334,18.615677199999997,-14.737983703,2.3286662099999997
414,3.449861999999939,23.387099583333335,13.49951299,-34.0128657,0.5087247193333333,-1.1996740973333333,9.104871114333333,17.072867396666666,-17.83525467,0.13652006666666652
415,3.4581949999999324,23.502643586666665,13.363206226666668,-34.04451246666667,-4.5493663946666665,-2.8174303769999995,8.290086111666668,14.417114893666666,-17.05380535333333,2.817675749333334
416,3.4665279999999257,23.587730406666665,13.254674593333334,-34.09560903333334,1.037222664,-1.7788880020000002,7.514505705333334,11.157792407666667,-14.94762070933333,-0.6165199280000001
417,3.474860999999919,23.657236100000002,13.17765999,-34.11984760000001,-6.644383112666667,-2.317414562,11.0074021,8.670740286,-10.186297417333334,0.7821725219999998
418,3.483193999999912,23.713087083333335,13.121788343333334,-34.133565266666665,-1.8105165760000002,-1.2270639536666665,13.562135693666667,6.632104080333334,-7.398110470333333,0.897904077666667
419,3.491526999999905,23.741522470000003,13.110271773333332,-34.127530400000005,-4.556032737,-1.7644864123333335,9.835342567000001,2.930251817,-1.5717835026666667,0.897864817666667
420,3.4998599999998987,23.76024309666667,13.05415217,-34.141502366666664,0.084396561,-1.2751912226666666,9.170183183,2.1767361189999996,-7.433222135,0.8876014543333332
421,3.508192999999892,23.76850001,13.026304243333334,-34.14101406666666,-4.150549491,-1.617663701,10.955416837666666,0.6266824406666665,-3.6329528093333328,1.0890916986666666
422,3.516525999999885,23.761872606666667,13.00989278,-34.12376149999999,-2.0934838453333335,-1.2214497523333332,11.781354107333334,-1.7131868303333333,-1.5979314643333333,2.2889611233333333
423,3.5248589999998785,23.741981503333335,13.004559833333332,-34.128939300000006,-2.9106267690000003,-2.0086054803333333,10.699326197,-2.602974335666666,-1.4292957929999999,-0.6027284860000002
424,3.533191999999872,23.717349369999997,12.988601686666668,-34.112854000000006,-1.6484150883333328,-0.7277952826666666,9.030380725666667,-3.821802179,-1.5985462663333336,2.1763863763333333
425,3.541524999999865,23.682774226666666,12.970752716666667,-34.124677033333334,-1.2846402726666666,-1.719852258666667,9.409275691333333,-4.217870791666667,-3.1212697030000007,-0.7390988273333332
426,3.5498579999998583,23.650077820000003,12.91710027,-34.145111099999994,-2.616807540333333,-0.51719291,12.012820562333333,-3.8069757670000004,-7.456654549,0.0608470436666666
427,3.558190999999852,23.617027919999998,12.899085996666665,-34.16029106666666,-2.2071883056666666,-1.1102755863333333,10.925837516666666,-3.946718454333333,-3.292710065666667,-1.0819411873333333
428,3.566523999999845,23.583336513333336,12.884303093333335,-34.16513823333333,-3.587204933,-1.2600192229999998,12.464295069,-4.342979113333333,-2.4593637386666667,-0.14538188766666651
429,3.574856999999838,23.538826623333335,12.849172593333334,-34.20088703333332,-0.059159755666666314,-1.247974977,8.798966566666666,-4.754246195333333,-6.138059572666666,-2.4550305006666666
430,3.583189999999832,23.47827975,12.837164243333334,-34.22179413333333,-3.341195980666667,-1.4431136446666668,10.221661410333333,-7.1362632113333335,-2.895740770666667,-1.9869263170000002
431,3.5915229999998246,23.420407613333335,12.786525410000001,-34.262868266666665,-1.8218868176666667,-1.6092327006666667,13.775526363333332,-6.258677721000001,-8.093900520333333,-2.353726685
432,3.599855999999818,23.339143116666666,12.771603903333334,-34.29494986666666,-4.561286449333333,-0.29227885233333334,12.770558359,-9.296073794,-3.728255987666666,-3.027462184333333
433,3.608188999999811,23.253454206666664,12.757812816666666,-34.323806766666664,-0.5165581306666667,-1.2496139160000002,8.956729889666667,-9.913759073666666,-3.460906187666667,-2.7804507416666664
434,3.616521999999805,23.16273689333333,12.744015056666669,-34.352844233333336,-3.550815801,-2.606499672333334,9.068011919666667,-10.532131515,-3.462122937,-2.7819622953333334
435,3.6248549999997977,23.04638799,12.696698190000001,-34.40522763333334,1.1328624883333334,-0.6892262749999999,8.290614365666668,-12.956461426666666,-8.232964981,-3.741651614333333
436,3.633187999999791,22.917368573333334,12.710294406666668,-34.44218953333334,-5.881261388666666,-1.5946119823333333,9.662209669666666,-14.930609703333333,-0.7830701673333333,-4.927462737
437,3.641520999999784,22.807711283333333,12.667227746666667,-34.48242439999999,-0.6144679983333332,-0.839410762,14.434491156999998,-12.49164645,-7.201208988333335,-2.6973586876666666
438,3.649854000000005,22.672197979999996,12.687138876666667,-34.523020433333336,-5.404206991333333,0.019407729333333346,11.744726022,-15.574186642333332,-0.22754001500000007,-5.561629454333333
439,3.658186999999998,22.54270045,12.69817511,-34.54384866666667,0.674969822,-0.7209237813333332,9.433248201333335,-15.383763313333333,-0.32197968166666663,-3.101001024
440,3.6665199999999913,22.41856511333333,12.70734024,-34.592536933333335,-5.2148518563333335,-1.7064209776666666,9.509019216333334,-14.028243699999999,-1.762404680333333,-5.991725286
441,3.6748529999999846,22.286047616666664,12.699611026666666,-34.62417346666667,1.9516344070000002,-0.5774013546666666,9.48960924,-15.433800060000001,-2.8745625416666667,-3.3980192343333333
442,3.683185999999978,22.153038026666668,12.776446343333333,-34.659118666666664,-8.041731993333332,-1.561120013,11.418351173333333,-15.46163877,6.3936486226666664,-7.5737905503333325
443,3.691518999999971,22.05842590333333,12.805480956666669,-34.65320586666667,0.14086719866666672,-0.207942168,12.774523893333333,-11.881311096666666,2.8729529379999996,-1.0174444516666667
444,3.699851999999965,21.944377263333333,12.872333206666667,-34.70374806666667,-6.296374797666666,-0.4509617883333334,9.350752987666667,-12.737442332,4.631414255666667,-8.761949222666667
445,3.7081849999999577,21.835917156666667,12.905641236666666,-34.67800903333334,3.4134841760000003,0.1357980816666667,7.003493348666666,-14.068937936666666,4.216970940333333,0.9863189259999999
446,3.716517999999951,21.732581453333335,12.996311503333333,-34.73196666666666,-6.786289532999999,-3.005820592333333,8.145454564,-11.396741233,7.173247894999999,-10.227836132666665
447,3.724850999999944,21.63681602666667,13.021763166666666,-34.717356366666664,1.5002428493333333,-0.10706326366666664,12.212100664666666,-12.241309486666665,2.8486403326666667,0.12793497266666684
448,3.7331839999999374,21.513947806666668,13.128625553333334,-34.76528423333333,-7.600517432,-1.0617462393333332,13.178216776666666,-13.885635056666667,9.284783871666667,-10.226641495333334
449,3.7415169999999303,21.412629443333334,13.217065813333335,-34.707384766666664,2.061713616,-0.8760329583333334,9.914734205333334,-14.069639523333334,11.720647335,2.0992484093333337
450,3.749849999999924,21.319066366666664,13.271614393333332,-34.79367319999999,-4.82206885,-0.4226784521333333,7.548167864333333,-9.30865892,1.845599634,-12.117619595999999
451,3.758182999999917,21.229431153333334,13.29415703,-34.74461363333334,1.623984784,-0.24668718600000003,12.222855887,-12.448700269333335,3.965993722,4.041893323000001
452,3.7665159999999114,21.097713470000002,13.365029336666666,-34.81839243333333,-5.037491480666667,-2.0924116766666665,10.471399940333333,-14.231717746666668,4.245121399666666,-11.444334109666668
453,3.774848999999904,21.017061233333333,13.417248726666665,-34.764689133333334,-1.0908835726666666,-0.7570896943333333,7.391278268333334,-11.488542874666665,7.461672306333334,3.2826782839999997
454,3.783181999999897,20.91966883,13.389406523333335,-34.84970603333333,-0.8691998719999998,-0.269031738,9.183882395333333,-9.803092004,-7.246009707333333,-8.429405053333335
455,3.7915149999998894,20.821544013333334,13.389812466666667,-34.82478586666667,-2.7119294800000002,-0.843708684,10.310073376,-12.775553386666667,0.44511995733333337,2.3878615683333333
456,3.799847999999884,20.73229154,13.399781863333333,-34.87566376666666,-1.761053761,-0.47589063666666664,11.924887973333334,-9.780542214333332,-1.5651538373333331,-6.339016276
457,3.808180999999877,20.67048518,13.360766413333332,-34.87220000000001,-4.707202911333333,-0.3142576713333333,12.998592060999998,-7.824108918333334,-4.863973299666667,1.7308912280000002
458,3.81651399999987,20.585328423333333,13.356627783333332,-34.902071633333335,0.19238877266666657,-0.625364234,8.889122805,-9.853457134000001,-2.280124445666667,-3.410566013
459,3.8248469999998633,20.51679229666667,13.354934053333332,-34.9211324,-3.2888628443333325,-1.3511914016666668,8.914346853666666,-8.025682926333333,-1.587032497,-2.3266777190000005
460,3.8331799999998566,20.46810849666667,13.311136563333333,-34.954233800000004,-1.5365437670000002,-0.684026425,10.564414978333334,-5.404732227333334,-6.868492285666666,-2.138707955333333
461,3.84151299999985,20.401749929999998,13.295661610000002,-34.9982732,-3.552271843,-0.38783208499999994,13.958230336666666,-7.075283845333334,-4.145152171666667,-4.471166222666667
462,3.849845999999843,20.343957899999996,13.309582076666665,-35.017453499999995,-1.8560433683333333,0.4340367316666667,11.48669529,-6.850407441333334,0.19537686066666674,-3.0063982013333335
463,3.858178999999837,20.311758039999997,13.29014778,-35.03779093333333,-3.525615851,-0.7090026736666667,8.543493430666667,-3.6553393206666662,-3.6238507429999998,-1.7399496633333331
464,3.8665119999998296,20.270995456666668,13.242847443333332,-35.104591333333325,0.17459806200000003,-1.0023281376666666,8.921429952,-3.490755875666667,-8.627866109666668,-5.664226412333334
465,3.874844999999823,20.21151352,13.22234154,-35.137949633333335,-3.1607005993333335,-1.2886302966666665,7.984959760999999,-6.570769151333333,-4.259972095333333,-3.114891946
466,3.883177999999816,20.157757443333335,13.203926086666668,-35.1886088,-2.1508301,-1.4449330766666666,10.452634174333333,-5.519467036000001,-4.716008424666667,-5.147774100333334
467,3.8915109999998094,20.086662293333333,13.189116480000001,-35.250752766666665,-5.536254724,-1.12101776,13.728249547333334,-7.178390105666666,-4.768748164333334,-6.512727259666666
468,3.8998439999998022,19.999858220000004,13.189926146666666,-35.2798106,0.8367877303333334,-0.5967551120000001,10.903453191000002,-10.035871663,-1.6726651193333335,-3.539422035
469,3.908176999999796,19.889965693333334,13.206123353333332,-35.341189066666665,-4.768122196,-2.3667243323333333,9.672783852333334,-11.876630466333333,-1.2243478,-7.722872256333333
470,3.916509999999789,19.771860123333337,13.184512769999998,-35.381510399999996,0.36561819166666676,-1.0833466453333334,11.119371413333333,-13.500158151333336,-4.643716772666666,-3.896259427
471,3.9248429999997834,19.606694539999996,13.20916652666667,-35.450564066666665,-6.201962630000001,-1.1763598423333332,13.201584813333334,-18.285703657,-0.5280025790000001,-8.865850767333333
472,3.933176000000003,19.440013246666666,13.254790309999999,-35.44374593333334,-0.9122978576666667,-1.8720265426666665,9.811505158666668,-20.58391571,4.810774246666666,-1.3821062739999999
473,3.941508999999997,19.24181938,13.287834486666666,-35.54549406666666,-3.3924082123333332,-1.00166447,7.895766575666667,-21.366076149999998,-0.7764320866666669,-12.838562331333334
474,3.9498419999999896,19.006458916666666,13.288454370000002,-35.555287699999994,-0.8517323333333334,-0.8342126306666667,10.321736972,-28.368157069999995,-0.9147522450000002,-1.4071529506666665
475,3.958174999999983,18.71866798666667,13.385886506666667,-35.644803333333336,-5.51248312,-2.565308889,12.880207059999998,-32.471838,7.125552814333333,-13.979234536000002
476,3.966507999999976,18.429026923333335,13.446878113333334,-35.6705246,-1.8493712543333334,-1.0996720793333334,10.124943097666666,-34.42994499333333,5.342585682666667,-5.469182013
477,3.9748409999999694,18.079289120000002,13.491407076666666,-35.774505600000005,-2.1492522160000003,-1.842685898,9.439504782,-39.46431224,0.7392524079999999,-13.525673230999999
478,3.9831739999999622,17.677165983333335,13.604932466666666,-35.803558366666664,-3.0092264363333334,-2.5029869876666666,12.342120170000001,-47.83708572333334,11.265642486333334,-7.708797057000001
479,3.991506999999956,17.237833023333334,13.700595219999999,-35.895607000000005,-3.1097421250000004,-1.7372172673333333,11.256981532333334,-50.50658162666667,7.195360978333333,-13.995837371333332
480,3.999839999999949,16.75544770666667,13.77234173,-35.9450938,-2.049543877666667,-2.512026488666667,6.466791750666666,-56.84368133666667,5.865922769666667,-8.304266213
481,4.008172999999943,16.234794616666665,13.85898876,-36.03723396666667,-0.309855024,-0.8754994246666667,7.268163998666668,-60.265865323333344,6.410485332333334,-13.663984457000003
482,4.016505999999936,15.698560716666668,13.993596396666666,-36.08641049999999,-6.660050471666666,-2.337034901,12.961545625666666,-63.32234573333333,13.258806226666666,-10.196206887333334
483,4.024838999999929,15.088516556666667,14.039140066666667,-36.16898346666667,2.822395841333334,-1.4868922629999999,10.458704948,-71.18409983666666,2.2005287013333334,-11.018369595666668
484,4.033171999999922,14.428227740000002,14.161533673333333,-36.25704446666666,-6.685491164333333,-2.25400877,7.03778251,-77.08026886333333,10.917838095,-13.999170940666666
485,4.041504999999916,13.770921386666666,14.283835093333332,-36.31214646666667,0.5403914649999999,-0.48987720400000007,16.209052086666667,-77.63891093,12.151628176666668,-10.110400757666666
486,4.049837999999909,13.055125233333333,14.353681563333334,-36.4169642,-5.6104468506666665,-1.9299374619999998,8.291791040666666,-83.17968241333334,4.670065721333333,-14.012497265333332
487,4.058170999999902,12.325874963333334,14.449757893333333,-36.47589873333333,3.303987006666667,0.06945636866666667,3.134757956,-86.1451416,9.188596248666668,-9.646559238666667
488,4.066503999999895,11.58358288,14.556531269999999,-36.60514580000001,-8.004098339,-2.3007970253333334,16.63669141,-85.63324228666666,8.817833582,-17.681310016666668
489,4.074836999999889,10.793583868666666,14.626219116666666,-36.650077833333334,1.2200595490000001,-1.018066374,10.812757650000002,-93.79384358666668,6.596003593,-6.906481266
490,4.083169999999882,9.944537797666667,14.713769593333334,-36.81513466666667,-4.581237634,-2.158340493666667,4.856334050333333,-97.32020316,6.328685921000001,-21.178864163333333
491,4.091502999999875,9.126708985333334,14.800605456666666,-36.859621700000005,-0.9512907763333333,0.013880570666666666,14.92473348,-97.14238736333334,8.762749196666666,-7.173682849666666
492,4.099835999999868,8.253393492333332,14.862513863333334,-37.02547706666666,-3.5227848293333337,-1.1480559733333333,10.048808096666667,-100.14082843999999,3.9421375683333335,-20.378774643333333
493,4.108168999999862,7.373930136333333,14.908894856666668,-37.10200246666667,0.491043965,-1.170007686,4.415239850666667,-103.53812152333334,3.5829562033333335,-10.060291609666667
494,4.116501999999855,6.4827152886666655,14.947651866666666,-37.26612853333333,-4.180513541,-0.6382772449999999,11.149865626333332,-102.36170704333334,1.8903459426666671,-19.972849844000002
495,4.124834999999848,5.598176002333333,14.972917873333335,-37.355547599999994,-1.745352348,0.22222200033333336,12.619021733333334,-103.6987406,1.1610403109999998,-10.804426670666667
496,4.133167999999841,4.710111459,14.96727276,-37.511764533333334,-1.8104928036666665,-1.3802237906666666,6.565550168333334,-102.19452157,-2.7670753003333335,-18.401003517333333
497,4.141500999999835,3.8526079653333336,14.927428883333333,-37.616945933333334,-1.558362047,1.1290301606666666,11.557731787666667,-99.97264355666668,-6.447457947666666,-12.313155334333333
498,4.149833999999828,2.9634026683333325,14.89480273,-37.75129703333334,-2.6437583766666664,0.852006793,12.29287688,-103.01523843333332,-5.307609955666667,-15.538838546
499,4.158166999999821,2.106887162,14.879927316666667,-37.847368900000006,-2.791214426333333,-2.4637933176666666,6.712016592,-100.14633432333333,-3.0653537113333336,-11.445266406000002
500,4.166499999999815,1.2943076290000002,14.750648816666667,-37.99018353333333,0.4390598933333334,1.0909718476666665,6.518996795,-93.61050415,-16.462485791666666,-16.618237655
501,4.174832999999808,0.47585339200000004,14.639408426666668,-38.08736673333333,-3.5432882210000005,0.6248098266666666,10.190313178999999,-95.58186086,-14.247823717333333,-11.472379685666667
502,4.183165999999801,-0.3583920400000001,14.57020251,-38.213488266666666,-2.2427431343333333,-0.8003311603333333,13.24748802,-96.77073161666668,-8.815889834666667,-14.959708056666669
503,4.191498999999794,-1.1408147616666666,14.406362216666666,-38.33184813333333,-3.0641808906666665,0.20312967933333334,8.677617232666666,-90.66241963666666,-20.189599670000003,-14.382809003333334
504,4.199831999999788,-1.918431173,14.240806263333333,-38.44190723333333,-0.6607571543333334,-0.118083169,8.673459689333333,-90.51736704666666,-20.010602949999996,-13.670238018333334
505,4.208164999999781,-2.710446477,14.100540476666666,-38.564140300000005,-2.299133380333333,-0.7048441966666666,9.981908001999999,-91.79644266666666,-16.93441995,-15.229055406666665
506,4.216498000000001,-3.471531073,13.949358306666667,-38.688730899999996,-4.151338339,0.5396508176666667,11.490194162333333,-88.17013804333334,-17.866425833333334,-15.829447746666666
507,4.224830999999995,-4.212493896333333,13.765241623333333,-38.7929916,-2.0945979356666666,-0.8066001883333334,8.626011849666666,-86.26345825333334,-21.899560930000003,-13.932740529999998
508,4.233163999999988,-4.967694918333334,13.56925392,-38.91680653333332,0.8225825426666665,-0.4272858696666666,6.556495031666667,-87.5660731,-22.83934466,-16.65982914
509,4.241496999999981,-5.715498129333334,13.370254833333334,-39.041964233333324,-5.496548652666667,0.07508387899999998,11.027794518333332,-86.53662109666668,-23.018403053333333,-17.468166353333334
510,4.249829999999975,-6.471877575000001,13.158005393333333,-39.140274033333334,-1.8220796983333336,-0.6515486836666666,14.023582776666666,-88.50555928333331,-24.668916703333334,-14.340589206666666
511,4.258162999999968,-7.246882915333333,12.949419336666667,-39.2754466,-3.096395015666667,-1.4111881353333333,9.179474194666666,-89.64728800333334,-23.566364923333335,-19.249947866666666
512,4.266495999999961,-8.026590824333335,12.727552733333333,-39.38743336666666,-0.9484868146666666,-0.257969583,8.831833680666668,-91.02527109666666,-25.200127283333334,-16.958489099999998
513,4.274828999999954,-8.833230971666667,12.505747796666668,-39.502245599999995,-4.071490844,-0.5774419306666667,13.327641486666666,-94.09508769,-24.94452413,-17.767851513333337
514,4.283161999999948,-9.663001854,12.309382436666667,-39.61981963333333,-2.851383129666667,-1.1957479023333333,10.597354728333332,-96.96607717,-21.6575311,-17.631271996666666
515,4.291494999999941,-10.498224576,12.068166096666667,-39.72900140000001,-1.745482385,-1.2519336936666667,6.257656733,-97.75434365666666,-26.83740616,-18.409694036666668
516,4.299827999999934,-11.341750462666667,11.815321603333333,-39.82184093333334,-1.0999825843333333,-0.18854518733333328,8.338528631666668,-99.32961274999998,-28.332928973333335,-16.778390886666667
517,4.308160999999927,-12.210104306666667,11.604579606666666,-39.93313086666666,-4.493905862333333,-1.1068013903333334,11.758905572333333,-101.90954336666668,-22.75057602,-18.11330986
518,4.316493999999921,-13.085003853333333,11.38730526,-40.027226799999994,-2.060153236,-0.5000277783333332,12.414787607666668,-103.15185293333332,-23.651605606666667,-16.76736005333333
519,4.324826999999914,-13.957338016666668,11.127692856666668,-40.110473633333335,-2.0570906003333334,0.089312956,9.11266311,-103.15930175999999,-28.68121592,-16.867787046666667
520,4.333159999999907,-14.842984520000002,10.915613810000002,-40.19338483333333,-2.1553882956666666,-0.721759508,7.9999094023333335,-104.78069816666668,-22.853214899999998,-16.13303725
521,4.3414929999999,-15.699649173333334,10.702188172666666,-40.2820384,-4.048866589666666,0.6258654000000001,14.991037686666667,-101.22780608333335,-22.653552373333337,-16.88799731
522,4.349825999999894,-16.564011253333334,10.465763092333335,-40.3360214,-2.8671041726666666,0.02923819666666666,11.145311991666667,-102.94356028,-26.11932055,-14.23129336
523,4.358158999999887,-17.436615626666665,10.292031287666667,-40.41057586666667,-1.936466515,-0.5886309346666666,4.440960288333333,-103.54181416666667,-18.072098413333332,-14.537212049999999
524,4.36649199999988,-18.25196139,10.078852652666667,-40.4731242,-1.5684642890000002,-0.03722915033333333,8.9448754,-96.91108449333335,-22.721532823333334,-15.24413395
525,4.374824999999873,-19.07030932,9.843914350666665,-40.504089400000005,-3.7451266049999994,0.496717751,14.129604974333333,-98.01705932666668,-26.27073924,-12.408263843333332
526,4.383157999999867,-19.925534566666666,9.665198009666668,-40.560979200000006,-3.0675671893333334,0.004605784999999973,10.798582393333334,-101.88040667,-18.612978299999998,-13.782034873333332
527,4.39149099999986,-20.704327266666667,9.520839373,-40.60746256666666,-2.5401234230000003,0.24289846400000004,9.821704071333334,-92.97500101666667,-15.123384476666667,-11.061614673333333
528,4.399823999999853,-21.419635136666667,9.335076332,-40.633880600000005,-3.1048622926666667,0.796007303,10.135340849,-85.6995697,-20.3212382,-11.315261206666667
529,4.4081569999998464,-22.13986905333333,9.148160298999999,-40.64385479999999,-1.6347845396666667,1.0089445513333333,8.706948597333334,-86.68693796666666,-21.206459043333332,-9.311850229333333
530,4.41648999999984,-22.838100429999997,8.995712916,-40.6547648,-1.1644858123333333,0.4569315116666666,12.680667559,-83.98088327666666,-17.05293433,-8.499553046
531,4.424822999999833,-23.464715323333333,8.851662318,-40.66799416666668,-4.543030977333333,0.24915687233333336,7.690629799666667,-75.39733123666666,-16.10315768,-8.141691209333333
532,4.433155999999826,-23.99776840333333,8.689952850333333,-40.65703326666667,-2.5716346503333334,1.8984244266666668,9.847702344666667,-64.57306162333333,-18.906445820000002,-6.9574011166666665
533,4.44148899999982,-24.503969189999996,8.538087527333333,-40.62811276666667,-3.0687373480000004,2.4323503176666668,13.2531662,-61.67250060666667,-18.710929553333333,-4.5342426300000005
534,4.449821999999813,-25.00297292333333,8.397275448,-40.61649576666667,-1.7909613056666667,0.8885558843333333,9.660203935666667,-60.48447036666666,-16.52883497666667,-6.186499595666667
535,4.458154999999806,-25.416454950000002,8.282715638333334,-40.597885100000006,-3.575354258666667,0.3266987403333333,10.232931774,-50.37263743333333,-14.058701836666666,-4.011174877333333
536,4.466487999999799,-25.758949916666666,8.122629801333334,-40.559463533333336,-1.9224123953333334,0.7830173173333334,7.9056248663333335,-42.17323303,-19.897553123333335,-4.543777624666666
537,4.4748209999997925,-26.082164763333335,7.974884669000001,-40.5424118,-2.567949156,1.0719676416666666,12.210656486,-39.49260839,-17.493463196666667,-6.122770627333334
538,4.483153999999786,-26.401758830000002,7.838709672333334,-40.510220833333335,-1.704004079,0.155531704,10.986496131,-39.31613922,-16.939265253333332,-4.125459671000001
539,4.4914870000000064,-26.650234856666668,7.715308825,-40.502047233333336,-3.522795518,-0.13151178733333332,7.428463458,-30.36135483,-14.350747743333335,-5.967226663999999
540,4.49982,-26.82417678666667,7.564843813333333,-40.46756236666666,-1.6666245386666665,1.7876303593333336,11.647696176666665,-21.851427716666667,-18.57731056,-4.7776813506666675
541,4.508152999999993,-27.000143686666664,7.407987435666667,-40.42576853333333,-2.5189784963333333,0.31749268366666666,10.335356234,-22.18103345333333,-19.693717956666667,-4.312322775333333
542,4.516485999999986,-27.155609133333332,7.295625845666667,-40.41167956666667,-2.596455554333333,0.4492136613333333,11.163202603333334,-19.29945755,-13.375204723333333,-4.964817841666666
543,4.52481899999998,-27.2554938,7.175058046666666,-40.380823799999995,-3.3343865076666668,0.590467647,9.536635717666666,-12.862407046666666,-15.210507393333335,-3.584986965
544,4.533151999999973,-27.329882306666665,7.029297510666666,-40.339988733333335,-2.3514793316666665,0.397347305,11.623458225666667,-9.964555741333333,-18.378707886666668,-4.015750011000001
545,4.541484999999966,-27.392731983333334,6.934744199333333,-40.321945166666666,-3.2019464970000002,0.13882220799999997,9.967794417,-8.234414417333333,-11.730664889333333,-3.5200281936666666
546,4.549817999999959,-27.436688739999997,6.857411543333334,-40.31696063333333,-3.683898528666667,0.4403879643333333,10.199665705000001,-5.780467511333334,-9.117780527333332,-4.0891419650000005
547,4.5581509999999525,-27.45452881,6.737087567666666,-40.284751899999996,-2.5991883276666665,-0.4495711129999999,11.696994779999999,-3.0148729483333336,-15.240395863333333,-3.4747000136666664
548,4.566483999999946,-27.46472486,6.681746006,-40.288177499999996,-3.133404096,0.03166749066666667,10.716999688666666,-1.6299790146666666,-6.310382724666667,-3.759119351666667
549,4.574816999999939,-27.475157423333332,6.628996849,-40.292198166666665,-3.5422709783333333,-0.282289351,11.204324086666666,-1.6027427116666668,-6.048759301666667,-3.594975352666667
550,4.583149999999932,-27.462708156666668,6.548177242333334,-40.270416233333336,-2.466988166,0.147515893,11.030397731666667,0.7592998743333333,-10.411325453666667,-2.4947583276666667
551,4.591482999999926,-27.45146815,6.528520107333333,-40.288739500000005,-2.8182809353333336,-1.4842433533333335,11.774333953333333,1.1708651086666666,-1.7398085593333334,-3.2615545193333335
552,4.599815999999919,-27.456265769999998,6.506161531,-40.298901900000004,-2.947128812666667,-0.12550900133333331,9.942270597333334,-0.8686855040000001,-2.4305048186666665,-2.651500304333333
553,4.608148999999912,-27.45578893,6.4716959,-40.295562733333334,-2.657972653666667,-1.1012570856666668,10.859065374333333,-0.41772091399999994,-4.4983681786666665,-1.7999978663333334
554,4.616481999999905,-27.466741563333333,6.466114044333334,-40.31004076666666,-2.151501536,-1.2079364853333334,10.667715707,-1.552585522,-0.40599421666666685,-2.165623943333333
555,4.624814999999899,-27.48884646,6.5010137556666665,-40.34282940000001,-3.462741374666667,-0.5565964133333333,10.138303597666667,-2.638945142333333,4.868613084333334,-1.801807682
556,4.633147999999892,-27.535408020000002,6.501077334333334,-40.35628506666666,-2.391417662333333,-0.8650782509999999,10.960167249666668,-5.840340614333333,0.14492575300000018,-1.7374905843333333
557,4.641480999999885,-27.566209793333332,6.567066669333333,-40.39734143333333,-4.525137662666666,-0.89481318,8.346022128666666,-3.5761914249999998,8.643315453333333,-0.9599233420000001
558,4.649813999999878,-27.59705289,6.621002992000001,-40.45677946666667,-1.1254764296666666,-0.023894752000000002,12.912213325333335,-3.312698145666667,8.411037127,-3.611940364
559,4.658146999999872,-27.65590795,6.687957128000001,-40.491533933333336,-4.656544923666666,-0.21538439399999998,10.148966632333334,-7.0254901646666665,8.395566603,-0.1895751556666667
560,4.666479999999865,-27.722835540000002,6.774317423333334,-40.55091856666667,-1.2118074646666666,-1.7656485043333336,7.832958698666666,-7.621149381333333,11.854376160000001,-1.7807445503333332
561,4.674812999999858,-27.765055336666666,6.817914644666666,-40.599624633333335,-2.063001037,-0.5644179783333333,12.27026208,-4.7985963819999995,6.6866429646666665,-2.960979819333333
562,4.683145999999852,-27.82911428,6.892930984333333,-40.64469653333333,-1.7648778956666666,-0.3027630843333334,8.366045474333335,-7.476881663,9.863705476666667,-0.8687368630000001
563,4.691478999999845,-27.89872741666667,6.938953876333334,-40.681121833333336,-3.8523703416666666,-1.265021066,9.030269146333334,-8.237470468,6.2705578363333325,-1.5620630779999998
564,4.699811999999838,-27.954676943333336,6.987709045333333,-40.718877166666665,-0.224934717,-0.6422056806666667,12.293961526666665,-6.594385783000001,6.662907759333334,-1.546920677
565,4.708144999999831,-28.021526969999996,7.05324014,-40.771148666666654,-5.219219183,0.28342449633333333,10.752335865666666,-7.689820925333334,9.234346232,-2.104696134666667
566,4.7164779999998245,-28.1006101,7.1089291569999995,-40.79112753333333,-1.6281451729999998,-0.8541611233333333,10.619668641333334,-9.602820713,6.403538385,0.7185007183333333
567,4.724810999999818,-28.156869889999996,7.166117986,-40.85585530000001,-3.368491927666667,-0.904666384,12.070968946666667,-6.241583347333333,9.045988083333333,-3.8222931226666663
568,4.733143999999811,-28.217669806666663,7.21794192,-40.88173423333333,-1.0516102513333334,0.3797792346666667,10.102855683666666,-7.317517916666667,6.327224811333333,-0.12152669566666667
569,4.741476999999804,-28.286263786666666,7.253828525666667,-40.922281899999994,-4.332571188666667,-2.1306383209999997,9.818174680333334,-8.065615972333333,5.4395632743333335,-2.4785446723333333
570,4.749809999999798,-28.33277956666667,7.288448493,-40.9427948,0.5561410586666667,-0.2530193726666667,10.46876208,-5.678394317666666,4.2026425996666665,-0.5092451769999999
571,4.758142999999791,-28.381617863333332,7.322105407666666,-40.9829356,-4.745169639666667,-0.518011133,10.30457751,-5.678565025,5.185683170333333,-2.578849792333333
572,4.766475999999784,-28.417637506666665,7.347088973000001,-40.9902242,-1.5364047586666667,-0.649817725,8.076343060333334,-4.632163763,2.4408959200000004,0.332413137
573,4.774809000000005,-28.443239846666668,7.380061626333333,-41.00538129999999,-2.8989411793333333,-0.6403981049999999,12.910915375,-3.2639453413333332,3.6963946023333336,0.01316574199999998
574,4.783141999999998,-28.48338763,7.401499112333333,-41.01824443333334,-2.4366561573333336,-0.6026352943333333,9.199651081666667,-5.024044344666667,2.3840747673333333,-0.4480698433333333
575,4.791474999999991,-28.520849863333336,7.420131206333333,-41.028905233333326,-2.831645796666667,-0.991757949,10.607132913,-4.788504759666666,1.93269219,-0.33696814366666655
576,4.7998079999999845,-28.550429026666666,7.439748128333332,-41.029434233333326,-1.9284111596666669,-0.6738053063333335,11.220681825,-3.946145882,1.4916107653333335,0.759658366
577,4.808140999999978,-28.587514879999997,7.449888388000001,-41.0511678,-2.8007062276666663,-1.1951256783333333,8.020802498,-4.581242323,1.6696297326666665,-1.9975901246666667
578,4.816473999999971,-28.62339909666667,7.446437677,-41.04998270000001,-1.419707045,-1.1176664033333334,11.583372115666668,-4.731615225333333,-1.0398825006666668,-0.3879489356666667
579,4.824806999999964,-28.642089843333334,7.476249536,-41.0669403,-2.934645732,-0.10520380866666666,8.547192097,-2.452708582,3.470336913666666,-0.35381374800000004
580,4.833139999999958,-28.678103766666666,7.452888488666667,-41.06333926666667,-2.114463955333333,-1.1516097883333334,11.899283406333334,-4.753037373333334,-3.2736743293333324,-1.2904324679999999
581,4.841472999999951,-28.688285826666668,7.487446785,-41.07750953333334,-2.931460380666666,-0.2950745176666667,10.571209270333334,-1.4788763323333332,3.8035952246666667,0.22349700066666667
582,4.849805999999944,-28.700054803333334,7.493542989333332,-41.07369486666667,-2.852261146,-0.5754432606666667,8.264288902333334,-1.8572882413333334,-0.184281826,0.41336254266666655
583,4.858138999999937,-28.707829156666666,7.511509100333332,-41.079839066666665,-2.746768872,-0.972324779,13.072742146666664,-1.3065606356666668,1.589909792,0.132468291
584,4.866471999999931,-28.706803636666667,7.539077917666667,-41.0910136,-2.737730563,-0.4629279373333333,10.750539460333334,-0.12347340600000001,2.929965376666667,0.08988035699999998
585,4.874804999999924,-28.726697286666667,7.563618819000001,-41.09241230000001,-2.995076497333333,-1.2933058243333333,8.524178188333332,-2.8108378253333335,2.018713275666667,0.993162016
586,4.883137999999917,-28.727565766666668,7.589817206333334,-41.11889646666666,-1.3358836573333335,-0.534170012,13.076431910000002,-0.12457921100000006,3.6651755966666664,-1.5745201113333334
587,4.89147099999991,-28.745375316666667,7.610940615333333,-41.11095683333334,-3.1749026776666667,-1.8519233066666665,11.514447848000001,-2.706553914,1.1292675796666665,1.7606158456666667
588,4.899803999999904,-28.764003753333338,7.6618367833333325,-41.146723433333335,-2.2520348230000002,-1.1470340923333333,6.080774466333334,-2.096964935666667,6.791772364,-1.1249857446666667
589,4.908136999999897,-28.775697710000003,7.661646524999999,-41.147583000000004,-1.419623613,-0.5532997846666666,12.495663644666669,-1.8294626076666665,-0.6181015969999999,-0.3726870166666667
590,4.91646999999989,-28.773149489999998,7.728952725666666,-41.17725116666666,-3.8762605986666663,-1.2333543103333333,9.721425691,0.33496133466666667,8.172090213333334,0.4555021276666667
591,4.924802999999884,-28.80514589666667,7.756767114333333,-41.18356323333333,-2.883373479,-0.6627458633333333,9.325230916,-4.164098024333334,2.6387533346666667,0.6677544513333332
592,4.933135999999877,-28.82461484,7.812080065333333,-41.220347066666655,-1.25451231,-1.3027513823333334,10.723697660999997,-2.1765698393333333,7.317334890000001,-0.9450588226666667
593,4.94146899999987,-28.83829117,7.860639889999999,-41.23739626666667,-3.9075788159999996,-0.4507910906666666,10.503328483666666,-1.8165832360000003,5.4402376016666665,0.730291774
594,4.949801999999863,-28.869029363333336,7.9167083106666665,-41.25371296666666,-1.674892396,-1.5293056569999999,8.972359179333333,-3.8371491433333333,6.222121041,1.248783668
595,4.9581349999998565,-28.878665923333333,7.943347771666666,-41.276921566666665,-1.6483795606666665,-1.2499127786666666,10.857325874333332,-1.2323989370000001,3.480799315,-1.1650634706666667
596,4.96646799999985,-28.90704282,7.997877439,-41.28826903333333,-2.111422300333333,-1.2481356463333333,7.096760908333334,-3.6300834020000003,5.770259628000001,1.6684045
597,4.974800999999843,-28.90319506333333,8.006446679,-41.29418946666667,-2.951607863333333,-0.8982057769999999,8.527744610333334,0.09542587433333334,0.5925384163333335,-0.40782558899999993
598,4.983133999999836,-28.920673370000003,8.076562245666667,-41.31362403333333,-2.8254319826666667,-1.3064272803333334,13.965776440666666,-2.166580359,7.873471099666666,1.734066526
599,4.99146699999983,-28.92227109,8.093224684333334,-41.32145690000001,-3.0593378543333336,-0.47636082266666663,7.358801841999999,-0.5397560596666667,1.5499773423333334,-0.1431366999999999
600,4.999799999999823,-28.938708623333337,8.151447296333332,-41.3460897,-2.0154434443333336,-1.0174105960000002,13.005041123333333,-1.9586524763333333,6.922960282666668,0.5118236296666667
601,5.008132999999816,-28.93418312,8.200847626,-41.37013756666666,-3.6322510243333337,-1.119874676,11.816469829666666,0.4669773183333333,5.913678250333334,0.082157632
602,5.016465999999809,-28.95780881,8.226926962666667,-41.38284809999999,-1.3636099000000002,-1.038685878,10.342053412,-3.0267062186666664,2.858036677,-0.11049984899999998
603,5.024798999999803,-28.949792863333332,8.253898461666667,-41.40582783333334,-2.9284351666666666,-1.5609095893333331,9.236318590333333,0.8847924323333333,3.4996215603333334,-1.1005967456666665
604,5.033131999999796,-28.969861983333335,8.277412732333334,-41.41012573333333,-1.9550015526666666,-1.519644757,9.805898033333333,-2.725717276333333,2.1073175670000004,0.6129656233333334
605,5.041464999999789,-28.96058718333333,8.274405161666666,-41.4309184,-2.075061798,-0.9073136350000001,8.851496536333334,0.9861822179999998,0.22681816433333335,-2.6196661593333332
606,5.049797999999782,-28.97695668333333,8.299003283333333,-41.432729099999996,-3.017814557,-1.4387675323333333,12.581216493333335,-2.3218705849999997,2.07694753,0.935747703
607,5.058131000000003,-28.975076676666664,8.303220907666665,-41.44743856666667,-3.4421775340000003,-0.9338271616666667,7.436157386666667,-0.007317135666666659,0.6257086596666667,-1.566408674
608,5.066463999999996,-28.978785830000003,8.321867943,-41.45324706666667,-0.7009742930000001,-0.6769830283333333,11.785753568666665,-0.7508301063333334,1.6791583696666665,0.18634355066666655
609,5.07479699999999,-28.963109333333335,8.303120136333334,-41.46254473333334,-4.423662503666667,-1.3782639103333334,9.783826351333333,1.5574137766666665,-2.0925505953333334,-2.3433650333333333
610,5.083129999999983,-28.98636754,8.325959205666665,-41.46323653333334,-1.4733485183333332,-2.0724159083333333,10.980214120333335,-3.1663805643333336,1.8304107986666664,0.9735883869999998
611,5.091462999999976,-28.98190117,8.299201011666666,-41.464040133333334,-2.026665449,-0.8417414280000001,9.121834118,0.04457298933333339,-3.429409107666667,-1.919492304333333
612,5.099795999999969,-29.006448109999997,8.308078448,-41.47024536666667,-1.2506896456666665,-2.2777477503333334,7.501060388,-3.2156624199999997,0.6807243823333332,-0.41280782233333335
613,5.108128999999963,-28.987701416666667,8.261096000666667,-41.4516754,-2.5612578393333334,-0.4708265116666667,10.931185405333332,1.4268281956666666,-6.658699114,-1.1047461033333335
614,5.116461999999956,-29.012559253333336,8.301570574333333,-41.46658326666667,-2.6391586463333336,-2.2908984423333334,10.300319037333333,-3.1185587246666664,4.496382713333333,0.5023975373333333
615,5.124794999999949,-29.002422969999998,8.221682707666666,-41.42794800000001,-2.278857628666666,-1.0961388546666668,8.495359898666665,0.07616821433333333,-11.267344949333333,-0.9264712336666667
616,5.133127999999942,-29.01787948666667,8.286034424999999,-41.4731191,-3.2986939750000004,-0.9991970063333335,13.472666422666668,-1.479111125,8.750655014333335,-1.2463674346666667
617,5.141460999999936,-29.01558939666667,8.229406357,-41.429534900000014,-2.7387444176666667,-0.7094898820000001,8.050827345333333,-0.965618213,-9.131355284666666,0.9759494266666667
618,5.149793999999929,-29.01187706,8.287494977333333,-41.4711609,-3.1628918550000003,-1.9065775870000001,12.416365147,0.754796192,7.887446879,-1.2439766823333334
619,5.158126999999922,-29.01187579,8.212516784666667,-41.43618263333334,-1.2497322956666663,-0.607097179,12.07289473,-1.085356553666667,-10.581046105666667,-0.9416349333333333
620,5.166459999999916,-29.031081513333334,8.26381286,-41.45909626666667,-3.78234756,-2.718930244333333,6.393419742666667,-2.3283340333333338,6.092614889,0.2962713636666668
621,5.174792999999909,-29.01022784,8.196537494666666,-41.42410786666667,-1.3639992153333333,-0.6461199906666666,12.950694082333333,1.438768705,-9.745012918999999,-0.5250448583333334
622,5.183125999999902,-29.042581560000002,8.231365362666667,-41.449849433333334,-4.098784923666667,-2.095839262,10.972826162666665,-3.8524198533333336,4.531905412666666,-0.9705191306666666
623,5.191458999999895,-29.048201876666667,8.180923621,-41.4081319,-1.9590809543333334,-1.757072131,8.173806032333333,-1.875175635333333,-8.396594524333333,1.2065201796666667
624,5.1997919999998885,-29.061407723333332,8.251901785666666,-41.4455007,-3.920954386333334,-0.6151826183333333,11.242768604,-1.3675866919999997,8.994998059333334,-0.086029629
625,5.208124999999882,-29.080824533333338,8.193602085333334,-41.41461689999999,-0.836495942,-1.5662686776666668,10.126383464333331,-3.330537954999999,-8.568892639,-0.41903611
626,5.216457999999875,-29.095660523333333,8.264011065333333,-41.4416148,-4.665633440000001,-2.2121493416666667,9.453459818666666,-1.7684967169999999,8.336674847333333,0.960640609
627,5.224790999999868,-29.137666699999997,8.248538335333334,-41.423116066666665,-0.02992069733333332,-1.0430922013333335,9.296813249333333,-5.810205459333333,-3.3715635936666666,0.8155103523333334
628,5.2331239999998616,-29.165531796666667,8.280813376333334,-41.442682899999994,-3.114806811,-2.1062018473333333,8.879368304,-3.43958203,3.909125329333333,-0.4811847633333333
629,5.241456999999855,-29.210306166666665,8.285840670333334,-41.43230689999999,-1.1926666623333333,-1.687789877,9.414700667666667,-6.024399797333333,-0.7644655306666667,1.1863019663333334
630,5.249789999999848,-29.246021273333337,8.319896697666666,-41.452880900000004,-4.645633618000001,-1.6156864563333333,8.537629445333332,-4.355171839333333,4.155714014666667,-0.49981486299999994
631,5.258122999999841,-29.27820587333333,8.348363558666668,-41.45237223333333,-1.4086318386666665,-1.474319339,12.326577979666666,-4.345446586333334,2.2323486806666666,1.5885906220000001
632,5.266455999999835,-29.293298086666667,8.368784904333333,-41.46966043333333,-4.7907242776666665,-0.2582463623333333,8.047982773333333,-1.9559883676666665,2.5370434116666662,-0.9631934563333333
633,5.274788999999828,-29.333040873333335,8.435313542666668,-41.49257913333333,-1.4772919813333332,-1.333817442,12.697857540000001,-4.8291885856666665,7.587410746,1.4011713266666668
634,5.283121999999821,-29.33938535,8.450083097,-41.50042726666667,-3.9703610736666666,-1.932910760333333,9.566105523666666,-1.0597762266666666,1.3959804783333336,-0.3092706003333333
635,5.291454999999814,-29.388282776666667,8.512463887333332,-41.52967833333333,-2.044148405666667,-1.6159540116666669,13.195248286666668,-5.813467343666666,7.528272392000001,0.49088834733333336
636,5.299787999999808,-29.409730276666664,8.507093111666668,-41.53189593333334,-1.8371121286666667,-1.1163403790000002,7.256375472666666,-2.9752687020000006,-1.0385164023333333,-0.8978346186666665
637,5.308120999999801,-29.444166183333333,8.589255332999999,-41.56860353333334,-2.9656105043333336,-2.9072243373333335,6.334679743,-3.9433970056666663,10.029267629333335,0.8763740063333333
638,5.316453999999794,-29.43272209,8.53957208,-41.54828896666666,-0.5270207323333334,0.015248040333333305,10.216584842000001,0.5649220496666667,-6.985335668,-1.1831173103333332
639,5.324786999999787,-29.46231715,8.642980575666668,-41.603246066666664,-3.824369152333334,-2.0317556066666667,10.699606496,-3.024196227333333,13.324881553333334,0.22625927133333334
640,5.333119999999781,-29.471128466666666,8.596362114,-41.5673981,-1.5854277263333334,-1.6581827603333332,8.327397347,-2.1156933406666667,-7.570706447666666,0.6125004289999999
641,5.341453000000001,-29.492931366666667,8.722974777,-41.64466346666668,-4.050124406666667,-0.9686176876666667,13.124483428,-1.7119793096666667,17.0450538,-0.7112390896666666
642,5.349785999999995,-29.508930203333332,8.664708773333333,-41.60821023333333,0.19483838466666673,-1.7460250856666668,6.580010812333334,-2.988861719666667,-8.823430536333333,0.011778314666666715
643,5.358118999999988,-29.50192197,8.769316355333332,-41.6645762,-5.690927028666667,-1.987634162,9.471249896666667,1.3789212306666665,13.554846923,0.085517456
644,5.366451999999981,-29.527239483333332,8.751192728333331,-41.63950599999999,0.5954012873333333,-1.6705672346666667,10.881727378999999,-3.904041051666667,-3.9675134819999998,1.2283435263333333
645,5.374784999999974,-29.532297136666667,8.782931963333333,-41.65884400000001,-4.386922598,-2.1459918420000004,6.809320726666667,-0.7229617933333333,3.7661816260000003,-0.381933868
646,5.383117999999968,-29.55301539,8.82113107,-41.67234803333333,-1.280371984,-2.512504061,11.723402815999998,-2.6379077833333335,4.1703648583333335,0.578689615
647,5.391450999999961,-29.553323113333335,8.783267657000001,-41.639506033333326,-3.76492846,-0.45132501933333335,9.881712120333333,-1.125374178,-6.543254142333335,0.8758830653333334
648,5.399783999999954,-29.571917853333332,8.880514780666667,-41.69485983333333,-2.6916542053333337,-1.6881726383333333,11.438190777333332,-1.6250100133333334,12.77847004,-0.26851834133333335
649,5.408116999999947,-29.581242883333335,8.806573867666666,-41.64755756666667,-1.2768196166666668,-1.7791556913333333,10.701912242333334,-2.4697548946666665,-11.146258353666667,0.250917097
650,5.416449999999941,-29.592573803333334,8.913393656333334,-41.6971232,-4.874650399,-1.6112120946666668,10.675585271666668,-0.8770699303333332,13.436995504666667,0.8450179796666667
651,5.424782999999934,-29.603291826666666,8.863848685999999,-41.674479166666664,0.07383739966666665,-1.658045803666667,7.127561568666667,-2.1736458143333337,-7.193335982,-0.7342661743333334
652,5.433115999999927,-29.599328993333334,8.896169344666667,-41.67872113333333,-4.219197114,-0.8840066196666667,11.155570030666667,0.130158663,3.008776288,1.104652375
653,5.4414489999999205,-29.623992920000003,8.943162599999999,-41.70718383333334,-1.0462648970000001,-1.7512049676666666,13.156619390000001,-2.9086074086666667,5.867274286,-0.2827171683333333
