,time,Euler_X,Euler_Y,Euler_Z,Acc_X,Acc_Y,Acc_Z,Gyr_X,Gyr_Y,Gyr_Z
0,0.0,21.492476143333334,5.252860148666667,-136.59071603333334,-1.5998873710000001,-0.07511050233333333,11.780855180666668,-19.89226976666667,11.904127755,-9.072792689666667
1,0.0083329999999932,21.27224032333333,5.353043397,-136.61845906666665,-0.9373995413333334,-1.9329729476666666,8.857686680333332,-25.833224616666666,9.412572225666667,-8.042683918666667
2,0.0166659999999865,21.000408806666666,5.4553991953333325,-136.65539296666665,-1.5432112813333336,-1.9087420703333333,11.058356601666667,-32.14606412333333,9.254885038333335,-8.915611427
3,0.0249989999999797,20.675617853333335,5.5702394643333335,-136.68651326666668,-1.2200080976666667,-1.6264121136666667,8.047896703000001,-38.30920791666667,11.031214078333335,-8.825949191
4,0.033331999999973,20.276892343333333,5.677045663333334,-136.72657013333333,-2.2559370396666667,-1.9737693073333336,11.497379143333333,-47.31149800666666,9.722587107999999,-9.33841928
5,0.0416649999999663,19.80433146333333,5.840285142333333,-136.73606873333333,-1.95667996,-2.236083358666667,10.349926153666667,-56.202082313333335,17.441001893333333,-8.351885636
6,0.0499979999999595,19.265382133333333,5.9493610063333335,-136.78198493333335,-0.9192128576666666,-1.2889890966666668,8.137155532333333,-64.08426412,9.884228863666666,-9.918121654666667
7,0.0583309999999528,18.64704895,6.107743104333333,-136.81067913333334,-1.6739053826666666,-3.3816918533333333,10.894974708333335,-73.44032287666667,16.308359783333334,-9.935886384666667
8,0.0666639999999461,17.963702520000002,6.196683883666666,-136.8512319,-0.7100231149999999,-0.5951677263333334,9.007488093333334,-81.41421763,7.997256756666666,-8.319421134
9,0.0749969999999393,17.193960826666668,6.385877132333333,-136.89477536666666,-2.2338668703333333,-1.9094216823333332,12.094477653,-91.38921101666665,19.529409086666668,-12.305136046666666
10,0.0833299999999326,16.386933006666666,6.497652848333334,-136.93923186666666,-1.501027604,-2.6300654409999997,7.990944226666667,-96.15717824333335,10.695072173666667,-9.323279064
11,0.0916629999999258,15.48033333,6.66102918,-137.00498456666665,-0.5353809026666667,-2.269482732,10.590604466666667,-107.50924173333334,16.155401546666667,-13.4070975
12,0.0999959999999191,14.499732969999998,6.758966763666666,-137.07026926666666,-2.071501096,-1.204236622,9.764258542999999,-116.63788096666667,8.73360459,-10.921048166
13,0.1083289999999124,13.460505166666666,6.9556716283333335,-137.13206736666666,-1.5102128783333335,-2.3118358850000003,11.808417,-123.41577406666666,20.582030293333332,-13.345941860000002
14,0.1166619999999056,12.374382973333333,7.0811727840000005,-137.18635813333333,-1.3741919996666667,-0.9496864476666668,7.933855691333332,-129.44488016666665,12.626113570000001,-10.035317419333333
15,0.1249950000000126,11.232316973333333,7.196824868333333,-137.27210236666664,-0.9619542113333335,-0.7704083123333335,10.417647996666668,-135.36891173333333,10.970202129333332,-13.255442933333333
16,0.1333280000000059,10.045743942333333,7.347821077,-137.3148168,-1.4933935403333336,-1.6123491376666665,11.434996919999998,-141.63582866666664,16.263136863333333,-8.723720550333333
17,0.1416609999999991,8.860449473333333,7.490655263333333,-137.39397176666668,-2.292935848,0.34703771666666666,8.766281923333333,-140.62035113333334,14.823640823333333,-12.53131612
18,0.1499939999999924,7.652363618,7.595379988333334,-137.44885253333334,0.31354238599999995,0.530032277,10.799829166666667,-143.97608440000002,10.903252760666666,-8.649876117666667
19,0.1583269999999856,6.406236807666666,7.693395614666667,-137.52854666666667,-0.9135422703333332,-1.9680050213333333,10.727413811666667,-147.90438843333334,9.968118826333333,-11.328368820999998
20,0.1666599999999789,5.182545344333334,7.749044259333334,-137.59971363333332,-1.5963940819999998,0.8451974593333333,9.608339309333333,-145.58072916666666,5.197299282,-9.461466631333332
21,0.1749929999999722,3.9469185669999995,7.831170082,-137.68323263333335,-1.4520507306666666,0.8529823023333333,11.977630299,-146.54186503333332,8.506431736333333,-11.103859585666667
22,0.1833259999999654,2.705739657,7.890981833333334,-137.74971006666667,-0.02057592066666662,-1.222439766,10.231692870000002,-147.71641029999998,6.1047521819999995,-8.912316162333333
23,0.1916589999999587,1.4795840976666668,7.913744608666666,-137.85342406666666,-1.068748037,0.6878763439999999,8.669020175,-145.08891806666665,1.7445629909999998,-12.853278795666666
24,0.1999919999999519,0.25823446133333333,7.869678020666666,-137.94316866666665,-0.3039089043333334,0.2967349636666667,10.779036997333336,-144.9532012666667,-6.032156944333333,-11.172848064666667
25,0.2083249999999452,-0.9922162296666667,7.880533377333333,-138.0491612666667,-1.1380196113333332,0.009947766666666672,12.162870245999999,-147.99078876666667,0.858686806,-12.949424423333333
26,0.2166579999999385,-2.2054584823333334,7.850340366666667,-138.16314696666666,-1.6058750450000001,0.434557418,9.602634747,-143.62897746666667,-3.8226744333333333,-14.198142686666666
27,0.2249909999999317,-3.427325169,7.766612847333334,-138.27656046666667,0.9426181709999999,0.3948824406666666,10.206315040666667,-144.43557233333334,-9.887846627333333,-14.435840290000002
28,0.233323999999925,-4.683970292666667,7.618650277333334,-138.39042153333332,-0.9577347240000001,-1.3824405469999999,10.902972540333332,-148.92617286666666,-17.32534663,-15.344875973333332
29,0.2416569999999183,-5.940599441333333,7.5115226113333335,-138.49949136666666,-1.5079330803333333,1.217328886,10.061627069666667,-148.75837706666667,-12.110414820999999,-14.493345263333334
30,0.2499899999999115,-7.169850667666666,7.347619692666666,-138.60148619999998,-1.3351424733333335,0.26142211733333326,11.411466281000001,-145.91379296666665,-18.729281743333335,-14.755276043333332
31,0.2583229999999048,-8.409125963666668,7.154015541,-138.68024189999997,0.3102126619999999,0.706931447,10.292883711666667,-147.2272339,-22.25739034,-12.850903190000002
32,0.2666560000000118,-9.651067097666667,6.948111216333333,-138.7665914,-1.567789038,0.091436982,10.068081379666667,-147.78505959999998,-23.367643356666672,-14.442092576666667
33,0.274989000000005,-10.85428651,6.726469676,-138.81635536666667,-0.9618028403333333,0.8405545799999999,10.604573885333332,-143.40785726666664,-25.62596575666667,-10.938853900666667
34,0.2833219999999983,-12.023179373333333,6.499950091,-138.88423663333333,-2.7032072543333334,1.5570415653333332,12.661177952333333,-139.39840696666667,-25.642665866666665,-13.635072393333333
35,0.2916549999999915,-13.195689203333336,6.273167133333334,-138.9094696,0.621153459,1.1780613713333334,9.581969262,-140.0816803,-26.39037895,-9.323981285
36,0.2999879999999848,-14.368205706666666,6.004211902666666,-138.93994139999998,-1.2604642659999998,-0.35125227766666667,8.989014070333333,-140.41654966666667,-31.06079610333333,-11.660357474333333
37,0.3083209999999781,-15.50624911,5.741943995333333,-138.96175133333332,-1.0447564323333334,0.21405909199999998,10.804972648666668,-136.0522105,-30.243739446666666,-11.014291130666669
38,0.3166539999999713,-16.60412089,5.442554553000001,-138.96920773333332,-1.940977931,1.5254181623333334,11.596268654,-131.75224816666667,-34.85039901333334,-11.218975066666667
39,0.3249869999999646,-17.698567710000003,5.183809916333334,-138.98650103333333,-1.4971156319999999,1.823072076,12.170951842666668,-130.9557622,-29.592011136666667,-11.475117683333332
40,0.3333199999999578,-18.781647366666665,4.886359215,-138.9838562,-0.5235393943333334,1.0654358766666667,9.711653708666667,-130.12973023333333,-34.64445241333333,-11.078321773333334
41,0.3416529999999511,-19.827932356666665,4.593940814000001,-138.96774293333334,-0.9766722273333333,0.6553554433333333,9.79817629,-125.56669106666668,-34.288561503333334,-10.138954478333334
42,0.3499859999999444,-20.817973453333334,4.292195399666666,-138.94760133333332,-1.332196136,1.0952824753333334,9.866605599666666,-119.11385600000001,-35.358090716666666,-10.75276915
43,0.3583189999999376,-21.757205963333334,3.9859478476666665,-138.89808653333333,-0.8165371816666666,1.8979090649999997,11.048282941333333,-113.01212056666668,-36.93205642666667,-8.168194611666665
44,0.3666519999999309,-22.649876276666664,3.699799935,-138.87509156666667,-2.4257585206666668,2.3874917430000004,12.078450838666669,-107.46460213333332,-33.399549486666665,-10.870014824333333
45,0.3749849999999242,-23.49352137,3.3977820876666667,-138.80489603333334,-0.662789881,1.830836773,11.201244034,-101.65896352,-37.19066238333334,-6.798117001666665
46,0.3833179999999174,-24.270908993333336,3.139443755,-138.77364606666666,-2.9116828443333334,2.509387890333333,11.47228527,-93.69767507,-30.428920746666666,-9.576713720999999
47,0.3916509999999107,-24.973281226666668,2.8610077303333328,-138.6993001333333,-0.6104142963333333,2.803484201333333,9.744642574666669,-84.67369334,-34.63535944666666,-6.181395848666665
48,0.3999839999999039,-25.604099910000002,2.6111804246666668,-138.6521047,-2.5340928236666667,2.671659231,12.055237450333331,-76.19411214,-30.088843030000003,-8.144074438666665
49,0.4083170000000109,-26.149973553333336,2.3575769463333334,-138.58273823333334,-0.9982135033333334,1.5182962416666665,10.390046118999999,-65.81320826,-31.544766109999998,-6.214942058333333
50,0.4166500000000042,-26.623252866666665,2.136919677333333,-138.5312602,-2.4059317109999996,3.949596007666667,11.756325086666665,-57.28385671,-27.028917946666667,-6.691987117000001
51,0.4249829999999974,-27.010196046666664,1.8991848530000002,-138.47977193333335,-1.1721476713333334,1.955665628,10.242688178333333,-46.629741669999994,-28.804443993333333,-7.751054764
52,0.4333159999999907,-27.316513059999995,1.703604132,-138.41908263333335,-1.7847451766666669,2.9214406806666666,11.660531043333334,-37.25468572,-24.765853879999998,-4.6927884419999994
53,0.4416489999999839,-27.540696463333333,1.4835171440000001,-138.39143883333335,-1.3128433226666667,1.6982920173333333,9.340840022,-27.0054423,-25.537154516666664,-9.620901584333334
54,0.4499819999999772,-27.704574586666666,1.2989206563333333,-138.31748453333333,-1.8241952656666667,3.068312565333333,10.859553020666667,-20.120354016666667,-24.292890546666666,-2.8578381339999996
55,0.4583149999999705,-27.79713122,1.11018613,-138.3147583,-1.5096173683333334,0.596489012,9.977534296666667,-11.227396488666669,-20.78831609,-10.642648378666665
56,0.4666479999999637,-27.84332021333333,0.9260868626666667,-138.2253164,-0.8819408813333333,2.3543585936666664,11.605618476666665,-6.017218272,-25.10709254,-1.2771221896666665
57,0.474980999999957,-27.835461296666665,0.7539718946666666,-138.24069723333335,-2.9038894969999998,0.9994773070000001,11.040218351999998,0.8476821876666666,-17.988770486666667,-11.664356230000001
58,0.4833139999999503,-27.779674529999998,0.60100023,-138.14892576666665,-0.4829360246666667,1.8123984933333332,11.468749683333334,6.298679668666668,-21.937504453333332,0.7187314430000001
59,0.4916469999999435,-27.693796796666664,0.44526966399999995,-138.156779,-3.4341419143333334,1.497500697666667,10.520482063333334,10.132295131666668,-16.674263953333334,-9.956372897
60,0.4999799999999368,-27.571591060000003,0.32795349733333334,-138.0806732,-0.366056323,0.6604116219999999,11.59281667,14.36833763,-17.277752876666668,1.102850914
61,0.5083129999999301,-27.441911063333333,0.20805188033333336,-138.07955933333332,-3.0729191303333336,0.3463809113333334,10.159212112666667,15.318616229999998,-13.415337246666667,-6.923047921666668
62,0.5166459999999233,-27.285960513333332,0.12626175099999995,-138.03326923333336,-1.0999301076666665,0.23056997866666665,9.604511579,18.455960593333334,-11.842845283333334,-0.0351044336666669
63,0.5249789999999166,-27.137879690000002,0.06990889699999998,-138.0413716666667,-2.727499316333333,0.6117057006666667,11.633646328666666,17.502271653333334,-6.160033146666667,-4.371360938
64,0.5333119999999099,-26.991812386666666,0.03556815766666669,-138.02879843333332,-2.8898943663333334,-0.7975170016666667,10.517685890000001,17.267883303333335,-4.925468921666667,-0.9882698850000001
65,0.5416449999999031,-26.853376389999998,0.047083615999999995,-138.03437296666667,-0.6838503676666666,0.8005323313333333,10.711215973333333,16.34531021,0.959394296,-0.44558513166666663
66,0.5499780000000101,-26.751231513333334,0.06514137966666667,-138.04884846666667,-3.3224972086666664,-0.21034522833333336,11.470260302333335,11.949314435,2.1427503826666667,-1.0282835959999999
67,0.5583110000000033,-26.658589046666666,0.14437228466666666,-138.07820636666668,-0.9493981796666665,-0.9167840433333333,7.668095828666668,10.862282117,9.474050045666667,0.6985814969999998
68,0.5666439999999966,-26.562521616666668,0.2117018696666666,-138.11295063333333,-2.4984098273333335,-1.4507094919999999,10.804443835,11.243165016333334,8.479482015,-0.47711631633333335
69,0.5749769999999899,-26.49692917,0.3403027056666667,-138.16240436666666,-2.0068731903333332,0.41972808033333336,12.011518158,7.590857584333333,15.84458669,1.1476121866666666
70,0.5833099999999831,-26.475563049999995,0.4640965463333333,-138.21843463333335,-2.882714152333333,-0.667621553,10.795146146666667,2.3255770803333333,15.723481496666665,0.15348472233333346
71,0.5916429999999764,-26.46927897,0.650705238,-138.27242026666667,-0.6763232946666666,-0.36076160799999996,9.382137616666666,0.4721899036666666,22.312432610000002,3.751325369
72,0.5999759999999696,-26.47796631,0.8255808349999999,-138.35748803333334,-3.4945833680000002,-1.664805173666667,10.557908695333333,-1.2267856596666666,22.764789580000002,-0.235651036
73,0.6083089999999629,-26.5299778,1.0181397993333334,-138.39690656666667,-0.12960613766666676,-0.551625232,11.805509568666666,-6.476583957666667,22.185089113333333,5.585639159
74,0.6166419999999562,-26.617925009999997,1.1958219706666666,-138.48033143333333,-2.3512700003333333,-1.0823947986666667,10.582731089666666,-10.701561449000002,22.978494643333335,0.13419712066666667
75,0.6249749999999494,-26.733064013333337,1.4249423639999999,-138.55084736666666,-0.7159154213333334,-0.7254830426666666,8.764545759,-13.960627873333332,27.760552726666663,4.283531825
76,0.6333079999999427,-26.87013181,1.5975075076666665,-138.6323649,-2.392630855333333,-0.9826852279999999,11.133867421333333,-16.519652683333334,22.28134409666667,0.2419137656666667
77,0.641640999999936,-27.02522532,1.807216545,-138.690684,-0.02705210466666667,-0.33732601,11.384238243333334,-18.764231363333334,24.989558536666667,4.677726745666667
78,0.6499739999999292,-27.19822248,2.0159747203333334,-138.8045756,-3.3043812906666665,-0.5140572390000001,9.837133726,-20.68369929,27.91134707,-1.1023438573333335
79,0.6583069999999225,-27.369651793333333,2.219236910333333,-138.84575396666665,-0.10055527566666671,-0.5248500383333333,9.954567908666666,-20.724236806666667,23.327613833333334,6.289760510333334
80,0.6666399999999157,-27.554329553333332,2.4155839483333335,-138.94171143333332,-1.8909645279999998,0.3499536113333333,12.80336825,-22.091732663333335,25.60143725,0.2900979123333333
81,0.674972999999909,-27.74542554,2.630447626,-139.00002033333334,-0.5839969813333333,-0.4315346606666666,8.089818318666667,-22.993652343333334,25.471204123333337,5.260511716333333
82,0.6833059999999023,-27.923861183333333,2.789297938666667,-139.0725759,-1.4503343903333334,-0.11270167433333338,11.279351871000001,-21.366929373333335,20.302924473333334,0.8492234856666666
83,0.6916390000000092,-28.107124329999994,2.9881431263333336,-139.11601766666666,-0.09950201699999998,-0.058522751000000005,12.019684473333333,-22.141217546666667,22.900258383333334,6.09999307
84,0.6999720000000025,-28.277331666666665,3.137359818,-139.18655903333334,-2.016673207333333,0.18795846933333335,8.383632023999999,-20.36331749,19.162714003333335,0.646589478
85,0.7083049999999957,-28.423306783333334,3.3043892383333335,-139.20858766666666,-0.3801718303333333,0.089730362,11.939001081333332,-17.76545874,18.283289276666668,6.678651571333333
86,0.716637999999989,-28.575090406666664,3.444998979333333,-139.26239013333335,-1.4076300763333334,0.1441136993333334,11.539831161,-18.24207115,17.288610776666665,2.0318418146666666
87,0.7249709999999823,-28.68300438333333,3.5756004256666665,-139.2781474,-0.4776106576666667,0.7235340476666666,8.356868744333333,-13.254803973333333,14.05395508,5.328377564666667
88,0.7333039999999755,-28.81133779,3.6846497853333333,-139.30667113333334,-0.3672293823333333,-0.7097765703333333,11.451721984666667,-15.579911233333334,12.502849896666667,2.9418892863333332
89,0.7416369999999688,-28.93035698,3.787797451,-139.30727133333335,-1.1589338576666666,-0.998275151,10.557631811,-14.707437200000001,10.264164289,5.397757689
90,0.7499699999999621,-29.032191593333334,3.874670346333333,-139.31504823333333,-0.6083190043333333,0.5864409610000001,10.176798342333333,-12.566351094333333,8.957530817333334,3.8843054770000003
91,0.7583029999999553,-29.147218706666663,3.9684869446666666,-139.33604936666666,-1.820593715,-0.2877519743333333,10.792836349,-14.088828086666666,10.453684807333333,2.753275196
92,0.7666359999999486,-29.21876399,4.024643103333333,-139.33128866666664,-0.27719845433333334,0.08548400066666668,11.79623159,-9.015088716333333,4.989517132666667,3.4367903866666665
93,0.7749689999999418,-29.285209656666666,4.115920861666667,-139.36035663333334,-2.1113098063333333,0.8024236459999999,11.766257603333335,-8.218051115666666,10.64636167,1.8005913843333332
94,0.7833019999999351,-29.32045110333333,4.147576173,-139.34156796666667,-0.06282048433333332,-0.1457220416666667,8.642673334333333,-4.786878029333334,1.5952932039999999,3.4761166573333333
95,0.7916349999999284,-29.35494995,4.224251985666666,-139.37751263333334,-2.090026696666667,-0.2980745533333334,12.915719985333332,-4.332268079333333,9.526737531666667,0.22882060233333334
96,0.7999679999999216,-29.392386119999998,4.236960808333333,-139.34150186666668,0.420138657,0.338266452,9.930122692,-5.194673538333333,-1.405167063333333,4.164174556666667
97,0.8083009999999149,-29.426207226666666,4.286405563,-139.3615265,-1.438850949,-1.4149357876666666,11.818994842333334,-4.422678073,5.742695123,0.30400678166666667
98,0.8166339999999082,-29.460886000000002,4.263924201333333,-139.31719970000003,-0.09773937866666664,0.148036398,9.111951508666666,-4.949912945333334,-5.583711385666667,2.9709183373333334
99,0.8249669999999014,-29.522410710000003,4.28505222,-139.3374633666667,-2.646162828,-0.9112050133333334,12.850483259999999,-7.757532119666666,2.8002468743333337,-1.3872585743333332
100,0.8333000000000084,-29.55575625,4.265120665333334,-139.27682493333336,0.272867193,-0.862007141,9.312912306,-4.928017298333333,-6.2892343996666655,4.818443854666667
101,0.8416330000000016,-29.621970493333333,4.284231265333333,-139.29426576666665,-2.695226192333333,0.40589559066666664,12.275667826666668,-8.370246091,2.4252199730000004,-1.207314412
102,0.8499659999999949,-29.674499510000004,4.244595686333334,-139.23102313333334,-0.43244759866666665,-1.1273305813333334,9.167048772666668,-7.247557004333333,-8.511056423333333,3.916848063666666
103,0.8582989999999882,-29.737415313333333,4.293265263333333,-139.2489268,-2.269894341666667,-0.29001994933333336,11.816934269999999,-7.976828099666666,5.542788346666666,0.4955030483333333
104,0.8666319999999814,-29.818141936666667,4.255177736333334,-139.19862876666664,-0.382701516,-0.532748451,8.344539960333334,-10.503169696333336,-7.594801347,2.6557141443333334
105,0.8749649999999747,-29.88324101666667,4.300372679666666,-139.2068634,-1.9639776893333334,-0.7760194636666666,12.536087353333334,-8.342121600999999,4.604718436666667,1.308281064
106,0.8832979999999679,-29.947549816666665,4.2837244666666665,-139.17195130000002,-0.9751901546666667,0.3350600973333333,9.327437240666667,-8.41742778,-4.457756916666667,2.335873306
107,0.8916309999999612,-30.03110504,4.331436952,-139.18734740000002,-1.7055060463333334,-0.7116654516666667,12.399889628333332,-10.500361124666666,5.272567748999999,0.7589113313333332
108,0.8999639999999545,-30.071787513333334,4.310364803,-139.1554718,-1.6353572906666667,-0.33689774066666667,10.386412936,-5.550100644666667,-4.751491745333333,1.764171839
109,0.9082969999999476,-30.12093989,4.366346677,-139.1757202,-0.5264024733333333,0.6178271569999999,11.71247514,-6.335511543666667,6.430228154000001,0.7485802820000002
110,0.916629999999941,-30.16245397,4.339723428,-139.15666706666667,-2.3628491956666666,-0.7423329753333333,8.980567455666668,-5.560508886666667,-4.565080334666667,0.10614965666666666
111,0.9249629999999344,-30.195803323333337,4.393161853,-139.1747233,-0.31224624333333334,-0.040054684000000014,12.49862226,-4.447024266000001,6.025706615000001,0.8465035756666666
112,0.9332959999999276,-30.22015762,4.368312676666666,-139.15631100000002,-1.279933522,-0.38171197966666665,9.784607252,-3.500672340333333,-4.363974332666667,0.17996569433333331
113,0.9416289999999208,-30.25408999,4.413287957666667,-139.15382893333336,-0.48933935700000003,-0.4098331333333333,11.079507984333333,-4.726688941333333,3.8987304763333337,2.4891873993333333
114,0.949961999999914,-30.265396753333334,4.382221778333333,-139.14501443333336,-2.081330955,-0.3732447426666667,9.284484862666666,-1.8426709573333335,-4.439928849666667,-1.1706985833333334
115,0.9582949999999072,-30.283864976666667,4.457534869666667,-139.15891009999999,-1.6320869553333335,-0.25071373066666663,12.809708596666667,-2.72765549,8.045239608666666,2.611631791
116,0.9666280000000144,-30.295721053333335,4.44976457,-139.1622111,-2.0068547826666667,-0.38740145200000004,8.355950513333333,-1.7946103013333332,-1.3065096536666667,-0.9952240586666666
117,0.9749610000000076,-30.287725446666666,4.535264333,-139.18052163333334,-1.1378983856666667,0.5071924293333333,11.833070436999998,0.4913706633333333,9.367642721333334,2.774333397666666
118,0.9832940000000008,-30.251167933333335,4.566551685333334,-139.18031313333333,-1.890291254,-0.14123670766666666,9.481918176666667,3.9545436053333334,2.5398437183333336,1.7143054553333332
119,0.991626999999994,-30.212765376666667,4.676814238333333,-139.1826172,-0.995249748,0.8945991746666667,10.686853568333333,4.0120647746666664,10.982150714999998,5.902377923
120,0.9999599999999872,-30.11887932,4.722755590999999,-139.17291766666665,-1.877963225,0.441034297,10.288650831,10.754014332666666,3.483843894,3.5930416583333336
121,1.0082929999999806,-29.981756843333333,4.860036214,-139.15939840000001,-1.0435747103333333,0.4169800110000001,11.057658832000001,15.686187106666665,12.851670264000001,9.142821947
122,1.0166259999999738,-29.81596183666667,4.95426027,-139.16350300000002,-2.5367825033333333,1.5358668166666665,9.455454825333334,19.49740473333333,9.351031461666667,5.032597541666667
123,1.024958999999967,-29.567462286666668,5.096081495,-139.13473509999997,-0.6750084656666667,0.7520009776666666,11.858633043333333,28.91588910333333,12.517273269999999,10.848282812999999
124,1.0332919999999604,-29.275347393333334,5.245996872666667,-139.13954669999998,-2.560700178,1.672876358,11.293575923,34.64566803,15.257988930000002,8.166261038333333
125,1.0416249999999536,-28.895015716666666,5.397407849666667,-139.1169179,-1.0926713843333333,1.6415953633333331,9.251009942666666,44.77942403,13.991978963333333,10.640665374333333
126,1.0499579999999469,-28.464156470000002,5.579445362,-139.13097126666665,-2.0851109026666665,1.0920685526666667,11.423415499333332,51.409617106666666,19.286572136666667,8.834204197
127,1.05829099999994,-27.956628163333335,5.765051523666667,-139.12174476666667,-1.6539252400000002,1.229010731,12.144454001666666,60.17880249,18.51692072333333,10.972596328
128,1.0666239999999334,-27.370532989999997,5.9531863529999995,-139.12717183333334,-1.5023991863333332,2.1521818639999997,10.160868009333333,69.94750721999999,19.615336733333333,9.742873510666668
129,1.0749569999999269,-26.718020120000002,6.147440115333333,-139.12764486666666,-1.5334187550000002,0.9357501763333333,9.652994950666665,77.68520863666666,20.221785866666668,9.986099244
130,1.08328999999992,-25.969918570000004,6.352536519333333,-139.1230977,-1.4010014136666669,2.5741027990000003,11.446514448666667,89.27972412000001,21.136087416666665,11.238928156666667
131,1.0916229999999132,-25.161656696666668,6.563065210999999,-139.12909953333335,-2.2095555863333334,0.788895955,10.199646473,96.43744152333333,22.559505459999997,9.649487494
132,1.0999559999999065,-24.25839678666667,6.801992098666666,-139.13167313333335,-1.12856855,1.9704567590000002,10.036444504666667,108.03819783333331,25.637892403333336,11.25636832
133,1.1082890000000134,-23.291357673333334,7.012220700333333,-139.14138283333332,-1.9370452366666668,1.7329526746666666,11.114663282666667,115.5720927,23.020053230000002,8.468460083
134,1.1166220000000069,-22.262830096666665,7.2497177126666665,-139.13424683333332,-1.361316601333333,0.05122575166666665,10.203611533,122.88331856666667,25.303937910000002,11.632525763333334
135,1.124955,-21.168949126666664,7.506638686,-139.15957133333333,-1.9410157600000002,0.9712429743333333,10.342572211,131.0199407,29.24905586333333,7.9235064196666665
136,1.1332879999999932,-20.065146126666665,7.754030386666666,-139.1486308,-0.8558266163333332,0.16419299433333331,11.101739566000001,131.91960653333334,26.782801946666666,11.22416687
137,1.1416209999999865,-18.909571330000002,7.964802742,-139.14877319999997,-1.3720675506666666,-0.70488156,11.585700036666665,138.0436503,23.35540453333333,7.700941880666666
138,1.1499539999999795,-17.72036934,8.200227419333332,-139.1151581,-0.6878790260000001,0.8055287596666666,9.672554811666666,141.72985333333335,24.96754964,12.39642493
139,1.158286999999973,-16.54802640333333,8.386872927333334,-139.10050963333333,-1.1823923786666666,-1.1163324713333334,9.517244339,139.81666566666667,20.401603063333333,7.497914473333334
140,1.1666199999999662,-15.337448440000001,8.566095034333333,-139.0452525,-0.18840495733333332,-1.7116540670000002,11.402515727333332,143.92356366666667,18.298110323333333,11.882486660333333
141,1.1749529999999595,-14.130841573333333,8.697283108999999,-138.99894713333336,-0.27187223233333335,0.582208057,11.053497953333334,143.35782876666667,13.335440636666666,8.543018818666667
142,1.1832859999999528,-12.938902216666667,8.797520796666667,-138.92645263333333,-0.5401491526666667,-1.1221883593333333,8.699773312666666,141.3363240333333,9.136308194333333,10.750195822333334
143,1.191618999999946,-11.722318013333334,8.860185941,-138.8566182333333,-0.6944055706666666,-1.493132651,11.239099817666668,144.12519836666667,5.074692011000001,8.934631030666667
144,1.1999519999999393,-10.519635199999998,8.918325106,-138.7638804,-0.024793763666666673,-0.19860692833333338,11.98265012,142.2503662,4.195063273,11.621351878333334
145,1.2082849999999326,-9.354180336,8.915323893333333,-138.67601013333334,-0.5583223603333334,-1.1807112593333333,10.441842558,137.6396535,-2.6480878643333337,9.392481166666668
146,1.2166179999999258,-8.178184191333333,8.897464434333333,-138.57987976666666,-1.1542741,-1.6455878216666668,9.939571699666667,138.99749756666665,-4.3790973026666675,10.388167699333334
147,1.224950999999919,-6.992714723,8.820864836333334,-138.46099343333333,0.9887346699999999,-0.19675366066666666,10.038791338333334,139.49625143333336,-11.493014655000001,12.036083856666666
148,1.2332839999999123,-5.829323291666667,8.720958392,-138.35612996666666,-1.1396837606666665,-1.2374508926666667,11.706555685666666,137.36216736666665,-13.824562393333332,10.397940316000001
149,1.2416169999999056,-4.674071789,8.610882123333333,-138.2373047,-0.5963859976666668,-0.4061938326666667,10.158140816333335,135.9167480333333,-14.986152330000001,12.23066775
150,1.2499500000000126,-3.513405323,8.426527023,-138.1343867,-0.1757644216666667,-1.4354224203333334,7.8314927416666675,137.1147308333333,-23.45227178,9.949123382333333
151,1.2582830000000058,-2.348796367333333,8.220774491666667,-138.01261393333334,-0.8625621400000001,-0.7573623356666667,11.559162617,137.11222843333334,-25.949584963333336,12.530692100000001
152,1.266615999999999,-1.209737599,8.036779403666666,-137.9096933666667,-0.8054991166666667,-0.7803875403333334,12.20477295,134.59890236666664,-22.967504503333334,10.875175156666666
153,1.2749489999999923,-0.09681780133333334,7.795543829666667,-137.80814873333333,-0.8131910960000001,-1.3873114983333332,10.683412392666668,131.34635419999998,-29.631746930000002,11.114999454333335
154,1.2832819999999856,1.0122103693333333,7.550152778666667,-137.71383413333334,-1.5809876990000002,-1.2206698056666667,9.098934651333332,131.26326496666667,-29.898447673333333,10.772265751666666
155,1.2916149999999789,2.1333520016666667,7.285044034333333,-137.60772196666667,0.03391576833333332,-0.5170897443333333,9.668429691333333,132.36634826666668,-32.0027078,12.919775963333334
156,1.299947999999972,3.236262003666667,7.017394543000001,-137.54215243333334,-2.367304245666667,-2.1958322923333333,9.205474854666667,131.04686993333334,-32.25914255666667,8.635457515666666
157,1.3082809999999654,4.310361544333333,6.723860581333334,-137.44977823333332,0.33417083333333336,-0.544704621,10.881507556666667,127.06359099999999,-34.98375892333333,12.731325466666668
158,1.3166139999999589,5.350538412666666,6.467181523666667,-137.4078954,-2.411647558333333,-1.2497972596666667,12.415468536,123.90546926666666,-30.81157620666666,6.922843933
159,1.324946999999952,6.3739498459999995,6.171941121333333,-137.3373184,0.6098210626666667,-1.8564704656666666,8.178387802000001,121.4007721,-34.95101038666667,11.43868478
160,1.3332799999999452,7.383929729666666,5.873195012333333,-137.31858826666667,-2.9207439026666666,-1.0512387756666666,9.284986177666667,120.61966196666667,-35.87094497666667,5.840767780666667
161,1.3416129999999384,8.369812011666667,5.618553479666667,-137.25087993333332,0.48208951933333327,-1.391712308,11.565058389999999,117.05456543333332,-29.733376183333334,11.700186889666668
162,1.3499459999999317,9.323227246666667,5.313451210666667,-137.25765483333333,-2.3503230016666667,-1.688681205,10.357404070000001,114.09770456666666,-36.839960733333335,4.180154661333334
163,1.358278999999925,10.258034705333333,5.041364987666666,-137.21419016666667,-0.7218289373333334,-0.9704487123333333,10.668767614333333,111.3194148,-31.88067182,10.150187176666668
164,1.3666119999999182,11.171970049999999,4.757989247666667,-137.2194748,-1.2443084943333333,0.030945611666666664,10.302085878333335,109.30128733333333,-34.02882766666667,5.266769756666666
165,1.3749449999999117,12.063984873333332,4.495301326333333,-137.19796499999998,-1.2836707036666668,-2.8684689996666664,8.515860239,106.4653371,-30.951627733333336,8.338557838666668
166,1.3832779999999048,12.936681746666666,4.213010311333334,-137.20464326666666,-1.770587305,-0.24389221233333336,9.749589124000002,104.35574596666667,-33.75014178,6.089403789666666
167,1.3916110000000117,13.772891043333333,3.995800415666667,-137.1900889,-1.4950165150000003,-2.0105872153333335,11.117164930000001,99.86998238666668,-25.551937106666667,7.1944935333333335
168,1.399944000000005,14.585512163333334,3.7519365946666667,-137.19111123333334,-0.7795575360000001,-0.8074042476666666,9.487679162666668,97.07481130000001,-28.89899063,6.60584243
169,1.4082769999999982,15.363010723333332,3.519824425333333,-137.20002746666665,-1.8548735776666667,-2.7992227473333333,8.84730816,93.04502868666667,-27.779873530000003,5.659262340333334
170,1.4166099999999917,16.09923204,3.2920113006666667,-137.1875585,-1.1744911873333335,0.07770058533333334,11.539672854333332,87.82284546,-26.40939203666667,8.417072931666667
171,1.4249429999999847,16.79547882333333,3.114395221,-137.20088706666667,-1.6783994833333333,-3.973115444333333,8.804421264666667,83.32626597000001,-21.497489926666663,3.962774357666666
172,1.433275999999978,17.459349316666668,2.8651882410000002,-137.1979319333333,-0.774079879,-0.10455425600000001,9.265591779333333,79.22397359333333,-28.98673185,8.702277104333334
173,1.4416089999999713,18.067786536666667,2.707783699,-137.21560413333333,-1.8081847226666667,-2.9386161166666667,10.833843233333335,72.79665374666666,-19.226692196666665,3.2227260666666666
174,1.4499419999999643,18.656072616666666,2.492484907666667,-137.2008133,-0.9564920263333332,-0.9887079793333333,10.070719402333333,70.12092590333334,-24.476617176666664,9.397627194
175,1.4582749999999578,19.193321226666665,2.296251903,-137.243131,-0.581464986,-2.16940848,8.611559708,64.33995437666665,-24.505706786666664,2.3278106846666664
176,1.466607999999951,19.67982928,2.0733150989999998,-137.23746233333335,-1.4672559896666666,-1.0460832813333334,12.123037656666666,58.00585429,-25.52349535666667,9.127751508666668
177,1.4749409999999443,20.14292272,1.8980893196666664,-137.28519183333333,-0.5279682896666665,-2.3738512993333334,8.873232524,55.40956624333334,-22.303155266666668,1.247925063
178,1.4832739999999376,20.567174276666666,1.6411071619999997,-137.29865519999998,-1.5347970723333335,-0.9343057673333334,8.754417419666666,50.62947591333333,-30.005260469999996,8.788263002999999
179,1.4916069999999308,20.94463030333333,1.457061529,-137.3512446,0.7992040316666666,-1.7606861193333334,10.067732174333333,45.088258110000005,-23.47755050666667,1.3673976560000003
180,1.499939999999924,21.310975393333333,1.2188652356666665,-137.3685862,-4.1546459,-1.5162781873333333,11.021676699666665,43.70529810666667,-27.943316140000004,7.937153339000001
181,1.5082729999999174,21.642214456666668,1.0370262066666667,-137.4154002,1.9665956496666668,-0.6889167526666666,9.339600721666667,39.473004659999994,-22.931875863333335,2.256336719
182,1.5166059999999106,21.93955739333333,0.8070872623333334,-137.4352061333333,-3.998135288333333,-2.021824519,11.654252373333334,35.43428294,-27.038294473333334,7.613238493666667
183,1.524938999999904,22.21906344333333,0.5827698706666667,-137.48669176666667,2.626860658333333,-1.2868767976666666,9.656748773333334,33.20537440333333,-27.856290180000002,3.834568381666667
184,1.5332720000000108,22.45696004333333,0.39411771300000004,-137.51737466666665,-5.7822101513333335,-1.4167315563333334,12.861643471333332,28.348025003333333,-22.87567965,4.783155997666666
185,1.541605000000004,22.688404083333335,0.17818574099999998,-137.55932616666666,2.471135378,-1.2109617393333334,8.336521465333334,27.387485506666668,-26.446601233333336,4.744478782000001
186,1.5499379999999974,22.884838103333333,-0.01772906366666675,-137.60789236666668,-4.320531288666667,-1.4197544963333335,11.844102223333332,23.3459905,-24.470087053333334,3.3154960476666666
187,1.5582709999999906,23.061911900000002,-0.21755957599999998,-137.64943693333336,2.4590834973333338,-0.53001522,8.464467049333335,20.819927853333336,-24.59757487,4.248482068333334
188,1.566603999999984,23.21674474,-0.42150237166666665,-137.71145123333335,-4.724246422333334,-2.5686730543333334,9.939875444666667,18.305691083333333,-25.9684906,2.3492747150000004
189,1.5749369999999772,23.330104826666666,-0.6162893473333333,-137.74559783333333,2.7656513056666667,-0.40526999886666665,11.29996395,13.152430853333334,-23.6530234,4.982356229666666
190,1.5832699999999704,23.43019422,-0.7872751056666667,-137.81316373333334,-5.7171767550000006,-2.2492233120000003,10.071361700333334,11.681024233333332,-22.58872159666667,0.27407213033333316
191,1.5916029999999637,23.49220975333333,-0.9698376153333332,-137.84577176666667,1.9361094633333336,-1.3173645736666668,9.995483557666665,6.9931556383333335,-22.221094133333334,4.645635127666666
192,1.599935999999957,23.52552668,-1.0806389403333332,-137.88936873333333,-5.558593432333333,-1.783953031,12.533892313333332,3.689731558,-14.8204476,0.08221721633333345
193,1.6082689999999502,23.555873873333336,-1.2505868873333335,-137.91000366666665,1.3216213186666665,0.36441874500000004,9.251763977333333,3.1829372643333333,-20.24083392,5.405783772666666
194,1.6166019999999437,23.560494103333337,-1.3160482546666665,-137.9387131,-4.529696226,-1.895105064,10.64761289,0.2643567720000002,-9.116138221333332,-0.440121263
195,1.6249349999999367,23.550736106666665,-1.433707009,-137.9246343,0.7532558836666666,-0.16282427333333332,11.163646380333333,-1.496370887,-12.834942022999998,6.709479172999999
196,1.63326799999993,23.52810796,-1.4953293500000002,-137.96609496666667,-3.278738399333333,-1.8220171133333334,9.491901713999999,-3.106793225,-9.302335977333334,-2.033096114666667
197,1.6416009999999233,23.487157186666668,-1.569449226,-137.93684133333335,-0.26712111666666666,0.28338990133333336,10.904844281999999,-5.1388265293333335,-7.3236438433333335,6.297678391333332
198,1.6499339999999163,23.447230020000003,-1.5751241843333332,-137.94924669999997,-2.8297208843333337,-1.6536308130000001,10.302555721,-5.10157458,-1.7594590186666668,-1.5252765219999997
199,1.6582669999999098,23.401806516666667,-1.6515400013333332,-137.91676586666668,-0.39737939833333336,0.290258929,10.170710565333335,-5.677280386333333,-7.425401052000001,6.759521007666667
200,1.666599999999903,23.343675613333332,-1.5767047803333334,-137.89521786666668,-3.3410120009999997,-1.506454427666667,10.655239423333333,-7.158987522333333,8.731595357,-1.620331178
201,1.67493300000001,23.297660826666668,-1.62415425,-137.85899606666666,0.12641374266666658,0.021107952000000024,10.652477898999999,-5.734579245333333,-4.097125252333333,5.733721415333332
202,1.6832660000000033,23.234249113333334,-1.528017034,-137.82316333333333,-2.7135112683333333,-1.2268709886666667,10.695767403666666,-7.748824516999999,11.758620502,-1.033842017
203,1.6915989999999963,23.172780990000003,-1.5090697903333334,-137.76600396666666,-0.7235478163333333,-0.13046574800000002,9.810257912333334,-7.494184176,4.239092211,4.982319275666666
204,1.6999319999999898,23.114231110000002,-1.4007930456666668,-137.73024496666667,-2.110300421666667,-1.2084795636666665,11.46314621,-7.171077887,13.087741216666666,-1.5904479026666667
205,1.708264999999983,23.050090156666666,-1.3401362796666667,-137.6606674,-0.10412045333333324,0.6771173776666665,10.796093621666666,-7.809674421666666,9.384783428,4.31173865
206,1.7165979999999763,22.993164696666668,-1.1966032906666666,-137.62479656666667,-3.155153314666667,-1.6055624486666666,8.017743110666666,-6.9922914506666665,16.99624697666667,-3.2073517246666667
207,1.7249309999999696,22.923959729999996,-1.1336209106666668,-137.55898283333332,1.2758020956666667,-0.34980735166666665,11.808754126666665,-8.452020168333334,9.446897823333332,3.810740868
208,1.7332639999999628,22.853272756666666,-0.9720046023333332,-137.5279083,-3.6234725713333336,-0.586637194,11.252429644333333,-8.653298853666668,18.777914046666666,-4.538728952333333
209,1.741596999999956,22.792390190000003,-0.9040268016666667,-137.4577306,0.7686724663333333,0.3410970766666668,7.714802106333334,-7.486602782666668,10.196269193666668,4.091815074333333
210,1.7499299999999494,22.737047829999998,-0.7234318653333333,-137.43489073333333,-3.7314459879999995,-0.06443265566666671,12.934795059333332,-6.825082381666667,20.497202239999996,-6.2828113236666665
211,1.7582629999999426,22.704002380000002,-0.615246624,-137.35234069999998,0.35124523933333335,0.904346178,11.24431133,-4.141647577333333,15.213432946666666,3.6069545746666667
212,1.766595999999936,22.690533956666666,-0.4590946436666667,-137.34019980000002,-2.678571343333333,-1.2655293146666668,10.003617764333333,-1.893213908,17.314695993333334,-6.309540192333333
213,1.7749289999999291,22.652449286666666,-0.2978552383333334,-137.24404396666668,-0.8935020369999999,-0.6697853406666666,12.424954415,-4.695817470666666,21.700700756666667,2.679096818
214,1.7832619999999224,22.62633959333333,-0.15171390766666656,-137.23843383333335,-2.069703569,-0.24620191266666666,10.494438171,-3.475942731,15.91144816,-6.562073628
215,1.7915949999999157,22.606133143333334,-0.0068761109999999626,-137.15880586666665,-0.127204617,-0.6182389656666666,11.217020511333331,-2.5956536233333334,19.1190087,1.6308891770000002
216,1.799927999999909,22.600613276666667,0.1493086416666666,-137.14369713333335,-1.5683517456666667,0.549749017,9.963093279333334,-1.0125395453333335,17.458231926666667,-5.957795302
217,1.8082609999999024,22.605387370000003,0.2688002583333333,-137.09704586666666,-0.37465094,-0.5718574423333334,13.367752393333333,0.3429487746666666,14.794965106666666,-0.8601214883333332
218,1.8165940000000087,22.618813196666668,0.43946198633333333,-137.0512059333333,-0.8368198076666667,0.4636733233333333,10.956549167333334,1.2464229266666667,20.487434386666667,-3.2229982216666664
219,1.8249270000000024,22.652599973333334,0.5794504883333333,-137.0187785,-1.738695562,0.3929323553333333,8.415056545,3.8245353203333337,16.40035915,-3.3867323
220,1.833259999999996,22.687100726666667,0.7593977449999999,-136.97225696666666,-0.9892120163333332,-0.6567796020000001,12.155202388333334,3.770023822666667,21.54177666,-3.5957067410000003
221,1.841592999999989,22.739009856666666,0.9283527136666666,-136.93570963333332,-2.0663492776666668,-1.1831387776666666,10.135161877,5.950436830666667,19.79538218,-4.302497545666667
222,1.8499259999999824,22.789011636666668,1.1081597406666666,-136.89613086666668,-1.921622373,-0.1070940096666666,8.552809395666667,5.631705920000001,21.187288286666668,-4.395268281333333
223,1.8582589999999757,22.799198786666665,1.335041225,-136.84592186666666,-1.4611742693333334,-1.774215777666667,13.83359019,0.8469268083333333,26.840197246666666,-5.520136197333334
224,1.8665919999999687,22.797355016666668,1.5372718373333336,-136.8087031,-1.8170499400000002,-0.535307656,10.142487845333333,-0.6256450413333333,23.56185659,-5.720195452333333
225,1.874924999999962,22.755836486666666,1.7770235833333334,-136.75097403333334,-0.38822448233333334,-0.7582837693333334,9.795901934999998,-5.398666212999999,28.60471280333334,-5.273022969666666
226,1.8832579999999552,22.682422003333333,2.0226031790000003,-136.71986896666667,-2.2168541750000004,-1.9370975096666665,10.907955804333334,-9.228334585,28.087849936666668,-8.369240602
227,1.8915909999999485,22.590274176666668,2.2566967483333333,-136.66477966666667,-0.7603552243333334,-1.015050441,11.187094373333332,-11.492113433333332,27.847843806666663,-5.272092183333333
228,1.8999239999999415,22.440922420000003,2.5256545346666663,-136.62327323333332,-1.2098764973333334,-2.0570812623333334,10.122175534999998,-18.43726794,31.184614183333334,-8.190954684666668
229,1.908256999999935,22.253704709999997,2.7534869113333333,-136.57664233333333,-1.5064492026666667,-2.186384916333333,9.753475189333333,-22.911808649999998,26.79019673666667,-5.792139927666667
230,1.9165899999999283,21.995292663333334,3.040816625,-136.52711996666667,-0.99340185,-1.1255193846666665,12.259374936666667,-31.624792736666667,33.639308926666665,-7.9158595410000006
231,1.9249229999999216,21.689008716666667,3.264858166,-136.49550886666665,-1.3193482163333334,-2.5961647033333333,9.205346744666667,-37.11845398,25.743854520000003,-7.056106568333334
232,1.9332559999999148,21.31154187333333,3.5475850103333335,-136.43225859999998,-0.37079988933333335,-1.963254253,11.483839033333334,-46.092923483333344,33.803881323333336,-5.816454766666667
233,1.941588999999908,20.868731816666667,3.7956827879999993,-136.42061106666668,-2.9109490873333335,-2.4659667806666667,8.763368923333333,-53.367799123333334,27.66760699,-9.973752497333333
234,1.9499219999999011,20.349227903333333,4.109642704333333,-136.34962463333332,-0.6340696213333333,-2.958430131,12.758095106666667,-63.28121694,37.71278127,-5.740689482333334
235,1.9582550000000083,19.781667709999997,4.3831181526666665,-136.35000863333335,-3.099335541333333,-2.0569150846666666,8.705148061,-68.22630564333333,30.21889686333333,-11.821949959666668
236,1.9665880000000016,19.14436467333333,4.716608683333334,-136.27244313333333,0.7137875209999999,-0.8241709519999999,12.505443253333333,-77.57589721666666,40.27743911666666,-5.027426601666666
237,1.9749209999999948,18.466154733333337,4.996106465666667,-136.28432973333335,-4.180493930666667,-3.1499343713333334,9.045386156,-81.39610799,30.680838266666665,-12.740544953666666
238,1.983253999999988,17.73480606,5.3365449903333335,-136.18950653333334,1.4648291269999998,-0.10767802566666666,11.595787683666666,-89.09561665666666,41.80897522,-2.364005297333333
239,1.9915869999999811,16.939175923333334,5.616938988333334,-136.20848336666666,-4.113226513,-3.233312606666667,10.421879450333334,-95.41071828000001,30.84881909666667,-12.734048843333333
240,1.9999199999999744,16.11486625666667,5.940749327333333,-136.1279246,1.7686332413333334,-0.5610923766666667,8.948485056,-100.17523195000001,39.44919205,-2.273759842
241,2.008252999999968,15.208192186666665,6.253148555666666,-136.16299693333335,-3.6842325333333332,-2.682503621,10.108271915333333,-108.54384870000001,34.371040980000004,-14.70835463
242,2.016585999999961,14.283659936666666,6.553699493333333,-136.11714933333334,1.0553057193333333,-0.977494955,9.981945991333333,-111.80229186666668,35.74436569333333,-4.315901071
243,2.0249189999999544,13.297038396666666,6.8809944786666675,-136.15587616666667,-2.6967301769999996,-1.6779713633333333,10.022320270000002,-118.10634106666667,36.44300842333333,-14.419148127666666
244,2.033251999999948,12.301929473333333,7.196654637999999,-136.15027363333334,-0.7355158033333334,-1.2410376666666665,8.687116781,-119.70110576666667,36.56854120666667,-8.147555190666667
245,2.041584999999941,11.26046117,7.540152390666667,-136.177625,-2.1427240370000002,-1.758782029,11.819453240000001,-124.84652706666667,39.099089936666665,-12.13968404166667
246,2.049917999999934,10.205006283000001,7.889490286333333,-136.18554179999998,-1.2444821993333333,-1.1493266326666667,11.186217305666668,-126.69717153333333,40.50009028333333,-9.130321184000001
247,2.0582509999999274,9.142393112333332,8.219702084666666,-136.19754536666667,-1.5205948353333334,0.662721435,9.888233344666666,-127.63318633333334,38.24148559333333,-8.566418328666666
248,2.0665839999999207,8.052913030333334,8.583673636333332,-136.23856353333335,-1.3712977966666664,-1.2218570706666665,11.75176525,-130.14227803333333,41.90977478,-11.988875866999999
249,2.074916999999914,6.987753709,8.929391066666668,-136.2450536,-1.4600823723333332,0.763408661,8.847635111333332,-127.99177046666667,40.46727752666667,-6.631114561666667
250,2.0832499999999072,5.902431647,9.243288197333333,-136.32730356666667,0.5656268596666667,-0.107436123,10.258454323666667,-128.85768383333334,35.779628753333334,-14.607802706666666
251,2.091583000000014,4.848338922,9.599956352,-136.35203040000002,-2.5638601183333334,0.321965456,10.416044077333334,-126.25640103333335,41.78083292666667,-7.424739200333332
252,2.0999160000000074,3.8072933353333327,9.864109198333333,-136.46698253333332,0.8818162533333336,-0.06415806233333332,9.164660931999999,-122.79292043333334,30.035844166666667,-16.613165856666665
253,2.1082490000000007,2.7774514356666664,10.168676376333332,-136.50714109999998,-1.2187476553333336,1.3700692456666665,11.955996512,-123.00483196666666,35.667154309999994,-7.292288780333333
254,2.116581999999994,1.7616641916666669,10.443486532666668,-136.64121753333333,-0.36433506,-1.4515477023333334,8.399606703333333,-119.22233836666668,31.781674066666667,-17.818627673333335
255,2.1249149999999872,0.7796899776666667,10.668862975666665,-136.6930288,-1.5569604313333334,0.975412468,10.058873494666667,-116.92205046666668,26.36448796666667,-7.192922433333334
256,2.1332479999999805,-0.21505990633333336,10.926493963666667,-136.84986623333336,-0.4785554473333334,-0.8431440393333333,12.908161483333332,-116.07167563333333,30.287100476666666,-19.364216486666667
257,2.1415809999999738,-1.1643484233333332,11.145232516666667,-136.9207967,-2.4084711073333334,1.1269204243333333,8.835678420333332,-112.48919166666667,25.816079456666667,-8.534134864333334
258,2.149913999999967,-2.157411933,11.359859467333335,-137.107193,0.8363919656666666,-0.5891524380000001,10.560918808333334,-115.04597220000001,25.84838231333333,-21.90533193
259,2.1582469999999603,-3.140442451,11.561926207666668,-137.20459493333334,-2.1663091183333334,-1.4414124093333334,9.057312487666668,-115.82847086666668,24.23161507,-10.760505836333332
260,2.166579999999953,-4.176018,11.682547251333332,-137.39479826666664,2.7721542120000002,-1.1093405486666665,8.647285700666666,-119.9563675,15.340980846666668,-22.135557493333334
261,2.174912999999947,-5.231200059333333,11.793268841,-137.53256733333333,-2.8972626526666665,-1.502015849,10.550833862,-123.42884573333333,14.058926581999998,-15.528288840000002
262,2.18324599999994,-6.308080037333333,11.858850159999998,-137.71028643333332,0.9723493653333334,-0.5503174066666667,11.354063033666668,-125.14293416666668,9.408265431333334,-20.696562133333334
263,2.1915789999999333,-7.3798319496666664,11.940068243333334,-137.85857643333333,-2.4702744483333334,0.5837611656666667,11.039688746666668,-125.13642119999999,11.235274932333333,-16.505217873333333
264,2.1999119999999266,-8.465804418,11.916337646666667,-138.02969356666668,2.2218405653333337,-0.6863026369999999,8.530155262,-126.3784205,-0.5672876256666667,-21.003278416666667
265,2.20824499999992,-9.576062202333334,11.896235786666667,-138.17583720000002,-1.7853395340000002,-2.238912344,9.706719081666666,-129.82808939999998,-0.20719099033333363,-17.739968296666667
266,2.216577999999913,-10.686761856666665,11.802083336666668,-138.32374570000002,0.24699636300000005,1.282034596,12.372476259666668,-129.9564692,-8.590249756666667,-19.658341410000002
267,2.2249109999999064,-11.791315076666669,11.75847022,-138.46924336666666,-2.2936645993333333,-0.374160836,10.331176597666666,-129.21470386666667,-2.330600104,-18.093764623333332
268,2.2332440000000133,-12.87154643,11.608873047333333,-138.58990986666666,1.4783310493333335,0.07092131033333333,8.121091205333334,-127.03991696666667,-15.041107652333332,-18.228919346666668
269,2.2415770000000066,-13.968223570000001,11.46309503,-138.71990966666667,-1.5879296463333332,-1.4435194329999999,10.563712755,-128.70407613333333,-13.987414996666667,-19.299999236666668
270,2.24991,-15.05769825,11.237533887666666,-138.79604083333334,0.7389096220000001,1.2580826083333332,10.267682394666666,-129.31890616666666,-24.542284646666662,-15.73332373333333
271,2.258242999999993,-16.15837892,11.051563897666668,-138.93417866666667,-2.316884954666667,-1.334658424,12.742460248999999,-129.11897276666667,-17.627269423333335,-22.113038379999995
272,2.2665759999999864,-17.201756156666665,10.796444894333334,-138.9870707,-0.648371508,1.1429792443333333,9.215818723333333,-124.34190366666667,-28.070512136666668,-15.206894239999999
273,2.27490899999998,-18.2635657,10.585652033333334,-139.11032613333336,-0.8663081033333334,-0.13430612033333333,10.820185660333332,-124.93423716666666,-20.184356689999998,-21.997460683333333
274,2.283241999999973,-19.281555173333334,10.274880091333332,-139.13712056666668,0.282609488,0.4610936639999999,9.705347061666666,-121.8974813,-34.81919860666667,-15.4228824
275,2.291574999999966,-20.28525225333333,10.002969743666668,-139.21074423333334,-1.434966405,0.11485265699999998,12.714296978666667,-119.17107133333333,-28.27820269,-19.69898542
276,2.2999079999999594,-21.2203242,9.696176530999999,-139.22316996666666,-1.3723012083333332,2.1427270176666666,9.159989357999999,-112.27164203333335,-34.427324926666664,-14.845487913333335
277,2.3082409999999527,-22.100844066666667,9.401639145333334,-139.26770526666667,-1.8983028926666667,0.8648704093333333,10.753337381333333,-105.0741145,-31.438187280000005,-18.37162208333333
278,2.316573999999946,-22.910650253333333,9.126710573666665,-139.2634684,-1.3203110696666664,2.1819571256666666,12.135373750999998,-97.56576283666668,-31.184630076666668,-12.601412455333334
279,2.324906999999939,-23.647029240000006,8.852689743333334,-139.29180906666667,-2.237183571,2.1994061570000003,9.206726392333332,-88.15476735333334,-29.41299438333333,-16.50994587
280,2.3332399999999325,-24.318124773333334,8.575803438666666,-139.27231346666667,-0.565485517,1.2583713730000001,9.931833903333333,-81.16203562333334,-31.814235053333334,-11.829873402333334
281,2.3415729999999257,-24.917982103333333,8.347296873666666,-139.29106646666665,-1.9060094753333334,2.715411583333333,11.725214324,-71.98810322666667,-24.524159116666667,-13.890814463
282,2.349905999999919,-25.43157069,8.052043279,-139.26187133333332,-1.1887975383333333,1.458182494,9.606318949666667,-62.39932886333333,-34.06020609666666,-12.360533713333334
283,2.3582389999999123,-25.88735644,7.835396448666667,-139.26008606666664,-0.5851178963333333,1.9232526223333333,9.644344488333333,-55.05600865666667,-24.045566559999997,-11.522684414666665
284,2.366571999999905,-26.27724075333333,7.567985852666666,-139.2454427,-2.012020573,1.5586658716666666,11.299233116666665,-47.29903284666667,-30.11061795666667,-12.962364196666668
285,2.3749050000000125,-26.592145283333334,7.327476978,-139.2109324,-0.8019314606666668,1.7232965626666668,8.936187426,-38.65447108,-28.182460786666667,-9.637542884
286,2.3832380000000057,-26.873386386666667,7.105863571,-139.22958373333333,-2.258682767666667,0.274679323,11.643777529666666,-33.76803843,-23.27609825,-14.378023146666669
287,2.391570999999999,-27.092711766666667,6.871812025666666,-139.18969723333333,-0.5326679153333332,1.9601189693333332,9.332669257333334,-27.206235883333335,-27.707336426666668,-8.936549982666666
288,2.3999039999999923,-27.280303956666668,6.6295846303333335,-139.2049408,-1.9877097160000001,0.4593482736666667,12.640803656666668,-22.63625272333333,-25.623176576666665,-15.194309236666669
289,2.408236999999985,-27.421344119999997,6.429738839666666,-139.18447366666666,-1.522927999666667,1.249792516,10.019205730666666,-17.518669130000003,-22.922891616666664,-9.320885974666668
290,2.416569999999979,-27.516516366666668,6.179202556666667,-139.17658996666668,-1.0896609726666666,1.1038639743333334,10.253772893666666,-11.851235548333333,-27.705615363333333,-13.33209769
291,2.424902999999972,-27.599644339999998,5.989897251333333,-139.1524709,-1.231508394,0.5317797063333334,11.914423943333333,-10.60708682,-21.979523973333333,-8.418015956666666
292,2.4332359999999653,-27.630900063333332,5.746394475333333,-139.1300150666667,-2.1737575133333333,0.5292053126666668,10.072154043333333,-4.368617932,-27.718682606666665,-11.490448155333333
293,2.4415689999999586,-27.669371923333333,5.579718748666667,-139.1064555,-1.481508414,0.04103431599999996,11.157340050333332,-5.198957562333334,-19.522605260000002,-7.266479810666667
294,2.449901999999952,-27.680672329999997,5.359109560333334,-139.0713247,-1.4400967829999998,0.2096765833333333,10.462149939333335,-2.089773098666667,-25.916416806666664,-9.018172424
295,2.458234999999945,-27.68074544,5.195986429666667,-139.04517620000001,-1.0330204066666666,0.2823755223333333,11.416790326666666,-0.603518248,-19.29275004,-6.793418407333334
296,2.4665679999999384,-27.678066889999997,5.014294942333334,-139.01310223333334,-2.4431327583333333,-0.18486332866666663,9.644995371666667,-0.38201506933333335,-21.673879623333335,-7.052157879
297,2.474900999999932,-27.67081515,4.881356239,-138.9870453,-1.0543818673333334,-1.0298973373333336,11.49857044,0.31438959633333335,-16.087203343333332,-5.110382716
298,2.483233999999925,-27.688416163333333,4.741240898333333,-138.9631958,-2.028309882,0.19533832866666664,10.751855214666667,-2.717286587,-16.79789543,-5.605446418333334
299,2.491566999999918,-27.685923256666666,4.613422711666666,-138.94255573333334,-1.631348888,-0.9557470083333334,10.656616845666667,-0.20994698999999986,-15.241882642333332,-5.400353193000001
300,2.4998999999999114,-27.698439276666665,4.544156631,-138.93441263333332,-2.443427841,0.4904731896666667,11.352891287333334,-1.9398430983333332,-8.335880754666666,-3.4346644476666666
301,2.5082329999999047,-27.71492513,4.4432606696666666,-138.92217000000002,-1.1678669453333332,-1.312592427,9.484376746666667,-2.3923956753333333,-11.911765415,-4.797785918
302,2.516566000000012,-27.73337237,4.414399464666666,-138.91623943333335,-2.5677734813333335,0.06872113033333334,12.14885489,-2.620899995,-3.9205409286666666,-1.416194121
303,2.524899000000005,-27.765866596666665,4.348351558,-138.9230448333333,-1.011980792,-0.591264864,8.436058362333332,-4.1497370899999995,-7.143324057,-4.883414109666667
304,2.533231999999998,-27.802993773333338,4.342866341,-138.91994223333336,-1.8475922346666669,-0.4889040746666667,10.420558293333334,-4.831442674,-1.27992629,-0.41368275866666665
305,2.5415649999999914,-27.84256236,4.295550266666667,-138.92846169999999,-0.48328618233333326,-0.466612821,10.523410797666665,-4.977716843333333,-5.04944547,-4.033593098333333
306,2.5498979999999847,-27.91328621,4.31583333,-138.9262136,-2.3862851160000003,-0.9380926093333334,11.350256919666668,-8.869057338333333,1.4382650456666666,1.0627217686666666
307,2.558230999999978,-27.97631264,4.293139616666667,-138.93936663333332,-0.7710063656666666,-0.865581304,7.874042352,-7.775679429333333,-2.182452387,-3.1280618506666666
308,2.566563999999971,-28.067553836666665,4.346179247333333,-138.96746316666668,-2.9845076699999997,0.10575992366666669,13.015908557333333,-11.046243668333332,6.605660914,-0.28495827333333335
309,2.5748969999999645,-28.16376686,4.34320124,-138.98212176666667,-0.552522463,-1.312373559,8.488725185333333,-11.749303179999998,0.005617896666666604,-2.191802005
310,2.5832299999999577,-28.262906393333335,4.423197110333333,-139.0138702666667,-1.6531901163333333,-0.07495004966666667,11.894451140000001,-11.95256138,9.661764304333333,0.8812153536666667
311,2.591562999999951,-28.377264656666668,4.411510309,-139.02338153333335,-0.2783792813333333,-0.45205936866666674,8.254028001,-13.987466493333331,-1.1953952413333335,-2.1541190146666667
312,2.5998959999999443,-28.524148943333334,4.494702498333333,-139.0645090666667,-2.951576789,-1.8833162783333333,13.059771536666666,-17.592416126666667,10.522616866333333,0.1296166579999999
313,2.608228999999937,-28.654384613333335,4.498606284333333,-139.06095883333333,0.5386067626666667,0.31836429866666666,8.609649181333333,-16.008491836666664,-0.299806088,0.12470719200000002
314,2.6165619999999308,-28.820037206666665,4.581478595999999,-139.11673993333332,-3.2028800646666666,-0.9304946266666668,12.206297556,-19.711279549999997,11.326009909,-1.3604493833333333
315,2.624894999999924,-28.964555736666664,4.5748178956666665,-139.1083476,0.2742665163333334,-0.758221254,8.440192065,-17.7749602,-1.7026338576666669,0.03110839899999999
316,2.6332279999999173,-29.13254992,4.658715168666666,-139.1672007,-2.7628454369999997,-0.2679707706666667,11.550650596000002,-19.95057869,11.609900949999998,-1.5431429743333334
317,2.6415609999999106,-29.310349783333333,4.633881171666666,-139.14881896666668,1.0698356323333333,-0.39325125899999996,8.535461267,-21.858763376666662,-4.190469105999999,-0.000969201333333262
318,2.649893999999904,-29.480517706666664,4.6802848180000005,-139.19164023333335,-2.3087182446666668,-1.3551505406666664,12.34876919,-20.355582553333335,6.755117613666667,-2.005177339
319,2.6582270000000108,-29.650220233333332,4.668152014666667,-139.16462199999998,-0.16434950333333337,0.4846681513333333,8.484242758666667,-20.997296966666667,-3.3834150630000006,1.6394354933333333
320,2.666560000000004,-29.820442200000002,4.695881207666667,-139.20143126666665,-2.573439518666667,-0.6528548956666667,11.244098503666669,-20.42456881,4.455819369333334,-2.4411911963333335
321,2.6748929999999973,-29.970449446666663,4.710517804,-139.18434650000003,-0.4979333976666666,-0.046860791666666644,11.814609526666667,-18.54396947,-0.020435611333333565,2.1999685963333335
322,2.6832259999999906,-30.09609349333333,4.720516840666666,-139.19211326666667,-2.881788532,0.35791301466666664,9.956906637000001,-15.341410636666666,0.878816366333333,-0.4615260359999999
323,2.691558999999984,-30.207626343333335,4.763180335333334,-139.19602456666667,-0.08738974733333331,0.45408996933333334,10.428950469,-13.729975698666665,4.141106524666667,1.713912785
324,2.699891999999977,-30.306611376666666,4.757368723666667,-139.1911977,-2.3032430226666665,-0.671886037,8.839144786,-12.278697646666666,-1.531334718,-0.09592959266666667
325,2.7082249999999704,-30.39269066,4.835032303999999,-139.2173207666667,-0.8728430866666667,1.0430678226666668,13.915658313,-10.438289004,9.126871028333333,1.5172979433333333
326,2.716557999999964,-30.457443236666666,4.8176829020000005,-139.20169063333333,-1.1779466870000002,-0.861665537,6.825956980333333,-8.274021943000001,-3.395504435,0.3388464753333333
327,2.724890999999957,-30.508474346666663,4.92650191,-139.24334209999998,-1.7120947686666668,-0.348155121,13.539747555,-6.096974849666666,13.236633298000001,1.9212857086666666
328,2.73322399999995,-30.558709463333333,4.892324527333333,-139.22361756666666,-0.438217163,0.327616875,7.060580889333333,-6.573996305333334,-5.394059260666666,-0.25968140366666675
329,2.7415569999999434,-30.602147423333335,5.005522569333333,-139.2812907,-3.104330738333333,-1.0389584503333333,13.898731233333331,-5.022217909333333,14.68989881,0.516660561
330,2.7498899999999367,-30.632813773333336,4.993170261333333,-139.26457723333334,0.580712954,-0.45887144433333343,8.401020844333333,-4.201908588333333,-2.976531982333333,0.7863271633333334
331,2.75822299999993,-30.651701610000003,5.072217544,-139.30160013333332,-3.2125011286666667,0.3508355616666667,11.040264607333333,-2.2694300013333333,9.926888147666666,0.5314612139999999
332,2.766555999999923,-30.661586126666666,5.1077320576666665,-139.31428526666667,-0.21128415800000008,-0.501886631,11.612767062000001,-1.4266659416666665,3.7418301506666665,0.7141462860000001
333,2.7748889999999165,-30.642517090000002,5.120898167333333,-139.30148316666666,-2.052960832666667,-0.09488318866666667,9.094382126000001,1.777465793,0.05454103166666672,1.6786331533333332
334,2.7832219999999097,-30.63126564,5.243529399,-139.36000566666667,-2.0232414999999997,0.404678603,13.321117403333334,1.5776533683333334,15.508691786666668,1.3680350780000001
335,2.791554999999903,-30.600139620000004,5.217151482666667,-139.3313395,0.47476947333333347,-1.1965711913333335,7.2428040503333335,3.0808422813333336,-5.017927486666667,0.9231413403333333
336,2.79988800000001,-30.564096450000005,5.3161073530000005,-139.37771603333331,-3.4753187499999996,-0.12580768366666667,12.896607876333334,4.415139436666666,12.319297689666667,1.1741952303333334
337,2.808221000000003,-30.528919219999995,5.347822268666666,-139.38248696666668,0.9925516646666667,-0.7686321436666668,8.530880134333332,3.9426071643333334,3.0757277019999996,0.932388097
338,2.8165539999999964,-30.494686763333334,5.359104871666666,-139.37781270000002,-2.2320254543333333,-1.0086940130000002,9.977910835,3.6446582526666664,0.15854374566666665,1.0709697203333333
339,2.8248869999999897,-30.46753311,5.446163574666667,-139.41976416666668,-1.9683441126666665,-0.6891310513333333,13.13913536,3.351166248,11.03848489,0.504288842
340,2.833219999999983,-30.435659406666662,5.447186947,-139.4124552333333,-0.3423636753333333,-0.13502337533333333,11.251396496333333,3.3703083196666666,-1.0582900046666663,0.705872779
341,2.841552999999976,-30.401779810000004,5.507636308666666,-139.42926023333334,-3.2939698296666666,-1.298186461,9.050497214,3.861606478666667,6.796490429999999,1.4142942776666667
342,2.849885999999969,-30.366580326666664,5.607307831333333,-139.47477213333335,-1.1500321526666666,-0.37420318533333335,11.554258028,4.359820922,12.337179501666666,1.2679774366666667
343,2.8582189999999628,-30.345750173333332,5.630242983666666,-139.46705116666666,-1.0579340856666668,-0.6853139003333334,9.902654174,2.0440031093333335,1.397521138,1.7148089806666666
344,2.866551999999956,-30.29127756666667,5.735670725666666,-139.49465940000002,-2.8956381479999997,0.4845472773333333,12.811212538333335,6.441977024333333,11.872094154000001,3.423629125
345,2.8748849999999493,-30.216094336666668,5.845571518,-139.52329,-1.0999610819999999,0.37620916033333335,10.752152285000001,9.006603400333333,12.645986239666668,3.1435290973333334
346,2.8832179999999425,-30.06909116,5.926210721666666,-139.51506043333333,-1.2274949153333334,1.8193267983333332,9.291567325,17.146128973333333,7.151826064000001,5.607773622
347,2.891550999999936,-29.858100256666663,6.098576227666666,-139.5574239,-3.1414468286666666,1.4250991743333332,12.387905120333334,25.456897736666665,19.97087097,5.413569609666666
348,2.899883999999929,-29.55335617,6.214877605333334,-139.5497182,0.2578879893333333,2.361689686666667,9.951730093,36.09192720666667,10.937817731,7.630640347666667
349,2.9082169999999223,-29.16342227,6.371174494333334,-139.56245933333332,-3.131016771,1.688215911333333,10.636478266333333,46.557011923333334,16.612897239333332,7.336688995333333
350,2.916549999999916,-28.67462667,6.551610787333334,-139.56722509999997,-0.481230855,2.4336863359999996,12.470789272666666,58.32593154666667,18.507384300000002,9.886721929333333
351,2.924882999999909,-28.089009603333334,6.671749432666666,-139.55334470000003,-0.6253898543333334,1.508035968,8.977742196333333,69.71050771,11.442465147666667,7.722363789666666
352,2.933215999999902,-27.424411769999995,6.850280285,-139.5628713,-2.1480953493333335,1.518796007,12.049602826666666,79.46641032000001,18.779920576666665,8.884375731333334
353,2.941549000000009,-26.664727530000004,6.972953319666666,-139.5537211,-0.12675034999999998,2.138232748,10.612886111,90.66460418666668,12.139018378333333,7.116814454666667
354,2.9498820000000023,-25.824198403333337,7.095509370333333,-139.53038533333333,-1.9118856986666668,1.0120574233333333,11.44103527,100.12705738333334,11.272430420666666,8.885495503666668
355,2.958214999999996,-24.892250693333335,7.240057468333333,-139.51514690000002,-1.2156445383333334,1.4096396169999998,11.592274029999999,111.22030386666667,14.440229100000002,8.475426674
356,2.966547999999989,-23.87648455333333,7.33979098,-139.46094259999998,-0.7639615040000001,1.9033976396666663,9.489214261999999,120.71130113333334,7.712662220333335,10.386811254333333
357,2.974880999999982,-22.80307897,7.476293405,-139.43595376666667,-2.325929244666667,0.4928907953333333,11.114382742333333,128.0326818,13.417083261333334,8.579265911666667
358,2.9832139999999754,-21.643928526666667,7.605443954666666,-139.38739523333334,-0.7761484186666666,1.2545284033333333,12.857226686666666,138.0012207,11.633490085666665,10.780344009000002
359,2.9915469999999686,-20.42370987,7.692988554666667,-139.31971740000003,-1.319928606333333,1.2576680980000001,9.564792632666666,144.9859365,6.492503165333333,10.557890258333332
360,2.999879999999962,-19.13013331333333,7.828787644999999,-139.26092526666667,-1.013231655,0.9226364393333334,12.196305276666669,153.9103342666667,12.447956879666664,11.66773637
361,3.008212999999955,-17.782519660000002,7.856899102666667,-139.17569476666665,-0.50207152,0.27757629733333333,8.861351331,159.96545920000003,-0.4359752136666666,9.939214707333333
362,3.0165459999999484,-16.378440219999998,7.9622338610000005,-139.0978546,-1.5526912113333333,1.2481132746666666,12.558553380000001,166.85469056666668,8.836250941000001,12.112580936666667
363,3.0248789999999417,-14.90476195,7.929644266666666,-138.9868673,1.2406829393333334,1.0384671289999998,9.719453496333333,174.65319826666666,-7.767358550333333,10.927764576000001
364,3.033211999999935,-13.369440079999999,7.925688743666666,-138.8713582,-1.8460380236666667,0.6296202540000001,10.990022022333333,181.9553833,-4.35016036,12.805752436666667
365,3.041544999999928,-11.78749053,7.8621323903333336,-138.7496999,0.33811958633333333,0.40521332633333335,10.385437329666667,187.47235106666668,-11.041879813666666,11.706652642666667
366,3.049877999999921,-10.179512660333332,7.793906847333333,-138.61338296666668,-1.0596573156666667,-0.38138654833333335,13.851207100000002,190.40537513333334,-11.630965232666668,13.770348233333332
367,3.0582109999999147,-8.528712590333333,7.641400178333334,-138.46819556666668,0.39683894299999994,0.05314967033333332,9.969859599000001,195.39250183333334,-21.331809676666666,13.34772873
368,3.066543999999908,-6.863774935333333,7.501647313333334,-138.31873576666666,-1.6620566446666665,-0.42812391133333333,10.228357631666666,197.1120402,-19.507935203333332,14.75858879
369,3.0748769999999013,-5.215312639666666,7.34763813,-138.17874146666668,-1.5253417893333332,-1.738584439,12.587280908666665,195.2723694,-20.61293347666667,13.891380626666667
370,3.083210000000008,-3.560424804666667,7.177631219333333,-138.0387853,-0.5803748113333334,-1.4943411746666666,11.402448651999999,196.1749725,-22.136047366666663,14.36896673666667
371,3.091543000000001,-1.9334251480000002,6.96423769,-137.902921,-0.416920596,-0.9159605703333334,9.591400784,192.8682149,-26.85350418333333,14.176444053333332
372,3.0998759999999947,-0.33223118366666665,6.740946610666666,-137.7840449,-1.0945516326666667,-1.947327772666667,9.829493205333334,190.14216613333335,-27.593701043333336,12.895736696666667
373,3.108208999999988,1.264639338,6.516554196666667,-137.67443083333333,-0.9154014986666666,-1.7097059886666666,12.048674581999999,189.74935913333334,-27.341606776666666,12.579535486666666
374,3.1165419999999813,2.7923636436666666,6.287390868,-137.5794525,-1.3895449243333333,-2.228631178666667,11.880910873333333,181.77488200000002,-27.63450877,11.562849364333331
375,3.1248749999999745,4.282944997,6.0076303483333335,-137.5023651,-0.28277907766666666,-1.9122748773333333,9.249246278666668,177.47908529999998,-33.45836258,10.595787685666666
376,3.133207999999968,5.757372538333333,5.781337499666667,-137.43790946666667,-2.419446468,-2.412551323666667,13.588838896666667,175.84836323333334,-26.933528263333333,9.335668562999999
377,3.141540999999961,7.161689917,5.487460931333334,-137.37834676666668,0.8352367083333334,-1.9939286313333333,10.287904103333332,167.44578046666666,-34.780712130000005,10.458017986333333
378,3.1498739999999543,8.501898129666666,5.204582532333333,-137.33891803333333,-2.2093739109999997,-2.4706418116666664,9.957158405666666,160.08081566666667,-33.55190531333333,8.567198753333335
379,3.158206999999948,9.805372875333333,4.928950945666667,-137.30053966666665,0.3060831823333333,-3.184016227666666,11.050558249666665,155.6655324,-32.483755110000004,9.189252852000001
380,3.166539999999941,11.044462520000002,4.571221431333334,-137.306633,-0.9131562013333334,-2.5234466789999996,8.275053979333334,148.38797506666666,-42.87070592333333,6.590782960333333
381,3.174872999999934,12.20521736,4.280531883333333,-137.30818686666666,-1.2519257366666667,-2.7133629323333337,14.435090384,138.97771706666666,-34.771464030000004,6.237614949666667
382,3.183205999999928,13.284512523333333,3.924109419,-137.33427683333332,-0.15079586433333328,-2.893587589333333,10.618842443666667,129.38564553333333,-42.93014145,5.956995328333334
383,3.1915389999999206,14.28836759,3.5750068029999995,-137.37274423333332,-0.579989036,-2.9174124403333335,11.342572850000002,120.4262314,-42.34260940666667,4.945146719666667
384,3.199871999999914,15.233999570000002,3.2153149446666665,-137.4226684333333,-2.2924553156666665,-2.5159334343333333,8.798355580666666,113.50026196666666,-43.78923797666667,4.777706305
385,3.208204999999907,16.107573506666668,2.8802679780000005,-137.4770762,0.4543687700000001,-2.774714867,12.502931596666665,104.81709036333335,-41.04360707666667,3.9665365219999997
386,3.216538000000014,16.913991926666668,2.4743638833333335,-137.5650355,-2.3903827966666666,-3.2607713539999996,8.169213930666666,96.94109090333332,-50.22706731333333,3.3031442166666665
387,3.224871000000008,17.65577761333333,2.1946063136666667,-137.6085256,-0.3940169909999999,-1.6565576393333332,13.859629946666667,88.88120524,-34.17100779333333,4.400773922666667
388,3.2332040000000006,18.325185776666668,1.7802428803333334,-137.72221119999998,-1.12717404,-3.6975102423333333,6.984988211666667,80.45448811666667,-52.032574970000006,1.9671124616666666
389,3.241536999999994,18.90442149,1.477717499,-137.7800293,-1.4119092226666667,-2.268045385333333,13.170131206999999,69.35927073333333,-37.19782575,4.389005899
390,3.249869999999987,19.44329707,1.158700029,-137.87749223333333,-2.906320730666667,-2.8907810049999996,9.091928006666668,64.62555313,-40.529565176666665,1.1066388386666668
391,3.2582029999999804,19.89761034333333,0.8393242753333333,-137.93489583333334,1.760791132666667,-2.268409729,9.568308193666667,54.25238164,-39.00214132,5.769637743666666
392,3.2665359999999737,20.29431025,0.5725833969999999,-138.03553263333333,-5.848595619,-3.1164799533333336,10.313203973,47.456514993333336,-34.735897066666666,-0.7708798546666666
393,3.274868999999967,20.637643816666667,0.32551232966666666,-138.07263186666668,1.9005305990000003,-1.0375945173333332,11.484877267666667,40.876135506666664,-29.932168960000002,5.568333943666667
394,3.28320199999996,20.912712096666667,0.10492070500000006,-138.1532898,-4.7010893026666665,-4.016001462999999,9.404997823666667,32.721443173333334,-28.707750320000002,-0.08721656100000001
395,3.291534999999953,21.14207140666667,-0.10766770433333332,-138.1750107,0.7186713613333332,-0.8491545616666668,8.969244479666667,27.1552372,-25.336125056666663,6.119461536666667
396,3.2998679999999467,21.330823266666666,-0.23894470933333326,-138.22383116666666,-4.956890980333333,-1.5826815963333332,11.241359708666666,22.335039773333335,-17.330104193333334,-0.17619164166666668
397,3.30820099999994,21.492256163333334,-0.37595438933333325,-138.20143633333333,1.7491827506666668,-2.1695897580000003,8.498889764666666,19.02147611,-14.896722791666667,7.9533958433333325
398,3.3165339999999333,21.60942395666667,-0.512352089,-138.2417196,-4.321440538,-1.9017148416666665,9.806832314,13.692315736666666,-17.523332913333334,1.0909748923333333
399,3.3248669999999265,21.668727236666665,-0.600529353,-138.20506796666666,1.2305766593333334,-1.1352177463333333,10.905606110333332,6.8365169366666665,-8.772419454333333,7.485086282
400,3.33319999999992,21.731833776666665,-0.6564306320000001,-138.2078654,-5.353963931333333,-1.9042079846666666,10.553950627666666,7.281819820333332,-6.885247629333333,1.7410850923333332
401,3.341532999999913,21.769200006666665,-0.7501049436666666,-138.16840363333333,3.6570137443333333,-0.07148564866666669,9.846968810333333,4.174796581333333,-9.286378541333333,7.948499997333333
402,3.3498659999999063,21.77405675333333,-0.7890131273333334,-138.18007403333334,-5.722188790666667,-2.6558943986666668,9.905408859666666,0.26223019733333325,-5.381892541,0.008691847333333355
403,3.3581990000000133,21.77861659,-0.8549891609999999,-138.12654623333333,2.4885548353333333,-0.18660830466666667,9.505081336333333,0.2960281070000001,-5.567195732999999,8.297015983666666
404,3.3665320000000065,21.772005713333332,-0.8805075983333333,-138.1325607,-5.7005783716666665,-0.9357373516666666,11.149371306333334,-1.1208529873333333,-3.6401033999999997,0.04199882366666655
405,3.374865,21.746191660000004,-0.8880754313333332,-138.06274923333334,2.734403451,-0.9849760566666665,10.372213364333334,-3.2676726183333336,1.667759975,7.524174054666666
406,3.383197999999993,21.746730806666665,-0.9110155853333333,-138.06673686666667,-5.332639376333334,-0.549906095,10.265924454,-0.2777010473333334,-3.260414759333333,0.146308581
407,3.3915309999999863,21.721265156666664,-0.9666923133333333,-138.0043335,4.451499223666667,-0.18407250466666666,9.508707045333333,-3.2570724686666668,-4.02369376,8.854944704666666
408,3.39986399999998,21.680042903333334,-0.9712476743333333,-138.01447553333333,-5.70514218,-2.398452599666667,11.824344633333332,-5.28872935,-1.4825646883333334,-1.3520729539999998
409,3.408196999999973,21.64199193,-1.0443506513333334,-137.96030426666667,3.5391252836666673,-0.4457359886666667,8.686969759,-4.734744628333333,-6.344732402666666,8.709293204666666
410,3.416529999999966,21.578113556666665,-1.06420852,-137.97989906666666,-5.070235093666667,-0.6565459196666666,12.210202536333334,-8.050490380000001,-3.605174739666667,-1.7250761986666667
411,3.42486299999996,21.507709503333334,-1.0918680106666667,-137.91764323333334,1.6796253519999997,-1.324100159,9.720805803666666,-8.547467072666667,-0.9157348076666666,7.648825731333332
412,3.4331959999999526,21.459079740000004,-1.116866481,-137.93011223333335,-4.589900652333333,0.11946898700000001,9.174984456333334,-6.2428259850000005,-3.8608554996666666,-0.7216046649999998
413,3.441528999999946,21.387907026666667,-1.1258137129999999,-137.86507923333332,1.2405047816666668,-0.4121079843333333,11.391099614,-8.608233452,1.2704791423333333,7.129147706333334
414,3.449861999999939,21.335532506666667,-1.1046348933333332,-137.8470332,-4.008526206,-0.17733246066666666,8.624175073,-6.641020296666667,2.634206384666667,0.6609122770000001
415,3.4581949999999324,21.298173903333332,-1.104042781,-137.79350029999998,-0.3465256096666667,-0.9607796866666667,10.204593022333333,-4.570484876666667,1.8288736540000003,5.447328567333334
416,3.4665279999999257,21.2531236,-1.047428131,-137.73715213333332,-1.7455428443333334,0.829767724,10.486550332,-5.694937288666666,8.261164029333333,3.406006434
417,3.474860999999919,21.232973736666665,-0.9706450130000001,-137.69268036666668,-2.4302380483333335,-0.9631508286666667,10.580710729333333,-2.533401648,9.958204586333334,1.1487218539999997
418,3.483193999999912,21.238641103333332,-0.8785737653333334,-137.6160202,-0.7530761560000001,1.0309447496666666,10.687205312666668,0.42815971366666644,13.103767395333334,4.137669058
419,3.491526999999905,21.245398203333334,-0.7438109816666666,-137.56998443333336,-1.996638854666667,-1.1078315576666669,10.676169712666665,0.6747555733333334,16.505774813333332,-1.2026055656666665
420,3.4998600000000124,21.273305893333333,-0.570046385,-137.47481283333332,-1.8517413933333333,0.48162836833333333,10.457631746333332,3.1280628836666664,23.04527346,2.648696805333333
421,3.5081930000000057,21.330083846666668,-0.4194239376666667,-137.4443105,-1.168356791,-0.935957603,9.434710184,6.575287342,17.586277963333334,-3.7002036176666664
422,3.516525999999999,21.39523061,-0.19996933166666675,-137.33359273333335,-1.848448634333333,0.20941755799999998,11.020448686333333,7.584688345666667,28.82576116,2.3488697606666666
423,3.524858999999992,21.480123520000003,-0.016713738333333412,-137.2971878,-1.161366463,-0.21414103133333331,10.173258941333332,9.844724971,21.496177673333335,-4.514515161666667
424,3.533191999999985,21.56420199,0.23064565666666667,-137.17379756666665,-1.5503367433333335,0.151499083,12.014135363333333,9.787481624666666,32.51000722333334,2.458098491
425,3.5415249999999787,21.65394338,0.46880094200000005,-137.1026992666667,-0.556891183,-0.678674509,9.948307037,10.422296841333333,29.1308047,-3.1387325923333336
426,3.549857999999972,21.740292230000005,0.7064801056666669,-136.98595939999998,-1.0643045873333332,-0.3250409166666667,10.780298232666667,9.917208354333333,31.14727338333334,2.0463059346666665
427,3.558190999999965,21.84282303,0.9645373423333332,-136.91820016666665,-1.65954264,-1.7144191266666666,9.650461353666667,11.911602976333334,31.189238866666667,-4.493334293333334
428,3.5665239999999585,21.973188403333335,1.1860179506666666,-136.80596926666666,-0.6687411666666666,0.6582228539999999,10.102846148,15.093151409999999,29.139757156666665,2.1418303253333337
429,3.574856999999952,22.098367053333334,1.446027517,-136.7440567,-1.0769269663333334,-0.3901352533333333,13.386719386666664,14.554972011666669,31.137516020000003,-5.356919606333334
430,3.583189999999945,22.21330896666667,1.6623879273333333,-136.63463336666666,-0.6271528003333333,-0.4711398580000001,10.276147046333334,13.163303218000001,28.458772656666667,1.9391615586666668
431,3.5915229999999383,22.322863896666664,1.9226990439999998,-136.57679240000002,-1.9129507143333335,-0.25157695999999996,11.606943447333334,12.641285893333334,30.961645126666667,-5.952851851666666
432,3.599855999999932,22.46383222333333,2.098690485,-136.49302163333334,0.09364022799999994,-0.951850653,8.225822131,16.297307649999997,22.810860313333333,0.8090389570000002
433,3.608188999999925,22.605529786666665,2.31948636,-136.43473053333335,-0.8142624003333333,-0.21922930100000002,13.074928284999999,16.407091776666665,26.567566553333336,-4.258250395666667
434,3.616521999999918,22.73831749,2.4501018373333334,-136.37999983333333,0.8476542633333334,0.08862429866666666,8.352301122333333,15.431345623333334,16.44607162666667,-0.40696362666666674
435,3.6248549999999113,22.833396276666665,2.6476299863333335,-136.3225301,-2.414726734333333,-1.547316869,12.210207463666668,10.803142866666667,23.955856323333336,-3.356713613
436,3.6331879999999046,22.939008713333333,2.7355167666666667,-136.28204346666666,0.738951385,-2.097187995666667,8.163949489666667,12.173284531,11.063563504666666,-0.06436824766666671
437,3.641521000000012,23.020546596666666,2.8964958986666667,-136.2376124,-1.9892352870000003,-0.08443909500000002,12.775665599333335,9.231143475000001,19.287818273333333,-3.1683966713333334
438,3.649854000000005,23.052902856666666,2.96948721,-136.2105128,1.1679287953333335,-1.6930610736666667,8.352363905333334,3.4557573793333334,8.793368499000001,-0.8641602646666665
439,3.658186999999998,23.049587886666668,3.0748645863333337,-136.17730459999999,-2.0562152069999997,-1.4349765776666665,11.344562846666667,-0.9172715543333334,12.618615625666665,-1.8304870920000003
440,3.6665199999999913,23.045829773333335,3.1120225390000003,-136.1671982,0.6280078589999999,-1.1678080756666667,9.502863248666667,-0.7539379400000001,4.037243444666667,-1.0568560163333334
441,3.6748529999999846,23.02139155,3.194691737333333,-136.139328,-1.9838919936666668,-0.6021210576666668,12.266650517,-3.4201195243333333,9.920983712666667,-1.1988743146666665
442,3.683185999999978,22.960716246666664,3.2254710993333333,-136.15458683333333,0.8434974053333333,-1.6776787043333334,9.622155506666665,-7.4393698776666675,2.150789698,-3.5479521750000003
443,3.691518999999971,22.875484466666666,3.265957713,-136.1391627,-2.9322691756666663,-0.10442617966666663,10.943606216000001,-10.598186174333334,4.606153328666667,-0.7471417186666667
444,3.699851999999965,22.77562268666667,3.3144649266666666,-136.16217293333332,0.8892663616666666,-2.126649181,11.069067159999998,-12.096261660000001,3.761465113,-5.224293867666667
445,3.7081849999999577,22.641639710000003,3.300120949666667,-136.1803894,-1.638726632,-1.02041471,9.337383747999999,-16.231117886666667,-2.9739171276666667,-1.7989267113333334
446,3.716517999999951,22.4538606,3.3949653706666667,-136.19238023333332,-0.9586242436666667,-1.114084477,13.878503957000001,-22.688423153333332,9.4276586,-6.112733681999999
447,3.724850999999944,22.255858736666667,3.361419916333334,-136.21615856666668,-1.3101839683333332,-1.6211262543333333,5.870713393333333,-23.89416249333333,-5.389588098,-1.6537881790000002
448,3.7331839999999374,22.021907806666665,3.4874605736666666,-136.22706096666667,-2.5213838443333336,-1.590526839,14.794865606666667,-28.232944486666668,12.984627407,-7.333580017
449,3.7415169999999303,21.713258106666668,3.4478459753333333,-136.2574259666667,1.3303631543333332,-2.3039836883333336,7.486093680666667,-37.09275182333334,-6.363036432333334,-2.1865787510000003
450,3.749849999999924,21.336460746666663,3.563718796,-136.2770106,-3.1568553450000003,-2.913383404333333,10.9293073,-45.348668413333336,11.542200644,-7.706950187666666
451,3.758182999999917,20.887347536666667,3.5534091790000004,-136.30951183333335,0.2910704513333333,-2.2621168296666663,7.938286938666667,-53.90246327666667,-3.138246855333333,-3.7416905563333334
452,3.7665159999999114,20.369691213333333,3.670531113666667,-136.32286326666664,-3.4985005060000005,-2.330565373,13.311861834,-62.310628253333334,12.056534609333333,-6.867350737333332
453,3.774848999999904,19.781997676666666,3.738251328333334,-136.3419698,0.5710369399999999,-1.981525123,11.130340101666667,-70.59202067000001,6.2530878376666665,-5.543026447333332
454,3.7831820000000103,19.106178283333335,3.785697182,-136.3779729,-2.249970595,-2.6544965506666665,7.597495873333334,-81.10851796666667,3.400614897333334,-6.379164218666667
455,3.791515000000004,18.362232846666668,3.9494337639999997,-136.3819631,-1.173098156666667,-2.762720267,13.705403961666667,-89.47460937333334,17.868997258,-7.348167896333333
456,3.799847999999997,17.58055496,3.958556016333333,-136.42681373333332,-1.3480661710000001,-1.1107250253333334,5.428819198999999,-93.72503662333334,-1.1476541359999999,-5.864240964
457,3.8081809999999914,16.721160253333334,4.208169937,-136.40514373333335,-2.409597561,-2.114470482,15.59450213,-103.51610310000001,28.793076836666668,-6.981875896666668
458,3.816513999999984,15.794157346666665,4.178751309666667,-136.46964773333335,2.1315816343333336,-2.723648389333334,5.701844691999999,-111.00733436666667,-6.084676743,-6.862978617666666
459,3.824846999999977,14.812117576666667,4.406395832666667,-136.4644572,-4.890545129666666,-0.9377638303333334,13.003713768333334,-118.0612615,25.949281532666664,-7.144403775333333
460,3.8331799999999694,13.79389159,4.470025777666667,-136.50286356666666,2.1582643586666665,-1.4949230753333334,6.672857601666666,-122.17052969999999,5.723786646333334,-6.791871865666667
461,3.841512999999964,12.74378077,4.642099380333334,-136.51663716666667,-4.0083198546666665,-1.5688105423333336,12.812947433,-126.08185323333332,19.15147288733333,-6.904148896333333
462,3.849845999999957,11.644743283333334,4.742299238666667,-136.53341166666664,1.972056866,-0.16184773033333333,9.812508345666666,-132.0096588,10.797665435666666,-4.96333909
463,3.85817899999995,10.510005633333334,4.877527236666666,-136.58022053333332,-4.466146072,-1.7392899593333333,10.317528179333333,-135.93531800000002,14.293329082,-9.108382543000001
464,3.8665119999999433,9.401561101333332,5.052301724666666,-136.59163413333334,0.118448615,-0.2621866266666667,11.095731736,-133.13181556666666,19.837886173333334,-5.734030246666666
465,3.8748449999999366,8.263493061,5.214305321333334,-136.63792420000001,-1.5363219776666668,0.10922703633333335,8.226729710999999,-136.32354229999999,17.806182223333334,-8.978494008333334
466,3.88317799999993,7.124300797666667,5.3554646969999995,-136.66679126666665,-0.10748310366666669,-0.14606633800000002,9.599316755333334,-136.621755,15.755324683333335,-6.433518727666667
467,3.891510999999923,5.983692805,5.523085594333334,-136.7266311666667,-1.6328374146666667,-0.9718587200000002,10.612295468000001,-136.4370626,18.616200763333335,-9.964612959333333
468,3.899843999999917,4.8886721930000006,5.711107015666667,-136.7596512,-2.6175696053333333,1.438726301,9.536216736666667,-131.25665283333333,21.527339933333334,-6.808057626
469,3.9081769999999096,3.7790762583333333,5.930645068666666,-136.83734896666667,-0.015705118666666684,0.32738995066666665,11.699098905,-132.45077513333334,25.023158393333333,-11.794492723333335
470,3.916509999999903,2.7167994183333337,6.094777266,-136.87539166666667,-1.237385601,-0.3813098666666666,8.838929177999999,-127.23044333333333,18.862317403333332,-6.393001715333334
471,3.92484300000001,1.659735163,6.265028159000001,-136.95352173333333,0.5062292416666666,1.035388112,9.721745171999999,-126.10640463333334,19.51515802,-10.664731025
472,3.933176000000003,0.6034716466666666,6.436396758,-137.0138804,-2.357854247,-0.207666268,10.533283074333333,-126.18244169999998,19.885098136666667,-8.312592983333333
473,3.941508999999997,-0.4000488423333333,6.586675961666667,-137.0946223,0.18333051599999997,0.2823096516666666,10.256830217333333,-119.57829283333335,17.48046779666667,-10.204019865
474,3.9498419999999896,-1.409225623,6.748456796,-137.15159606666666,-0.6400270063333333,0.813380939,10.381335735999999,-120.52810666666666,18.999515533333334,-7.169710953333333
475,3.958174999999983,-2.4122569560000002,6.786419232666667,-137.2353083,1.5495814479999999,-0.5134757656666668,6.205731868666668,-119.47619630000001,4.3474496196666665,-10.411180017
476,3.966507999999976,-3.4236195879999998,6.888160864666666,-137.31253306666665,-1.840872844,-1.3818517549999998,12.826570826666668,-120.47313689999999,12.152803897333333,-9.217722416
477,3.9748409999999694,-4.437777201333334,6.894105116666666,-137.38603973333332,0.35308073966666664,0.49167665833333335,8.655699411,-120.91132353333334,0.7877214950000001,-9.307279744333334
478,3.9831739999999622,-5.466865698333334,6.951489766333334,-137.4658203,-0.25152013700000003,-0.5383997806666666,12.580140431999999,-122.58872476666666,7.164371648333333,-9.398556390333333
479,3.991506999999956,-6.503085931,6.833156109,-137.5293757,1.0173131026666666,-0.5344177533333333,6.488063971,-123.70696256666668,-13.852924663666665,-9.63779195
480,3.999839999999949,-7.566792965,6.842718919,-137.6317571,-3.3013762633333332,-0.5520907839999999,13.9775753,-126.4485194,2.108281852333333,-12.362977663333334
481,4.008172999999943,-8.604205131666667,6.738502343333334,-137.69100953333336,2.008291184666667,0.19616937633333334,7.738899786,-123.9265976,-11.907731862666665,-9.317046800666665
482,4.016505999999936,-9.650902748,6.667484124666667,-137.7841339,-2.3315905333333333,-0.4001821626666667,10.179145176333334,-124.59102633333333,-7.207791645666667,-12.51680565
483,4.024838999999929,-10.690816243333332,6.519627094333334,-137.83950553333332,1.3270517586666666,0.9621017973333332,10.235197068,-124.31099189999999,-16.821856578333335,-10.139994621666666
484,4.033171999999922,-11.733246803333335,6.420081933666666,-137.93673453333335,-3.8068042993333333,-1.092916727,11.063841659333333,-124.09096783333332,-10.035592852999999,-13.859204929999999
485,4.041504999999916,-12.751182556666668,6.290056387666667,-137.98545326666667,1.7655460436666666,1.0324723623333334,9.933994768333333,-121.79174806666667,-14.548388819333333,-9.445286433
486,4.049837999999909,-13.778930346666668,6.132338841666666,-138.0621592,-2.6848967276666666,-0.23289864266666668,10.711307204999999,-122.6623484,-16.915739536666667,-13.37030538
487,4.058170999999902,-14.790827753333334,5.966414292666667,-138.09169516666665,1.8749288320000002,-0.352340917,10.64503167,-121.33926903333334,-18.943819366666666,-8.834651788
488,4.066504000000009,-15.800985016666667,5.762321313000001,-138.14709979999998,-3.0649732353333334,-0.07092959300000001,8.823978057666666,-120.84875233333332,-22.406150179999997,-13.252501486666667
489,4.074837000000002,-16.798792520000003,5.616606792,-138.18297833333335,0.518611868,0.8550757963333334,15.592580156666665,-119.6006597,-16.111054100333334,-9.470025697
490,4.083169999999996,-17.75123341666667,5.384937048,-138.20443219999999,-2.5035007400000002,0.4106134103333334,7.157427629333334,-114.3402532,-26.312271120000002,-11.117974600000002
491,4.091502999999989,-18.69380061,5.232145865666666,-138.2236836666667,1.212675055,1.0664006273333333,11.509508289666664,-113.18980663333333,-17.22831821433333,-8.352151870666667
492,4.099835999999982,-19.602650323333336,4.970593611333334,-138.2345225,-1.5214482150000002,-0.4335874320000001,7.574941158333334,-109.25243886666665,-29.75516573666667,-11.93993473
493,4.108168999999975,-20.492233913333333,4.7985642749999995,-138.237676,-0.625200023,0.732218452,12.86567974,-107.01029206666665,-19.788180036666663,-7.8728864986666665
494,4.116501999999969,-21.33790715666667,4.562480847,-138.2460124,-1.9924425483333332,0.8641586103333334,10.463713329666666,-101.69875843333334,-26.635548913333334,-11.461872416666667
495,4.124834999999962,-22.13866806,4.389890352666667,-138.2364451,-0.9020691316666666,0.8026713893333334,12.075344719666667,-96.49043781,-20.19872411,-7.026510079666667
496,4.133167999999955,-22.883853276666667,4.211100260666666,-138.2411906,-2.47920688,1.9601474203333333,9.124422708666666,-89.70026397666668,-20.132638296666666,-9.166955629
497,4.141500999999948,-23.588333766666665,4.040493011666666,-138.22270203333335,-0.254859219,1.7878542743333332,11.396166481666668,-84.98020680666667,-20.21962292666667,-6.457250594666665
498,4.149833999999942,-24.223431903333335,3.914382537333333,-138.21989440000002,-2.62657547,1.514434616,11.580416997666667,-76.56796264666666,-14.500847180000001,-6.257962703666666
499,4.158166999999935,-24.783545176666667,3.754476468,-138.19748943333335,-0.4135162233333333,1.8945843776666667,8.011396568333334,-67.66671244333334,-19.10413106,-5.940858364
500,4.166499999999928,-25.298259733333335,3.689561923333333,-138.2047984,-2.7662241853333334,1.36332798,12.35400041,-62.06277593000001,-7.216877697666667,-4.5317202409999995
501,4.174832999999921,-25.730958303333335,3.551904559,-138.18144733333335,0.13735659933333336,1.5717742043333331,9.776783626333334,-52.35450363,-16.64794095666667,-4.998092969
502,4.183165999999915,-26.108759563333333,3.5169755220000005,-138.1833496,-2.744031469,1.9779242276666666,12.129309019333334,-45.688418070000004,-4.199179043666667,-2.4790747163333333
503,4.191498999999908,-26.414017360000003,3.4211179416666666,-138.17962136666668,-0.4836705526666667,0.9350070753333334,8.699175675000001,-36.92168172,-11.049654166666668,-5.102421681
504,4.199831999999901,-26.67588933333333,3.4036515953333333,-138.17599996666664,-2.4402922989999998,1.267100533,11.985633530666666,-31.80579567,-2.596406112,-0.990055322666667
505,4.208165000000008,-26.878652569999996,3.3500982523333334,-138.18332416666667,-0.4259810646666667,0.7214734156666666,10.61559836,-24.552445093333333,-5.876429935666667,-4.096854209666667
506,4.216498000000001,-27.04754893,3.332464615333334,-138.175532,-1.7999675076666666,1.1162847480000002,10.639488857666667,-20.67342822,-2.836371541,-0.5699472426666667
507,4.224830999999995,-27.172067006666666,3.3013889393333335,-138.19604493333335,-1.4280813236666667,-0.020541896333333327,10.393780072666667,-15.091320353333332,-2.7255047556666674,-4.3267317610000005
508,4.233163999999988,-27.280592599999995,3.297721267,-138.19387306666667,-1.1380826236666668,0.882955452,11.748494786,-13.36664613,-1.0387513290000001,-0.4104895393333334
509,4.241496999999981,-27.353939056666665,3.278606176666667,-138.20873513333333,-1.6497004033333333,-0.15424042833333335,9.680005073333334,-9.007460754,-1.7606670856666666,-3.0447987716666667
510,4.249829999999975,-27.41865539666667,3.3013952176666663,-138.219518,-0.616169984,0.4765045843333333,11.012478984,-8.01281627,2.494963248666666,-0.33131589499999997
511,4.258162999999968,-27.46872775,3.263510028666667,-138.22391253333333,-1.2039054036666668,0.11399271599999998,9.638407706,-6.3015290896666665,-4.336332281333333,-2.9676570096666666
512,4.266495999999961,-27.509932199999998,3.3294947943333333,-138.25290933333335,-2.284192165,-0.20857681833333333,12.525016467999999,-5.073053519000001,8.017116068666667,0.292933007
513,4.274828999999954,-27.54124514,3.287452221,-138.25101216666667,0.34443277833333336,-0.367188424,7.961119491999999,-4.081159234,-5.103295167,-2.5786108970000003
514,4.283161999999948,-27.562589643333336,3.3576811550000003,-138.2801005,-2.2299398183333334,0.20193501333333333,11.484278993333334,-2.6962996720000003,8.474508365666667,0.5324346223333334
515,4.291494999999941,-27.593578340000004,3.3403182030000003,-138.28777060000002,0.158248042,-0.682864507,10.161367895,-3.990322351666667,-1.9517917636666666,-2.219827731333333
516,4.299827999999934,-27.61585553333333,3.3645718096666664,-138.29361980000002,-2.858992854666667,-0.2761491933333334,11.529285273000001,-2.9570355416666665,2.3744393983333336,0.29736435399999994
517,4.308160999999927,-27.653298696666667,3.4253511823333334,-138.33743286666666,-0.8581275073333333,-0.490230744,12.319065731666667,-4.535555442,8.369370936000001,-1.7087642946666666
518,4.316493999999921,-27.683134076666665,3.4065539836666665,-138.31723533333334,-0.3524409136666667,-0.9648664893333332,7.966166496333334,-4.026421268666667,-3.7316697636666665,0.8123470546666666
519,4.324826999999914,-27.725974400000002,3.4864534139999996,-138.36391703333334,-2.832562208,0.152461206,12.516704875666667,-5.177935282666667,10.580077010666665,-0.9634495180000001
520,4.333159999999907,-27.7765611,3.4859986306666664,-138.36320496666667,1.1434067936666665,-0.7419493200000001,9.474646647999998,-6.360826730666666,-0.7033276556666671,-0.23145886266666663
521,4.341493000000014,-27.849096933333332,3.503073295,-138.36537173333332,-2.3416341143333335,-1.3979782463333332,10.403062262333334,-9.082067172,1.4139990806666665,0.27907145
522,4.349826000000007,-27.937871296666668,3.5824266673333334,-138.40723673333332,-0.7067632476666668,-0.8278427473333333,12.82555755,-10.649171194333334,10.232287564666667,-0.41663686666666666
523,4.358159000000001,-28.045860923333333,3.5539292096666664,-138.37957256666664,-0.4600058793333333,-0.31268816699999996,8.977186838666666,-13.513424553333332,-5.106369932333333,0.8848950913333334
524,4.366491999999994,-28.150880816666668,3.627110879,-138.42217506666665,-2.820374488666667,-1.5311791103333334,12.093446730666669,-12.628127733333335,9.532318830333333,-0.6281038773333334
525,4.374824999999987,-28.26789601666667,3.670258244,-138.43056233333334,0.06326154866666674,-0.1381433556666667,9.732553958333334,-14.321306546666667,4.508844614333333,1.1202045653333332
526,4.38315799999998,-28.391833623333337,3.6702385740000003,-138.43822733333334,-1.1686688463333335,-0.8880527813333332,9.208940189333333,-15.151515643333333,-0.19425412733333333,-1.061599334
527,4.391490999999974,-28.520989736666667,3.744622786666666,-138.45949303333333,-1.930351833666667,-0.521407788,13.002244631000002,-15.703110379999998,8.529769101666666,1.5877458256666666
528,4.399823999999967,-28.65462939,3.768179496,-138.48087566666666,-0.10626477999999999,-0.3066907026666666,10.551993052,-16.19221274,3.0825546569999998,-1.166267693
529,4.40815699999996,-28.788602193333332,3.78083388,-138.4650472,-1.1463333963333333,-0.6426235556666667,8.261076926,-16.551470759999997,-0.09711241733333331,1.9384133616666663
530,4.416489999999953,-28.920700710000002,3.8615809283333333,-138.51722206666668,-1.7566780053333335,-0.8117629093333333,12.042434056666666,-15.792989730000002,10.868844670666666,-1.0448391243333333
531,4.424822999999947,-29.065606436666666,3.856181144666666,-138.48846943333334,0.6669962406666666,-0.3096229136666666,9.261570612,-17.951946576666668,-2.7761016689999995,2.2766748270000003
532,4.43315599999994,-29.199042003333332,3.8977227209999996,-138.52067056666667,-3.127350847,0.028921541666666644,12.203480564000001,-16.135092099999998,5.5997685593333335,-1.186882784
533,4.441488999999933,-29.31352806,3.965922832666667,-138.5348765,-0.6860247846666666,-0.286940957,11.862655640333335,-13.964133263333332,7.430900413666667,2.096572707
534,4.4498219999999264,-29.41216278,3.9776042299999994,-138.54501343333334,-1.111977617,0.5424667496666666,9.495639958333333,-12.113015493666666,1.167463104,-0.5956720113333334
535,4.45815499999992,-29.495474493333333,4.0398295719999995,-138.54833473333335,-1.347386996,-0.24604319433333333,10.157091775333333,-10.324672699666666,6.160117010666667,2.9072545173333335
536,4.466487999999913,-29.570850370000002,4.106767575,-138.58747356666666,-0.8494899076666668,0.06086314233333332,11.739729085,-9.077882130666667,8.638952891999999,-0.3269788030000001
537,4.474820999999906,-29.632228216666665,4.097450812666667,-138.5565287,0.06975343799999999,-0.445860356,9.011861008,-7.958411851,-3.309504767,2.1899321376666667
538,4.483154000000013,-29.695958456666663,4.185161670333334,-138.60370383333333,-2.5938649176666666,-0.975704193,12.540760040333334,-7.660860061666667,11.273504812666667,0.11400481033333332
539,4.4914870000000064,-29.745143889999998,4.213793913666667,-138.61257933333334,0.2262607213333333,0.007958590999999996,11.321544645333333,-6.143241882333332,2.953812478666667,0.38425632333333354
540,4.49982,-29.78910637,4.225982030333333,-138.61474103333333,-2.0169442296666666,-0.2824224533333333,8.948924222,-5.648075739666666,0.7296124299999999,0.31142201033333333
541,4.508152999999993,-29.805805203333335,4.299908002333333,-138.65438333333333,-1.6300839583333333,-0.8681537806666667,11.424682933333331,-2.0035755719999995,9.516539254666666,-0.12764422100000003
542,4.516485999999986,-29.82880910333333,4.337828874666667,-138.66740926666668,-0.3388412293333333,0.596996059,9.910004932333333,-3.0174340406666667,4.024931748666667,0.767974496
543,4.52481899999998,-29.840298973333333,4.357573668,-138.68263243333334,-0.6373714816666667,-1.2046381833333333,11.012393950000002,-1.591484944,2.4597991903333334,-0.8890146486666666
544,4.533151999999973,-29.85032336,4.392039299,-138.69534303333333,-1.1185907623333333,-0.33510999,10.769862653333332,-1.4739285506666668,3.642745633666667,0.6069720686666668
545,4.541484999999966,-29.864215849999997,4.429248730333334,-138.73211163333335,-1.317934255,-0.7182385326666667,11.355796814333333,-1.686620573,5.539082607,-2.044579466
546,4.549817999999959,-29.883441926666666,4.420980453666667,-138.71693423333332,0.28462223200000003,-1.507569313,9.000187873333333,-2.8140056479999997,-2.4933663606666667,0.9904384416666666
547,4.5581509999999525,-29.89143181,4.441778818666666,-138.73749796666667,-2.056578437666667,-0.3911936456666667,10.525405247333333,-1.162040974,2.8409215299999997,-1.2913757959999999
548,4.566483999999946,-29.91386668,4.469122966333334,-138.74462889999998,-0.8301000996666668,-0.09737680333333336,11.020145096,-2.995328863333334,2.523885846,0.8376752136666665
549,4.574816999999939,-29.929909386666665,4.471478700666666,-138.75624083333335,-0.7369428676666666,-1.2836312453333334,11.79989306,-2.1930778323333335,0.38661701466666676,-1.4653733076666668
550,4.583149999999932,-29.943368276666664,4.463857253333333,-138.74297076666667,-1.0151700623333333,-0.30681229866666665,9.471961339333333,-2.122933209,-2.3368464706666665,0.8725446463333335
551,4.591482999999926,-29.967736563333332,4.502260605666667,-138.76413476666667,-1.9780857166666665,-0.37569148566666666,12.235101380000001,-3.121649344666667,4.7345393499999995,-0.34018687400000003
552,4.599815999999919,-29.99778175333333,4.510970036,-138.75837706666667,-0.14384539933333337,-1.7268701789999998,9.983996709666666,-4.0238085586666665,-0.18402568500000008,1.0532958110000001
553,4.608148999999912,-30.014069236666668,4.507431904666666,-138.74784343333332,-1.32305185,0.23555153099999995,10.760794322666667,-2.435853878666667,-1.5074233213333332,0.40560995066666666
554,4.616481999999905,-30.02850787,4.541119496,-138.74897766666666,-1.789430658,-0.42831638099999997,9.946003754,-2.105643784,2.823854004333333,1.843947361
555,4.624815000000012,-30.02363205,4.601290146666667,-138.76797483333334,-1.4804965059999997,-0.47736950733333333,11.60418097,0.37226019299999996,6.8328661916666675,1.2538210353333332
556,4.633148000000006,-29.998106003333334,4.606624285333333,-138.7473958,-0.2661116323333333,0.41058659533333336,9.786231041666667,2.502835184333333,-1.4226361113333332,2.3888220786666667
557,4.641480999999999,-29.943562826666664,4.677125295,-138.75481163333333,-3.017074744,0.871768327,11.753681499,6.206351121,7.247147701333333,3.015107552
558,4.649813999999992,-29.851229349999997,4.748953262666666,-138.77192176666665,-0.1902067436666667,-0.17976001666666672,11.055282275666668,10.889957425666665,7.737502018666667,2.4747154313333333
559,4.658146999999985,-29.715237936666668,4.784223238666667,-138.75519306666666,-1.1598262983333334,1.4315748213333332,8.866042137666666,15.763477326666667,2.1733297510000003,3.360148668333333
560,4.666479999999979,-29.525304156666664,4.870459953666667,-138.7772624,-1.1717769106666667,0.33879625799999996,10.290496826666667,22.63798968,9.560027758666665,2.7561145623333334
561,4.674812999999972,-29.29038048,4.939752896666667,-138.77147926666666,-0.7580888219999999,0.407534341,10.426150799,27.74454498333333,6.349017779,4.292031209
562,4.683145999999965,-28.99722417,4.9938530126666665,-138.7690633,-1.018052176,1.5664586623333332,10.695741654333332,34.76845677666666,4.778174241333333,3.3767581779999998
563,4.691478999999958,-28.64263216666667,5.100965023,-138.7709249,-2.016279260333333,0.540333291,11.679773330000002,42.16703287666667,10.813713074333334,5.611853917333334
564,4.699811999999952,-28.22605896,5.183422565333333,-138.77182513333335,-0.2536584733333333,0.5401546110000001,10.998017313333333,49.62500508666667,8.008047105333333,4.578038056666666
565,4.708144999999945,-27.745344796666668,5.262676000333333,-138.75033059999998,-1.6743160286666665,1.5984452963333335,9.800282478,57.06673686,6.686586856999999,6.246677239666667
566,4.716477999999938,-27.21884092,5.365607261666667,-138.76244096666667,-1.3019149553333336,0.029388477666666673,11.955618538666664,62.925940196666666,10.892966906666667,4.372626146
567,4.724810999999932,-26.6279583,5.417460441666667,-138.72459413333334,-0.05992461966666667,0.9657886626666666,9.253383000666666,70.11019643000002,2.997872293,6.358715216333334
568,4.733143999999925,-25.994104383333333,5.505959431,-138.72936503333332,-2.2925405503333334,1.0856140056666665,11.971915246333333,75.70884958666666,9.049508652666667,4.152093172
569,4.741476999999918,-25.300196966666665,5.590058247333334,-138.70937603333334,0.001667499666666683,0.5938373506666667,11.495298863333332,82.66187795,7.566570760000001,6.024414857333333
570,4.749809999999911,-24.538850146666665,5.619262695333333,-138.67882286666668,-1.419851998333333,0.553335756,8.422031561666666,90.61591593333333,0.932293574,4.731440544000001
571,4.7581429999999045,-23.744846343333336,5.721017758333333,-138.67024736666667,-1.0385219703333333,1.010000348,12.247766813333334,94.80265553666668,10.252969739,5.365581353333333
572,4.766476000000012,-22.89358012,5.726456086,-138.62190756666666,-0.014803672333333332,0.41008645533333327,9.816714605333333,101.23440298333333,-2.2097187043333335,5.121817906666667
573,4.774809000000005,-22.01292546666667,5.793855826000001,-138.59400433333334,-2.3573483226666667,0.100465896,11.604884466,104.96831259999999,5.755625724666667,5.528024037666667
574,4.783141999999998,-21.08002344666667,5.833334128000001,-138.55029296666666,-0.07772265866666671,0.687681188,10.825973193000001,111.07042693333334,1.9648146133333337,6.164867719
575,4.791474999999991,-20.118268330000003,5.861430803666667,-138.50107320000004,-1.4678084353333334,-0.2924503286666667,8.744095642,114.4504293,0.636001586666667,6.028832753666666
576,4.7998079999999845,-19.12733205,5.936247507666667,-138.46701053333334,-0.9601357730000001,0.032032133666666664,11.035518328666667,118.13036856666666,6.569832247000001,6.412057558333333
577,4.808140999999978,-18.12999916,5.920649687333333,-138.4022115,-0.42468663033333337,-0.8227341773333334,9.342166263666668,118.52910103333333,-4.719126145,6.121673266000001
578,4.816473999999971,-17.117657343333335,5.977962653,-138.35942076666666,-1.3722504973333332,-0.6615473256666666,11.979471846666668,120.59388476666668,4.482719341666667,6.515021801
579,4.824806999999964,-16.099332173333334,5.926302274,-138.2899475,0.7922030883333333,-0.6542117796666667,8.530983130333334,120.98761239999999,-8.782529991333334,5.549182255999999
580,4.833139999999958,-15.064087233333334,5.929478645333333,-138.2371114,-1.6930384040000002,-0.39959164499999994,11.920662559999998,123.21960956666665,-1.8548487519999999,5.736973762333332
581,4.841472999999951,-14.02563286,5.863602161666667,-138.17030333333332,1.0123092729999998,-1.0760681033333332,8.633113067666667,123.43595886666667,-10.123888333333333,5.086185455333333
582,4.849805999999944,-12.98677349,5.762122710666667,-138.09784696666665,-0.09818516666666666,-0.669330463,11.136201221666667,123.4260508,-14.385743143333334,5.126827399
583,4.858138999999937,-11.949461936666665,5.641842047666667,-138.03495536666668,-0.3775648773333333,-0.2898705403333333,12.428682962666665,123.36811063333333,-16.187105496666664,3.557353099
584,4.866471999999931,-10.870318413333335,5.467170158999999,-137.96079253333332,-0.2999416986666667,-0.27137915766666665,9.694722811333333,128.28160096666667,-22.849165600000003,4.223090648333334
585,4.874804999999924,-9.779018403666667,5.286137978,-137.8831100333333,0.24779295166666668,-0.5533634623333333,9.042068959666667,129.7360458,-23.520569483333333,4.556842406666666
586,4.883137999999917,-8.668884913,5.022559722333334,-137.7969004,0.6652549206666668,-0.17867927766666666,9.210857709666668,131.92453513333334,-33.41362126666667,4.7859025
587,4.89147099999991,-7.552185694333333,4.751641670666666,-137.71823626666665,-1.4577810070000001,-0.32679706333333336,11.870538554333335,132.8420919,-33.99685096666666,4.010735194
588,4.899803999999904,-6.412613868666667,4.469106991666667,-137.64088186666666,-0.03543466766666666,-0.7319310409999998,11.034740766333334,135.66804503333333,-35.314098359999996,4.704844872
589,4.908137000000011,-5.282640934,4.118438005333334,-137.56219736666665,-0.6926514406666667,-1.01516666,8.801096595666666,134.5305023,-43.319816593333336,4.384738922333334
590,4.916470000000004,-4.140449524,3.8119839433333333,-137.50052136666667,-0.9060222406666667,-0.8489455279999999,13.248938240000001,136.21307373333332,-37.79054768666666,3.9639496006666666
591,4.924802999999997,-2.9918394883333335,3.431500276,-137.4410782,-0.17957045133333335,-0.44354761133333337,7.764938036333334,137.0223389,-46.51789474666666,3.5889290173333332
592,4.93313599999999,-1.8624812366666665,3.066786448333333,-137.3979467,-1.5157101156666668,-1.4260243576666667,11.611127217666668,134.8937836,-44.47373581333333,2.8888288733333334
593,4.941468999999984,-0.7203303873333334,2.6873138346666665,-137.35660810000002,-0.4444945976666666,-1.104441593,9.977341811333334,136.46189370000002,-46.159980776666664,3.2647048633333333
594,4.949801999999977,0.42554410400000003,2.3448285163333336,-137.3271586,-2.3571253616666668,-0.074396337,10.396977426,137.00875853333332,-41.63057327333333,2.8932487966666667
595,4.95813499999997,1.5698024826666668,1.9279549333333332,-137.2991205666667,1.245720148,-1.355200251,8.580075424,136.8329112,-50.49052683666667,3.6195901233333334
596,4.966467999999964,2.7024858,1.536704967333333,-137.28131106666666,-2.0197887816666666,-1.3128027123333335,10.720181145666666,135.5125986666667,-47.36375427000001,3.3479356763333334
597,4.974800999999957,3.813278357,1.173888445,-137.2730789,-0.7642513316666667,-1.0535866223333334,12.27568102,132.92277526666666,-43.946272533333335,2.870679617
598,4.98313399999995,4.922787030333333,0.7565534113333333,-137.26963046666665,-1.2698572176666667,-1.7116044363333334,10.623361268333333,132.79922993333332,-50.44479115666667,3.6310702963333337
599,4.991466999999943,6.026892662000001,0.37565096233333334,-137.28329213333333,-0.304276434,-0.8823069233333333,11.136717795666668,132.15716553333334,-46.202214559999994,2.108668804
600,4.9997999999999365,7.104446728666667,0.005542894333333326,-137.31057739999997,-2.310019175,-1.221140345,8.737815379333332,128.9777781,-45.01966603666667,1.3743547750000003
601,5.00813299999993,8.163938204333332,-0.3751042683333334,-137.34699506666666,0.01710891733333338,-2.0875236593333333,10.390895845,126.78361766666666,-46.410911559999995,1.1347375906666666
602,5.016465999999923,9.199867566333333,-0.7668644886666666,-137.39613086666665,-0.8130303323333333,-1.782665849,9.50483322,123.91208903333334,-47.89171346333333,0.81296581
603,5.024798999999916,10.199755033,-1.0913546893333332,-137.45463816666665,-1.6526879073333332,-1.3153289556666667,12.600881573333334,119.5196203,-40.110129040000004,-0.9112979373333334
604,5.03313199999991,11.15319411,-1.4729357459999999,-137.52328236666668,-0.626409034,-2.915070613333333,7.797369003333333,113.879364,-47.05624898333334,-0.04773706466666668
605,5.041464999999903,12.058760006666667,-1.8125322463333333,-137.61010739999998,-1.1740424236666667,-2.5898217360000007,11.538400333333334,108.00916036666666,-42.58014679000001,-2.6785131690000004
606,5.04979800000001,12.94300747,-2.17269667,-137.6960144,-1.6232199273333332,-1.4113435743333334,10.454383691666667,105.45502723333334,-44.96484120666667,-1.1388388673333332
607,5.058131000000003,13.755442936666668,-2.4649242166666667,-137.7774226,-0.2991671563333333,-2.092322946,12.113375661666666,96.71947224666667,-36.954502106666666,-2.0744007926666668
608,5.066463999999996,14.51098887,-2.863325158666667,-137.9020335,-0.7251998183333334,-2.9101955096666665,6.936086733,89.6370519,-50.53788884666667,-3.2448112963333333
609,5.07479699999999,15.211187043333334,-3.0820390383333334,-137.98242693333333,-3.412299156,-1.7511818013333331,14.044632118333332,83.19593556666668,-28.429613113333332,-3.243933439333333
610,5.083129999999983,15.87701829,-3.4621023340000003,-138.1098658666667,1.6465150516666665,-3.2373936176666667,7.324592191333333,78.64467366666666,-48.559579213333336,-2.919229507666667
611,5.091462999999976,16.48241234,-3.724057277,-138.20515443333335,-3.4331140516666667,-2.6677659350000003,12.074196497333332,71.61729939666667,-33.96714337666666,-2.8697616260000003
612,5.099795999999969,17.029317856666665,-4.025776704333333,-138.30127463333335,0.40614215566666667,-0.7899787429999999,9.622807028333334,64.49138387,-38.51206207333333,-1.0032027563333334
613,5.108128999999963,17.51539611666667,-4.272751172333333,-138.39543153333332,-2.499593019666667,-2.7183341980000004,11.784479142,57.16651407999999,-32.247341156666664,-2.6249184609999996
614,5.116461999999956,17.951977413333335,-4.549868027666666,-138.48399353333332,-0.401359846,-2.784207225,8.345110417,51.26176452666667,-35.43764940666667,-0.3871820173333333
615,5.124794999999949,18.342376713333334,-4.768613736,-138.57962036666666,-2.232332627,-1.455835422,11.171946686666667,45.54785029000001,-29.09950447,-3.3375746606666667
616,5.133127999999942,18.719613393333333,-5.0052398049999995,-138.67568966666667,-1.1206587753333332,-2.8465172053333334,9.150184471000001,43.97570800666667,-31.113117216666666,-2.293824454333333
617,5.141460999999936,19.032911936666668,-5.202010631333334,-138.76356506666664,-0.734579722,-1.5625851353333333,11.395921707333335,36.25640996333333,-26.326020556666663,-2.919524828666667
618,5.149793999999929,19.3178463,-5.416411082000001,-138.86582436666666,-2.316973547,-1.2328534326666667,9.739302793333332,32.784158706666666,-28.85329437333333,-3.522667805333333
619,5.158126999999922,19.54887072,-5.538846016,-138.91151936666665,-0.5260182743333333,-1.4482402900000002,12.049947420333334,26.821262993333335,-16.25626468666667,-0.8477202256666666
620,5.166459999999916,19.771665573333333,-5.698011398333333,-138.9969482333333,-2.4029308956666666,-2.0153837996666666,8.638615131,25.41878954666667,-21.95059967,-3.6150987146666664
621,5.174792999999909,19.954850513333334,-5.8089218140000005,-139.01763913333332,-0.8011406263333333,-0.598553737,9.658651509666667,21.390288036666664,-13.953442255666667,1.608549118
622,5.183125999999902,20.115341823333335,-5.897656917666666,-139.0735677,-2.711689313333333,-2.616193771333333,9.845506348333332,18.22926744,-12.825545312333333,-3.0546316306666665
623,5.191459000000009,20.276407243333335,-5.952578862666667,-139.0746917666667,-2.0531134603333334,-1.6833599406666666,10.159198284666667,18.99439621,-6.813290913666667,1.5863969226666665
624,5.199792000000002,20.378364559999998,-5.946568329999999,-139.0864715666667,-1.3682095109999999,-0.027290553000000013,11.665104866666667,11.742937087000001,-0.341015299,-1.9960663316666665
625,5.208124999999996,20.46690496,-5.935568332666667,-139.0836843,-1.212895264,-2.3190200726666665,9.592199641999999,10.35082372,0.7653576533333334,-0.7017489673333333
626,5.216457999999989,20.520772296666667,-5.902949333333335,-139.07369486666667,-0.8724007533333333,-1.410643836,9.168773969666667,6.246224443333333,3.5541034343333333,-0.6784612736666666
627,5.224790999999982,20.53716914,-5.820546944666667,-139.06211346666666,-2.54752632,-1.3235812583333333,10.272732099666667,1.7957416376666668,9.127770184666666,-2.806821068
628,5.233123999999975,20.579584756666666,-5.732072194333334,-139.01857500000003,-2.3315636316666666,-1.6003399690000002,9.687023480999999,5.292430877666667,11.223468144,0.7103084126666667
629,5.2414569999999685,20.604167936666666,-5.573518435,-138.9510905,-1.4295520780000002,0.12432639699999998,9.994822661666666,3.4245906273333335,20.11216672666667,0.41766587766666663
630,5.249789999999962,20.62439918666667,-5.424578190000001,-138.8802999,-1.9916609326666668,-0.332540115,12.090955732666666,2.900671720333333,19.170570373333334,1.190328032
631,5.258122999999955,20.602452593333336,-5.188490867666666,-138.76335143333333,-1.775974681,-1.6522751846666666,10.180261929333334,-1.6115733780000003,30.890427273333334,2.6746578216666665
632,5.266455999999948,20.57284673,-4.955347855666666,-138.6518758,-1.9112854796666667,-0.27484284833333333,7.680957475999999,-2.711944262333333,30.34065056,2.1977203286666662
633,5.2747889999999416,20.553812663333332,-4.694595257666667,-138.52951556666665,-0.33741870533333335,-2.281209946,12.822425206666665,-1.3584906263333334,33.82209396333334,2.097688357
634,5.283121999999935,20.548145293333334,-4.4296099343333335,-138.3972626,-2.3659475643333336,0.7450275123333334,9.572058837999998,0.26905719433333336,34.780389146666664,3.220285018333333
635,5.291454999999928,20.493829090000002,-4.099597851666666,-138.26699829999998,-0.4706299900000001,-0.22292504700000002,12.917675652666667,-5.649200081666667,41.94367981,0.09207039066666668
636,5.299787999999921,20.478736243333334,-3.834542354,-138.1368688,-1.9633115133333334,-1.9342912436666666,7.369793414333334,-1.0494256816666667,34.70830663,3.0243779820000003
637,5.308120999999915,20.474592843333333,-3.4717428683333336,-137.99490609999998,0.33373939999999996,0.29981419333333337,11.112491132,0.27083921399999983,46.121125543333335,0.09101566566666675
638,5.316453999999908,20.426122026666665,-3.222984671666667,-137.88282776666668,-1.3258232673333332,-0.42225802933333334,8.701054205666667,-5.360325415999999,32.12216885666667,1.7121083336666667
639,5.324786999999901,20.404575346666665,-2.839007139,-137.73683166666666,-0.7647444803333334,-2.0637124973333334,14.507828394666666,-1.9277270236666668,48.67265065666667,-0.277974809
640,5.333120000000008,20.397234596666667,-2.606437881666667,-137.6185201,-0.22540789866666663,1.1650059423333332,7.8223880936666665,-0.4931816333333335,30.549294786666664,3.1324441433333337
641,5.341453000000001,20.363630293333333,-2.2421344916666666,-137.48055776666664,-1.3195881746666667,-0.6244030420000001,12.857578276666667,-3.6382314363333332,46.138865153333334,-0.3298861286666666
642,5.349785999999995,20.366495133333334,-2.0197262763333335,-137.3815129333333,1.536184681,-1.5787397423333334,8.041573205666667,0.46811625333333334,28.61455726666667,1.4160585799999998
643,5.358118999999988,20.33226967,-1.724766364,-137.27688343333332,-2.6714546329999997,-0.33683793866666667,11.415753404666667,-3.966800531,36.94186528666666,-1.135169069
644,5.366451999999981,20.298699693333333,-1.4525621530000004,-137.17765046666668,0.9094929696666666,-0.8444028096666667,12.363342998,-3.9989799660000003,34.22495651,-0.6071052253333333
645,5.374784999999974,20.273842493333333,-1.239725036,-137.10531613333333,-1.4879252116666664,-0.404426497,7.483049222333334,-3.069436430666667,26.357663473333332,-1.3063736456666668
646,5.383117999999968,20.243194576666664,-0.9183424663333333,-136.98892973333332,-0.7809968986666669,0.005237162000000008,13.060528595333333,-3.657517592,40.46152496,-0.6797256866666667
647,5.391450999999961,20.218398409999995,-0.7625581819999999,-136.9399821,1.8428898763333335,-0.7747714516666666,5.849682809333333,-3.2426780859999997,18.981143633333335,-1.5408332943333332
648,5.399783999999954,20.181586583333335,-0.511599501,-136.86042023333334,-3.3072098889999997,-0.810148249,12.625425160666666,-4.5639103253333335,31.018692016666666,-1.8679925203333332
649,5.408116999999947,20.157684966666665,-0.28086700033333334,-136.7930654,1.5316756566666665,-0.09004507466666667,12.036360421666666,-3.1122559706666664,28.176317216666664,-2.53691717
650,5.416449999999941,20.132622400000002,-0.1386029323333334,-136.7498499666667,-1.869247039,-0.6872690416666667,7.473508835666667,-3.248128970333333,17.271154723333336,-1.4413774906666668
651,5.424782999999934,20.118733726666665,0.12841033966666657,-136.660497,0.3833908639999999,-0.04630731766666666,13.56537628,-1.9493431250000002,33.17979749333333,-1.519723932
652,5.433115999999927,20.084238053333333,0.20054650333333343,-136.653656,0.613132919,-0.6514649189999999,7.537872155,-4.4350459576666665,7.860938071333333,-2.631914457
653,5.4414489999999205,20.066874186666666,0.37283917266666666,-136.60568746666667,-1.1479373573333334,0.36379098000000004,12.596701463,-2.3866710660000003,20.80651346666667,-2.2655673423333336
654,5.449781999999914,20.05105845,0.5241882803333333,-136.58314513333332,-0.7489355006666667,-0.6147132416666666,11.453963279666667,-2.188852230666667,17.447075209666668,-4.114301045666667
