,time,Euler_X,Euler_Y,Euler_Z,Acc_X,Acc_Y,Acc_Z,Gyr_X,Gyr_Y,Gyr_Z
0,0.0,21.631019589999998,4.70580252,-41.828097033333336,-2.8205305336666666,-0.27807831266666666,11.897422156666666,-21.15338961,12.844308849999999,-10.027949015999999
1,0.0027776666666644,21.41956520333333,4.789502461666666,-41.8534851,-0.520010864,-1.5821969906666666,11.065990450333333,-26.206303916666666,7.921292622666667,-7.007508754666667
2,0.005555333333328833,21.163576123333332,4.913183689,-41.893369033333336,-2.3853103716666664,-2.315073967,10.685306548333335,-30.976353963333334,11.69945844,-10.098375321333334
3,0.008332999999993233,20.861937206666667,5.010052601333333,-41.922002166666665,0.016632825333333334,-1.0352521143333335,8.949151676333333,-36.97180303,9.347611744,-7.772876898333333
4,0.011110666666657667,20.456824620000003,5.136581103,-41.96811676666666,-2.6200853983333334,-2.1909788053333332,13.966172853333333,-48.75843302333333,11.866666793333332,-10.7795407
5,0.0138883333333221,20.0032266,5.265711943333334,-41.97107189999999,-2.445286492333333,-2.752828399333333,10.580268859666667,-55.42429605666666,14.107952116666667,-6.178209463666666
6,0.0166659999999865,19.468361536666666,5.402935187,-42.02833046666667,-0.7166431000000001,-0.6336969036666668,8.885043779,-64.17931111666667,12.785446324,-12.26685492
7,0.019443666666650934,18.86974589,5.539588292333334,-42.046819066666664,-1.7288913033333333,-3.2192537783333335,10.399100303666666,-72.64542897666666,14.45292505,-7.965758641666667
8,0.022221333333315368,18.175159453333336,5.633802732,-42.09085846666666,0.03867706666666663,-0.865588079,11.896912257333334,-83.44025929666667,8.645926476333335,-8.838149231333333
9,0.02499899999997977,17.421815873333333,5.802047093666668,-42.137265500000005,-3.239936788666667,-1.9846036830000002,10.838796615333335,-90.84670257333333,17.22379970333333,-11.932717006666666
10,0.0277766666666442,16.629044213333334,5.919936497999999,-42.18165843333334,-1.8098782699999998,-2.299876849,10.044908204333334,-95.16868591333332,11.570858956666667,-9.467346192666666
11,0.030554333333308602,15.748989106666665,6.090122699666666,-42.24544783333334,0.11147459066666665,-1.9537393653333333,11.0730594,-105.83087413333334,17.182704606666665,-13.50635338
12,0.03333199999997303,14.776014646666667,6.156165282,-42.31391396666667,-1.9241883156666668,-0.9023212146666667,13.545155842666667,-116.42213693333333,5.095692178,-10.215395612666667
13,0.036109666666637466,13.727834066666667,6.379693667333334,-42.37466176666667,-1.8263180056666666,-2.8237260180000003,10.730585097333332,-125.98992923333333,23.91094398333333,-14.136208533333333
14,0.03888733333330187,12.662516913333334,6.481296062333333,-42.43270113333333,-1.8665900233333332,-0.472486357,7.839106241333333,-127.60151163333332,9.890350021666666,-9.776036262333333
15,0.0416650000000042,11.519049009999998,6.607120990666666,-42.512082433333326,0.3228363146666667,-0.20359137633333332,12.661904333666667,-137.1424052,12.483507156666667,-12.925526933333332
16,0.04444266666666863,10.32612578,6.738310337333334,-42.5570526,-2.201943119333333,-2.2688052256666666,9.088070868333334,-143.06034343333332,14.044050217,-8.501887321333333
17,0.04722033333333303,9.159665426,6.8598143259999995,-42.647252400000006,-1.655429681,0.816102926,10.656867187,-139.68342080000002,12.259481429666666,-13.566713966666669
18,0.04999799999999747,7.946123599666667,6.983734289666667,-42.684817,-1.0051320986666668,1.2667388916666666,11.999249460000001,-145.62516783333334,13.639176686666667,-6.907786051333333
19,0.05277566666666186,6.710016568666667,7.086228370666667,-42.77668763333333,0.17061026899999998,-2.3667754333333333,8.851605097,-147.9939321,10.518165588,-12.930225053333332
20,0.0555533333333263,5.495164871333333,7.1017190616666666,-42.84254963333333,-1.6330395739999997,1.2580221496666668,11.698062735999999,-145.3467102,0.6209721170000001,-8.263050874
21,0.05833099999999073,4.240897655666666,7.198134899,-42.931264266666666,-0.8284757583333334,1.285418669,14.863492013333333,-150.18816123333332,10.356362022999999,-11.991705896666666
22,0.06110866666665513,3.005707343333333,7.266372681,-42.983128866666654,-2.377712806,-1.9207750163333335,7.696440298666666,-147.9766744,7.378747621333333,-7.171219984666667
23,0.06388633333331957,1.8011937536666667,7.2745380399999995,-43.10072836666668,0.834010879,1.80080843,7.883527598333333,-143.763677,0.12440598766666662,-14.52420489
24,0.06666399999998397,0.5583138369999999,7.2306118013333345,-43.16972859999999,-0.874795119,0.6903551416666668,13.356632867666669,-148.63420103333334,-5.834524949666666,-8.764056523666666
25,0.0694416666666484,-0.7025563716666667,7.243582249,-43.286290466666664,-0.6821743349999999,-0.517732372,11.506922084000001,-150.56372576666666,1.3152283439999999,-14.282205580000001
26,0.07221933333331283,-1.8940515123333335,7.199896812666666,-43.389022833333335,-2.9876406986666666,0.6136340103333334,8.871526082333332,-141.99134826666668,-5.338263988666667,-12.943873086666665
27,0.07499699999997723,-3.1095050173333334,7.108309904666666,-43.50516256666666,1.9034963843333335,1.6450353863333333,12.402870497333334,-145.13154603333334,-10.628716467333332,-14.784122466666668
28,0.07777466666664166,-4.379163742,6.983475844,-43.61542253333334,-1.590603431,-1.8135496376666669,10.633781434000001,-151.32669066666665,-14.441361746666667,-14.752341906666667
29,0.0805523333333061,-5.612973213,6.857998689333333,-43.7242635,-0.536528011,0.893701414,9.119177023333334,-147.50919596666665,-14.119481721,-14.6508077
30,0.0833299999999705,-6.839155674333334,6.668168227,-43.81933083333333,-2.315760811,1.380126913,13.965044657666667,-146.42971803333333,-21.76278305,-14.270482379999999
31,0.08610766666663494,-8.097458521333333,6.503309885666667,-43.90234373333334,0.57793317,0.5117699056666666,10.539006391666666,-150.88162739999999,-18.572971343333336,-12.814074196666667
32,0.08888533333333726,-9.341328303000001,6.307006200333333,-43.98632303333333,-1.7060259183333333,-0.28145770233333334,7.293673674333333,-148.81247456666668,-22.108465833333337,-13.939435956666665
33,0.09166300000000166,-10.51920223,6.046777089666667,-44.02785236666667,-0.33964769033333336,1.5023951129999997,11.863199869333334,-141.85515850000002,-30.140901566666667,-10.712729137333334
34,0.0944406666666661,-11.704198519999998,5.816730817,-44.101760866666666,-3.1370780466666672,2.383342504333333,14.687109945666665,-141.99157203333334,-25.734271370000002,-14.390651706666667
35,0.0972183333333305,-12.902829806666666,5.602028528666668,-44.1148834,0.171138525,1.0421215346666666,9.497534434666667,-144.72299703333334,-25.072920479999997,-7.475631713666666
36,0.09999599999999494,-14.068468413333335,5.3420387903333335,-44.1588745,-1.0487309623333332,-0.858691732,7.812122107666667,-140.13897193333332,-29.471609116666666,-12.747276939999999
37,0.10277366666665937,-15.163903873333334,5.061152299333333,-44.16825359999999,-0.592435936,0.8605774416666666,10.130780218666667,-132.40809633333333,-32.57951990666667,-9.975226403999999
38,0.10555133333332377,-16.2640206,4.740327914333334,-44.1700846,-2.4009341396666666,2.1214338539999997,13.005923587333333,-132.78742983333333,-37.35423787,-11.005554516666665
39,0.1083289999999882,-17.39144071,4.4921860696666664,-44.18969726666666,-1.3730233710000002,1.9879516363333334,13.466300326666667,-136.17891946666666,-28.086334230000002,-11.199289956666666
40,0.1111066666666526,-18.498619716666667,4.187300602666666,-44.18360903333333,-0.9573922556666666,0.7586211263333333,10.130524634666665,-133.7677307333333,-35.45735295666666,-10.739803629999999
41,0.11388433333331703,-19.532163616666665,3.9063513276666666,-44.170588200000005,-1.2706283876666666,0.19280925366666665,8.691768487666666,-125.23165130000001,-32.643070220000006,-9.855019568000001
42,0.11666199999998146,-20.505819956666667,3.593513250333333,-44.14547733333333,-0.778696497,1.4243399700000001,9.156982579666666,-117.890536,-36.653302509999996,-10.423742293333333
43,0.11943966666664586,-21.44655545666667,3.286071221333333,-44.091985066666666,-0.7222956123333333,2.4993528523333333,10.606729827999999,-114.386823,-37.014701843333334,-7.541199048333333
44,0.12221733333331031,-22.357240676666667,2.9854338963333333,-44.07167053333333,-1.9352079233333335,2.977726618666667,11.673718452000001,-110.31433866666667,-34.72662036,-11.605947173333334
45,0.12499499999997472,-23.21687316666667,2.6829865776666666,-43.990071633333336,-1.183477322,1.6576302846666666,11.50136852,-104.76966603333334,-37.542667386666665,-5.326094309333334
46,0.12777266666663914,-24.015712103333332,2.410881678,-43.962341333333335,-2.467467983666667,2.211017568666667,10.045932768333332,-96.96309153333334,-31.595579783333335,-10.453975996666665
47,0.13055033333330357,-24.72739283333333,2.133362651,-43.87486776666666,-0.9342397453333334,2.5228474933333334,9.593011855333332,-86.95862833666666,-34.950313566666665,-4.507004897
48,0.13332799999996797,-25.368679046666667,1.8683556716666667,-43.838022866666655,-2.270066897,3.030355612333333,12.99448045,-78.09995778333334,-31.02699343333333,-9.891178447666666
49,0.13610566666667032,-25.922540666666666,1.6206938623333336,-43.75263976666667,-1.5667052403333335,1.3773881593333333,10.415067988999999,-67.93542480333333,-31.522604626666663,-3.944235881333333
50,0.13888333333333472,-26.41281890666666,1.388012171,-43.708913200000005,-2.2018624940000002,3.8595161436666667,10.982396762999999,-60.00976054,-27.723395030000002,-8.045112291666667
51,0.14166099999999912,-26.81260871666667,1.1602267426666666,-43.64682513333333,-0.8919894693333333,2.333011309333333,10.126820565000001,-49.31255976666666,-28.081881840000005,-5.9008537930000005
52,0.14443866666666358,-27.133096693333332,0.9459525496666666,-43.591710400000004,-1.9409370023333334,2.830555121,11.296706200333333,-39.66567739,-26.265323640000002,-6.214469274
53,0.14721633333332798,-27.36763573,0.74124919,-43.558985400000005,-1.176862955,1.6454798383333333,9.094531058666668,-29.385917026666664,-23.94208145,-8.091137091666665
54,0.14999399999999238,-27.543486913333336,0.5362609973333333,-43.48065186666667,-2.536029537333333,2.953146934333333,10.288718066,-22.34327761333333,-26.514689126666667,-3.449882189666667
55,0.15277166666665684,-27.633533476666667,0.36877752366666666,-43.48542786666667,-0.725026091,0.8973432776666667,9.893320403333332,-12.003990173333333,-17.84923013,-10.166893005333334
56,0.15554933333332124,-27.683801016666667,0.16341439866666674,-43.38523866666666,-1.7807594536666667,2.130109787,11.976731616666667,-7.254486084333333,-27.764922459999998,-1.2456892826666666
57,0.15832699999998567,-27.676660536666663,0.005182385333333335,-43.41453043333334,-1.8248979250000001,1.6357970039999998,9.881914772,-0.36777368466666666,-15.48451964,-12.288177169999999
58,0.1611046666666501,-27.63965161333333,-0.15438111599999993,-43.30300903333333,-1.8110925756666667,1.5189455946666666,11.040845554333336,3.2631653943333334,-23.532269796666668,2.5018245379999997
59,0.1638823333333145,-27.561484656666664,-0.3214139543333334,-43.32984416666667,-1.371440252,1.527694265,10.881143252000001,8.109627564666667,-16.58099778333333,-12.484084766666667
60,0.16665999999997894,-27.445969899999998,-0.4339083830000001,-43.228322333333324,-2.1472612620000002,0.8473017076666666,12.475962956666669,12.726655643333332,-17.96607145,4.101058483
61,0.16943766666664337,-27.320717496666663,-0.5664384563333333,-43.248972599999995,-1.3470592596666666,-0.2117895063333333,10.524499893333333,13.721162476666668,-13.289378803333333,-9.868485452333333
62,0.17221533333330777,-27.153434753333332,-0.6302804746666667,-43.18122863333334,-2.7514124313333332,0.42634594466666664,9.250968615666666,18.931296033333332,-10.905469896,3.247096379666667
63,0.1749929999999722,-26.99922370666667,-0.7096499403333333,-43.2067515,-1.1668058336666667,0.989799609,12.682217598666668,17.15004667,-7.3908448223333325,-7.428677241333333
64,0.17777066666663663,-26.850156780000002,-0.736452083,-43.17765299999999,-4.774494171,-0.5118457973333334,10.273126283333333,16.67776108,-4.830325126666666,1.1860631706666667
65,0.18054833333330103,-26.724652609999996,-0.7314124506666667,-43.194498700000004,0.8772946199999999,0.9427122573333332,11.949198086666668,13.70733706,1.148917993,-1.92638731
66,0.18332600000000335,-26.644877116666667,-0.7082845569999999,-43.20359803333333,-5.133548021,-0.5534813129999999,12.550637245333334,8.264505862999998,2.581184904,-0.198898812
67,0.18610366666666778,-26.526720049999998,-0.6326062279999999,-43.23809813333333,0.42026668800000005,-1.5980502766666664,6.6985261456666665,12.793864566333333,9.660747686,-0.023445566333333317
68,0.1888813333333322,-26.397634506666666,-0.5641596716666668,-43.265538533333334,-4.020104964333334,-0.642399768,10.917943158333332,14.1528279,8.380428314333335,0.32454095299999997
69,0.1916589999999966,-26.339670183333336,-0.4502394200000001,-43.32299803333333,-0.5685817723333333,0.9491298393333333,14.585735321333333,5.53775223,14.994247753333333,-0.4925533086666667
70,0.19443666666666104,-26.34083557,-0.31988763800000003,-43.36843363333333,-3.629133979666667,-1.208849192,11.671854336666668,-1.5037693383333333,16.03125763,1.5787295303333335
71,0.19721433333332547,-26.331846233333334,-0.1328472893333333,-43.43682353333333,0.44141825033333343,-0.9759782306666667,7.812609354666667,-0.327426925,23.434658690000003,2.216516177
72,0.19999199999998987,-26.312166216666668,0.03575094533333334,-43.513427766666666,-4.805769602333333,-1.3605049746666669,11.575667383333334,1.0020123323333332,21.80134646,0.26266137766666664
73,0.2027696666666543,-26.360108059999998,0.2116435366666667,-43.54357913333333,0.8587781886666667,-0.2831350366666667,15.621975583333333,-7.129947026666667,20.19670041666667,5.724139213666667
74,0.20554733333331873,-26.461598716666668,0.41161074233333333,-43.642445900000006,-2.890467326,-0.9557733536666667,9.004750729666666,-13.48356533,26.35478528333333,-0.4363687586666667
75,0.20832499999998313,-26.57122611666667,0.6351615586666667,-43.708882666666675,-0.25359264,-1.0396998126666668,6.8100112280000005,-14.478433293333334,27.236113866666667,4.443966706666667
76,0.21110266666664756,-26.697515486666664,0.7915027599999999,-43.7802531,-2.520732999,-0.8318846820000001,13.825712520000002,-16.444613773333334,20.15058962666667,0.36505004599999996
77,0.213880333333312,-26.866870243333334,1.0162649256666667,-43.84502156666667,0.8019705813333333,-0.5513043303333333,11.37760067,-21.60258992333333,27.25107638,4.811353206666666
78,0.2166579999999764,-27.03189087,1.2116098403333333,-43.962946566666666,-4.1117795306666665,-0.626431418,8.088642677333333,-20.953994116666667,26.8456707,-2.367201686
79,0.21943566666664083,-27.191169103333337,1.4073844553333332,-43.98460386666667,0.20441200366666665,-0.40750295666666664,13.844551720666667,-20.474740346666664,21.762654623333333,7.9886299769999995
80,0.22221333333330526,-27.38927268666667,1.6204286216666668,-44.105158499999995,-2.600830595,0.4249726356666666,12.285469053333332,-24.826875686666668,28.886868160000002,-1.5291632413333334
81,0.22499099999996966,-27.57339795333333,1.8289563260000001,-44.15223693333334,-0.6905096866666667,-0.3893790643333333,7.192110856333334,-23.357882816666663,24.46958097,6.133637746333334
82,0.2277686666666341,-27.744296390000002,1.9869494043333333,-44.229705833333334,-1.02179724,0.29964974533333333,13.837963423333333,-21.6494929,20.636008580000002,0.1781172666666667
83,0.2305463333333364,-27.947540919999998,2.208208998,-44.27746073333333,-0.5616028806666667,-0.7880441446666667,10.348429363000001,-25.62811406333333,25.815076193333336,6.933674494333332
84,0.23332400000000084,-28.100912726666667,2.330857873,-44.349482200000004,-0.9479615886666668,0.3998251956666667,8.483885128999999,-19.54400317,16.582156816666668,-1.0973314443333333
85,0.23610166666666524,-28.255311966666667,2.5220971506666667,-44.3693797,-1.007393216,0.528727914,14.937973973333333,-19.879529950000002,21.02176857,8.314493815333334
86,0.23887933333332967,-28.410170873333332,2.6455407536666664,-44.425684600000004,-1.59135443,-0.8098155856666667,9.698285580666667,-19.791728973333335,15.772490503333335,0.7055828969999999
87,0.2416569999999941,-28.520340603333334,2.792655825666667,-44.44176229999999,-0.442521443,1.653592984,8.483436901,-14.597985266666667,16.101306916666665,6.307486534
88,0.2444346666666585,-28.655458449999998,2.8988087969999996,-44.481587733333335,-0.413430065,-0.9283285536666667,12.396255173333335,-17.497680983333336,13.001060803333333,1.5083588760000002
89,0.24721233333332293,-28.76506360666667,2.9983212153333336,-44.46343996666667,-0.9939318693333333,-1.1536109449999998,10.421403884333333,-14.755486173333333,9.093862851666666,7.234217802666667
90,0.24998999999998736,-28.88280042,3.0984534420000003,-44.48965453333333,-0.5459017006666667,0.5771831873333333,8.801269372333332,-15.4955492,11.573910079333332,2.6472789446666667
91,0.2527676666666518,-28.991918563333332,3.1720072426666666,-44.49330646666667,-1.275113265,0.10166103466666666,11.333443006666668,-14.576971053333333,7.602994282666667,3.4765743416666663
92,0.2555453333333162,-29.070446653333335,3.244255701666667,-44.49936933333333,-0.505632097,-0.3476736423333333,13.412041346666667,-10.927340506666667,7.464215119666666,3.181062142
93,0.2583229999999806,-29.140340169999998,3.3237086136666663,-44.5139974,-2.493119239666667,0.6629293063333334,10.317029953,-9.818825721000001,8.850466728333334,2.694784482333333
94,0.26110066666664505,-29.17726962,3.3590924736666667,-44.5066986,0.5229723850000001,0.18815488599999997,9.226205031000001,-6.045690059333334,2.811064561,2.4412332376666668
95,0.26387833333330946,-29.208377836666667,3.442500432333333,-44.5436961,-2.9499411583333335,-0.325268815,13.891139346666668,-5.002759218333334,10.561889966666667,0.6030531330000001
96,0.26665599999997386,-29.24807485,3.454258521333333,-44.5015157,0.21471842133333338,0.46027965833333334,11.636835095666667,-6.660222053666668,-1.7102710210000003,4.713980038666667
97,0.2694336666666383,-29.278736749999997,3.520291089666667,-44.53623453333333,-1.3149174746666665,-1.3724312386666668,9.719613076333333,-4.9726711906666665,8.60130771,-0.15030007166666667
98,0.2722113333333027,-29.3183136,3.4830311933333333,-44.479848233333335,-0.2853206793333333,0.10874331733333335,11.410016059666667,-6.779832680999999,-7.683938185333333,3.3378380140000004
99,0.2749889999999671,-29.36672338,3.523115237666667,-44.51902263333333,-2.0318355166666664,-0.8385395006666666,12.35455958,-7.071100552666667,6.150358358999999,-2.1340757606666667
100,0.27776666666666944,-29.40563329,3.498277346333333,-44.44000243333334,-0.00216932833333335,-0.9392326276666667,11.307024956333334,-6.887144247666666,-7.721433957333333,6.420832634
101,0.2805443333333339,-29.469976423333332,3.510930617333333,-44.470830299999996,-2.455105463666667,0.11755384499999999,11.058193365,-9.070065814666668,2.7897831996666667,-2.855086803666667
102,0.2833219999999983,-29.521445590000003,3.4773906070000002,-44.39923603333333,-0.9285954200000001,-0.833176295,11.185117722666668,-8.337396303666667,-8.208240827000001,5.124546687
103,0.2860996666666627,-29.58670107333333,3.5325922173333333,-44.43072,-2.1735468506666664,-0.6809879640000002,10.462451777333333,-9.185713292333334,7.287728468666667,-0.4257470566666666
104,0.28887733333332716,-29.66494306,3.4798771540000004,-44.3598226,-0.40455407866666676,-0.23245053499999999,10.582980155666668,-11.562827112,-10.185933750333334,3.9057615599999997
105,0.29165499999999156,-29.723393119999997,3.5351613360000003,-44.38534036666667,-1.678201273,-0.9708108900000001,10.032289186666667,-8.421786308333333,6.936062335666667,0.23595406633333335
106,0.29443266666665596,-29.80427106,3.5155207313333334,-44.33521016666666,-1.37668854,0.4728310753333333,10.558449586333333,-11.752363525666667,-5.517977237666667,3.703093131333333
107,0.2972103333333204,-29.885377883333334,3.562331279,-44.36641436666667,-0.40528646100000004,-0.6993465226666666,12.040371259333332,-11.102043153333334,6.386022885666667,-0.8348577023333332
108,0.2999879999999848,-29.91845766666667,3.5315315726666667,-44.30940756666666,-2.7906024656666664,-0.40491161233333334,12.166564939333332,-6.082941055333333,-7.106016477000001,3.760024547666667
109,0.3027656666666492,-29.98362668333333,3.600694894666667,-44.347549433333334,-0.04467824333333333,0.5181758006666667,9.243323484666668,-9.147301672333333,9.118318399,-0.18957097833333333
110,0.3055433333333137,-30.02376556666667,3.550983349333334,-44.3154653,-2.603354295,-0.5954570373333333,11.874642373333335,-6.761530716999999,-7.590860208,0.04131148933333333
111,0.30832099999997814,-30.04388427666667,3.630907138,-44.3480733,-0.7681260506666666,0.10653461999999998,11.863145826666667,-3.780631462666667,9.903728010666667,1.0429348746666667
112,0.31109866666664254,-30.081039426666663,3.5976226330000003,-44.31981403333334,-1.1963714656666666,-0.10124564766666665,11.543884914666668,-6.391874949333334,-5.674693266666666,0.6571503476666667
113,0.31387633333330694,-30.109996796666668,3.647734165333333,-44.32680763333334,-0.404883837,-1.0982246003333334,9.079561550666666,-5.054248015,5.267747243,1.923629363
114,0.31665399999997135,-30.112885793333334,3.6127324900000004,-44.31295776666667,-1.920072774,0.315379103,11.358083407,-2.1650815406666664,-4.99448967,-0.9199651283333333
115,0.31943166666663575,-30.142432529999997,3.701885144,-44.33542886666667,-1.6070725946666666,-0.5200286903333333,12.115383785666667,-5.015109459333334,10.256879808999999,2.6640600363333333
116,0.3222093333333381,-30.14958826666667,3.6674136323333335,-44.3247172,-1.564672798,-0.7421943546666666,10.875660894666666,-2.672457098666667,-4.760213852,-1.1947375933333333
117,0.3249870000000025,-30.133886333333333,3.7728490826666667,-44.35179646666666,-1.876024435,0.5498337910000001,9.764856655333334,0.449888453,12.209119796666664,3.199115594333333
118,0.3277646666666669,-30.115694683333334,3.7870626450000002,-44.35242209999999,-1.399706523,0.15529651933333333,11.071850617666668,0.44290858000000005,0.9852003456666667,0.5470346956666666
119,0.33054233333333133,-30.077856699999998,3.910800775,-44.35692343333333,-1.2513192890000002,0.4355886133333334,9.568383853,2.9368089833333335,12.771523160000001,6.60189867
120,0.33331999999999573,-29.978464763333335,3.9390993910000005,-44.34457393333333,-1.113015155,1.0288177330000001,11.118994077666668,10.08368524,1.6669191233333336,2.755144278
121,0.3360976666666602,-29.869722363333334,4.097055196666667,-44.33333843333333,-1.7016644673333332,-0.3222309193333333,8.711639244666666,11.300056773333333,15.406788823333335,10.252451261333333
122,0.3388753333333246,-29.700410843333334,4.1628448963333335,-44.342117300000005,-1.3514159719999999,1.827111800333333,9.706493694666667,18.640902203333336,6.842213312666668,2.7955470880000006
123,0.34165299999998905,-29.463700613333334,4.323514302333334,-44.30739846666666,-1.2717853883333332,0.6433868906666667,13.036334359999998,26.455121360000003,14.395920756666667,12.711373646666667
124,0.34443066666665345,-29.183764776666667,4.459642013,-44.31966143333333,-2.522524316666667,1.2701564233333333,9.738774934333334,31.932951610000003,14.435523986666666,6.515116214666667
125,0.34720833333331785,-28.81391716,4.614600658333333,-44.291361466666665,-1.0111943383333333,2.3583354153333334,9.192114196,42.46375910333333,14.289319673333333,11.582368853333334
126,0.3499859999999823,-28.39912732666666,4.795416037,-44.31881713333333,-1.9328407046666667,1.068571766,11.958532966666667,48.27232487999999,20.1077493,7.2885613440000006
127,0.35276366666664666,-27.894821803333333,4.978600978666667,-44.293279000000005,-2.309700727333333,0.913191229,11.658387181666667,58.59729258000001,17.61680094333333,12.669172606666669
128,0.3555413333333111,-27.334070206666667,5.174074332,-44.317342133333334,-0.6023161213333333,2.448066155333333,9.270945549333334,65.77730306,21.606223423333333,8.113842328666667
129,0.35831899999997563,-26.69044876,5.371489524666667,-44.316706366666665,-2.057110588,0.7448458966666666,9.993091901333333,75.57812754,20.74884415,10.426728248666668
130,0.36109666666664,-25.946594876666666,5.571099917000001,-44.31124366666666,-1.262232979,2.8472586470000003,11.953252475333334,87.41948954333333,20.68213717,11.001517293333334
131,0.3638743333333044,-25.161394116666667,5.787333170666667,-44.32274373333333,-2.5643880766666665,0.9224816463333334,8.712159793666666,92.70565287,23.698336916666666,9.523569106333333
132,0.36665199999996884,-24.266494116666664,6.037275314333333,-44.33125303333333,-0.9076380333333334,2.0750718113333337,8.432862440666668,105.75717926666665,27.314151126666662,11.12514114666667
133,0.36942966666667115,-23.318265276666665,6.233164946,-44.3388214,-2.0181582173333332,1.754278302333333,13.354555130000001,112.23877716666668,21.590576809999998,8.181455611999999
134,0.3722073333333356,-22.29332606,6.491781711666666,-44.33926393333334,-2.1346880593333335,0.5762386620000001,9.153422513,121.22791033333333,28.167937596666665,11.75042216
135,0.37498499999999996,-21.210802079999997,6.743730545000001,-44.37314860000001,-1.7822130123333333,1.1332548756666665,10.064496039666667,128.72055816666668,29.308263143333335,6.954358736666666
136,0.3777626666666644,-20.107320149999996,7.005873044333334,-44.36017866666666,-0.9926688076666667,0.19384735833333333,11.843044599666667,130.5088806,28.53540865666667,12.058319093333333
137,0.3805403333333288,-18.9494222,7.224805991,-44.37690226666666,-1.173743588,-0.09869871166666667,11.930179596666667,137.57129923333332,25.180699663333332,6.338270345999999
138,0.38331799999999316,-17.77969424,7.480612754666667,-44.34302776666666,-1.2213460803333334,0.3809557356666667,9.764798961333332,138.09319559999997,27.461919146666663,13.185437523333334
139,0.3860956666666577,-16.60120074,7.657351017,-44.34266663333333,-0.445023482,-0.3572605153333333,10.261095683,139.79925536666667,20.009070716666667,5.712531566666667
140,0.3888733333333221,-15.381766956666667,7.86100324,-44.28008526666667,-0.5454676150000001,-1.3099596103333333,11.523971237333333,143.59339396666667,21.068483349999998,13.517640749999998
141,0.3916509999999865,-14.204113643333335,8.004252751666668,-44.24930316666667,-0.34016391633333337,0.1149188676666667,9.629258634333334,139.20291646666666,15.450119336666665,7.309511344000001
142,0.39442866666665094,-13.00504589,8.097076257333333,-44.17186993333333,-0.23716558533333332,-0.541761885,9.200615884,140.8767344,8.317341009666666,11.133480072333333
143,0.39720633333331534,-11.772948900000001,8.180960814,-44.1157379,-1.1081061959999998,-0.880303681,12.355157851000001,145.31348673333332,8.170048554666666,8.019254366333334
144,0.39998399999997974,-10.582888923333334,8.255230585666666,-44.01230873333333,-0.16808942933333337,-0.06621098033333335,12.69190693,139.3652954,6.0774620373333335,13.088412920000001
145,0.4027616666666442,-9.426693916333333,8.263222376666667,-43.9429016,-0.35888533800000005,-1.325986892,10.432239057666669,135.96613563333332,-0.7237249663333333,7.635868708333334
146,0.4055393333333086,-8.232004483666666,8.255752722333334,-43.84097800000001,-1.2874556323333333,-1.7108846903333335,11.783264796666666,139.96821086666668,-3.029294491,11.119071644333333
147,0.408316999999973,-7.045235951666666,8.208426316666667,-43.73488360000001,1.535138647,0.5488258203333333,11.098951338333334,139.02393086666666,-7.542431038,11.066953660000001
148,0.41109466666663746,-5.893989563000001,8.099342187333333,-43.61909483333334,-1.3168232813333334,-0.8493510086666666,10.808552741999998,134.55130516666665,-14.837567650000002,11.435033480000001
149,0.41387233333330187,-4.753208001666667,8.007136662666667,-43.50368756666666,-0.864690681,-0.9857859216666668,7.734996397333333,133.38755796666666,-12.53487555,12.000438373333333
150,0.4166500000000042,-3.5726362863333336,7.835408210333334,-43.40429176666666,0.3620948196666667,-0.9746032233333333,8.494872412,138.4170227,-21.701585769999998,9.529894829
151,0.4194276666666686,-2.3915823300000003,7.624195416666666,-43.27678933333333,-1.2425062856666667,0.17453043666666668,15.001641911,138.1145732,-26.354102456666666,13.200250626666666
152,0.42220533333333304,-1.275503397,7.474116484333334,-43.1764882,-0.7682801883333333,-0.9288625316666667,12.649156573333334,130.74534606666666,-18.674663863333333,10.576123236666668
153,0.42498299999999745,-0.17042257900000002,7.248815695333334,-43.07771303333333,-0.9718596486666667,-1.8338044086666667,10.255189418666667,129.54934693333334,-27.44118627,10.791236241
154,0.42776066666666185,0.950117151,6.998594761,-42.972539266666665,-1.0086405349999998,-1.212838113,9.881779988,131.33015443333332,-30.246009830000002,11.855120659999999
155,0.4305383333333263,2.08735168,6.733203570000001,-42.869471233333336,-0.619312773,-0.48546975833333333,8.908383051333333,133.45521543333334,-31.77342542,12.499514579999998
156,0.43331599999999065,3.208329041666667,6.478088061333334,-42.800465933333335,-2.015224854,-0.5976196526666667,9.131420454666667,132.00563559999998,-30.519318260000002,8.762041886666667
157,0.4360936666666551,4.273816267666667,6.178806145666667,-42.69952136666666,1.109539941,-0.37198079133333334,13.166254999666668,124.98927053333334,-35.320940650000004,13.750674883333334
158,0.4388713333333196,5.303744316,5.945739428333333,-42.66274513333333,-3.1008261843333336,-1.967870434,13.301100415333332,121.57213846666666,-27.829563776666664,5.882274150666667
159,0.44164899999998397,6.332019488333334,5.667084058,-42.5800654,0.7690079806666668,-1.7026160159999997,7.857842605333334,120.8673706,-32.5395813,12.621994973333335
160,0.4444266666666484,7.350926876333333,5.351701418333334,-42.572641999999995,-2.502071818,-0.577708215,10.367369969333334,120.6242854,-37.785551706666666,4.769553263666666
161,0.44720433333331283,8.340167363333334,5.1117296219999995,-42.4799474,-0.680752198,-1.567138036,10.612309136999999,116.18819683333334,-27.291117983333333,14.33616702
162,0.44998199999997723,9.303946177333334,4.820162693666666,-42.5086187,-1.4519399803333333,-1.0551317926666668,11.241604803333333,114.38216653333332,-35.41747538333333,1.362882237
163,0.45275966666664164,10.236685752,4.548295815666667,-42.43267056666667,-1.1228974263333333,-0.882852604,12.442392033333334,109.70134989999998,-30.893610003333333,13.9267451
164,0.4555373333333061,11.148268383333333,4.286768436333333,-42.4651235,-0.8546405166666666,-0.26597905166666663,11.010899863333334,108.11157480000001,-31.839978533333333,1.6049844723333333
165,0.45831499999997055,12.051985423333335,4.022173563666667,-42.413047799999994,-2.120001356,-2.4153483706666665,7.828721364333333,106.52716573333332,-30.14036306,11.926600138
166,0.4610926666666349,12.93457508,3.724365790666667,-42.44798023333334,0.07475564900000009,0.014856735999999982,10.985299902333333,104.6260554,-36.074554443333334,3.2527823446666666
167,0.4638703333333372,13.767299970000002,3.5111718176666664,-42.400372833333336,-2.9747793873333332,-1.9691344103333333,10.557805380666666,98.10805257,-23.874766033333334,10.873601597333334
168,0.4666480000000017,14.596065523333332,3.2783310413333333,-42.43257396666667,0.03743378333333336,-0.7925741353333332,9.243636449333332,98.11654663,-28.309632616666665,2.710834503333333
169,0.4694256666666661,15.38555177,3.0308191773333335,-42.40775296666667,-2.135995388,-2.3777579663333333,11.485126336999999,93.13029734333332,-28.220380146666667,10.014512699
170,0.4722033333333306,16.128628096666667,2.8190201520000002,-42.42555236666667,-1.0633286043333332,-0.4891152283333334,14.09778627,87.73475901333332,-25.31389808666667,4.463761329666666
171,0.47498099999999494,16.838696799999997,2.644165357,-42.409258533333336,-2.530603726666666,-3.376433293,8.712337018,83.68375396666666,-19.86797396333333,7.286737920333334
172,0.47775866666665934,17.50989151,2.3908061583333335,-42.42674003333334,0.062449654000000056,-0.7278694313333335,9.785843053,79.09814707666666,-29.938251496666666,6.592440843666666
173,0.48053633333332374,18.114803313333333,2.229841947666667,-42.42555236666666,-2.131569723,-2.754223863,9.971110185666667,71.16104380333333,-18.647669473333334,5.5207697546666665
174,0.4833139999999881,18.714352289999997,2.042216003,-42.41750083333333,-1.7891179,-1.1987156073333334,8.961025238,70.39017995333334,-21.326803206666668,7.642013549666667
175,0.4860916666666526,19.254832586666666,1.8375356693333333,-42.44677223333333,0.7157042423333334,-1.4007373996666665,11.086596330666666,63.54308700333333,-24.67041905666667,4.150638024
176,0.488869333333317,19.741738003333335,1.639123395333333,-42.439564999999995,-2.943285743666667,-2.211826483,12.006463051333334,56.91132736333333,-22.42529424333333,8.386431535
177,0.49164699999998146,20.208695730000002,1.4561076463333336,-42.490206400000005,0.835828441,-1.6467964650000002,9.392654417333334,54.774852753333334,-23.02031580666667,1.2716908256666666
178,0.49442466666664586,20.632725399999998,1.21951588,-42.4897334,-2.824816386,-1.2443835140000001,9.493728638,49.39934158666666,-26.857874553333332,9.572114625666666
179,0.49720233333331026,21.022768656666667,1.0173289380000001,-42.5532303,2.669779857,-1.2830844026666666,8.807421366,45.52466329333333,-25.691322326666665,0.9790979126666667
180,0.4999799999999746,21.389728546666664,0.7784679333333333,-42.564542100000004,-5.845789273666667,-1.7003958623333333,12.649271648666668,42.613229116666666,-27.481974920000003,8.731989860333332
181,0.5027576666666391,21.729935963333332,0.597888847,-42.619697566666666,3.5369182426666668,-0.42534996166666666,9.720434982999999,39.466505686666665,-22.88261922,1.3001213770000002
182,0.5055353333333036,22.041358313333333,0.3710728386666667,-42.62299096666667,-6.0767827033333335,-1.3366446693333334,12.536394756666667,35.94075393666666,-25.671636583333335,9.405682882666667
183,0.5083129999999679,22.323949813333332,0.14803563033333336,-42.68942766666667,5.359359423333333,-1.7436046600000001,11.964704516666666,32.49481583,-28.096233366666667,2.2050815823333334
184,0.5110906666666702,22.56965955,-0.02880153799999996,-42.70010883333333,-8.105758984666666,-1.2809292676666666,12.310581523000002,28.10154406,-20.371906916666667,6.550881385666667
185,0.5138683333333347,22.81074015333333,-0.269531379,-42.76419576666667,4.951611519,-1.3126796486666665,11.652478536333334,27.467038473333332,-29.91660309,3.5481743019999996
186,0.5166459999999992,23.00375493333333,-0.4365468123333334,-42.78399149999999,-6.9304569560000004,-1.6660807530000001,11.757230123333335,21.756755193333333,-19.656751,5.233188629333333
187,0.5194236666666635,23.198700586666664,-0.6534803113333334,-42.85202026666667,4.343679467666667,-0.25447240433333335,7.646353086,21.872421266666667,-27.42659696,2.2472930746666666
188,0.522201333333328,23.350728990000004,-0.8496789140000001,-42.88580323333333,-6.040843089333333,-2.2998552323333334,10.800465424666667,16.8073651,-23.502200443333333,5.2004787923333335
189,0.5249789999999924,23.471335726666666,-1.052496155,-42.944671633333336,4.243490457666667,-0.9284176612,11.069832483333334,12.914415360000001,-25.41257794666667,2.745847861
190,0.5277566666666568,23.577598570000003,-1.2341297169999998,-42.9964091,-6.656864643,-1.7588873109999998,9.944157123666667,11.27014605,-22.735012693333335,2.6415164069999997
191,0.5305343333333212,23.64144007333333,-1.4129610906666665,-43.0447591,3.4026387136666667,-1.808363398,11.73864110333333,6.09106795,-22.261884056666663,2.830946206666667
192,0.5333119999999857,23.692463556666667,-1.5345669216666666,-43.07337953333333,-7.110895475,-1.8017036913333333,12.288736976666668,4.694680452333333,-15.016617773333332,2.3499869503333333
193,0.53608966666665,23.72312228,-1.7212549896666667,-43.120946233333335,2.6144405203333334,0.45611389499999994,11.126758574,2.0898066756666664,-23.071959816666666,3.359154502666667
194,0.5388673333333146,23.717229206666662,-1.757375787,-43.120442733333334,-5.432473421,-2.0938508510000005,10.101880391,-2.055589239,-4.220717986666666,1.421799352
195,0.541644999999979,23.725817359999997,-1.91486761,-43.132232666666674,0.4223800896666667,-0.17418263366666664,12.32306544,-0.41748227200000004,-18.142819403333334,5.883454481666667
196,0.5444226666666433,23.691182453333337,-1.9545050063333331,-43.157470700000005,-2.401236752666667,-1.3872633676666668,10.772141137333334,-5.6228672663333334,-5.850927751666667,-1.2403779823333334
197,0.5472003333333078,23.657222110000003,-2.032156229,-43.13682046666667,-1.4489829443333333,-0.40851374966666665,10.216003892666668,-5.3821446103333335,-7.8101010319999995,5.587976535333333
198,0.5499779999999721,23.62275823,-2.0540535053333335,-43.148122133333324,-1.5538012083333335,-1.053127397,11.074920017666665,-5.532781601,-3.231342633666667,-0.5623178283333333
199,0.5527556666666366,23.56647873,-2.1204222440000002,-43.11827086666667,-1.5682603416666667,-0.09550080700000001,10.300240198666666,-8.030895710000001,-6.133717378,6.045591831333334
200,0.555533333333301,23.517672856666668,-2.0460640590000003,-43.093571966666666,-2.4094309806666665,-1.3785108723333332,9.648610432,-7.075254917333332,9.08217748,-1.219092657
201,0.5583110000000033,23.470342,-2.1173768639999997,-43.066787733333335,-0.345318198,0.07860153933333333,13.389001527666666,-6.969177246000001,-6.857866287333334,5.891787370333333
202,0.5610886666666678,23.387914656666666,-1.98820133,-43.01662696666668,-2.1884637276666665,-1.3655746973333331,7.926195146,-11.01575915,16.332470896666667,-1.024544209
203,0.5638663333333321,23.34172694,-1.9954834283333334,-42.9742737,-1.848122338666667,-0.13573875233333332,10.920441310000001,-6.734602292333332,0.9575030210000001,4.6371845406666665
204,0.5666439999999966,23.274993260000002,-1.8736122449999997,-42.92489116666667,-0.7517584563333334,-1.3677131336666666,13.242921513333334,-9.154850484,15.490836146666666,-0.7300572790000001
205,0.569421666666661,23.207028073333333,-1.8140448826666666,-42.86205543333333,-2.0046822626666665,0.49783371899999995,7.561585267000001,-9.293456075666667,9.248797735666665,3.6354204813333335
206,0.5721993333333254,23.161280950000002,-1.683971626,-42.826288866666665,-1.9622071983333331,-1.0931889713333334,8.694988568666666,-6.669534206333334,15.752288183333334,-2.570922812
207,0.5749769999999899,23.095552443333332,-1.610023623,-42.761042266666664,0.09465747566666671,-0.8732320266666665,14.900834403333333,-9.062808672666666,10.940404891666667,3.233422040666666
208,0.5777546666666543,23.033759436666667,-1.4662990770000002,-42.73222856666666,-3.2231908243333334,-0.21951170266666667,10.341464681,-8.611889363666668,16.93600972333333,-3.9389882879999996
209,0.5805323333333187,22.962261836666666,-1.3965247373333334,-42.6650238,0.536282619,0.4411572913333333,8.816273053000002,-9.783858457000001,10.568555353666667,3.679827134
210,0.5833099999999831,22.906952540000002,-1.1976919173333334,-42.63728583333333,-3.362982948666667,-0.4717615990000001,14.754790623333333,-7.861375649666667,22.983092626666664,-6.606422424333334
211,0.5860876666666476,22.87072118,-1.117084265,-42.55695596666667,-0.5139199643333333,1.4737934670000001,11.531024293333333,-5.526182333666667,12.367331186666666,4.653936465666667
212,0.588865333333312,22.835112256666665,-0.9293138583333334,-42.54662323333333,-1.7526852286666668,-1.2140901486666669,9.567892233333334,-5.574352105666667,20.959707896666668,-7.983610948
213,0.5916429999999764,22.806795116666667,-0.7749603193333335,-42.435602800000005,-2.513788461666667,-1.4395531813333333,11.898103238,-4.542307138333334,21.942409513333335,4.627179781666666
214,0.5944206666666408,22.79055404666667,-0.6461702979999999,-42.45685323333333,-0.009984324666666683,0.2605449756666667,12.532084781,-3.3030374449999997,12.97478231,-8.705566724333332
215,0.5971983333333052,22.76505343,-0.4934052726666666,-42.350697833333335,-2.282845537,-1.0721590716666667,8.161595822,-4.2844732599999995,21.536703746666664,4.175702571666666
216,0.5999759999999696,22.77606392,-0.35237423566666665,-42.36880493333333,0.6416484513333333,1.4078807036666667,11.884713649333333,-0.02438473666666674,14.481378556666668,-8.918387413
217,0.6027536666666341,22.762201943333334,-0.22493854933333335,-42.29499813333334,-1.6623946626666666,0.16825225933333332,16.597083726666664,-2.971359074,17.226987203333334,1.7636772793333335
218,0.6055313333333362,22.74633534666667,-0.03502935166666673,-42.260518399999995,-0.1323319276666668,-0.7230928243333333,6.810502767333333,-3.2227586106666664,22.33445676,-5.369873206
219,0.6083090000000008,22.77414767,0.08853679900000004,-42.2213542,-2.75255241,0.897971322,9.871705371666668,2.0080837706666665,15.191535946666667,-1.8727680443333332
220,0.6110866666666653,22.806164423333332,0.29139770066666665,-42.17465463333333,-0.5883333883333334,-1.2209763326666667,12.991113663333332,2.497884511666667,24.33074379333333,-4.638719082000001
221,0.6138643333333297,22.87496503,0.4228954316666667,-42.14516193333333,-2.926066716333333,-1.3502381443333331,8.403117020666665,6.916468779333333,15.616586046666663,-3.328848282333333
222,0.6166419999999941,22.930758156666666,0.608923475,-42.109687799999996,-0.9991125040000001,0.754057308,10.560286521666667,5.333261649,21.93651008666667,-5.138811429333334
223,0.6194196666666586,22.94383430666667,0.8355436523333334,-42.057830833333334,-2.2098081510000003,-1.9401702483333334,14.58811601,0.1518754363333333,27.1669871,-5.350360552333334
224,0.6221973333333229,22.932627359999998,1.0182971356666668,-42.02841946666667,-1.0058799583333333,-0.44079000766666665,11.574296952,-2.7011461256666665,21.28668531,-5.662050565
225,0.6249749999999873,22.877101263333333,1.2821461256666666,-41.9582418,-0.9459801713333333,-1.1090903680000002,8.67115132,-8.186757246666666,32.139177956666664,-5.060553709666666
226,0.6277526666666517,22.82207234666667,1.5191446393333334,-41.941431699999995,-2.08910203,-1.797836383,13.405632653333333,-7.940550963,26.70868110666667,-9.545838674
227,0.6305303333333162,22.728209813333336,1.7642970159999998,-41.8675588,-1.1739500266666667,-1.3161458173333334,11.633972806666668,-12.862776123333333,30.246168773333334,-3.7181614236666665
228,0.6333079999999806,22.594523113333334,2.020785232333333,-41.84646353333333,-1.2280581196666667,-1.6467578016666666,8.821145693333333,-17.409144083333334,29.095665613333335,-9.882596969
229,0.636085666666645,22.407105766666664,2.2559625706666666,-41.78366596666667,-1.5829691686666667,-2.448933522,11.924292245333332,-24.115068436666665,28.64402389333333,-4.350596030666666
230,0.6388633333333095,22.16939417333333,2.5442305406666668,-41.752726233333334,-1.2258381046666667,-0.5616615313333333,11.908334733333334,-29.96886635,33.13420740666667,-10.050237020666666
231,0.6416409999999738,21.8570474,2.7585860886666667,-41.70260366666667,-1.3641248150000003,-2.453260262666667,11.87312921,-39.08727391666667,25.78374799,-4.585499127666666
232,0.6444186666666383,21.487508136666666,3.045239687,-41.66227213333333,-0.11554964399999997,-2.6673581600000005,9.526491641,-45.89406077333334,33.471585590000004,-8.576033591
233,0.6471963333333027,21.05897395,3.275730888,-41.63676963333334,-2.975341415666666,-1.8758038876666667,11.677612938666668,-52.89964803,26.56490135333333,-7.711898962666666
234,0.6499739999999671,20.556526183333336,3.6036657889999995,-41.5828832,0.4779537520000002,-3.449842453,12.076038996666668,-62.002370199999994,38.80013784,-8.313600062
235,0.6527516666666694,20.00245857333333,3.8393772443333334,-41.57123566666667,-3.8212165336666666,-1.6697678863333334,11.714947381999998,-67.86796824,26.69994672,-9.014896076333333
236,0.6555293333333339,19.36520449,4.209683100333334,-41.5046005,1.9745446046666668,-0.8620754926666666,11.34041786,-78.36688486666667,44.24933115666667,-7.832051755333333
237,0.6583069999999983,18.693730036666665,4.441947142333333,-41.52013650000001,-5.303486605333333,-2.9166780313333334,11.760283947333333,-81.70879618333333,25.421522773333333,-11.388257980333334
238,0.6610846666666627,17.963130316666668,4.825928211,-41.418993633333336,2.7343824703333333,-0.467361758,12.438761073333334,-89.97753143,47.26572418000001,-3.3839181660000004
239,0.663862333333327,17.18374443,5.056158304,-41.448733,-5.553072929333333,-2.7136227686666667,11.735085803999999,-94.48970031666666,24.942763009999997,-12.297328946666667
240,0.6666399999999915,16.349126180000003,5.413856347666666,-41.354888933333335,2.6427523243333333,-0.7458502349999999,9.291181882666667,-102.49997967333333,44.05669912,-2.0222227573333336
241,0.6694176666666559,15.462924,5.706001758666667,-41.405614199999995,-5.540495554666666,-2.2802797160000003,10.801666894,-107.04268900000001,31.736875533333333,-16.025273323333334
242,0.6721953333333204,14.530691466666667,6.002261479666667,-41.33713783333333,2.3485087553333335,-0.8807827433333334,11.211179098,-114.01206459999999,36.178581236666666,-1.67783466
243,0.6749729999999848,13.550377846666668,6.336528778000001,-41.40105950000001,-3.2174102466666668,-1.8492475353333333,7.178461074333335,-118.13267773333332,36.75137329333333,-17.74340439
244,0.6777506666666494,12.559250196666667,6.615597089333332,-41.373176566666665,0.3155409693333333,-0.681400259,10.560768287,-120.593661,33.09868494666667,-4.6892539656666665
245,0.6805283333333136,11.509592056666667,6.989338557,-41.42568966666667,-1.6350654660000001,-1.8596851030000001,11.293620746333332,-126.55749763333331,42.262948353333336,-16.062752723333332
246,0.6833059999999781,10.470606486666668,7.284258206333334,-41.41026053333333,-1.8504456283333333,-1.147184054,11.13052558666667,-126.16567993333335,34.819992066666664,-5.298785686333333
247,0.6860836666666424,9.391145388666667,7.632798989333334,-41.4496155,0.6072809696666664,0.8448951539999999,12.116266412000002,-130.2832184,40.105414069999995,-12.403832753333333
248,0.6888613333333069,8.303558985666667,7.9867572786666665,-41.46640776666666,-4.0632404090000005,-1.3710991540000002,10.609042168,-131.45450846666665,41.35891723666666,-9.093368373666666
249,0.6916389999999714,7.244098822000001,8.313892523666667,-41.487912466666664,-0.24067997966666668,1.0137224993333334,11.993605932666668,-128.12340803333333,38.27538808,-8.401858488
250,0.6944166666666357,6.147138913666667,8.634813149666668,-41.5616557,-0.8958624203333333,0.20402627433333334,10.5930837,-131.5652771,36.926619210000005,-13.824163116666668
251,0.697194333333338,5.111521403,8.991122721333333,-41.589886966666676,-2.4250314433333333,0.381024286,9.152909279333334,-125.09661863333334,41.953957876666664,-8.114817459
252,0.6999720000000025,4.0581487019999996,9.230859598666667,-41.69950359999999,1.6721458686666668,0.8224175770000001,11.396699745333331,-125.56999460000002,27.34895769666667,-15.87532266
253,0.7027496666666669,3.0099577109999998,9.585656803333332,-41.7398758,-2.2462482053333335,0.6993626456666667,10.003146011666667,-126.34539033333333,41.94482549,-7.918832938
254,0.7055273333333313,2.006050189,9.817426683,-41.87844846666667,0.41397002333333327,-0.9126816990000001,7.317553520333333,-118.90566763333334,26.790863673333334,-18.24332428
255,0.7083049999999957,1.0238025986666666,10.057421365000002,-41.919957499999995,-1.2873280123333333,0.9151757556666666,12.300470032666666,-118.35385129999999,28.408101400000003,-6.234672069666668
256,0.7110826666666602,0.03353198833333334,10.297014557,-42.0859146,-0.36448221033333333,-0.5692552576666666,11.104844731,-116.5403061,28.304181420000003,-20.644753773333335
257,0.7138603333333245,-0.9237672883333333,10.508681296666667,-42.139157600000004,-2.2122579413333336,1.4998272656666665,11.766825996,-115.0671997,25.202968596666665,-6.631683508666666
258,0.716637999999989,-1.9247415863333333,10.738238334,-42.34518433333333,-0.004533052333333343,-0.5021943750000001,10.422332763999998,-116.81237283333333,27.889255523333333,-24.22828865
259,0.7194156666666535,-2.8926793733333334,10.923495611,-42.41040546666667,-2.7368200623333334,-1.3624047836666666,10.135408878666667,-116.03711446666667,22.294752759999998,-7.228661378333332
260,0.7221933333333177,-3.9281119506666666,11.062629701333334,-42.63062793333333,3.5237057606666666,-1.1034711996666668,6.181550264333334,-120.46970113333333,17.972604750000002,-25.62914785
261,0.7249709999999823,-4.964000066333333,11.147262257666668,-42.73563893333334,-2.635203282,-0.8764266173333333,11.694779078333333,-123.22547913333334,10.850068250999998,-12.03748862
262,0.7277486666666467,-6.053239345333334,11.233109473333334,-42.94039406666667,1.2867299713333333,-1.0928133329999998,12.610388756666666,-127.22807819999998,12.333648363333333,-23.58240318333333
263,0.7305263333333111,-7.104728539666667,11.272102673333334,-43.05373126666667,-3.8790482680000005,0.9671175183333335,12.46372064,-124.88878629999999,5.940955286,-13.149302166666667
264,0.7333039999999755,-8.204645157,11.307194073333333,-43.25985713333335,2.149239366,-0.22654821000000003,7.332107942,-128.4340871,7.182741939333333,-24.08634376666667
265,0.73608166666664,-9.292742411,11.24268564,-43.37582906666666,-0.7504721283333334,-1.6427441636666666,11.156082473333335,-129.21579996666665,-5.803295293333332,-15.1311175
266,0.7388593333333043,-10.413930573333333,11.187451366666666,-43.55107113333333,0.25890795399999994,0.35660413900000004,13.57266712,-131.7792155,-3.242557505666667,-21.869023006666666
267,0.7416369999999688,-11.50462214,11.09893322,-43.65967813333333,-2.661254391,0.125044932,10.232087769666668,-129.74679819999997,-8.236336073,-14.956763269999998
268,0.7444146666666711,-12.595012346666666,10.981694537333333,-43.81637573333333,1.4525336026666666,0.368366794,7.982519148666666,-128.58809916666667,-10.146515209666667,-21.398078283333334
269,0.7471923333333356,-13.672027903333335,10.815806706666665,-43.91503906666667,-1.8270369373333333,-0.8882231313333334,9.247872033333334,-128.3654683666667,-16.96847439,-16.288737616666666
270,0.7499699999999999,-14.78235213,10.609042167666667,-44.0078125,1.759321332,0.9863327540000001,11.814495723,-132.56112163333333,-21.64828682,-16.92086442333333
271,0.7527476666666644,-15.868392306666669,10.383011181333334,-44.12439473333333,-2.921698093333333,-1.1926656503333335,11.921564577333333,-129.15623983333333,-22.758587199999997,-20.823204673333333
272,0.7555253333333288,-16.921451566666665,10.143188796333334,-44.18879189999999,-1.071458181,1.0483336546666666,11.444985073333333,-126.35240173333334,-25.69723129333333,-15.82796383
273,0.7583029999999934,-17.96787198666667,9.938611984666666,-44.3094533,-1.3972535236666666,0.5222559299999999,9.639285404,-124.41803996666668,-19.37738673,-21.3613739
274,0.7610806666666576,-18.99046834,9.615417162999998,-44.3315684,0.66796275,1.047608773,11.860142708333333,-123.63763936666665,-36.19555918333334,-15.161325456666667
275,0.7638583333333221,-20.002374013333334,9.361874263,-44.416875233333336,-1.0978228646666668,-0.673213899,10.162249089333335,-121.11793770000001,-25.552132923333332,-20.04079628
276,0.7666359999999864,-20.933755876666666,9.027338982666667,-44.41231283333334,-1.241534551,2.6093214356666667,8.764520328333333,-113.23802440000001,-38.035964963333335,-13.917431196666668
277,0.7694136666666509,-21.833140056666664,8.734151045666666,-44.472559600000004,-0.6799995303333334,0.7965863746666667,13.19811026,-108.19263713333333,-30.403804143333332,-19.83251762333333
278,0.7721913333333154,-22.635266623333337,8.456053257,-44.44673663333334,-3.7707402709999998,1.8341371613333335,9.923340161333334,-98.10556284333332,-32.28536733,-10.178015391666667
279,0.7749689999999797,-23.388821916666668,8.161215146666667,-44.4894409,0.06295435633333331,2.960239092333333,10.376746495666666,-91.08282470333334,-30.82471084333333,-18.86448796666667
280,0.7777466666666442,-24.075563433333333,7.908937931,-44.46097313333333,-2.861555377666667,0.8376542923333333,9.715661844000001,-84.25155893666668,-29.31258456,-9.478256861333334
281,0.7805243333333086,-24.66702207,7.6557207106666665,-44.48557026666666,-0.3928543130000001,2.7101469833333334,11.026573500666666,-71.99249013000001,-26.723749799999997,-15.540274936666668
282,0.783301999999973,-25.2016716,7.361396948666666,-44.44049579999999,-2.5690255613333335,2.219983737,9.624320826333333,-66.23260497666666,-34.526805876666664,-10.416294416666666
283,0.7860796666666374,-25.673098883333335,7.167544364666667,-44.46355186666667,0.7694330216666666,1.257716457,8.188957371666667,-57.61972936,-20.0699749,-12.84177494
284,0.7888573333333017,-26.05914561,6.859418710333333,-44.416122433333335,-3.147378742666667,2.0427202783333334,11.336340266666667,-48.408701576666665,-35.97273318,-11.432729403333333
285,0.7916350000000042,-26.391282399999998,6.638131459333333,-44.40263366666667,0.5765269199999999,1.6385784146666669,8.678829192666667,-41.44743093,-24.78329404333333,-10.641670545333334
286,0.7944126666666685,-26.6772302,6.414650122333334,-44.41230773333333,-3.591442465666667,0.10866226733333328,9.643604119666668,-35.57083002666667,-23.71544965,-13.400852839999999
287,0.797190333333333,-26.891155243333333,6.162181377333333,-44.3589172,0.9852619566666666,2.176895221,11.104617434666666,-27.78217315666667,-30.16457430666667,-8.318936031
288,0.7999679999999975,-27.096300763333332,5.930407206333334,-44.38945006666666,-2.855600436333333,0.3401491366666667,12.317087493333332,-25.63036092333333,-23.437934243333334,-16.121217413333337
289,0.8027456666666617,-27.232826869999997,5.722702185333333,-44.3564199,-1.3220944406666666,1.2108885643333334,9.304506938,-18.20279693666667,-24.225953419999996,-8.218034744333334
290,0.8055233333333263,-27.34200414,5.477267106666666,-44.35629269999999,-0.893576672,1.3227203686666666,11.801374275999999,-14.507191023333334,-26.489506406666663,-13.749708810000001
291,0.8083009999999907,-27.425784426666667,5.280940374,-44.3227895,-1.5744079153333335,0.31866632899999997,10.928721746999999,-11.850432716666667,-23.007565813333333,-7.637315591
292,0.8110786666666551,-27.461187996666666,5.0307569506666665,-44.31192016666666,-1.5836876033333336,0.7639354966666666,11.013285953333332,-5.774571577666666,-27.539336523333333,-12.96177832
293,0.8138563333333195,-27.505059559999996,4.880207061666667,-44.27914429999999,-2.38335828,-0.22654188166666667,10.719982147666668,-7.014507770333334,-18.08429209333333,-5.220409234333333
294,0.816633999999984,-27.51209767666667,4.637795050666667,-44.2471975,-0.49831649399999994,0.5040378616666666,12.088889122666666,-2.574006358666667,-27.799608233333334,-10.444780032666666
295,0.8194116666666483,-27.518289563333337,4.492826382333333,-44.2198741,-2.160745759666667,0.037638265000000004,10.367563567,-2.4068293573333333,-17.181190490000002,-5.516526381333333
296,0.8221893333333128,-27.50653712,4.289063215333333,-44.19291686666667,-1.5681364340000001,0.47778821266666666,10.361935935,-0.2694191633333333,-23.473029456666666,-8.707261085333334
297,0.8249669999999774,-27.50322787,4.186265309333334,-44.163777700000004,-1.7115764816666668,-1.3130487800000001,12.096996940000002,-1.2541241943333334,-12.806482313333333,-2.9681735040000006
298,0.8277446666666416,-27.51323954333333,4.008615414,-44.13671876666667,-1.0850597223333331,0.20527267466666668,11.248808859999999,-2.8797539869999995,-20.698575336666664,-7.2471790316666675
299,0.830522333333306,-27.514781316666667,3.9098097483333336,-44.12297563333334,-1.9622713326666668,-0.9750224153333334,10.437056859,-1.6918845176666668,-11.530261993666665,-4.378929376333333
300,0.8332999999999705,-27.52466138,3.8202490806666667,-44.110712666666664,-2.1974835793333334,0.43098895266666665,11.204311689666667,-2.7313700119999997,-10.444952645999999,-4.051109552000001
301,0.8360776666666349,-27.54103215666667,3.7238292693333332,-44.09937033333333,-0.609895269,-1.2322685123333335,11.751060166666667,-3.44511954,-11.142309824,-4.507179578333333
302,0.8388553333333374,-27.54826355,3.6843187013333334,-44.0868988,-3.5255319276666666,-0.22771052033333336,11.477645553333332,-2.4123958746666667,-5.129742105666667,-1.2579707503333333
303,0.8416330000000016,-27.594022749999997,3.6197338900000005,-44.097305266666666,-0.39396049600000005,-0.438335733,9.283631642666666,-6.810027281333333,-6.543425718999999,-5.062991301333333
304,0.8444106666666661,-27.61534690666667,3.6158029236666667,-44.097534200000005,-2.351546824,-0.4842336333333333,9.958799996666668,-3.9970461526666665,-0.642810613,-0.6386952666666668
305,0.8471883333333304,-27.661403019999998,3.566657225,-44.105102499999994,0.11773953833333335,-0.15326765933333333,12.826834677666666,-6.868888855000001,-5.0552643139999995,-3.907695214
306,0.8499659999999949,-27.73376401333333,3.584301153666667,-44.09725443333334,-3.1235843500000002,-1.485974292,8.642236231333333,-10.203307153333332,1.1374173213333332,1.5466985103333333
307,0.8527436666666594,-27.796431226666666,3.5514157613333333,-44.11495970000001,0.8265120783333333,-0.601940066,9.114406744,-8.793507894000001,-2.7564717200000004,-4.078354279
308,0.8555213333333237,-27.884422303333334,3.6028704646666667,-44.133463533333334,-4.483813444999999,0.14082192866666668,13.068987844666665,-11.880239170666664,6.189229169000001,0.661462158
309,0.8582989999999882,-27.979667026666664,3.589116494,-44.15066526666667,0.294954084,-1.5900555056666665,10.853331248333333,-12.71530501,-0.7458611926666667,-2.954649369
310,0.8610766666666526,-28.064664839999995,3.6857076486666664,-44.1808828,-3.1090075573333333,0.088625421,9.829696655333334,-11.422427813333334,11.625885646666667,1.9793491760000002
311,0.863854333333317,-28.18905639666667,3.6570798559999997,-44.19837950000001,0.6912405886666667,0.10230158733333332,11.261925696,-16.210914926666664,-2.2923762103333334,-3.8321932949999997
312,0.8666319999999814,-28.322867076666668,3.7569862206666667,-44.23731486666667,-3.6681080656666665,-2.2831237713333334,12.463176091,-17.21065076,12.45359421,1.310954094
313,0.8694096666666457,-28.458284376666665,3.758443355666667,-44.23761493333333,1.4225041466666666,0.25288418933333334,10.540801523666667,-17.669076286666666,-0.08471902166666674,-0.3046259216666667
314,0.8721873333333102,-28.615001043333336,3.8250254793333327,-44.27924603333332,-3.7320080599999996,-0.8863608043333334,11.096624533000002,-19.953313193333333,9.083102384,-0.8064602113333335
315,0.8749649999999747,-28.75934727666667,3.8349138099999998,-44.29053243333333,0.7065781853333332,-1.0215219906666666,9.990476768333332,-18.637524923333334,1.4319686889999999,-0.976572891
316,0.8777426666666391,-28.923224766666664,3.9066824116666665,-44.33157346666666,-3.5213503840000002,-0.07665940133333334,10.597397327000001,-20.81768544666667,9.589863299333333,-0.3841368356666666
317,0.8805203333333035,-29.106350579999997,3.8987386226666665,-44.33302816666667,1.6466105979999999,-0.2663620103333333,10.311398030333335,-23.36373329,-1.0036727983333333,-0.9851027029999999
318,0.8832979999999679,-29.271878563333335,3.9207720753333333,-44.3527171,-2.362801671333333,-1.219429175,10.628019651333334,-21.189278283333334,3.132225593,-1.0022811096666666
319,0.8860756666666703,-29.45899581666667,3.9344209036666666,-44.34773763333333,0.038828254000000006,-0.15591866199999999,7.970300356666667,-23.908685046666665,0.8751155536666664,0.9660158193333332
320,0.8888533333333347,-29.61896769333333,3.9285771846666666,-44.359924299999996,-2.0887479386666663,0.057156745333333314,12.49091498,-20.585814156666668,-0.22228066099999996,-1.8385777076666667
321,0.8916309999999991,-29.776205700000002,3.971946319,-44.3689575,-0.9624988536666667,-0.8367402129999998,12.558950423333334,-20.210232416666667,4.780151406999999,1.3112700186666668
322,0.8944086666666635,-29.89537620333333,3.9454661210000004,-44.343231233333334,-2.3703191680000004,0.770920366,10.936964670333333,-16.00118637,-4.627930243666667,0.8767583966666667
323,0.897186333333328,-30.02160326666667,4.0215792656666665,-44.37500506666666,-1.22970287,0.3779344356666667,7.462494373333333,-16.308173813333333,9.532836278,0.9421090086666667
324,0.8999639999999923,-30.119984306666666,3.9770557883333333,-44.34953816666666,-1.0275732193333333,-0.59998406,12.702178320666667,-13.503430683333335,-6.502802530666667,-0.23893389099999998
325,0.9027416666666568,-30.20161056666667,4.088560422,-44.393875133333346,-2.757654488,1.0587165853333333,12.365410802999998,-10.851537383333332,13.959105173333334,1.8037805556666668
326,0.9055193333333214,-30.273536683333333,4.051236391,-44.36500036666666,0.08660267766666663,-0.5301540593333334,9.756309190333335,-10.352562269666668,-5.978051344666667,0.5515001513333333
327,0.9082969999999856,-30.317600246666668,4.180562417,-44.41828413333332,-2.7956912220000003,-0.7671313883333334,10.581222374000001,-6.275869051666667,16.328549383333335,2.0206391016666667
328,0.91107466666665,-30.378563563333334,4.132998307666667,-44.39669800000001,0.5856012106666667,0.4908581273333333,9.371455986333332,-8.967848143333333,-6.609681367666667,-0.8248681226666666
329,0.9138523333333145,-30.41185252,4.240049044333333,-44.44958496666667,-3.5368211666666665,-0.6498593986666666,12.702796618666667,-5.002943356666667,13.99035295,0.7571654716666666
330,0.9166299999999789,-30.45196724,4.253334681333333,-44.448074333333345,0.43923984499999996,-1.2535618146666667,9.622532367666667,-6.283351103333334,0.8844722906666665,0.8160610196666668
331,0.9194076666666433,-30.463294346666668,4.298710108000001,-44.462529499999995,-2.298561016666667,0.8196127613333334,11.898042997666666,-2.7112027006666666,5.2831586989999995,0.9814947046666666
332,0.9221853333333078,-30.47569529333333,4.362732569333334,-44.501281733333336,-1.3607805546666667,-0.585837374,9.831775824333333,-2.606372276666667,8.5608416,-0.22466245066666665
333,0.9249629999999721,-30.46776008333333,4.347226381333333,-44.46866863333333,-0.6109880903333332,-0.21762993433333333,12.540471393666666,-0.8046199756666668,-3.883015871,2.145909349
334,0.9277406666666366,-30.45303027,4.482920407999999,-44.53603613333333,-3.7319244543333334,0.5296701193333333,11.085218431666666,0.8771682580000001,17.690732003333334,1.2305338380000002
335,0.930518333333301,-30.43309657,4.482608318333334,-44.52404273333334,1.5509110293333332,-1.4775416453333332,9.002366860333334,0.8756311186666667,-1.076545158,0.9433552026666666
336,0.9332960000000033,-30.389980316666666,4.5330700083333335,-44.54125466666667,-3.975442727666667,-0.03227966366666668,12.594190597999999,3.777775645333333,5.8291899560000004,1.2416928809999999
337,0.9360736666666677,-30.35301908,4.6166582106666665,-44.573888133333334,0.7496830373333333,-0.6941262579999999,5.738090991,3.356319189,10.355627458333332,1.3448756536666666
338,0.9388513333333321,-30.328943253333332,4.592020352666666,-44.55323283333333,-1.3334877489999999,-1.160160978666667,12.799774485666667,1.1508390753333333,-4.237747351333333,0.5878296493333334
339,0.9416289999999966,-30.289353053333333,4.681209405,-44.59569803333333,-1.9456042253333334,-0.28036737199999995,13.41127936,3.715780734666667,11.5242122,0.6945898433333334
340,0.944406666666661,-30.266667683333335,4.701018651333333,-44.602981566666664,-0.9270922540000001,-0.22640222066666668,10.192151706333332,1.31147027,2.0553077063333336,0.36913526566666666
341,0.9471843333333253,-30.238608043333333,4.730948925,-44.597910533333334,-2.444990197666667,-1.468454639,10.606095949666667,1.840109676,2.536970575666666,1.9962625503333336
342,0.9499619999999896,-30.19470469,4.849977096,-44.655354800000005,-2.1645109353333334,-0.176744193,10.060688017666665,4.334211111,15.356163976666666,1.1889873743333332
343,0.9527396666666542,-30.17607561666667,4.861861706,-44.64718626666667,0.09555514666666665,-1.1850752333333334,12.309541386666666,0.7153885166666667,0.44231079,1.2726261616666665
344,0.9555173333333187,-30.126349766666667,4.950326919666667,-44.66768389999999,-3.6447885036666663,0.9264903270000001,14.132952053333334,4.634008487333333,9.983201026666666,3.1401433943333337
345,0.9582949999999831,-30.058711369999997,5.0827949839999995,-44.709187799999995,-1.4488182266666667,0.042312558,8.508670966,7.126505216000001,15.979461033333331,3.3163355193333337
346,0.9610726666666475,-29.932190576666667,5.162403424666667,-44.7031911,-0.9371217886666666,1.8931811653333332,9.845532578333335,13.597925503333334,7.477437655333333,5.328419367666666
347,0.9638503333333119,-29.72437986,5.307928562,-44.73413086666667,-2.8392063773333334,1.413367331,11.652007897333334,23.808253606666664,16.728149730000002,5.135734876333333
348,0.9666279999999764,-29.4411424,5.455854575,-44.749013233333336,-0.069899231,2.1081249316666666,9.341441153,32.66569455333334,15.869976838333335,7.1525449750000005
349,0.9694056666666407,-29.06391589,5.576744715333334,-44.74606833333332,-2.325507640666667,1.9599082470000002,11.628789586666668,43.75435384,12.210994721666665,7.081598281666666
350,0.9721833333333053,-28.586439136666666,5.797104040666667,-44.770655299999994,-2.074267308,2.262307803,10.702567099,56.07762908666667,24.146338780000004,10.105950990999998
351,0.9749609999999697,-28.018274943333335,5.897383689666666,-44.749720233333335,0.7790338196666667,1.920668681666667,9.491410256333333,66.47816976,9.169215202333334,7.522751331333333
352,0.977738666666634,-27.36899185,6.082444827000001,-44.765914900000006,-2.789897124,1.338788906666667,10.069308441,76.57712809333334,20.13719813,8.552141031
353,0.9805163333333363,-26.623648326666668,6.210071882,-44.76385496666666,0.15604958933333335,2.637581587,10.776790617666665,87.98271942333334,13.275921188333333,6.809885978666667
354,0.9832940000000008,-25.797248839999998,6.3420132,-44.74198406666667,-1.8678542773333333,0.6350006956666667,11.824058216666666,97.35628255333332,12.649429003333333,9.251458168000001
355,0.9860716666666653,-24.876140593333332,6.479080994666667,-44.72895813333334,-1.381534934,1.5173889996666665,10.929361026666667,108.90997313333334,13.95848497,8.061470985333333
356,0.9888493333333296,-23.881689070000004,6.61018006,-44.691243500000006,-0.8752412500000001,2.1178183956666667,8.514485358666667,117.33983356666666,12.232002416666667,10.168093044333332
357,0.991626999999994,-22.81249364,6.716080347666666,-44.6622721,-1.9933338963333336,0.8355328639999998,11.774933495333334,126.44528706666665,10.074457326333333,7.792315801
358,0.9944046666666585,-21.66172727,6.884012222333333,-44.62661236666667,-1.1026213566666667,1.3338671126666668,12.362808863333333,136.12237546666665,16.802694003,11.132870355666666
359,0.9971823333333228,-20.455498376666664,6.954670588333333,-44.554936733333335,-0.8176493396666666,1.4765883686666665,10.45244821,142.28353373333331,4.653058688000001,10.506827671666665
360,0.9999599999999873,-19.176882426666666,7.126986662666667,-44.51328530000001,-1.9188801746666666,1.1879261036666666,11.292823156666666,151.3372803,17.530652046666663,11.25635942
361,1.0027376666666517,-17.844111763333334,7.1517267229999995,-44.43365476666667,0.36619534066666665,0.7958741086666666,9.327305477666666,157.33243306666668,-0.38825168199999993,9.402973493
362,1.0055153333333162,-16.44867579,7.262714227,-44.35383096666666,-1.938108037,1.4257806143333334,10.659112296333335,164.7582906,9.684135437333333,12.594998996666666
363,1.0082929999999806,-14.991805393333332,7.255098184,-44.254053766666665,1.584378302,0.8792678116666667,9.546433449666665,171.92086283333333,-4.283432930999999,10.596864066
364,1.011070666666645,-13.469836556666666,7.247886021999999,-44.1381734,-1.9805591106666665,1.1929014323333333,10.075879095666666,179.37735999999998,-4.482890049333333,12.80777836
365,1.0138483333333093,-11.891357743333336,7.210476080666666,-44.02814736666667,0.603214383,1.012765795,11.003050486333334,186.3601125,-7.444365343,11.184488296
366,1.0166259999999736,-10.291124344666667,7.1360376673333334,-43.886438999999996,-1.249171277,0.032118161666666666,15.09368388,188.43547056666668,-12.2273674,14.308362010000002
367,1.0194036666666382,-8.648631731666667,7.0212148029999994,-43.75337216666667,0.09493241699999995,0.42011306666666665,8.837069352333332,193.74108376666666,-16.392334936666668,12.714925446666664
368,1.0221813333333027,-6.9881016413333334,6.887955188666666,-43.59813436666667,-1.403867205,0.2225195963333333,11.037381964666665,195.57996623333335,-18.53737131666667,15.296681403333332
369,1.024958999999967,-5.329414208666667,6.73901844,-43.4676819,-1.064009766,-0.9625426926666667,14.678226153333334,195.7886352666667,-19.643843333333333,12.889460243333332
370,1.0277366666666694,-3.671916087333333,6.586525440333333,-43.31670123333333,-0.8681285126666666,-1.3386587896666666,10.591522532,195.38829036666667,-19.856300356666665,15.587767283333335
371,1.0305143333333338,-2.0613520540000003,6.3891978263333336,-43.187291433333336,-0.2782504606666667,-1.1926891406666666,9.264196079666666,190.11235553333336,-24.640971503333333,13.578456563333333
372,1.0332919999999983,-0.4423304523333333,6.165194988,-43.06305950000001,-0.8251091536666667,-0.8745795786666667,10.638553302666665,191.25110370000002,-27.425210953333334,13.21853892
373,1.0360696666666627,1.1561671896666665,5.958327770333334,-42.95550790000001,-1.4150555533333335,-1.2110371986666666,13.123087562,189.06563819999997,-24.977912903333333,12.316622736666666
374,1.038847333333327,2.682885885333333,5.739068031333335,-42.8422775,-1.9594934783333333,-2.1299882333333335,11.508664131333333,180.42207336666664,-26.10395431666667,13.333426796666666
375,1.0416249999999916,4.1889142989999995,5.463762283333334,-42.775693233333335,1.1605871319999999,-1.6518601183333332,10.535728770333334,178.53332013333332,-32.74745623333333,9.249164582333334
376,1.044402666666656,5.677354495,5.252860466666667,-42.70575713333333,-3.7119274929999997,-1.659165144,15.625533106666667,176.40368650000002,-24.75955835666667,9.818523406333332
377,1.0471803333333203,7.06552426,5.002303918333333,-42.640413900000006,1.6286506060000001,-2.1207752626666667,10.964568136666665,164.47381593333333,-29.276707333333334,10.409280776333333
378,1.0499579999999848,8.414495468,4.682272434333334,-42.6029612,-2.398810108333333,-2.4344406923333337,10.376360574333333,160.0705058,-37.72453307999999,8.967044830333332
379,1.0527356666666494,9.746239345333334,4.441642284333334,-42.55096436666667,-0.6419663033333333,-2.896506706666667,9.137766679666667,157.91104123333332,-27.804398216666666,10.031167982333333
380,1.0555133333333135,11.007613496666666,4.067641417333333,-42.56402843333333,0.7397050759999999,-1.4734924236666667,10.590366366,150.0161031,-44.66479873666666,6.147894859333333
381,1.058290999999978,12.177218436666665,3.7985293073333337,-42.55518849999999,-2.184772451666667,-2.361079017333333,16.027099293333332,138.89159646666667,-31.706270853333336,6.875475883666667
382,1.0610686666666427,13.25346947,3.464836716666667,-42.57509103333334,0.7970098976666667,-3.144137621,12.954377176666668,127.82941946666666,-39.821795146666666,6.0754550300000005
383,1.0638463333333068,14.265527406666665,3.1127045950000003,-42.60814156666667,-1.3668089309999998,-3.260644913,9.267721018333333,120.28150433333333,-42.27905655,5.562616507333334
384,1.0666239999999714,15.219917933333333,2.749398231666666,-42.65637206666666,-1.843698422,-2.401031534,10.554500104333334,113.37818656666667,-43.86879221666666,5.1116477646666665
385,1.0694016666666357,16.128294943333334,2.4261081620000002,-42.7078069,-0.6510240436666667,-2.4607588446666666,12.224716506666667,107.8743032,-39.31746546666667,3.8957786560000005
386,1.072179333333338,16.948190053333335,2.0211111706666665,-42.78910316666667,-1.177387049,-3.0849454400000003,12.582682608333334,97.319369,-49.601871493333334,4.098213752333333
387,1.0749570000000026,17.708476383333334,1.729200174,-42.839106233333325,-1.440421432,-1.6117092370000001,12.833417255999999,90.04456075,-35.52453994666667,4.098170519
388,1.077734666666667,18.383811950000002,1.357889414,-42.93345133333333,-0.554384192,-3.516635418,9.271675428333333,79.86459350333332,-46.10864893666667,2.6243988276666665
389,1.0805123333333313,18.974889756666666,1.0042713283333333,-43.01173906666667,-0.7571778496666667,-2.3339726923333335,13.377017339666665,69.74581400666666,-43.513406116666665,4.102797587333334
390,1.0832899999999956,19.525094353333333,0.7160907390000001,-43.090332,-4.362640142333333,-2.809857765666667,10.011989116666667,64.72583007666667,-35.99519475333334,2.092057188333333
391,1.0860676666666602,19.99401410333333,0.39664854599999994,-43.15099080000001,2.8257039783333333,-2.3070513406666664,9.411069233666666,54.90389633,-38.845343273333334,5.490411440666667
392,1.0888453333333246,20.414882656666666,0.11302452266666663,-43.25709533333333,-6.414497057333333,-2.9207913083333334,12.378730776666666,49.16524887,-36.57638804333333,-0.5654489696666666
393,1.091622999999989,20.7551473,-0.12236070533333332,-43.28644310000001,2.162286381,-1.2527974053333333,13.8888429,39.39783732,-27.990510303333338,6.022188345666667
394,1.0944006666666535,21.042719523333332,-0.3370818993333333,-43.36822,-5.470056057,-3.9747332733333334,7.436646143333333,33.05014419333333,-27.810134886666663,-0.361899813
395,1.0971783333333176,21.267940523333333,-0.576935758,-43.39387003333332,2.3776619036666666,-1.0888300636666666,10.368141013666667,25.571812313333336,-28.26009369,6.935698986333333
396,1.0999559999999822,21.457237246666665,-0.6896658539999999,-43.4433034,-6.510594368,-1.8213864963333333,10.744418301000001,21.25710042333333,-14.999815623333333,-0.9804793336666666
397,1.1027336666666467,21.639783859999998,-0.846836368,-43.42043556666667,2.26105688,-1.6266330876666668,8.405213514666665,20.508167903333334,-16.827266056666666,8.928561369666667
398,1.105511333333311,21.756238303333333,-0.9595175186666666,-43.46068830000001,-4.389846801666667,-1.8800912699999996,11.739336333666666,12.47713693,-14.590333939999999,0.12070285799999998
399,1.1082889999999754,21.81607182666667,-1.067304393,-43.42536416666667,2.1004057326666667,-1.8105469946666666,11.112428028666669,5.855299552333332,-10.715366364333335,8.245269934000001
400,1.11106666666664,21.898491543333336,-1.1169723173333332,-43.42882286666668,-6.972309748333333,-1.9401865403333334,12.069369633333332,8.500967979333334,-5.929969072333333,1.4540135066666666
401,1.1138443333333043,21.928268433333333,-1.22415631,-43.389022833333335,4.907877922,0.6945287883333333,11.924697080333333,2.230957836,-10.455451010666666,8.652614275666666
402,1.1166219999999687,21.928602853333334,-1.229971528,-43.39503986666666,-6.405533949666666,-3.1776232720000004,6.386999448333333,-1.3784128430000002,-1.160320461,-0.7957915466666666
403,1.119399666666671,21.945146563333328,-1.3495225906666668,-43.34874980000001,3.7941381929999998,-0.04010686533333333,10.380804221666667,0.6990169183333333,-11.533409753333332,9.963840801666668
404,1.1221773333333356,21.924570716666665,-1.3557317106666666,-43.3630676,-6.029359022666667,-0.754440407,12.995561283,-3.89991653,-1.5778752766666668,-1.6950519880000001
405,1.124955,21.90925534666667,-1.37472033,-43.28534953333334,2.25375998,-1.4552859466666666,10.075318178333333,-3.014975389,1.0672128996666668,8.952734947333333
406,1.1277326666666643,21.92780558333334,-1.3954794460000002,-43.301172900000005,-5.380939960333333,-0.24353840966666665,12.350130084,0.7863100693333333,-3.2642183306666666,-1.2128425836666665
407,1.1305103333333288,21.890146256666668,-1.4528551546666666,-43.22414653333334,4.407971779333334,0.4432946343333333,10.065093358666667,-5.721597751,-3.231945112,10.599415776666667
408,1.1332879999999934,21.856927873333333,-1.4234561326666666,-43.243555733333324,-5.380318959333334,-2.5745154219999997,10.807858148666668,-5.432856242,2.1606504123333337,-3.8561035790000004
409,1.1360656666666575,21.81556193,-1.5381266786666663,-43.17455546666667,3.667251825333333,-0.38062211900000004,10.004039765666667,-6.15366745,-9.98493417,12.28061485
410,1.138843333333322,21.735719683333333,-1.508416950666667,-43.2091522,-4.569007476333333,-0.8654143836666667,13.226164501333335,-11.086592676,1.526749412,-5.5579907099999994
411,1.1416209999999867,21.678009669999998,-1.5688905256666665,-43.1261495,0.6115292013333334,-1.6580386956666668,8.097639560333333,-8.03187863,-3.3322461843333335,11.46931394
412,1.1443986666666508,21.633259453333334,-1.586944892,-43.167566966666676,-3.297202904666667,0.449556589,12.220022363,-6.901474952666668,-4.090610901333334,-4.198122421666667
413,1.1471763333333154,21.54950269,-1.5970825929999999,-43.068064366666654,-0.8401289383333332,-0.9115088283333334,10.321503004666667,-11.103688240000002,2.9825691776666665,11.056041396666666
414,1.1499539999999797,21.520085653333336,-1.578912206,-43.09070843333333,-2.4338001906666666,-0.07366536033333326,8.194432576666667,-4.992739359666667,0.7870356739999999,-3.701226711
415,1.152731666666644,21.476950326666667,-1.6086944079999999,-43.00728863333333,-1.6355898379999998,-0.40024201066666665,12.722007115666665,-6.270864963666667,0.06869314100000005,10.152117728999999
416,1.1555093333333086,21.420933403333333,-1.5279931139999998,-42.97658286666667,-0.3195154270000001,0.2888447843333333,9.138399283666667,-8.043665091,10.116271018666668,-0.5010743739999999
417,1.158286999999973,21.410575233333333,-1.4790337656666666,-42.915624,-4.033050298666667,-0.21012903233333335,11.732514063333333,-2.4013902346666662,7.876992225666666,4.231489261
418,1.1610646666666373,21.390204746666665,-1.3754856040000003,-42.85311123333333,1.4126693406666668,1.0006432733333332,11.836552935999999,-3.6867769560000005,14.058969495333335,2.0540741
419,1.1638423333333017,21.38325055333333,-1.233759294,-42.7892151,-4.438587506666667,-1.836210529,8.911938587333333,-2.0164129733333334,18.362009683333333,0.4808348613333333
420,1.1666200000000042,21.422221500000003,-1.0691313546666665,-42.70799256666667,-0.28679158299999985,0.43286260966666673,10.328328133,3.483605464,21.700224556666665,1.482881134
421,1.1693976666666686,21.482126870000002,-0.9265772503333333,-42.67282103333333,-2.333072523,-0.8031962909999999,9.619988760666667,5.883894761333333,17.177222253333337,-2.8330888353333337
422,1.172175333333333,21.561702093333334,-0.7136872413333334,-42.56506603333334,-1.3857851823333334,0.06689713633333332,10.713239989666667,8.357406139333333,28.258759816666664,2.2738072473333335
423,1.1749529999999975,21.63694,-0.5476222136666667,-42.5448532,-0.6130019826666666,0.6546305216666667,11.942747591333335,7.656623045333333,19.139362333333334,-5.577613036
424,1.1777306666666616,21.70174344333333,-0.26274014999999995,-42.402679433333326,-2.2032714533333335,-0.13660142033333333,11.479971887,6.515599727666667,37.816518146666674,2.836972475
425,1.1805083333333262,21.774480183333335,-0.052239382,-42.34293363333334,-0.39090010533333336,-0.7356093426666668,10.256452878,7.3770202,25.833684923333333,-3.1897257170000004
426,1.1832859999999907,21.852575936666664,0.21313950400000006,-42.21816,-1.4947299136666665,-1.1043287516666667,10.222866852666668,7.969771067333333,34.87652333666667,1.676278472
427,1.1860636666666549,21.97923406,0.44019854033333333,-42.16592406666666,-1.7127581440000001,-1.2110932916666666,9.326921302999999,13.815060299999999,27.33003997666667,-4.842374801666667
428,1.1888413333333194,22.113771439999997,0.6689697109999999,-42.04448956666666,0.19505303333333332,0.8422094086666666,11.919530551333333,14.610969226666667,30.660627363333333,2.8033829530000003
429,1.191618999999984,22.225428896666667,0.9265210230000002,-41.9914805,-1.6217502553333334,0.2542216133333333,12.494915643333334,11.946844735,30.738463083333333,-6.260466416666667
430,1.1943966666666483,22.30141258,1.161396424,-41.86575316666666,0.03572810699999995,-1.2142360706666666,11.351924259999999,7.470624766333334,31.54589462,2.892033338333333
431,1.1971743333333127,22.423810959999997,1.4079670806666666,-41.82913463333333,-2.9016513823333336,-0.46791509766666667,10.240744271666665,13.241439816666668,28.75063324,-7.676550070333334
432,1.1999519999999773,22.579604470000003,1.5861315876666666,-41.7251765,0.385642429,-0.8449171386666667,10.671748479666666,16.9966081,24.268992103333332,2.944644689666667
433,1.2027296666666416,22.72515424,1.8160030246666665,-41.684438066666665,-1.0484280289999999,0.18312459666666667,12.178836505,15.936400096666668,27.05746142,-6.606958230333333
434,1.205507333333306,22.831720989999997,1.962814316,-41.6072566,0.7383917173333333,0.2529658676666667,10.276926678333334,11.122537930666667,19.572422030000002,1.3233728009999999
435,1.2082849999999705,22.93950335,2.160377194666667,-41.5687332,-2.389246583,-1.8363540173333333,11.206260921,11.41922887,23.357152303333333,-5.438306649666667
436,1.2110626666666349,23.063530603333334,2.2462289930000003,-41.5119985,1.1729736053333333,-2.188456257,11.398188431333333,13.252494493333332,11.886050701333334,1.843123873333333
437,1.2138403333333374,23.154644649999998,2.400866588,-41.48765816666667,-2.280847549666667,0.29371558999999997,11.658593496,9.462110996666667,17.9321359,-5.0783996579999995
438,1.2166180000000015,23.159690219999998,2.507848521,-41.431007400000006,1.0338829360000001,-1.7081892886666665,8.795770328666668,-1.0634905496666667,14.220346610666667,0.7960008726666666
439,1.219395666666666,23.166010540000002,2.583067854333333,-41.432281499999995,-1.4800782253333333,-1.7581544319999998,11.176435628,-0.5797911086666667,7.955598672000001,-4.168879190999999
440,1.2221733333333304,23.17928759333334,2.647466957666667,-41.387878433333334,0.10879394400000002,-1.1473760006666665,10.546269098666668,-0.01927470666666668,8.943360247333333,1.4530828793333335
441,1.2249509999999948,23.15019353,2.694975614666667,-41.386957800000005,-0.9894495306666666,-0.031512997999999987,11.984869956999999,-4.850371202000001,5.052643061,-2.5035268466666665
442,1.2277286666666594,23.075313566666665,2.7653626599999996,-41.37879436666666,-0.18784247833333337,-2.6081489723333333,9.297681172,-10.395761172333334,7.898667930666666,-2.812614282
443,1.2305063333333237,23.010979970000005,2.758603294666667,-41.38845316666666,-2.4076701403333334,0.14513066966666668,13.425175346666668,-8.995942752,-1.4838965733333334,-1.2243093253333335
444,1.2332839999999883,22.9276886,2.857239127333333,-41.384206133333336,-0.421633373,-1.4627151886666667,9.628923256666667,-11.39669037,10.842803837666665,-4.554315249
445,1.2360616666666526,22.785792033333333,2.805318951666667,-41.4205246,-0.06492129966666667,-1.098549525,14.108493646666666,-18.170223873333335,-7.679757477333333,-1.9876482886666667
446,1.238839333333317,22.600867589999996,2.9323214293333333,-41.4161224,-2.5608174006666666,-1.6702184673333333,10.602980613666666,-23.545432406666663,14.012247406666667,-5.777499675666667
447,1.2416169999999813,22.409826913333333,2.8676065603333334,-41.457575500000004,0.7275218506666667,-1.6919422943333335,9.177191256333334,-24.053684869999998,-9.358507791666666,-2.105755925
448,1.2443946666666459,22.201949436666666,3.0091284513333334,-41.4618047,-4.538402398333333,-0.9572797416666665,14.55038929,-26.22593816,15.267429669999999,-7.2948419253333325
449,1.24717233333331,21.87966855333333,2.9823158183333334,-41.4783071,2.185959458333333,-2.4653263093333333,9.900743323999999,-39.98431015333333,-4.015049734000001,-1.1541833283333334
450,1.2499499999999746,21.518786746666667,3.059504032333333,-41.522544866666664,-3.2297234536666664,-2.9806829290000003,7.669158179666667,-44.31313578,6.396838902333333,-8.708514531333334
451,1.252727666666639,21.087265650000003,3.081390857666667,-41.531072,0.171387459,-2.4476337433333333,10.418694338666667,-53.13973363333333,1.7875204086666667,-2.4308225313333334
452,1.2555053333333037,20.580795286666667,3.1281592050000007,-41.5830129,-2.4686405656666666,-1.3785152829999998,16.258509,-61.71306737333333,2.782341957,-8.166547298666666
453,1.258282999999968,19.99925168,3.277482390333333,-41.561164866666665,-1.9175347040000001,-2.5304800666666667,9.585846425,-71.34456125666667,17.416584173,-4.323729515
454,1.2610606666666702,19.3244826,3.254712462333334,-41.62511189999999,0.01138242066666669,-2.2041043043333333,12.266943294,-81.83489736,-5.401491322666666,-6.6507326760000005
455,1.2638383333333347,18.611709596666667,3.45543921,-41.617563866666664,-2.64169088,-3.5625686646666668,9.990212757666667,-86.95883941666666,22.767763776666666,-7.558327993
456,1.2666159999999989,17.82950083333333,3.4256022773333332,-41.675308199999996,0.3458321886666666,-0.9499139983333333,11.280583243666667,-94.77745819333332,-5.817372878666667,-5.818789164000001
457,1.2693936666666639,16.992556890000003,3.6789948146666673,-41.64812976666666,-4.459591070999999,-1.0282920973333334,13.034022647333336,-101.97346496666667,29.6874129,-6.577109495999999
458,1.272171333333328,16.054130553333334,3.6837014356666664,-41.70614623333334,3.5054930053333333,-3.32765309,8.898786068666668,-113.55356596666667,-1.6888683233333337,-7.216270288
459,1.2749489999999923,15.083411853333333,3.8298447926666666,-41.711746233333336,-5.118007342,-0.6367913286666667,10.311575553333334,-117.73094433333331,16.412639141333333,-5.9321355816666665
460,1.2777266666666565,14.070499736666667,3.9563362596666667,-41.74511973333333,2.0115800696666666,-1.5446830593333332,7.652246791666666,-122.66212209999999,13.431253089,-8.085908094999999
461,1.2805043333333213,13.035736716666667,4.052969932333333,-41.7705485,-3.835729519333333,-0.9687060116666667,15.142195066666664,-125.26946766666667,10.259279966,-6.292541344666667
462,1.2832819999999856,11.933177630000001,4.23708868,-41.76562753333332,1.3649678826666667,-0.412140727,8.943486929,-133.71977233333334,21.44673379,-4.6022144156666664
463,1.28605966666665,10.813819566666666,4.263948917333334,-41.8352966,-2.64407448,-1.3508677880000002,13.450701076333331,-135.02839153333332,1.22456344,-9.413965544333335
464,1.2888373333333145,9.697405815999998,4.504696051,-41.83165233333333,-1.8481100003333335,-0.6631128986666667,10.068283079333334,-135.32009376666667,28.198516843333334,-5.405779202666667
465,1.2916149999999789,8.562795003333333,4.624154011666667,-41.88615926666667,-0.7309233543333332,0.9004517343333333,8.324551900333333,-136.98524476666668,12.833525973999999,-9.368405024
466,1.2943926666666432,7.412304719000001,4.783475478333333,-41.90545146666667,-0.374574537,-0.13857912033333333,10.466552574333333,-139.17979943333333,18.315857253333334,-5.637065251666667
467,1.2971703333333078,6.278891245333334,4.919458548333333,-41.96939596666667,-1.0930014353333333,-1.311952432,8.114608764333333,-136.71878053333333,15.019445416666668,-10.174511588666668
468,1.2999479999999723,5.175026257666667,5.091799497666667,-41.9990362,-2.5985981623333334,2.0221914450000003,12.214326701,-133.45785013333332,19.940073646666665,-6.28112936
469,1.3027256666666365,4.0649919510000005,5.326483647,-42.081502300000004,-0.9100972516666667,0.37015172333333335,11.370588620333335,-133.65722146666667,27.01681773,-12.725593570000001
470,1.305503333333301,3.0080885093333336,5.467593510666667,-42.10962169999999,-1.1557600596666668,-0.11699831466666666,9.985188168,-127.82135520000001,16.421116826666665,-5.096099694666667
471,1.3082810000000034,1.9378146726666667,5.6689999900000005,-42.19600933333333,0.9312703906666666,1.3176292576666668,8.744634946333333,-128.79026796666668,23.45176379,-11.984979946666668
472,1.3110586666666677,0.8922213713333335,5.798647403666667,-42.24627683333333,-2.26917088,0.04802100133333334,11.418503125,-126.12796780000001,15.133777935,-7.487873872000001
473,1.3138363333333323,-0.12300646833333333,5.967141469,-42.33234660000001,0.51584357,0.138530463,12.217079163333333,-122.12763723333335,19.909777323333333,-11.005015373333334
474,1.3166139999999966,-1.1318536399999999,6.120859941,-42.37016296666667,-2.4194854496666665,0.8215022706666666,7.253514926666667,-121.84631089999999,18.250296589999998,-5.374425093
475,1.319391666666661,-2.1404013633333334,6.167269071,-42.47143806666667,3.8536756036666664,0.072386116,7.808981100333333,-121.09974670000001,5.680214921,-12.522433596666668
476,1.3221693333333253,-3.1368363696666663,6.249581337333333,-42.52717083333333,-3.3898140986666667,-1.3279647526666667,11.422761280666668,-120.10858153333334,9.953300794666667,-7.2229045229999995
477,1.3249469999999899,-4.158324639,6.259975910333334,-42.60881296666667,1.221822212,0.5608871503333334,12.531400677999999,-122.88140613333333,1.6409679453333332,-10.246172904
478,1.327724666666654,-5.174093405333333,6.315227985,-42.67449186666666,-1.6706780393333336,-0.06850834166666665,9.518168608666667,-122.3162562,7.034125486000001,-8.106056531666667
479,1.3305023333333186,-6.222138246,6.217054049333334,-42.75138346666666,2.588024258333333,-0.7618901083333333,9.730172476333335,-126.1276957,-11.029074033666665,-10.888731953999999
480,1.3332799999999831,-7.267251650333333,6.186107953333334,-42.83325706666667,-4.169611613,-0.15980756266666665,14.329680599666668,-125.656573,-2.743181862,-10.89049816
481,1.3360576666666477,-8.319345156333332,6.134481589,-42.90613046666667,2.027901093,0.026801591000000013,7.967297476,-126.6753413,-5.1652971223333335,-10.062712669
482,1.3388353333333118,-9.348353068,5.995626290666666,-42.97528586666667,-2.1724772056666666,0.034652466666666625,8.890752156333335,-123.94371543333334,-15.421275137333334,-11.240340236666666
483,1.3416129999999764,-10.39805317,5.907808145,-43.04573059999999,1.3641205626666668,0.8862914643333332,9.761350951333334,-126.45303086666667,-9.149296363666668,-10.637052537666667
484,1.3443906666666408,-11.439473153333333,5.731076399666667,-43.122098300000005,-3.408708373666667,-0.455588778,12.150101342,-125.43612926666667,-19.389680863,-13.098753933333333
485,1.3471683333333055,-12.46009795,5.665981610666667,-43.18673196666666,0.6075281500000002,0.37094349666666665,9.638993104999999,-123.0689087,-6.2576593769999995,-9.665960947666667
486,1.3499459999999697,-13.473216693333333,5.436435063666667,-43.24549353333334,-1.778439382666667,0.8405405183333334,13.922039666666668,-122.294754,-25.579168956666667,-13.110836663333332
487,1.352723666666634,-14.48847771,5.3378930093333326,-43.29120893333334,0.6432067203333335,-0.7841738066666667,6.460814853666666,-122.68777976666667,-10.369166852666666,-8.637577533666667
488,1.3555013333333363,-15.491217293333333,5.074078877666667,-43.32999673333333,-1.360321184,0.3751917023333334,13.008712928333333,-121.29069773333333,-29.626633326666667,-13.041497863333333
489,1.3582790000000007,-16.491320293333334,4.971075137666666,-43.3796336,-0.5062425536666667,0.639927437,15.052261033333332,-120.86655936666666,-10.471791901333335,-9.538259823
490,1.3610566666666655,-17.45098559,4.691760778333333,-43.38429263333333,-1.9192728996666668,0.8158504466666666,9.094404857,-116.48548126666667,-32.13951556,-10.697318713333333
491,1.3638343333333296,-18.401910783333335,4.581752220666667,-43.4134623,-0.4891546963333333,0.8942984543333333,7.662161190333333,-115.21637473333334,-11.723997434333333,-7.763971487666667
492,1.366611999999994,-19.315999986666668,4.283139467000001,-43.4156596,0.21139931666666664,0.02731343599999995,8.841141223000001,-111.04450479999998,-34.0677948,-12.217351276666667
493,1.3693896666666585,-20.202017466666664,4.131922404,-43.422327700000004,-1.436522275,0.41010469966666663,11.535580635333332,-107.65846763333332,-17.058576586666664,-7.228584130666666
494,1.3721673333333229,-21.044370016666665,3.8530210653333334,-43.41444906666667,-0.6763658323333334,1.5377127326666666,12.937890371,-102.52876536666668,-31.89773814,-11.289052326666669
495,1.3749449999999872,-21.86452420666667,3.700058857333333,-43.41208393333334,-1.8028676709999998,0.18687239933333336,9.306660968666666,-99.83816781333333,-17.449676513333333,-6.768750985666666
496,1.3777226666666518,-22.611481983333334,3.493373076333333,-43.40983583333334,-2.0691503686666666,2.2776398656666665,10.156104405333332,-91.03897349,-23.300891876666668,-9.522884367666665
497,1.3805003333333161,-23.33266449,3.3360496363333336,-43.39340719999999,-0.7063587903333333,1.9063978196666669,13.203766503333332,-88.05068206666668,-18.41566403666667,-5.8764166829999995
498,1.3832779999999805,-23.96334457,3.1871112189999997,-43.38654583333334,-2.8220437366666666,1.249683738,10.023884139000002,-77.12420908666667,-16.942013740000004,-6.8032379149999995
499,1.386055666666645,-24.543793363333332,3.033376535,-43.36028543333333,-0.4014050763333333,2.273472388666667,8.004863581666667,-71.21442922,-18.383321123333335,-5.026569843333333
500,1.3888333333333094,-25.052384056666664,2.9704915683333333,-43.379074100000004,-3.0216420093333327,1.3117335636666667,11.251896858666667,-62.31117248666666,-6.146715879666666,-5.600242932666667
501,1.3916109999999737,-25.497798283333328,2.817786177,-43.336257933333336,0.7651051433333333,1.931603233,11.678498269666667,-55.09604644666666,-19.020252866666667,-3.527248779666667
502,1.3943886666666383,-25.890430449999997,2.7885178330000002,-43.356160499999994,-3.1472717523333333,1.4875888030000002,9.234771251,-48.40435664,-2.3708969256666665,-4.064436753333333
503,1.3971663333333026,-26.199326836666668,2.6787076793333333,-43.33477783333333,-0.38044734799999996,1.5007034143333333,9.312294481666667,-38.58267974666666,-13.237639109999998,-3.800709486
504,1.399943999999967,-26.469004313333333,2.677175562,-43.34801229999999,-2.3494181833333334,0.8861085970000001,12.284840264333333,-33.68859354666667,0.2983549106666667,-1.8990113733333331
505,1.4027216666666693,-26.67384020333333,2.6025908786666663,-43.333201066666675,-0.44644757133333335,1.0646664696666666,11.37937069,-26.062179566666668,-9.070856096,-2.733121633333333
506,1.4054993333333339,-26.85506439,2.596774141,-43.344070433333336,-1.1387420593333333,0.906396446,9.278764407999999,-23.087270103333335,-0.27631378933333334,-1.8782031536666668
507,1.4082769999999982,-26.978773753333332,2.5444500446666667,-43.349695833333335,-1.9508341053333333,0.282058358,11.426026027,-16.218564666666666,-5.560821930333334,-3.770189841333334
508,1.4110546666666626,-27.089303970000003,2.5696411136666666,-43.362899766666665,-1.0012082260000001,0.6698759496666667,11.744567872666666,-14.583420436666666,3.169719651333333,-0.4390536843333333
509,1.4138323333333271,-27.167392093333333,2.5168399416666665,-43.3576304,-1.4272413653333336,-0.04881022400000001,10.588096936,-10.818203928,-6.193561156666667,-2.650411844333333
510,1.4166099999999917,-27.23604011666667,2.568709453,-43.38357033333333,-1.0669722160000001,0.284013852,9.343032040333334,-9.491035779,6.716010808999999,-0.3288526486666667
511,1.4193876666666558,-27.293814980000004,2.499120275333333,-43.38149006666666,-0.679277271,0.187314031,12.299123445333331,-8.357076327,-7.8063613573333335,-3.925300995666667
512,1.4221653333333204,-27.325917559999997,2.5874336163333336,-43.41263833333334,-3.2628079653333337,0.05325245366666669,10.684848150333332,-5.097967625,10.805234273333333,1.3021467326666667
513,1.4249429999999847,-27.366260526666668,2.541444937666667,-43.41492713333333,0.9731858843333333,-0.7437187829999999,9.034895418666666,-6.225024223333333,-5.034380277,-3.134461244
514,1.4277206666666495,-27.381820676666667,2.5969938436666666,-43.425928766666665,-2.236555457,0.530673941,10.612779297000001,-3.251501162666667,6.203887701666666,1.66161259
515,1.4304983333333137,-27.417150496666668,2.5953992209999996,-43.45848083333334,0.32350259499999995,-0.8419143956666666,10.160857998333334,-5.442047755,1.3644324936666667,-3.910060167333333
516,1.433275999999978,-27.442403156666668,2.5934175649999998,-43.437840766666675,-2.582881252,-0.12226041133333333,13.854994456999998,-4.585576216333333,-1.5942899386666667,1.7066168783333333
517,1.4360536666666424,-27.474630356666665,2.668547749333333,-43.49983726666667,-1.4726728523333332,-0.447659219,10.533541044,-4.933622519,11.165101685000002,-2.782803535333333
518,1.438831333333307,-27.512770333333332,2.6603418986666667,-43.4733836,0.06369401999999995,-1.247254809,9.914846738333333,-6.137627601666668,-2.6623224616666668,2.1103910210000003
519,1.4416089999999713,-27.541454950000002,2.700590888666666,-43.511438999999996,-2.776878794,0.46939475833333333,12.853299139333332,-4.676198641666667,6.135685999,-2.1490899323333337
520,1.4443866666666356,-27.59188207,2.75364995,-43.527277633333334,0.02258333066666668,-0.7144944866666667,7.826335988,-7.342044353333333,6.191402593666666,1.0068272950000001
521,1.447164333333338,-27.667070390000003,2.717626253666667,-43.51470950000001,-1.155110323,-1.2782065273333334,14.343816436666666,-10.560948373666667,-4.790003935666667,-0.9873861869999999
522,1.4499420000000025,-27.742316563333333,2.8371322553333336,-43.56746416666667,-1.8194858333333332,-0.8686261973333332,10.91225672,-10.125485102666667,15.391999880999998,0.6593660886666667
523,1.4527196666666669,-27.85680262,2.8044520616666664,-43.549753833333334,0.7271129289999999,-0.480182603,11.085423470999999,-15.249954223333333,-4.726071,-0.28597453366666664
524,1.4554973333333312,-27.95677821,2.856914759,-43.570129400000006,-3.244826634666667,-1.4276429216666664,12.212116876333333,-13.34264024,6.373882055,0.5714024750000001
525,1.4582749999999958,-28.068561553333335,2.9176563026666664,-43.59231566666666,-0.06938501199999998,-0.4594107866666666,7.979829945666668,-14.68452072,7.415544351333334,0.7388128413333334
526,1.4610526666666601,-28.1937116,2.913434108,-43.598266599999995,-0.7248199980000001,-0.7604939736666666,11.967080753,-16.419347763333334,-0.4535086523333333,-1.0788675546666668
527,1.4638303333333245,-28.31841596,2.9626027743333334,-43.60877993333333,-2.0131688716666667,-0.30385363600000004,14.411520956666669,-16.349592213333334,5.521457353,1.3701827130000002
528,1.466607999999989,-28.451027553333333,3.025219202,-43.65201823333334,-1.0715341470000002,-0.450995644,8.231859525333334,-17.04954338,8.732612131333333,-1.2235795853333333
529,1.4693856666666534,-28.595813753333335,3.014870007666667,-43.61969503333333,-0.089045445,-0.6025192063333334,9.700218358999999,-19.01820564666667,-3.2005338669999994,2.4726967016666666
530,1.4721633333333177,-28.724522273333335,3.0995515983333335,-43.674468999999995,-2.3221781056666666,-0.7957439026666666,10.326540946666666,-16.549058276666667,11.718481703333333,-1.096712232
531,1.4749409999999823,-28.872718813333336,3.1017169953333337,-43.65004476666667,1.3411017459999999,-0.781031857,10.292498905333334,-19.34447797,-1.459721923,2.3657057286666663
532,1.4777186666666466,-29.00747108666667,3.110248804,-43.67098999999999,-3.0293173393333332,0.289642063,14.359970413333334,-17.516516366666668,1.765240033666667,-1.897771954666667
533,1.480496333333311,-29.116303123333335,3.1984217963333337,-43.68755086666667,-1.4914674159999999,-0.22926966599999998,10.610129990333334,-14.367502530000001,9.928190867,3.095549424333333
534,1.4832739999999756,-29.226224263333336,3.2150230406666664,-43.709798199999994,-0.8907607,0.214957642,9.433384734999999,-14.4888951,2.6739131213333334,-1.5422290959999998
535,1.48605166666664,-29.312248226666668,3.2563817500000005,-43.6913452,-1.2969222863333332,0.05291981233333334,11.911047618,-11.898595493333332,2.962354799,4.061590195
536,1.4888293333333043,-29.379388806666668,3.3389262360000003,-43.751586933333336,-1.268718541,0.03994832933333333,10.338979243333332,-9.087304750666666,11.797441484666669,-1.6137441
537,1.4916069999999688,-29.452415466666668,3.3382673263333333,-43.7152659,-0.014681533333333366,-0.42388904066666666,10.575557551333333,-10.434262590666666,-2.4864723083333335,3.43358016
538,1.4943846666666711,-29.514094670000002,3.3994697733333332,-43.75862123333334,-2.3170491853333335,-0.7534883416666666,13.757937749000002,-8.603963057333333,8.569063742,-1.0459274653333333
539,1.4971623333333355,-29.558983483333336,3.4704523883333334,-43.7810211,-0.4246769153333334,-0.20235999666666668,9.929551758666667,-6.619090716,8.417517223666666,1.5934019883333335
540,1.4999399999999998,-29.60838763,3.4510731700000004,-43.77885439999999,-0.6862341763333334,-0.14622866133333337,10.068938730000001,-7.430959224666666,-2.533555905,-1.0637550353333334
541,1.5027176666666644,-29.622065223333333,3.531574964666666,-43.80880226666667,-2.5988454819999998,-1.0414575633333334,10.993447938333333,-2.863752842,9.862788199333332,1.3901445069999998
542,1.5054953333333287,-29.64200337666667,3.5707104206666664,-43.82955933333333,0.10191732666666671,0.7143658996666665,10.308301922666667,-3.708297014333334,4.900285403000001,0.05410156666666668
543,1.5082729999999935,-29.66064199,3.598714669333333,-43.847447700000004,-0.9717857649999999,-1.3505947589999998,11.733575183333334,-3.526888052666667,3.6916775703333333,-0.503439255
544,1.5110506666666577,-29.672089260000003,3.611183723,-43.85289003333333,-0.7372920613333335,-0.22221118333333337,12.647238733333333,-2.829327086333333,1.208641802,0.08366036433333333
545,1.513828333333322,-29.682326633333332,3.672717015,-43.90287273333333,-2.084632516,-0.2664877276666667,9.387094177666667,-2.268904765333333,9.071281433333333,-1.8221411703333334
546,1.5166059999999864,-29.70892779,3.6654578846666666,-43.886016866666665,0.862110714,-1.9301879803333335,8.19532458,-4.798207998333333,-2.198977589666667,1.2711405756666665
547,1.519383666666651,-29.72121429666667,3.677277962333333,-43.90359496666667,-1.85109365,-0.32380972300000005,11.294735589666667,-2.7939579736666666,1.973371748,-1.3950494133333333
548,1.5221613333333153,-29.73642858,3.695920388,-43.9015554,-0.49855440866666667,0.12806961566666666,12.225100513333333,-3.3340643246666666,1.3627712326666668,1.3011519710000001
549,1.5249389999999796,-29.75136121,3.706029256333333,-43.92315163333334,-1.4619891643333334,-1.6386886836666665,11.2920866,-3.053195317666667,2.021838257666667,-1.903073589
550,1.5277166666666442,-29.768623986666665,3.692039728333333,-43.9034373,-0.8024177203333335,-0.4855885106666667,11.367929777999999,-3.7217694916666666,-3.0940246183333335,1.210631172
551,1.5304943333333085,-29.790833789999997,3.7297528586666666,-43.929056833333334,-2.364242792333333,0.25759334133333334,12.724956513333332,-3.9219618636666667,5.1536865233333335,-0.697923839
552,1.5332719999999729,-29.817980446666667,3.7492012179999996,-43.92970786666667,0.05839298899999997,-1.8707000809999998,9.070340793,-4.725036303333334,1.6054787633333334,1.060881853
553,1.5360496666666374,-29.83639399,3.7458921276666666,-43.925430299999995,-1.244632542,0.07048095733333334,11.274357479333332,-3.685585220666667,-0.8953327736666666,-0.04277577966666667
554,1.5388273333333018,-29.853604,3.7700676916666667,-43.913721699999996,-1.3923709393333332,-0.22075233500000002,10.823002814333334,-3.6649573646666664,1.361716772,2.6405287583333332
555,1.541605000000004,-29.847406386666666,3.835078637,-43.94135026666666,-1.6865697303333331,-0.6901551783333333,10.740149815333334,-0.4812104306666667,8.092100302333334,0.7698358096666666
556,1.5443826666666685,-29.82893117333333,3.8446590900000004,-43.922627733333336,0.25085713466666665,-0.028830486000000006,11.160332044999999,0.5882693726666667,-0.5774601796666666,2.488935391
557,1.547160333333333,-29.779389066666667,3.884818554,-43.921488466666666,-3.351135095,1.316714406,13.074158666666667,4.459703286333333,3.8174820566666665,2.2375656763333334
558,1.5499379999999974,-29.690015156666664,3.983324845333333,-43.946990933333325,-0.7060266136666667,-0.4012051646666667,9.236688612333333,9.463248569333333,11.310367901000001,3.195043245666666
559,1.5527156666666617,-29.567864099999998,4.017954985333334,-43.936391199999996,-1.050692558,1.154901822,8.794337591,13.12344583,2.703565597666667,2.8432826203333335
560,1.5554933333333263,-29.383916216666666,4.096605380333333,-43.94889833333334,-1.006149153,0.7967134316666667,9.953468958,20.672814686666666,8.501154581333333,3.313621123666666
561,1.5582709999999906,-29.15549787,4.168615579666667,-43.95164996666666,-0.7586043823333334,0.13512729099999998,9.456892807666668,25.99360720333333,7.371533870666667,3.702019294333333
562,1.561048666666655,-28.876827873333337,4.217962026666666,-43.949050899999996,-0.809705531,1.686144868666667,11.912414869333332,31.913489659999996,4.562104384,3.1451322236666663
563,1.5638263333333196,-28.529636383333337,4.317244211666666,-43.9478404,-1.849891344666667,0.7815480133333335,11.416145323999999,40.19005076,10.062174796333332,5.612514337
564,1.566603999999984,-28.12523333333333,4.421233415666666,-43.95983376666667,-0.8673318423333334,0.17003298300000003,8.658607324666667,47.15514246666667,11.207310044000002,4.646884282333334
565,1.5693816666666482,-27.65497589,4.486464341333334,-43.93140666666667,-0.6201237436666667,1.7541932663333333,11.471136093666665,54.711940766666665,5.050568739666667,6.356479962666666
566,1.5721593333333128,-27.13535118333333,4.585790396,-43.946055066666666,-1.7950221300000002,0.2621316763333333,10.118655999333333,60.987683616666665,10.941507973333332,3.9213388763333334
567,1.5749369999999774,-26.562205636666665,4.654883861666667,-43.9190318,-0.04317585366666666,0.4817053476666667,10.060935656666667,67.09028371333333,5.656875411666667,6.314028263333333
568,1.5777146666666415,-25.9293588,4.719981272666666,-43.91397093333333,-2.382861693666667,1.6030010780000001,14.07587433,74.3638738,6.301900943333333,4.004617293666667
569,1.580492333333306,-25.247908273333334,4.842959483333334,-43.91240439999999,-0.8969576556666666,0.49380810066666664,9.375259877,80.33125813666668,12.952981313,6.217106183333333
570,1.5832699999999704,-24.498433430000002,4.856264432333334,-43.875788400000005,-0.4785998263333333,0.6664932273333334,9.311766782,88.05080159333333,-0.8158403336666668,4.635730266666667
571,1.5860476666666348,-23.705603916666664,4.963961681000001,-43.87242633333333,-1.6525095056666668,1.4388355613333335,11.041756473333335,93.67085774333333,11.392251646666667,5.261009057333333
572,1.5888253333333375,-22.869028726666667,4.98955671,-43.8369039,0.1827721303333333,0.5302153129999999,10.740206718666668,98.56991831666666,0.9010137716666665,4.700665950666667
573,1.5916030000000017,-21.99161784,5.042846679666667,-43.802902233333334,-2.1622918843333334,0.07904516900000001,12.246257464666668,103.48608906666668,4.138466755666667,5.778681437
574,1.594380666666666,-21.0669206,5.122658252666667,-43.7769877,-0.5944464406666666,0.7911576923333333,10.457005183,109.23597210000001,7.531830261666667,5.975288390999999
575,1.5971583333333303,-20.11040306,5.120243072333333,-43.71632386666668,-0.6021768996666667,-0.09099110966666668,8.995137372,112.6961187,-3.025425036666667,6.217451413666667
576,1.599935999999995,-19.11727396666667,5.217534224333334,-43.695648233333344,-1.7661226293333332,0.22642292733333336,9.359618665,117.48685963333332,9.929279807,5.834264913999999
577,1.6027136666666593,-18.125993093333335,5.200720787000001,-43.6307373,0.3988647066666667,-0.7301076850000001,11.429020563,116.8317998,-4.607518275333333,6.251506964333333
578,1.6054913333333236,-17.115271886666665,5.270432472333334,-43.59180703333333,-2.1455373366666666,-0.5082287093333333,10.693461421,119.38799793333334,6.3254087766666665,6.560149192666667
579,1.6082689999999882,-16.102544783333332,5.229274114,-43.52845256666668,1.6208157936666667,-0.6364835703333332,10.427679221333333,119.42756143333334,-7.108347417333333,5.357186635333334
580,1.6110466666666525,-15.06810379,5.218524932666667,-43.46976216666666,-2.623812794666667,-0.07731899633333332,11.094078697999999,122.0090815,-3.366560856333333,6.017584482666667
581,1.6138243333333169,-14.034297306666668,5.186815103,-43.411687199999996,0.9841882786666667,-0.8894873063333333,7.396467685666667,122.02250670000001,-5.623132189666667,5.209786415333333
582,1.6166019999999814,-12.99792703,5.090386311333333,-43.340281166666664,-0.06506991399999999,-0.4302287249999999,13.527915316666666,122.12305959999999,-13.483486493333332,5.187972227666667
583,1.6193796666666458,-11.958628336666665,4.986177285666667,-43.285110499999995,-0.180910329,-0.30482512700000003,14.205240249999997,122.72912596666667,-13.8391215,3.2032691636666666
584,1.6221573333333101,-10.885492006666666,4.824828068333333,-43.213948566666666,-0.25949577500000004,-0.06746390433333331,9.543931324666666,126.577151,-20.926518759999997,4.222162405333333
585,1.6249349999999747,-9.796740533666666,4.648171345333334,-43.131472233333334,-0.03606501966666667,-0.5238647113333333,6.189061800333334,128.4238459,-22.824590046666668,5.318273703333333
586,1.627712666666639,-8.689105033666666,4.411835273333334,-43.05133563333334,1.3177240590000001,0.10734661400000002,9.615685146333334,130.6882477,-29.78791364,4.611834844
587,1.6304903333333034,-7.5789748826666665,4.113138039666667,-42.97211963333333,-1.0986639956666668,-0.13942200466666668,14.135818483333333,131.09939576666667,-37.026318866666664,3.7032429379999994
588,1.633267999999968,-6.437694708666666,3.8765621976666664,-42.896064766666676,-1.4401564043333333,-0.21133817266666663,9.264592489666667,134.86663309999997,-29.53217316,5.215270121666666
589,1.6360456666666703,-5.309794743666667,3.522987683666667,-42.814867633333336,0.4872485896666667,-1.0915412903333335,11.063292183333333,133.30633036666666,-43.40739313999999,4.688096364333334
590,1.6388233333333346,-4.162145455666667,3.2277190289999997,-42.74577586666667,-1.3080890773333333,-0.7019937733333332,12.201582589,135.79974876666665,-36.196746823333335,4.504201014666667
591,1.641600999999999,-3.019981781666667,2.8652954100000003,-42.690806066666674,-0.18130188700000002,-0.12720128133333333,9.770501138,135.30691023333333,-44.034791313333336,3.1873513859999996
592,1.6443786666666635,-1.880369584,2.5010552406666666,-42.6419907,-1.1447343033333333,-1.4231270156666669,12.581866263333332,135.0477397,-44.136709853333336,3.1126714146666665
593,1.647156333333328,-0.7431238493333333,2.134720802,-42.59472403333333,-0.20092913766666667,-0.6379614173333333,8.630482831333333,134.8353373333333,-44.30409241,3.9889456430000005
594,1.6499339999999922,0.4009347966666667,1.7700480123333335,-42.56249236666667,-2.5498347283333334,-0.17629819833333335,9.192418894333334,135.72240193333334,-44.007068633333326,2.7356194656666664
595,1.6527116666666568,1.554192821,1.396841984,-42.5281677,1.008038342,-1.005399704,8.377348104000001,136.86806233333334,-44.94570541666667,4.184038400333333
596,1.6554893333333214,2.689790169666667,0.9914610683333334,-42.50881196666666,-1.5066788196666667,-0.8147291343333333,12.934964019,134.78143820000003,-48.78544616666667,3.1171595253333337
597,1.6582669999999855,3.804594357666667,0.6369761823333332,-42.4982071,-1.329220871333333,-1.1544728679999998,14.19101016,132.35602313333334,-42.64464315,3.0456398329999996
598,1.66104466666665,4.930922508,0.23257729166666663,-42.48474886666667,-0.8032433586666666,-1.5352352856666667,11.895687738333331,133.69762673333332,-48.554134366666666,4.202171008
599,1.6638223333333144,6.015073776,-0.13287742933333332,-42.49278003333333,-0.29148445266666667,-0.6846159993333334,9.097587585333335,128.68615723333335,-44.00378799666667,2.5664386746666668
600,1.6665999999999788,7.089208602666666,-0.5270081756666667,-42.52102406666666,-2.13769567,-1.1292147436666666,8.865529377333333,127.43464403333333,-47.67156601,1.1230703343333335
601,1.6693776666666433,8.173260688666668,-0.8616408306666669,-42.54481763333333,-0.9209929306666668,-1.8336960079999998,11.112662315,128.6361211,-40.445953366666664,1.8456506726666664
602,1.6721553333333077,9.218181292333334,-1.27953582,-42.58979033333333,0.7259915570000001,-1.1644082666666666,12.040105499333334,123.83280180000001,-50.70107015,1.3603805896666668
603,1.674932999999972,10.214493749666667,-1.590055775,-42.648401899999996,-3.0030334790000004,-1.407150626,11.010358966666667,117.97209423333332,-38.18539429,-1.2537395556666666
604,1.6777106666666366,11.17889277,-1.9644893106666668,-42.70804086666667,0.07097101466666667,-2.931851307666667,9.221562067666666,114.05997213333335,-45.717520396666664,0.9078401496666667
605,1.680488333333301,12.115594546666665,-2.310522616,-42.8041331,-0.7171414,-2.292750120333334,11.262148223333332,110.5528946,-43.27630488,-3.530786275666667
606,1.6832660000000033,13.002069473333334,-2.674829006333333,-42.87837473333334,-1.9484677316666668,-1.0378451743333332,13.740715822999997,104.56762183333335,-44.84853871666667,0.4261490303333333
607,1.6860436666666676,13.811683656666666,-2.944339395,-42.95638533333334,-0.7400393486666665,-1.8611902399999998,9.372009594333333,95.25694783333334,-33.916375476666666,-2.2504103779999998
608,1.6888213333333322,14.566160836666668,-3.3443189859999998,-43.07885743333333,-0.08520811766666665,-3.619271278333333,9.952098051999998,88.29295349,-50.370774589999996,-2.851410865666667
609,1.6915989999999965,15.300822893333333,-3.580752690666667,-43.16371663333334,-4.262059529666666,-1.753117045,14.742953937666664,86.15536753333333,-30.33024788,-3.1154399713333336
610,1.6943766666666609,15.986520446666665,-3.9212844373333327,-43.282196066666664,2.1586121719999998,-2.5501514276666666,9.095856904666666,79.88288116666666,-43.41678492333333,-3.0685908000000004
611,1.6971543333333254,16.604210536666667,-4.228639841,-43.385554000000006,-2.888973633333334,-2.518407583,11.859886488,71.85232035333333,-39.175448100000004,-2.1199742956666667
612,1.6999319999999898,17.134221393333334,-4.4902431966666665,-43.472559600000004,0.0919970026666667,-0.9547262393333332,10.334228994999998,61.349557239999996,-33.30188115333333,-1.2638204593333333
613,1.7027096666666541,17.62550544666667,-4.7548739116666665,-43.5757243,-2.9543954533333334,-2.4752077263333336,11.676376979333332,56.55247370666667,-34.30047925333333,-2.899943908333333
614,1.7054873333333187,18.071045559999998,-5.0072480839999995,-43.64460246666666,-0.4858238796666667,-3.426001072,9.842903298333333,51.32503255333334,-31.594438553333333,1.0414226253333334
615,1.708264999999983,18.502672833333335,-5.267376741,-43.764607766666664,-1.6829337626666667,-1.7303258580000003,11.87074884,49.106459300000004,-34.44430097,-4.3989855449999995
616,1.7110426666666474,18.887500763333332,-5.4810516043333335,-43.83942666666667,-1.8355771503333334,-2.003220121333334,10.974099317666665,43.907697039999995,-27.39907646,-0.6537963053333334
617,1.713820333333312,19.212243400000002,-5.684869925,-43.94477843333333,0.5798405806666667,-1.3680639066666667,10.762354530666668,36.29573059,-27.523541766666664,-4.487763484333334
618,1.7165979999999763,19.483243306666665,-5.905588626666667,-44.03233846666666,-2.6877507566666665,-0.7925277353333332,12.117453415,30.061589556666664,-28.702808379999997,-1.4732902843333333
619,1.7193756666666407,19.698132196666666,-6.012101650333332,-44.08451333333333,-0.5232882846666665,-2.433010657666667,10.469416141,23.699761069999997,-14.422753336666666,-2.1395243406666666
620,1.7221533333333054,19.936237970000004,-6.189466794333334,-44.17559813333333,-3.102759123,-2.0145080486666664,9.379990736333333,26.019143423333333,-23.956953683333335,-3.3886902333333335
621,1.7249309999999696,20.12718264333333,-6.278436501999999,-44.18250526666666,-0.5132771333333334,-0.7605807383333333,9.888084251333332,21.378499353333336,-10.609361172666667,2.316437045666667
622,1.727708666666634,20.328800203333333,-6.408125559333333,-44.26166279999999,-2.2364713353333334,-2.3069891136666665,9.900567055,21.758749010000002,-18.11691793,-3.8463215826666666
623,1.7304863333333362,20.485972723333333,-6.464992841,-44.2538198,-1.6903425849999998,-1.5892486970000002,13.445473513666668,17.544611930000002,-6.357510884333333,2.732006788333333
624,1.7332640000000008,20.59010124,-6.446746348999999,-44.27336630000001,-1.9167929093333331,0.374756187,12.139950116666668,10.825335820333335,0.9823017916666666,-3.339430570333333
625,1.7360416666666654,20.66519483,-6.442733605666667,-44.26004029999999,-0.9533036846666668,-1.8833708763333332,9.385283788666667,7.773062070333334,0.724131465,0.8056146700000001
626,1.7388193333333295,20.690949756666665,-6.392165661,-44.25118510000001,-0.8673949066666666,-2.769626021666667,7.511143605666668,1.7966850996666668,5.798948129333333,-1.5454349516666666
627,1.741596999999994,20.73598099,-6.341353733999999,-44.24862673333334,-2.6240882476666667,-0.8779579003333332,10.684192817333335,4.044347047666666,5.491577227666667,-2.445579012
628,1.7443746666666584,20.787409463333333,-6.258957545,-44.20927936666667,-2.1397226653333337,-2.0220401286666667,11.209097860999998,5.294253826333333,10.654110270666665,0.49675826233333337
629,1.7471523333333228,20.83212026,-6.116896947,-44.1487986,-1.6440042653333335,0.763033836,10.179275671666666,4.756945252333334,18.256521226666667,0.30128754066666663
630,1.7499299999999873,20.825450263333334,-5.953768412333333,-44.0788676,-1.7990499536666666,0.5204298893333333,14.658654212666667,-1.329230229,21.006511686666666,0.444163849
631,1.7527076666666517,20.774148303333334,-5.7039108276666655,-43.95285543333333,-2.719944318,-2.7740979593333335,7.640924055666667,-6.007910092666666,33.12646611666667,3.0222650370000004
632,1.755485333333316,20.771892546666667,-5.502874850999999,-43.85646056666667,-1.0270788073333332,-0.20236439499999995,9.741536140666666,-0.526368499,26.380402246666666,1.8283579743333334
633,1.7582629999999806,20.76803271,-5.228218476,-43.726908333333334,-0.8110626736666667,-2.5370876790000003,11.7156922,-0.4291456046666666,35.992546080000004,2.2100199860000003
634,1.761040666666645,20.747349420000003,-4.985243081999999,-43.60561626666666,-1.5957063436666665,1.2907981076666666,12.799226921666666,-2.558910926333333,32.14214388333333,2.845031261666667
635,1.7638183333333093,20.67952092333333,-4.620709101666667,-43.464502966666664,-1.8748684923333334,-0.5940464336666668,12.229698338666665,-8.126977602666667,46.56419118333333,-0.2808394433333333
636,1.7665959999999739,20.67400996,-4.397744258333333,-43.34527586666667,-0.8996352903333333,-1.9277763763333333,8.165943941,-0.9088064833333335,29.808531443333333,3.5254904430000003
637,1.7693736666666382,20.663330076666668,-3.9979883829999996,-43.193868,-0.581968029,0.11213641233333332,7.517556508333333,-1.3746134046666667,50.967395786666664,-0.5628742883333333
638,1.7721513333333025,20.6023852,-3.785659313,-43.09714253333333,0.09257622533333332,0.02806674433333332,13.316614470333334,-7.897992611333333,27.66253598333333,1.4829158783333334
639,1.7749289999999671,20.59875234,-3.3811002173333335,-42.943412766666675,-1.8606112796666665,-2.2934139966666667,10.532422066,-0.6686869063333334,51.60948308333334,-0.4118436773333333
640,1.7777066666666694,20.564817426666668,-3.144887209,-42.820490533333334,0.3936731116666667,1.1206700406666668,12.391701698666665,-4.615019567333333,31.449823376666668,3.433450381
641,1.7804843333333338,20.53817494666667,-2.814524015,-42.698865266666665,-1.646250367333333,-0.24106736866666667,10.916204293666667,-3.800603389666667,41.92451222666667,-0.819007814
642,1.7832619999999981,20.534448623333333,-2.5240106780000002,-42.574061066666665,0.7469199026666667,-2.030345161666667,7.255336762333333,-1.182636728,37.63245137666667,1.3630419969999998
643,1.7860396666666627,20.50251071,-2.3081114096666666,-42.498909000000005,-1.4132871280000001,-0.06348047133333333,15.096762656666668,-4.774504343666666,27.11523819,-1.1548184953333331
644,1.788817333333327,20.481712973333334,-1.9565784529999999,-42.3691559,-0.5308763980000001,-0.9931626913333332,9.642855404666667,-3.3405374686666662,44.699953713333336,-0.6079123716666667
645,1.7915949999999914,20.438609440000004,-1.7990102123333334,-42.323315933333326,0.36628679433333344,-0.5071687796666667,12.628365516333334,-6.341532149333333,19.32796700666667,-1.9823890129999997
646,1.794372666666656,20.413022993333332,-1.4544452083333332,-42.190111800000004,-3.0141340296666663,0.12045806633333334,8.823685167999999,-3.97625796,44.06251271333334,0.15048391599999997
647,1.7971503333333203,20.369893389999998,-1.2692725956666664,-42.13804626666667,3.103978554333333,-1.1480691033333335,6.656991959333333,-6.462525367666667,22.70214875666667,-2.4496011733333334
648,1.7999279999999847,20.336894353333335,-1.0783226886666666,-42.078076700000004,-3.0802266599999997,-0.36249054966666666,15.914986293333333,-5.107045809333333,23.72356669,-1.5701620183333331
649,1.8027056666666492,20.321067813333332,-0.7884392143333333,-41.99230703333333,0.6695054073333333,-0.125873546,8.797926585,-3.1620212396666667,35.89511108666667,-3.0008049013333333
650,1.8054833333333136,20.282420476666665,-0.6804896990000001,-41.95604196666667,-1.1338270306666665,-0.9122505483333333,10.756912707666666,-5.907224019333333,13.394450506333335,-0.7789717216666666
651,1.808260999999978,20.276696523333335,-0.4011748926666667,-41.86301166666667,-0.5597591796666668,0.3529460406666667,10.689439137666668,-1.9671921133333334,35.01705932666667,-1.6787416536666668
652,1.8110386666666425,20.231846493333332,-0.3057337053333333,-41.849238066666665,1.1804522326666669,-1.0463420746666665,8.817253588333333,-6.764973163666666,11.053783576333332,-2.8079741796666666
