time,Euler_X,Euler_Y,Euler_Z,Acc_X,Acc_Y,Acc_Z,Gyr_X,Gyr_Y,Gyr_Z
0.0,-2.412550449,6.76098156,-115.3229218,-2.295097351,0.636288345,9.34188652,-6.410680771,17.16401291,2.262237072
0.008332999999765889,-2.434903622,6.893933773,-115.3024063,-1.891888618,-0.703984022,11.36673069,-4.496042252,15.80069351,2.667787075
0.016665999999986525,-2.414224148,6.965328693,-115.2722549,0.875391126,-0.047057111,10.37979412,0.23917295,8.423613548,3.350585938
0.024998999999752414,-2.378266096,7.084174633,-115.2544556,-2.439356565,-0.492575854,10.54904366,2.531852007,14.12493229,2.263747692
0.03333199999997305,-2.335174799,7.208368301,-115.2365112,-0.836975098,1.167193294,4.813218594,3.097594023,14.82212734,2.163852692
0.04166499999973894,-2.349957705,7.333949089,-115.2291565,-0.102448575,-0.807967424,6.87687397,-3.405951023,14.98628902,1.03810668
0.049997999999959575,-2.356211185,7.412192345,-115.2045593,-0.917089701,-2.245919704,12.10621738,-2.934418678,9.283022881,2.711305618
0.058330999999725464,-2.324723482,7.491290092,-115.2145844,-1.488060832,0.249526396,10.02619362,2.412540913,9.496132851,-1.253535032
0.0666639999999461,-2.266995668,7.605733395,-115.2112808,-0.954094529,-0.243977413,11.58648109,5.074730873,13.72706699,0.362556696
0.07499699999971199,-2.248922586,7.666780949,-115.210556,-0.349145174,-0.356795341,5.482560158,0.635399461,7.280910015,-0.072155297
0.08332999999993262,-2.268889666,7.746606827,-115.2268906,-1.787025332,-1.350328088,11.11189747,-3.929608107,9.673639297,-2.159561872
0.09166299999969851,-2.243476629,7.82321167,-115.2299347,-1.573221087,-0.735307097,9.117836952,1.577875495,9.162891388,-0.44791624
0.09999599999991915,-2.243775845,7.885541439,-115.2340088,0.569317162,-1.500455499,7.800029278,-1.755702257,7.516434669,-0.805183589
0.10832899999968504,-2.25031805,7.908349991,-115.2232971,-2.639869213,-0.320167333,7.001206875,-2.4832232,2.648473263,0.9295277
0.11666199999990567,-2.326840162,8.012010574,-115.226532,-1.36613977,0.153261498,7.492352962,-10.90946388,12.46800137,-0.49835068
0.12499499999967156,-2.366033316,8.09112072,-115.2373962,-2.72062254,-1.046738863,12.84520531,-6.041399956,9.501716614,-1.350049615
0.1333279999998922,-2.389201164,8.167464256,-115.2215652,0.994865,-1.281959534,9.439823151,-4.82879591,9.0944767,1.660788894
0.1416609999996581,-2.412768126,8.220424652,-115.2378845,-3.254848957,0.189316854,13.4578476,-4.070743084,6.393147469,-2.119731903
0.14999399999987872,-2.436410427,8.298358917,-115.2389908,-0.147174597,-0.0780885,3.783344984,-4.598063469,9.370495796,-0.316130936
0.1583269999996446,-2.520364285,8.419885635,-115.2491608,-2.373413324,-0.651917458,9.056296349,-11.41839409,14.58499146,-1.02439034
0.16665999999986525,-2.580775023,8.430047989,-115.2434998,1.377096057,-0.773359537,5.0257411,-9.128325462,1.206264257,0.161203206
0.17499299999963114,-2.652067423,8.507133484,-115.2445526,-3.100901842,-1.417032123,11.4192934,-10.05704689,9.210252762,-0.15348053
0.18332599999985177,-2.672839642,8.588475227,-115.2447205,-2.154905319,1.517903447,8.009883881,-4.258853436,9.773125648,-0.152430341
0.19165899999961766,-2.721500635,8.724442482,-115.264389,-1.35287559,0.302320033,10.45534134,-7.004035473,16.37181664,-2.014252663
0.1999919999998383,-2.735686779,8.847598076,-115.2454834,-2.365709543,-0.994217634,11.19393253,-3.824103355,14.67418003,2.342511892
0.20832500000005894,-2.720044613,8.950984001,-115.2625198,-0.969332814,0.60634917,8.339898109,0.673001349,12.45283604,-1.875730634
0.21665799999982482,-2.657521009,9.135874748,-115.2452774,-2.696193218,1.306654096,9.757967949,5.403747559,22.08507347,2.479907036
0.22499100000004546,-2.586893082,9.299045563,-115.2379303,-1.533987045,0.260243505,8.936966896,6.812171936,19.48502541,1.315919042
0.23332399999981135,-2.472957373,9.496128082,-115.2142944,-1.221300602,0.601056635,10.11357021,11.42988586,23.51776314,3.238371134
0.24165700000003199,-2.291446447,9.678161621,-115.21521,-1.59560442,1.335118294,5.618535519,20.27730751,21.79489899,0.352234393
0.24998999999979787,-2.081107378,9.887230873,-115.15448,-1.050769329,0.13493894,10.54301262,22.21772194,24.80955124,7.517106533
0.2583230000000185,-1.806655765,10.12546062,-115.1459274,-2.966709375,1.793707371,12.55253506,31.23426437,28.50088692,1.530568242
0.2666559999997844,-1.455702424,10.35387897,-115.0911865,-1.805264592,1.929719806,7.287348747,39.15475845,27.22743797,6.625712395
0.27498900000000503,-1.0467273,10.6130085,-115.050087,-1.141035318,0.799547195,11.621521,46.65849304,30.94752312,5.07874012
0.2833219999997709,-0.536994994,10.89595318,-114.9653778,-2.449269772,3.237668037,11.93463993,57.47031021,33.82484436,9.838504791
0.29165499999999156,0.006269133,11.15004253,-114.9267349,-1.914462209,0.654138684,10.74185371,62.7834053,30.43502998,4.243362427
0.29998799999975745,0.649719059,11.4551363,-114.8298416,-0.04177887,1.437023163,9.397227287,73.12506104,36.68524551,10.56149197
0.3083209999999781,1.332877517,11.69062138,-114.7586441,-2.206918955,1.62795949,9.336719513,78.74337006,28.36377907,7.429953098
0.316653999999744,2.070896626,11.99631977,-114.662796,-0.805229902,0.993034124,11.69947624,84.38652039,37.01263046,9.520870209
0.3249869999999646,2.85438633,12.26252937,-114.5992355,-2.541678429,0.622683764,8.948426247,90.89370728,32.20244217,5.627762794
0.3333199999997305,3.69717598,12.50455475,-114.4905167,1.127330542,0.627932966,10.68002796,96.52344513,29.73397827,10.42195225
0.34165299999995113,4.566347599,12.80787659,-114.4017563,-4.205426216,0.708462238,12.29712963,100.4437485,37.01851273,7.292125225
0.349985999999717,5.477971554,13.08360481,-114.2963409,-0.526680827,0.000128321,11.40000153,104.7496414,34.05038071,8.749570847
0.35831899999993766,6.428163052,13.38383102,-114.1849518,-1.31123805,0.956768215,9.379318237,109.4394684,37.15008545,8.756443977
0.36665199999970355,7.391255856,13.63656139,-114.0598984,-0.513634205,-0.652157724,5.762904644,110.2637177,31.87565994,10.1828146
0.3749849999999242,8.358424187,13.92192078,-113.9506836,-2.072391272,0.569721997,12.63184738,111.4146042,35.63153839,7.469368458
0.3833179999996901,9.352823257,14.22733402,-113.8302917,-1.632235765,-0.237095356,10.71640396,114.0218887,38.38791275,7.569090366
0.3916509999999107,10.34186172,14.49523449,-113.7049332,-0.665140033,-1.925771952,11.03247166,113.4302368,34.13352966,8.411268234
0.3999839999996766,11.34659195,14.76196384,-113.5873184,-1.192695022,0.035501368,9.855992317,115.2318802,34.02760315,6.753062248
0.40831699999989723,12.32860851,15.04491901,-113.4636841,-1.456337929,-0.645762086,7.778614044,112.5025482,36.14089584,6.618326187
0.4166499999996631,13.28733063,15.32192326,-113.3436203,-2.092039824,-1.807986379,15.47287655,109.5246048,35.51541138,5.540334702
0.42498299999988376,14.25247097,15.62559128,-113.2080765,-0.641928613,-1.37909472,9.554424286,109.9540176,39.09203339,6.103394985
0.43331599999964965,15.15508842,15.88510799,-113.098053,-2.621151686,-1.191551447,9.565471649,103.013855,33.37360382,3.735810518
0.4416489999998703,16.00145912,16.18901062,-112.9626007,-0.599990189,-2.193327904,10.71058083,95.5503006,39.29161835,4.805877209
0.4499819999996362,16.84728241,16.4113903,-112.8777695,-1.031926513,-1.016690612,9.261909485,96.9553833,28.39326668,1.192955375
0.4583149999998568,17.65921974,16.74542046,-112.7395172,-1.016647935,-1.558290005,8.95800972,91.17446899,42.9635582,2.847803116
0.4666479999996227,18.37184715,16.9468956,-112.6501236,0.219421461,-3.166295052,4.577357769,80.7526474,26.20246696,1.646147728
0.47498099999984333,19.0676403,17.21287537,-112.5294724,-1.141119719,-2.26896596,13.59721279,77.72033691,34.63659286,2.415424824
0.48331400000006397,19.69841003,17.47807121,-112.4364166,-2.069920778,-1.301095128,9.32896328,70.74565125,33.60580826,-1.141120195
0.49164699999982986,20.26074982,17.69346237,-112.3364944,-0.356969327,-2.665258646,10.78403759,62.33742142,28.16277504,1.46026063
0.4999800000000505,20.81086159,17.99026489,-112.2410583,-3.095404863,-1.349272728,14.20378494,60.9233284,37.23523331,-2.912428379
0.5083129999998164,21.29765701,18.21629143,-112.1495438,1.035404801,-2.597444057,5.873609543,53.48235703,29.02754211,-0.453040481
0.516646000000037,21.68546486,18.41611099,-112.0709457,-2.544804573,-2.734686136,11.77458477,42.03513718,25.65446472,-1.08806932
0.5249789999998029,22.05048752,18.61784554,-111.9994583,0.144317985,-1.997834444,13.53140354,39.55436325,25.46281624,-1.915564537
0.5333120000000235,22.37032127,18.85369873,-111.9222412,-1.972061753,-1.088303566,10.25053215,33.91188431,29.60248756,-3.20004344
0.5416449999997894,22.58752823,18.98545456,-111.8709183,1.375560999,-3.153838396,8.364955902,22.5453968,16.80040169,-1.111223102
0.5499780000000101,22.76098061,19.10886002,-111.8449631,-1.791423082,-2.117816925,8.838758469,18.34573174,14.89349365,-3.616373062
0.558310999999776,22.88831711,19.28694534,-111.7850189,-1.798777342,-1.758782387,10.01060104,11.39346123,22.29644775,-2.480560541
0.5666439999999966,22.94082451,19.41239929,-111.7534485,-1.136786461,-2.086114168,10.26159573,3.637414217,15.35303402,-3.204469442
0.5749769999997625,22.992239,19.52696037,-111.7242966,-0.110064939,-1.143637419,11.31925488,3.480936289,13.90982342,-2.776531935
0.5833099999999831,22.99025154,19.67930984,-111.6809616,-2.457469702,-1.414407372,12.17092991,-3.356695175,18.85908699,-3.259130478
0.591642999999749,22.92550087,19.7937851,-111.6609116,-0.609043479,-3.023280621,10.64208984,-10.10287094,13.49641418,-3.722389936
0.5999759999999696,22.82925606,19.87538719,-111.6574707,-0.840072036,-0.727217197,8.837543488,-13.01792622,9.301901817,-4.071485996
0.6083089999997355,22.71965218,20.01990128,-111.6328964,-3.192212582,-0.731022358,12.07675457,-15.67906952,17.02662277,-4.607976913
0.6166419999999562,22.58613205,20.16941643,-111.5985947,-0.57283783,-1.408256054,7.67242384,-18.72988319,18.18385315,-3.968697786
0.6249749999997221,22.41876221,20.25168228,-111.5843201,-0.584474802,-1.320624352,9.295574188,-22.1973114,9.697055817,-2.744900227
0.6333079999999427,22.25878716,20.41629601,-111.5284271,-2.788962364,-0.307932794,13.64021492,-22.78798103,20.81044388,-2.321727276
0.6416409999997086,22.07186317,20.54685402,-111.4906158,-0.159880564,-1.192092061,8.314687729,-25.53972054,16.07621193,-2.423236847
0.6499739999999292,21.87086105,20.62579346,-111.4612732,-1.432215214,-1.714088798,10.83129692,-26.68344307,10.27719498,-0.876007497
0.6583069999996951,21.66132545,20.87768936,-111.3978729,-3.72987175,-0.960001349,11.11470509,-29.36151505,30.67515945,-5.051596642
0.6666399999999157,21.40914345,20.9590683,-111.3721848,1.537079215,-1.466290593,5.858153343,-32.57104111,10.32632542,-1.492209911
0.6749729999996816,21.15955734,21.12646103,-111.3275452,-3.980180502,-0.526211083,13.33272457,-33.39396667,20.49639702,-3.082472324
0.6833059999999023,20.8897953,21.31885147,-111.2482986,-0.191655338,-0.849850178,11.46248913,-36.99221802,24.92801094,-0.591792285
0.6916389999996682,20.5800972,21.42737961,-111.2377014,-0.342228889,0.319277614,9.546703339,-39.14685822,12.56427479,-3.953434706
0.6999719999998888,20.27718163,21.5873661,-111.1821747,-2.478868484,-0.981348693,12.61879635,-39.94939041,20.37755585,-1.464547634
0.7083049999996547,19.95288849,21.76235199,-111.1428833,-0.102411352,-0.609223127,7.079670906,-42.17668915,21.18871307,-3.555775166
0.7166379999998753,19.61601067,21.78059769,-111.1355591,0.356455624,-0.213277936,9.880429268,-41.89332199,2.584288359,-0.512413561
0.7249709999996412,19.31355095,21.97789955,-111.0846481,-3.417658567,0.278473794,15.9643507,-40.09119415,24.17700386,-2.994719505
0.7333039999998618,18.98611641,21.94814301,-111.0968704,2.739153385,0.685024559,5.968164444,-39.8709259,-3.540687084,-0.621427953
0.7416369999996277,18.69441986,22.02820206,-111.0894089,-3.993412256,0.881446004,14.03021431,-36.85941696,9.323708534,-2.767339468
0.7499699999998484,18.43424034,22.07980347,-111.0686417,1.252614975,0.113909945,7.114737988,-33.30906296,6.933561802,-0.195769772
0.7583029999996143,18.16129303,22.02136421,-111.1003418,-1.821531892,0.43032378,10.9516468,-32.84772873,-7.802027225,-1.594948769
0.7666359999998349,17.94787788,22.11535645,-111.0861359,-2.401951313,1.075173378,14.7717905,-27.4141655,11.57932091,-2.339964628
0.7749690000000555,17.71992874,22.02404022,-111.14814,1.032981396,0.924374342,7.594216347,-26.08148384,-12.57954407,-3.657100677
0.7833019999998214,17.54838181,22.08299828,-111.1744385,-3.623536587,1.361930966,14.48126411,-20.60671234,6.286030293,-5.148488998
0.791635000000042,17.37533188,22.02621269,-111.2263947,2.022930384,0.136178106,5.347539425,-19.94427872,-8.272684097,-3.917776108
0.7999679999998079,17.23259735,21.98472595,-111.2932205,-3.915049314,0.514571667,16.00374603,-15.3165493,-6.520463467,-5.840175629
0.8083010000000286,17.12077713,22.00219154,-111.3343048,-0.426395416,1.590486646,8.597934723,-13.09366608,0.615215659,-5.435802937
0.8166339999997945,17.0128231,21.88656998,-111.4402542,-1.567446113,0.622812808,12.86538601,-9.338569641,-16.30034065,-7.528666496
0.8249670000000151,16.96483994,21.94585991,-111.4695206,-1.009365559,0.911574662,9.463339806,-5.966145039,5.815546513,-5.646043777
0.833299999999781,16.88916206,21.72839546,-111.5917282,0.185901001,0.377867252,6.372525215,-4.781361103,-28.46401978,-5.674786091
0.8416330000000016,16.85773849,21.79977226,-111.5959778,-4.332401276,0.646682203,14.43198776,-5.102765083,8.023056984,-3.389249802
0.8499659999997675,16.81908417,21.60396004,-111.7167969,1.482044697,0.770143151,6.233261108,-0.448428661,-25.89603043,-6.26547575
0.8582989999999882,16.82480812,21.67173767,-111.7119217,-5.961657047,0.893714905,16.3730526,-1.050849557,7.907228947,-2.282202721
0.866631999999754,16.84470558,21.53239441,-111.7985687,1.631656051,0.727192581,5.92185545,5.047940254,-18.29331017,-4.575574875
0.8749649999999747,16.88118172,21.52819443,-111.8156433,-5.320502281,0.602567375,14.73538208,3.608981609,-1.072596192,-2.127697945
0.8832979999997406,16.94890022,21.52404022,-111.8781738,0.388276964,1.422584414,6.078677177,9.892998695,-2.117503405,-7.12096262
0.8916309999999612,17.036026,21.42803574,-111.9113693,-1.89029789,1.002330184,11.00005627,10.39224815,-12.13940811,-0.628855228
0.8999639999997271,17.1590786,21.50376129,-111.9471817,-2.95524025,1.540216208,10.79627705,15.30326653,7.945652008,-6.966560841
0.9082969999999477,17.29758072,21.40565872,-111.9936676,-0.963889897,0.949287891,8.021205902,17.1391468,-12.82008457,-1.921017408
0.9166299999997136,17.45862961,21.53023529,-112.0124664,-3.042337656,0.614658952,15.56915855,19.08670044,14.0979948,-6.8749156
0.9249629999999343,17.65653038,21.46090508,-112.0454407,-0.56074369,0.724934578,5.483179569,23.67900276,-9.080302238,-1.45286572
0.9332959999997001,17.82539558,21.52391434,-112.0860367,-3.521774054,0.650132895,11.76432037,20.94242668,6.316256523,-6.92501688
0.9416289999999208,18.04389,21.54298782,-112.1041946,-0.099785462,0.408436626,6.572762489,25.49710274,1.516606927,-3.083110571
0.9499619999996867,18.22717285,21.50688362,-112.1567459,-1.103869438,-0.165433973,10.33392334,23.1943531,-5.442053795,-4.509823322
0.9582949999999073,18.45066261,21.61182404,-112.1497574,-2.920866728,0.383691043,11.303895,24.98868752,12.16327381,-3.671444416
0.9666279999996732,18.62033272,21.55462646,-112.2245789,-0.705910146,1.016322732,6.503613949,22.62144089,-8.715299606,-6.183663368
0.9749609999998938,18.81915855,21.6989212,-112.2112579,-3.870366812,-0.745543838,14.90059376,21.74909973,16.84064102,-4.599499702
0.9832939999996597,19.02238464,21.62261772,-112.260376,1.051879525,0.908010244,6.500740528,25.62130928,-10.07306099,-2.893616438
0.9916269999998804,19.20038414,21.73947906,-112.2716904,-4.79975605,-0.123224877,16.32324791,20.34013367,12.80270672,-6.23391819
0.9999599999996462,19.40025711,21.74005127,-112.2924118,-0.015359281,0.912119031,5.190866947,23.94457054,-0.316694528,-2.825686932
1.0082929999998669,19.54291344,21.77269363,-112.3288422,-2.559907198,-1.305411816,13.05744648,17.21862411,2.302835226,-5.583392143
1.0166259999996328,19.71436882,21.82220459,-112.3186874,-1.908268571,0.653587878,9.282564163,19.19998741,6.321889877,-1.649787784
1.0249589999998534,19.82646179,21.8228054,-112.3619232,-0.981916308,-0.397838622,7.878534794,13.8597517,-1.598943591,-5.007994175
1.0332919999996193,19.94636154,21.90314293,-112.3479843,-3.51196599,0.051801659,15.55838966,12.71417809,10.03838634,-2.238607645
1.04162499999984,20.03670502,21.9122715,-112.3793793,0.627957284,0.56821692,4.215028763,10.72520542,-0.201558426,-4.108088017
1.0499580000000606,20.09428978,21.91589928,-112.3947754,-4.324520111,-0.917067051,13.91958809,6.446398258,0.347008824,-1.945657372
1.0582909999998265,20.1443615,21.99972725,-112.4074326,0.188683674,0.65846014,5.613589287,5.056211472,8.92462635,-5.234115124
1.066624000000047,20.18000221,21.95254517,-112.4295883,-1.340843201,-0.827237368,12.79208183,4.265141487,-5.775574684,-0.897804558
1.074956999999813,20.21341324,21.99362946,-112.4412766,-2.450812817,0.251119405,12.37838554,3.012400866,4.142296314,-3.37272954
1.0832900000000336,20.2139492,22.00114059,-112.4560471,-1.136977911,0.11228168,6.606169701,-0.194565743,0.595774293,-2.566187859
1.0916229999997995,20.21049309,21.99511909,-112.5045319,-2.615343332,0.57549876,10.61314678,0.244551912,-2.580736637,-5.263802052
1.0999560000000201,20.20788193,22.03443336,-112.4904022,-0.357343882,0.001355937,10.88222027,-1.908721805,5.301929474,-0.800777853
1.108288999999786,20.21614647,22.00607681,-112.5358047,-2.23201108,0.581848145,9.906793594,1.51330173,-4.974309921,-4.014185905
1.1166220000000067,20.21197128,22.00093269,-112.5413666,-1.982954025,-0.13243489,10.94691849,-1.287268996,-0.404756188,-0.845730901
1.1249549999997726,20.21133804,22.06179237,-112.5353699,-1.731454134,0.586594939,9.305853844,-1.865869164,7.045516968,-2.34836483
1.1332879999999932,20.18368721,21.97931671,-112.5728149,-0.983197391,-0.11219164,7.662016869,-2.740339518,-10.29497814,-0.827544808
1.141620999999759,20.14884758,22.05528069,-112.5503464,-3.522933245,0.375450671,14.53586102,-6.710776329,9.382534027,-1.247029066
1.1499539999999797,20.1238575,22.04071045,-112.5786209,-0.360390723,0.622902036,7.442827702,-2.786367893,-2.344266176,-2.796101332
1.1582869999997456,20.09514046,22.02152824,-112.5654678,-1.544413328,0.279110581,9.968093872,-5.559467316,-1.696866393,1.716602087
1.1666199999999662,20.06034851,22.06560707,-112.5709991,-3.221037865,-0.000702728,13.74176407,-5.060708046,5.183617592,-2.692415237
1.1749529999997321,20.0495491,22.04928207,-112.5492859,-1.400003791,1.474143267,4.813789368,-3.794877052,-1.048826098,2.490408182
1.1832859999999528,19.98657036,22.08506203,-112.5712891,-1.772431612,-0.454334617,13.52976608,-7.700972557,3.600221872,-4.088212013
1.1916189999997187,19.99071503,22.10781288,-112.5242462,-1.985551119,0.433615804,10.30523491,-3.14519763,4.316907406,3.532139301
1.1999519999999393,19.92860985,22.11305428,-112.5624313,-1.140190482,1.155313611,7.676504135,-6.734904289,-0.574014902,-4.829640388
1.2082849999997052,19.89785576,22.15771103,-112.5249176,-2.364889383,-0.78993088,13.48883247,-6.90764761,6.422296047,1.64688015
1.2166179999999258,19.84659958,22.16532326,-112.5372009,-1.849526882,0.983229637,7.525080681,-6.617001534,0.676843286,-2.194089413
1.2249509999996917,19.78435135,22.17370033,-112.5269699,-1.189177513,0.329782665,10.5484581,-9.453575134,1.294402719,0.278542042
1.2332839999999123,19.71619415,22.20615959,-112.5483246,-4.286746502,0.167004511,12.15110588,-8.240278244,3.134170532,-4.160315037
1.2416169999996782,19.64036751,22.22358513,-112.5330658,1.661282778,0.324759424,7.559178352,-11.31247616,2.504188538,0.443215877
1.2499499999998989,19.55742645,22.20739555,-112.56147,-4.279630661,0.600561202,12.71481991,-9.773446083,-2.568186045,-2.76597929
1.2582829999996648,19.47910118,22.24917793,-112.568718,-1.194044948,-0.0038249,9.419779778,-10.59184551,4.419800758,-2.883497477
1.2666159999998854,19.35985374,22.25466919,-112.5847778,-1.451028824,0.524322093,8.090405464,-14.62201786,0.278747022,-2.515241623
1.2749489999996513,19.25821495,22.23224068,-112.6115189,-2.341973305,0.400249422,12.07498455,-12.50282097,-3.559559345,-2.362093687
1.283281999999872,19.12921524,22.2700386,-112.6285782,-1.715971708,0.859046221,9.169368744,-15.72768402,3.878163099,-3.96039772
1.2916149999996378,19.02621078,22.25190544,-112.6544266,-0.915801167,0.533794641,9.748652458,-12.70555782,-3.031214714,-2.452127934
1.2999479999998584,18.9051609,22.19553947,-112.6861343,-1.357045174,0.047071364,9.880378723,-14.24077511,-7.237841606,-1.537494659
1.3082809999996243,18.77075005,22.2299881,-112.6839066,-1.913818836,0.515999794,8.803765297,-17.75038719,3.954671383,-1.550045729
1.316613999999845,18.63000298,22.14939499,-112.736702,-1.411325932,0.729684711,7.777090073,-15.72366047,-10.69545841,-2.714802265
1.3249470000000656,18.47385597,22.13180161,-112.7417755,-1.407082677,0.050486125,11.34692955,-20.02752304,-2.21811676,-0.312801152
1.3332799999998315,18.31417656,22.10079575,-112.7770081,-1.800682187,-0.035049997,11.22434711,-18.81161499,-4.426653862,-2.786010504
1.3416130000000521,18.1491375,22.01320457,-112.8190536,-1.153098226,0.979588032,7.471922398,-19.42856026,-11.48327637,-1.602888227
1.349945999999818,17.93919563,22.00375366,-112.8596954,-1.63313663,-1.131133676,12.32116604,-24.63988304,-2.130567551,-4.139620781
1.3582790000000386,17.7553463,21.91939735,-112.8877563,-2.02043581,0.935216248,9.296966553,-22.32343102,-10.62929726,-0.318564415
1.3666119999998045,17.50606918,21.84797287,-112.9741821,-1.911778927,0.479617387,8.467319489,-27.33963013,-10.73521709,-6.732809544
1.3749450000000252,17.27218437,21.8114624,-112.9979401,-1.801721811,-0.282390565,13.92739105,-28.52662086,-5.009277344,-1.665643692
1.383277999999791,17.04556465,21.69770813,-113.072113,-1.444274068,2.044145107,8.440848351,-25.04900169,-15.25006199,-4.370637894
1.3916110000000117,16.8143959,21.59952164,-113.1114044,-1.449582696,0.247696847,11.94953632,-27.5219326,-12.5858984,-1.211426139
1.3999439999997776,16.58203888,21.53229713,-113.1819763,-3.277250767,0.178551137,10.49052525,-26.08242989,-9.655804634,-5.371974468
1.4082769999999982,16.35436821,21.39093781,-113.2207794,0.574657559,1.298795342,6.157387257,-27.13712883,-17.53411293,0.203390017
1.4166099999997641,16.09784698,21.28360748,-113.2921295,-3.672312975,1.038257957,12.8331461,-28.98616982,-14.27779675,-4.215875626
1.4249429999999847,15.87496471,21.18336105,-113.3327484,-1.231237411,0.090886757,9.785998344,-26.49991798,-12.85330963,-1.505605817
1.4332759999997506,15.63995361,21.02372742,-113.3859406,-0.014194083,1.660700202,6.464070797,-27.19890594,-19.76787949,-0.761307001
1.4416089999999713,15.39519405,20.91337204,-113.4394989,-3.048128605,0.07486511,14.97200108,-28.5904808,-14.40343475,-2.689829826
1.4499419999997372,15.18970013,20.81248093,-113.4710846,-2.283591509,0.614024639,8.324569702,-24.61173248,-12.33623219,-0.46092838
1.4582749999999578,14.95256329,20.64430237,-113.5310593,-0.222394556,0.966277182,7.511919498,-27.42785645,-21.27638435,-1.702554584
1.4666079999997237,14.70002747,20.58200264,-113.5629272,-5.065094948,0.660784304,15.08386326,-30.29554749,-7.85968399,-1.722097754
1.4749409999999443,14.48611927,20.48704529,-113.613205,-0.240963086,0.136225984,7.639945984,-25.07274055,-12.48602486,-3.045355082
1.4832739999997102,14.25971413,20.31460953,-113.6485748,-1.542919755,1.920566916,9.009464264,-27.03736115,-20.75764275,1.120354891
1.4916069999999308,14.0087738,20.28932571,-113.6874084,-2.562086105,-0.190839469,11.16962528,-30.01586151,-4.045720577,-3.947259426
1.4999399999996967,13.79616356,20.13661003,-113.7315979,-0.137385577,1.116394758,6.442492008,-25.03404236,-18.71989822,-0.595864475
1.5082729999999174,13.58219242,20.00572395,-113.7806015,-3.356215239,1.032835841,11.23768711,-25.17845726,-16.60539055,-2.099780083
1.5166059999996833,13.37274361,19.92825127,-113.8101883,-1.262050152,1.719849706,8.417930603,-25.30729103,-9.54881382,-1.184351683
1.524938999999904,13.16778755,19.77344894,-113.8615112,-1.043112755,0.842722654,13.89892769,-24.02317429,-19.44826126,-1.8235811
1.5332719999996698,13.00758362,19.73726654,-113.8733749,-4.742414951,0.457367033,13.62137794,-20.13130951,-4.271405697,-0.441307783
1.5416049999998904,12.85725594,19.58856773,-113.9311066,-0.661925912,2.132326126,3.532160282,-17.22706985,-18.89058685,-2.815108538
1.5499379999996563,12.68991566,19.50576973,-113.9366989,-2.306916952,1.830903411,11.02005482,-21.27329445,-9.567662239,1.512098312
1.558270999999877,12.53726864,19.42983818,-113.976059,-1.269454718,0.573441446,7.867275238,-18.26382446,-9.901544571,-2.806245089
1.5666039999996428,12.42629719,19.32337189,-113.9951172,-1.779062271,0.323105246,15.74108887,-13.96055698,-12.70164204,0.521851778
1.5749369999998635,12.33848286,19.30553627,-114.013588,-4.143507957,1.92181325,9.239242554,-11.32428455,-2.575639725,-2.034538984
1.5832699999996294,12.22034454,19.18477821,-114.0594177,-0.966924012,0.627092361,6.345124722,-13.77342033,-15.03325653,-2.119168997
1.59160299999985,12.10626888,19.19278336,-114.0668564,-2.780755281,1.689683795,9.72264576,-14.91591549,0.725280106,-1.475559592
1.5999359999996159,11.98425102,19.07282257,-114.1143112,-0.454573065,-0.240163088,6.923575401,-14.17848206,-14.9881506,-2.429434061
1.6082689999998365,11.90110683,19.07966232,-114.1145859,-2.475361824,-0.476195276,13.8598938,-11.48762608,0.760448217,-0.649705112
1.6166020000000572,11.8283987,18.98505402,-114.1501312,-1.836787581,2.431030512,6.671628475,-8.748004913,-11.72560787,-1.762387514
1.624934999999823,11.70872021,19.01433563,-114.1639709,-3.827214718,1.295640349,9.357948303,-15.34093285,3.082788944,-2.702866077
1.6332680000000437,11.59897423,18.9678154,-114.181488,-0.020380417,-0.032520711,9.090904236,-13.90620136,-5.66838026,-0.981255949
1.6416009999998096,11.49862003,18.96291351,-114.1914368,-3.111400127,1.690339923,11.80125141,-13.17580986,-0.838353992,-1.436062217
1.6499340000000302,11.45097542,18.9541893,-114.2064209,0.00398096,0.430767566,9.724058151,-6.543797493,-1.176308155,-1.666718364
1.658266999999796,11.38847446,18.93408394,-114.218071,-4.407548428,0.181524381,10.04089355,-8.565709114,-2.664111376,-1.267034054
1.6666000000000167,11.33640194,18.96980286,-114.2292938,-0.933468044,2.489223719,7.031469345,-7.141966343,4.084382057,-2.541982412
1.6749329999997826,11.26101208,18.93948936,-114.2261429,-2.635489464,1.116051316,8.30984211,-10.68923187,-3.534329176,0.61273092
1.6832660000000033,11.218606,18.97557068,-114.2419434,-1.279573441,-0.010621345,8.988129616,-5.829262257,4.033179283,-3.004934072
1.6915989999997691,11.16841507,18.96764374,-114.2317734,-1.619114637,1.316640019,10.45042896,-7.941029072,-0.744324207,0.868796587
1.6999319999999898,11.14508915,19.01799965,-114.2477112,-3.187874317,0.565110266,13.57408524,-3.589476585,5.738805771,-3.204392195
1.7082649999997557,11.10787201,19.05772972,-114.2527313,-1.549540162,0.087535568,7.987905502,-5.790277004,4.533477306,-1.926856637
1.7165979999999763,11.07427788,19.07924843,-114.2664948,-2.278350115,2.477108955,6.394419193,-4.904100895,2.388360739,-2.303565025
1.7249309999997422,11.02117443,19.12896729,-114.2881622,-2.455260515,1.143209338,9.28023243,-7.040585041,5.347931862,-4.004786015
1.7332639999999628,11.01097775,19.18697548,-114.2884216,-1.869037628,-0.275482655,9.704252243,-2.544569969,6.92566824,-1.88505435
1.7415969999997287,10.98265648,19.28361893,-114.3138809,-3.978250504,1.591044426,12.02041149,-3.911576033,10.79851532,-5.493844509
1.7499299999999494,11.03569221,19.38789749,-114.3253021,-0.203894407,1.690806508,6.91333437,5.472982407,12.1376543,-4.15598774
1.7582629999997152,11.08170795,19.45419312,-114.3355637,-2.770658255,1.896528482,4.415449619,4.4102211,7.547990799,-3.115357637
1.7665959999999359,11.15893841,19.57596397,-114.3458633,-1.047569156,1.084745169,8.431602478,8.272796631,14.23937893,-4.307879925
1.7749289999997018,11.19103241,19.64016914,-114.3376617,-2.535785675,-0.346503377,11.33720398,1.998589396,7.702291489,-1.031024337
1.7832619999999224,11.25281143,19.77639008,-114.345726,-3.066587448,1.155749679,10.82060719,6.336616993,15.97499943,-4.441842556
1.7915949999996883,11.31365585,19.84256363,-114.3368454,-0.80607152,-0.044352308,8.012966156,5.418269157,7.949390888,-1.019472241
1.799927999999909,11.42467976,19.96085358,-114.328392,-2.350349665,1.304624319,6.713622093,11.60234261,14.20026779,-2.321598291
1.8082609999996748,11.47710896,20.01886368,-114.3254547,-1.320679188,0.613471448,7.874123096,4.650584698,6.85340786,-1.505322933
1.8165939999998955,11.53966522,20.14686775,-114.2950668,-2.285220861,0.929276466,11.79411697,4.8676157,15.83309746,-0.14610365
1.8249269999996613,11.53510761,20.1583252,-114.3162994,-2.197469234,-1.025698185,9.737112999,-1.189397097,0.831911862,-3.068201065
1.833259999999882,11.58554935,20.29013252,-114.3078003,-2.43862009,1.010371447,8.91067791,4.275927067,15.80461597,-2.574205875
1.8415929999996479,11.60267258,20.21950722,-114.3152618,0.475380123,0.676015377,3.276110888,0.843822479,-8.507178307,0.430485606
1.8499259999998685,11.61075783,20.35132027,-114.2967606,-3.321343184,1.572681427,13.66171265,-1.216343522,16.01810837,-1.512981892
1.8582589999996344,11.62958336,20.30130386,-114.3139725,0.896446943,-0.190125674,4.512485504,1.456079602,-6.306173325,-1.138091564
1.866591999999855,11.61565113,20.28958511,-114.3103027,-3.727524042,0.584944129,13.78642178,-3.242659807,-1.191190004,0.304335535
1.874924999999621,11.58654594,20.28680801,-114.3056412,-0.290317804,0.697831333,6.73456049,-5.206502914,-0.257627964,0.131567508
1.8832579999998416,11.5314579,20.1920948,-114.3366547,-2.589668512,-0.445000947,14.00462818,-6.819200993,-11.69333458,-1.323000908
1.8915910000000622,11.51162148,20.19652939,-114.3238373,-2.993197918,0.985625565,11.23760128,-4.431032181,0.77369082,0.85929364
1.899923999999828,11.44516945,20.03739548,-114.3707581,-0.380660594,0.544955194,4.932713509,-7.51921463,-19.63554573,-1.601530552
1.9082570000000487,11.39988041,20.03695869,-114.3683395,-3.764966965,0.385008126,14.98114872,-7.054365158,-0.033196047,-0.171820268
1.9165899999998146,11.3603754,19.91543961,-114.3972549,0.477063149,2.062298059,2.949858189,-5.028587818,-14.81614876,-0.562386334
1.9249230000000352,11.29553604,19.78720093,-114.4324417,-2.953946352,-0.104835831,13.10964966,-7.86784935,-15.90690613,-1.319799542
1.9332559999998011,11.25425053,19.76272202,-114.4303207,-1.264295459,1.117763758,9.850016594,-6.529325008,-2.701584339,0.603663445
1.9415890000000218,11.206213,19.57826614,-114.474678,-2.493618965,1.883746505,7.770311356,-5.492667675,-22.72665024,-1.056126595
1.9499219999997877,11.14691925,19.53832054,-114.4930191,-4.300184727,0.294048905,12.78659821,-7.869436741,-4.977973461,-1.316827893
1.9582550000000083,11.09437752,19.43466187,-114.4987106,-0.029249731,0.691489339,7.552044868,-7.596850872,-12.36696339,1.318044662
1.9665879999997742,11.04326439,19.31748772,-114.5212479,-4.768417835,1.651275516,16.42337227,-6.748762131,-14.15437794,0.039945405
1.9749209999999948,11.01420975,19.31419754,-114.5198822,-1.910396934,-0.204413772,6.237084866,-5.060450554,-0.394638479,-0.220999599
1.9832539999997607,10.95778465,19.13170242,-114.5284119,-1.480246067,1.496016979,4.498752117,-7.945078373,-21.55159569,3.064808607
1.9915869999999813,10.88285065,19.12348366,-114.5278931,-4.177615166,1.173085213,14.7371788,-10.53244591,-0.993473887,-0.205477402
1.9999199999997472,10.85179234,19.0112381,-114.5330505,1.291711092,0.211961135,4.334094524,-5.044647694,-13.20657349,1.82587266
2.008252999999968,10.81767082,18.90811539,-114.5282974,-4.410259724,0.641890883,13.03424644,-5.801676273,-12.09043312,2.408212423
2.0165859999997338,10.78831863,18.88932228,-114.5165634,-1.761042833,2.348548412,6.659039497,-5.446098328,-1.863307476,1.441197634
2.0249189999999544,10.7156868,18.71753693,-114.5211945,-2.141273975,0.023049204,10.42506886,-10.05628109,-20.38978577,2.879540443
2.0332519999997203,10.67048645,18.76431274,-114.4932938,-5.133543968,1.03882122,13.86353874,-8.023993492,6.233263016,1.934758663
2.041584999999941,10.64981651,18.61175919,-114.4958649,1.339046478,1.423474908,7.226276398,-3.901253939,-18.08209229,2.650267363
2.049917999999707,10.62690449,18.61663055,-114.4564285,-5.426004887,0.995984197,13.03440952,-5.750934601,1.510330677,4.065402508
2.0582509999999274,10.59560966,18.50326347,-114.4633255,0.823899925,1.101150751,1.792111278,-5.010580063,-13.55333805,1.284028888
2.0665839999996933,10.54196453,18.4130497,-114.429306,-3.140000343,1.465225101,12.64352417,-9.233343124,-9.822599411,5.583788395
2.074916999999914,10.51790905,18.37850952,-114.4113541,-2.059401751,0.149550602,9.787376404,-5.087883472,-3.737782717,2.319151163
2.08324999999968,10.45765018,18.25457382,-114.4011841,-2.704241753,-0.385257959,12.59472466,-9.132861137,-14.29707623,3.689308882
2.0915829999999005,10.42289257,18.24219513,-114.3670349,-3.462080479,2.213570356,9.636283875,-6.974603653,-0.792658269,3.646071672
2.0999159999996664,10.327384,18.08804131,-114.3790283,-1.428915977,0.323558837,4.184658051,-12.52961826,-18.32932281,1.82177496
2.108248999999887,10.26006508,18.0825367,-114.3359146,-1.761632562,1.147379756,10.31821632,-11.20428181,0.192657471,4.509680748
2.116581999999653,10.15141678,17.92574692,-114.348175,-1.16658318,0.097291403,9.445110321,-14.11864948,-18.64499474,1.84418714
2.1249149999998735,10.08837795,17.91355133,-114.320549,-2.998832941,0.984098494,14.11597252,-10.10617352,-0.922624826,2.913811684
2.1332479999996394,9.975409508,17.76341248,-114.3474045,-2.495908499,1.274068117,8.642972946,-14.10013199,-18.15834999,-0.003150553
2.14158099999986,9.864768982,17.7211895,-114.3513336,-2.617020369,1.916210175,9.324546814,-14.65436745,-5.10622406,-0.016521184
2.149913999999626,9.716794014,17.57741356,-114.3660202,-0.027990442,-0.016876703,7.784346581,-18.72834396,-17.18974876,1.070099354
2.1582469999998466,9.595560074,17.50008965,-114.3957367,-4.33361721,1.490157723,12.89556599,-14.99306583,-9.754724503,-2.244422436
2.1665800000000672,9.459873199,17.40593338,-114.4298325,-1.193226457,-0.48436752,6.832372665,-16.58752632,-11.67942905,-2.107924223
2.174912999999833,9.303555489,17.289814,-114.4542999,-3.980837584,0.589951098,11.89427376,-19.40263748,-14.24077797,-0.942655563
2.1832460000000538,9.090411186,17.23777199,-114.5209808,-2.04303503,1.313777328,6.012202263,-24.71677589,-7.2878685,-6.72133255
2.1915789999998196,8.845432281,17.12197304,-114.5556946,-0.657897413,-1.009910107,8.486563683,-29.6869297,-14.38545609,-2.214506626
2.1999120000000403,8.604489326,17.04741478,-114.6299973,-2.288711309,-0.446821123,12.24502468,-27.83047676,-10.03056622,-7.173092842
2.208244999999806,8.331282616,16.9481144,-114.6774445,-1.686444283,0.174081072,6.430182934,-32.64083862,-12.62455082,-4.078250885
2.216578000000027,7.952872753,16.80350113,-114.7647629,-2.159829855,-0.841570735,9.286834717,-43.88079834,-18.50775337,-7.644505978
2.2249109999997927,7.523073673,16.6542244,-114.838707,-1.786082864,-0.162356511,9.490327835,-50.54208374,-18.93153,-6.455955982
2.2332440000000133,7.085607529,16.53476906,-114.9216232,-0.861210823,-0.422241509,10.76403618,-51.18292236,-15.33725357,-7.749118805
2.241576999999779,6.646540165,16.3515358,-114.9946671,-2.98335433,0.262114823,10.25125599,-51.72706985,-22.87413979,-6.166874409
2.24991,6.141648293,16.15594101,-115.1080017,-1.600282192,-0.292521417,7.470249653,-58.28279114,-24.70120239,-10.55922413
2.2582429999997657,5.552752018,15.95490551,-115.1794891,-2.044252634,-0.284404099,7.928768635,-69.81532288,-24.87858772,-6.193039417
2.2665759999999864,4.928157806,15.77123165,-115.2993164,-2.732092142,0.327325702,11.15673542,-72.54280853,-23.13407898,-11.87997055
2.2749089999997523,4.320800781,15.58807945,-115.3795624,-1.146415114,-1.875533462,7.595721722,-71.79993439,-22.69273949,-7.917093277
2.283241999999973,3.619747162,15.32951069,-115.4758377,-2.476740122,-0.133339718,6.093126774,-82.54914856,-31.66041756,-9.137096405
2.291574999999739,2.807955742,15.14515209,-115.589386,-3.372896433,0.338851601,9.056353569,-95.35332489,-22.86335754,-12.33446026
2.2999079999999594,1.961276412,14.95882988,-115.6889801,-0.944651842,-1.977208018,11.63823128,-100.0061417,-22.76511955,-10.7556448
2.3082409999997253,1.0943892,14.75316429,-115.8028564,-2.64293766,-0.504926741,11.11969376,-102.0404968,-25.06157303,-12.99789238
2.316573999999946,0.181226894,14.49997997,-115.9388962,-1.135262489,0.039799292,7.760653496,-106.9695129,-30.50947571,-15.58920002
2.324906999999712,-0.792871058,14.27181149,-116.0533142,-3.49246645,-0.486866057,10.54683971,-114.9985275,-27.34755898,-13.89617825
2.3332399999999325,-1.86389482,14.05236721,-116.1988144,-0.066819139,0.350920528,6.517179012,-125.7605896,-25.89983368,-17.67387772
2.3415729999996984,-2.98836565,13.73967075,-116.3266602,-0.450272441,-3.019526005,8.993597984,-132.7701111,-36.89946747,-16.91795158
2.349905999999919,-4.116256714,13.46850109,-116.4432678,-3.643566847,0.311370164,11.708395,-133.5670624,-31.61318588,-15.70924568
2.358238999999685,-5.271542549,13.19651508,-116.5835419,-1.896860361,0.55281204,7.762108326,-136.2713776,-31.22755051,-19.44656563
2.3665719999999055,-6.504574299,12.83243465,-116.677948,-0.772121847,-0.045614786,8.156664848,-146.9061432,-42.31476974,-15.65139103
2.3749049999996714,-7.762441158,12.52043533,-116.8062744,-3.671693802,1.393845081,14.84899807,-149.0828857,-35.32400131,-20.00744438
2.383237999999892,-8.993975639,12.22385216,-116.8925934,-0.194609433,0.031317502,16.25880432,-147.0623627,-33.73724365,-15.38094234
2.391570999999658,-10.20549297,11.86005306,-116.9993896,-2.503720999,0.179781333,11.78275204,-144.2263794,-40.99556351,-20.0879631
2.3999039999998786,-11.39299107,11.44776726,-117.0406036,1.305578828,0.222735733,5.773318291,-142.9719543,-47.67473602,-14.3503046
2.4082369999996445,-12.59982586,11.04114246,-117.1117325,-4.857163906,3.270744324,8.586807251,-144.6741638,-46.03026581,-18.77866745
2.416569999999865,-13.78155899,10.67126656,-117.1577148,0.361325294,1.027704,12.47398281,-142.2494507,-41.97568512,-15.70375443
2.424902999999631,-14.92073631,10.2687912,-117.1766815,-4.646455288,2.164901972,14.37199593,-137.8056335,-46.27628708,-14.58745384
2.4332359999998516,-16.04112053,9.881817818,-117.2082443,0.599767506,0.84393245,13.64179134,-135.2757568,-43.76874924,-16.26504898
2.4415689999996175,-17.09343338,9.471090317,-117.1819229,-6.221670628,1.701579332,11.71893787,-128.326889,-48.17028046,-11.51770782
2.449901999999838,-18.08140945,9.116666794,-117.180748,1.190909743,2.247750044,7.246665478,-120.0907364,-40.62652588,-12.91675186
2.458235000000059,-19.03291512,8.798857689,-117.1322556,-7.106848717,3.58731389,10.05480957,-116.6064835,-38.02355194,-7.137167931
2.4665679999998247,-19.93218994,8.501101494,-117.1238098,2.629724741,0.208702236,8.002490997,-109.5882797,-34.08185577,-11.14555073
2.4749010000000453,-20.77695656,8.181874275,-117.0403214,-4.532771587,2.443134546,11.23909855,-104.3465881,-39.4030304,-4.47845459
2.483233999999811,-21.57846069,7.853431702,-116.9980392,1.483541131,2.148106098,20.82342529,-98.40961456,-38.62896729,-9.755290985
2.491567000000032,-22.24510765,7.581774712,-116.9371567,-6.216041088,3.674482346,14.66777611,-82.49791718,-32.98515701,-5.895246983
2.4998999999997977,-22.82402992,7.361303806,-116.9124069,-1.079574347,2.933894634,6.209341526,-71.40175629,-25.66240501,-7.551640987
2.5082330000000184,-23.35595322,7.207513809,-116.8698502,-2.851431847,2.592855692,7.94606781,-65.99927521,-19.00032043,-3.027601957
2.5165659999997843,-23.84883881,6.993364811,-116.8402481,-0.98003,1.575520754,6.275180817,-61.13380814,-25.05503464,-7.216929913
2.524899000000005,-24.28547096,6.899107933,-116.7945557,-4.211091518,2.704400778,14.17844677,-54.57961655,-12.58403873,-0.091097273
2.533231999999771,-24.66518593,6.794875622,-116.8069763,-2.357526779,1.43596971,18.11234093,-46.94495773,-10.87622452,-6.681115627
2.5415649999999914,-24.9934082,6.734867096,-116.7870865,-1.879582882,0.606562138,5.45362854,-41.18907547,-7.567263126,-1.321325302
2.5498979999997573,-25.31315613,6.657135487,-116.7718353,-0.409571081,1.363506317,8.060862541,-40.14152527,-9.306139946,-2.517562628
2.558230999999978,-25.59287834,6.671994209,-116.803299,-3.23903656,1.889719129,14.99475765,-34.64939499,3.18564558,-3.068037748
2.566563999999744,-25.84927177,6.602955818,-116.8029556,-1.999996424,1.52279377,10.18575954,-32.33601379,-7.566515923,-3.776553392
2.5748969999999645,-26.05934715,6.603056431,-116.8329697,-0.721440017,-0.379563421,11.53800011,-26.31676102,1.540645957,-3.659827948
2.5832299999997304,-26.24346161,6.573724747,-116.8605347,-2.996738911,3.155292034,2.607818842,-23.28830719,-1.804818392,-4.707296848
2.591562999999951,-26.41099358,6.566493988,-116.8583221,2.281172276,-0.027569283,10.95251274,-21.65444756,-0.931218624,-0.596107423
2.599895999999717,-26.56452751,6.520002365,-116.8820801,-3.759590626,0.819552004,16.46340179,-19.67482376,-3.807979822,-5.2668643
2.6082289999999375,-26.71274185,6.369097233,-116.8142929,3.487138987,-0.696954846,14.07065105,-20.22118378,-19.84895706,-1.34130311
2.6165619999997034,-26.78565407,6.306940556,-116.8300476,-5.798154831,3.013253212,18.1945343,-10.13346672,-5.923433781,-5.213944912
2.624894999999924,-26.85557175,6.188878536,-116.7826004,2.891521931,0.645677507,5.684184551,-10.52948952,-15.23398113,-1.789193273
2.63322799999969,-26.9704113,6.071533203,-116.7620468,-2.580688953,-0.889559984,4.016059399,-15.6442461,-13.76572132,-4.394237995
2.6415609999999106,-27.12508011,5.84250164,-116.6472855,0.182280719,-0.934688747,10.5902071,-21.50989914,-30.74386597,-0.747206569
2.6498939999996765,-27.23804474,5.681595802,-116.6160431,-2.842074871,-0.040595576,13.52080059,-15.53671837,-18.99669075,-5.681586266
2.658226999999897,-27.30731583,5.477882862,-116.4981232,-0.918129265,1.717534542,12.18195343,-11.20829678,-28.21990013,0.870346725
2.666559999999663,-27.40411568,5.347848415,-116.4884033,-1.85836792,1.324813962,10.63136101,-13.33189392,-14.48730278,-6.367227554
2.6748929999998836,-27.54210281,5.133938789,-116.3627396,-1.614587903,0.489985973,4.066711426,-19.45596313,-29.74090767,1.034431815
2.6832259999996495,-27.71453285,4.963450909,-116.3250504,-0.750983477,-0.508309066,8.975470543,-22.70966339,-20.37003136,-5.615528584
2.69155899999987,-27.85684395,4.79520607,-116.2235489,-5.435618877,-0.162938818,13.99500656,-19.63503265,-23.55695724,0.878773987
2.699891999999636,-27.96911049,4.670815945,-116.1950531,1.671246409,-0.793384969,11.58701038,-15.37565613,-14.92443657,-4.135228157
2.7082249999998567,-28.04495239,4.514792442,-116.1070557,-5.770478249,1.58703208,11.44499207,-11.46643734,-21.51237106,0.052995883
2.7165579999996226,-28.1711998,4.438957691,-116.0687103,2.918863535,-0.515274882,8.859741211,-17.13589096,-10.31712341,-0.424568951
2.724890999999843,-28.33086395,4.318025112,-116.0325546,-6.671670914,1.152901292,6.717213154,-21.01225471,-14.86713982,-3.505143881
2.733224000000064,-28.51060677,4.270985603,-115.9695511,4.162429333,-1.026015401,9.447617531,-23.77044487,-8.735419273,3.852101326
2.7415569999998297,-28.67296028,4.207154751,-115.9825134,-8.433125496,1.251414776,15.11449623,-20.88827515,-6.020641327,-5.476082325
2.7498900000000503,-28.83013344,4.192242146,-115.9148712,4.269013882,-1.248330712,12.75551701,-21.10161781,-5.657739162,6.15692234
2.7582229999998162,-28.96982765,4.132379532,-115.9456711,-6.470016479,0.462974697,13.2183876,-18.01537895,-4.543261528,-7.147052288
2.766556000000037,-29.09478951,4.076339722,-115.8456268,3.696687937,-1.365575075,14.14302444,-17.50237846,-11.85833168,7.073783875
2.7748889999998028,-29.2491951,4.006314754,-115.8756943,-5.720598221,1.543327808,6.452136993,-19.79549789,-5.620495319,-7.685901165
2.7832220000000234,-29.39236641,3.905548811,-115.7403717,4.012592316,0.191154271,5.368717194,-19.95771599,-18.66424751,8.10017395
2.7915549999997893,-29.56443405,3.867209196,-115.7622299,-5.266921997,2.706304312,11.00008583,-21.99163628,-2.751725674,-4.989309788
2.79988800000001,-29.73841858,3.747142076,-115.6309357,1.799127698,-0.591742396,10.99424171,-23.59084892,-20.51442337,6.472108841
2.808220999999776,-29.8859024,3.663266182,-115.6167984,-2.096081018,0.244761094,11.55782986,-19.32880783,-9.611760139,-3.982670069
2.8165539999999964,-30.0227623,3.500695229,-115.4550171,-2.234368086,-0.292110533,14.06945515,-19.30130768,-26.75300598,6.913826942
2.8248869999997623,-30.12874031,3.375856161,-115.426384,-0.713860929,0.617965817,9.900942802,-14.44426918,-14.71998119,-4.987464905
2.833219999999983,-30.21149445,3.156933546,-115.2421875,-1.831202149,-0.039405748,5.195257187,-12.86595535,-34.00630569,5.786005974
2.841552999999749,-30.29552269,3.031920433,-115.2137909,-0.080547161,1.586606264,8.195446968,-11.7889185,-14.71022511,-5.065819263
2.8498859999999695,-30.38889503,2.874973297,-115.0701904,-6.611433506,0.725455582,13.74765587,-13.77264404,-25.18702126,5.305813313
2.8582189999997354,-30.48019409,2.749088526,-115.0453415,3.817486525,-0.004794896,5.588601112,-12.62373638,-14.57016277,-5.534277916
2.866551999999956,-30.55096817,2.626581192,-114.9238205,-9.009666443,1.025311112,14.42258358,-10.86263084,-20.29879189,5.045622826
2.874884999999722,-30.58662987,2.529755116,-114.9137955,4.704116821,-1.441104531,13.66434002,-5.853915691,-10.65164185,-5.321984768
2.8832179999999425,-30.58288574,2.423208475,-114.8240356,-11.21238136,1.531101346,13.34489059,-1.710557342,-16.74639893,2.754376173
2.8915509999997084,-30.5741806,2.368812561,-114.843811,6.715339184,0.209355578,7.325877666,-0.376516432,-4.449102879,-5.809320927
2.899883999999929,-30.52059746,2.301511526,-114.7990341,-9.722346306,2.249989986,9.525613785,4.510026932,-9.943358421,0.503652751
2.908216999999695,-30.4823761,2.281774998,-114.8271332,7.738127232,0.37995553,4.016787529,3.201241732,-0.368319869,-4.550970554
2.9165499999999156,-30.44343758,2.227617025,-114.8196716,-10.23648262,0.723644674,16.00860977,2.930012465,-6.349525928,-2.480136871
2.9248829999996815,-30.37001991,2.235453844,-114.8755341,5.605275631,-1.216179729,13.54790878,7.550258636,4.165746689,-5.746670246
2.933215999999902,-30.27996063,2.209260941,-114.8778992,-11.01224995,1.904749036,16.1849041,9.102632523,-2.852234602,-1.813782334
2.941548999999668,-30.15295029,2.21229744,-114.9388046,4.402583122,-1.219712019,8.989656448,14.00146103,3.954633474,-6.575905323
2.9498819999998886,-30.03462029,2.227799654,-114.9358978,-7.957305431,1.098331809,7.89089489,12.46337795,1.163526773,1.231199622
2.9582149999996545,-29.94026756,2.231406927,-114.9993362,4.118369102,1.427912712,6.493157864,10.09600639,4.141745567,-6.82095623
2.966547999999875,-29.86995506,2.278568506,-114.9703598,-6.236458302,0.330209553,10.36896515,6.579145432,2.94015646,5.75785017
2.974880999999641,-29.82054138,2.268918514,-115.0288315,1.451233029,0.123091213,12.23053837,4.685868263,2.448823452,-7.104428768
2.9832139999998617,-29.75514603,2.317374468,-115.0056992,-3.610065222,-2.938498974,15.80883598,6.007588387,3.401391029,5.278043747
2.9915469999996276,-29.67135048,2.288622141,-115.0397034,-1.336439967,0.720128298,11.30896187,8.698543549,-1.013004661,-5.696824551
2.9998799999998482,-29.57521439,2.341608763,-115.0527496,-1.615252137,-1.413882613,9.229917526,9.867808342,6.058765411,1.713003397
3.008212999999614,-29.50509262,2.339697838,-115.0765076,-3.3691926,1.58447969,7.59185791,7.009335518,1.16998148,-3.038988352
3.0165459999998347,-29.47078133,2.427221537,-115.1620483,-2.64983511,0.43252933,9.811564445,2.806398153,13.92548752,-3.788973093
3.0248790000000554,-29.47427177,2.49997139,-115.2012787,-3.368994713,0.477332115,10.86316109,-1.736862779,9.879076958,-0.246396109
3.0332119999998213,-29.47802162,2.596968412,-115.33004,-2.95926857,-0.928182364,13.69586086,-1.505976558,17.45336533,-7.73612833
3.041545000000042,-29.47108078,2.715666771,-115.3703384,-2.635174751,-0.898699164,13.43991375,-0.462170571,14.74240494,2.356766224
3.049877999999808,-29.43553352,2.841823816,-115.5205994,-3.105962276,-0.709873676,13.1519022,3.393093586,21.76360321,-8.268060684
3.0582110000000284,-29.37116623,3.002405167,-115.5881805,-1.950613618,-0.306334138,9.054229736,6.615544796,20.72909546,1.958106637
3.0665439999997943,-29.34162903,3.181968451,-115.7455444,-1.975394726,1.274210095,7.163507462,2.816312313,27.76697731,-5.935833454
3.074877000000015,-29.33625031,3.385481596,-115.8624954,-2.762773275,1.379371166,8.493733406,-0.073039033,28.11896706,-0.69387728
3.083209999999781,-29.36343002,3.604238033,-115.996666,-1.912400842,-1.40542686,11.9569006,-4.033054352,30.48324394,-1.18034339
3.0915430000000015,-29.38670158,3.791726112,-116.1132278,-2.835077524,0.859289646,13.45535564,-3.410396338,26.41848564,-1.576262474
3.0998759999997674,-29.3511467,4.017629147,-116.2621002,-1.13200295,-2.34533143,12.95854282,3.728539228,32.12158585,-2.34005475
3.108208999999988,-29.30554581,4.23825264,-116.3782425,-3.606722593,1.911892653,10.81636143,4.953182697,29.85503387,0.403040379
3.116541999999754,-29.29178238,4.468356133,-116.5533829,-0.363274544,0.815368712,6.64493084,1.493541956,34.11629868,-4.912315369
3.1248749999999745,-29.32154083,4.699952126,-116.6365585,-2.637681246,-0.444938064,10.04080486,-4.293627739,29.07107544,4.480470657
3.1332079999997404,-29.36074066,4.912800312,-116.8242798,-1.756600738,-1.292657614,15.40315819,-4.568931103,33.05722809,-7.231354237
3.141540999999961,-29.35228729,5.144984722,-116.9320755,-1.738426208,-0.094615452,9.615884781,0.627088189,30.56723213,1.982594728
3.149873999999727,-29.37653542,5.335475922,-117.0552521,-1.52454865,-0.481841087,5.047182083,-3.313344479,26.93971252,-1.812067389
3.1582069999999476,-29.45775223,5.538999557,-117.1691132,-2.227137566,0.877542555,11.57412148,-9.97328186,27.92133331,-0.299238533
3.1665399999997135,-29.50508499,5.760247707,-117.3187027,-1.093719125,-1.361607432,13.37364578,-5.652388096,31.76009369,-2.781362772
3.174872999999934,-29.53911781,5.956994534,-117.3851929,-2.701127529,0.225884497,6.335996628,-4.792259216,24.42108536,4.283086777
3.1832059999997,-29.63258743,6.12177515,-117.5239792,-0.131409854,0.034778435,9.005943298,-11.21006584,25.1988163,-4.889748096
3.1915389999999206,-29.70867348,6.340977669,-117.6064758,-1.913182855,-1.50813818,14.10552311,-9.578719139,27.69249344,4.024101734
3.1998719999996865,-29.78253555,6.476477146,-117.6981506,-2.873691082,-0.022513565,10.99190426,-9.36583519,19.44425774,-1.809531212
3.208204999999907,-29.88892937,6.60625124,-117.7593079,-0.71471262,-0.088150367,9.919350624,-13.45105267,17.10181236,0.977926195
3.216537999999673,-29.98151207,6.756342411,-117.8588943,-2.267307997,-1.410027862,14.16297436,-11.47913933,21.31056595,-1.471372008
3.2248709999998937,-30.04109764,6.855296612,-117.8716354,-2.948564053,0.30709216,10.41632652,-8.490031242,11.00792313,4.179141998
3.2332039999996596,-30.13867378,6.947866917,-117.9520798,-1.020711064,1.418910265,11.63248062,-12.30258465,14.22015667,-2.941731453
3.24153699999988,-30.21023369,7.052486897,-117.9806976,-2.901495457,-1.683970451,11.3516283,-9.689136505,12.53266335,2.917666674
3.249869999999646,-30.2754631,7.086810589,-117.9992905,-0.784532368,0.482461721,10.29262447,-9.312017441,4.450115681,-0.015432579
3.2582029999998667,-30.38165092,7.137207508,-118.0108871,-2.661834478,-0.34467569,11.52361298,-14.09158421,5.882719994,1.415058613
3.2665359999996326,-30.4619503,7.155835152,-118.0434113,-1.178616047,-0.875355959,9.720339775,-10.90401936,3.679049969,-2.408263445
3.2748689999998533,-30.53903008,7.143019676,-118.0031586,-1.827346444,0.237353444,9.063333511,-11.37370777,-3.793890953,2.902195692
3.283201999999619,-30.64245987,7.181489944,-118.0494232,-2.394319534,-0.505679667,11.07999516,-13.46892834,6.58314085,-2.61824894
3.29153499999984,-30.69360352,7.151082039,-118.0146332,-2.369936228,0.644397438,8.274889946,-8.179099083,-5.288609505,1.257582188
3.2998680000000604,-30.75754738,7.176706791,-118.0340195,-1.100048184,0.283583105,10.48186111,-9.116093636,3.679920673,-0.730607629
3.3082009999998263,-30.80640411,7.204491138,-118.0115891,-3.510024786,0.067153096,10.0937767,-7.721450329,1.463956118,3.551721334
3.316534000000047,-30.83508682,7.179675579,-118.0217361,-1.52147913,0.831848562,9.777988434,-5.037206173,-2.135855913,-2.790837526
3.324866999999813,-30.86308479,7.253651619,-118.0242767,-2.178812504,-0.37713778,12.47760677,-4.841333866,7.74174881,3.845259905
3.3332000000000335,-30.86363792,7.226285458,-118.0224075,-2.303123236,-0.653787732,10.91944695,-1.833582282,-3.093955994,-1.781329036
3.3415329999997994,-30.87276649,7.28425169,-118.0221176,-1.585688114,0.362849772,8.878669739,-2.621399164,5.917989254,3.151805878
3.34986600000002,-30.872015,7.258813381,-118.0385895,-3.221457481,-0.29113245,13.08625603,-1.386460066,-1.738297343,-3.598685026
3.358198999999786,-30.82921982,7.282105446,-117.9952087,0.039971247,-0.668073177,8.113517761,2.953808308,-0.284919977,5.421816826
3.3665320000000065,-30.81949806,7.291010857,-118.019783,-4.949160576,0.183552831,13.46226311,0.019979103,2.381252766,-2.412284613
3.3748649999997724,-30.77108192,7.278980732,-117.9732437,-0.304067463,-0.054674428,7.699367523,3.365633488,-4.256637573,3.767751455
3.383197999999993,-30.74128532,7.306744576,-118.0196457,-4.146350861,-0.486916363,15.01227665,2.549769163,5.534673214,-3.341133833
3.391530999999759,-30.6636734,7.272134304,-117.946785,-0.136963636,-1.067230463,7.060774326,6.683728218,-8.035737038,4.890706062
3.3998639999999796,-30.6133461,7.309817314,-117.9962158,-3.656432867,0.934879899,13.98684025,5.053329945,6.709571838,-3.009915829
3.4081969999997455,-30.53344536,7.255737305,-117.9449921,0.053463679,-1.082810521,4.984334946,7.287967205,-8.726167679,1.501455307
3.416529999999966,-30.45587921,7.270776749,-117.9615479,-4.090146065,0.551906407,16.4664669,7.832141399,2.399695158,-1.072788119
3.424862999999732,-30.36626244,7.218214989,-117.9019318,0.214326426,-1.347516179,7.632705688,8.328572273,-9.068375587,2.479663134
3.4331959999999526,-30.2805233,7.196751118,-117.8641891,-3.797890663,0.758198857,12.63537025,7.990233898,-4.667900085,2.320803642
3.4415289999997185,-30.21583557,7.174180508,-117.8454895,-0.941616237,-1.506462216,8.266395569,5.960663319,-3.497483253,0.111908607
3.449861999999939,-30.13311195,7.102356911,-117.7702484,-2.877957344,-0.771964371,13.74244499,7.087228775,-12.07289791,3.058288813
3.458194999999705,-30.09662819,7.145584583,-117.7895203,-2.740800858,-1.271499276,9.142233849,3.144147158,5.603830814,0.171436071
3.4665279999999257,-30.04177475,7.017734528,-117.6752014,-1.300083876,-0.956176281,8.896618843,3.188051462,-20.18055344,3.675234318
3.4748609999996916,-30.02681923,7.135902882,-117.7485962,-5.43267107,-0.829198658,14.56474304,1.358476996,16.61680412,-0.916644037
3.483193999999912,-29.99996376,6.994213104,-117.6152878,1.631846547,-1.689927816,5.679854393,-0.471519887,-22.84100533,4.983225822
3.491526999999678,-30.00266075,7.132313251,-117.699501,-8.337186813,-0.769023955,19.29119873,-0.601563334,19.33232307,-0.846614778
3.4998599999998987,-29.9865551,7.010085583,-117.5658035,3.611288071,-0.673769832,0.497568667,-1.748261809,-20.77147484,6.081051826
3.5081929999996646,-30.01839828,7.097055435,-117.616951,-9.337733269,-1.414515018,18.3388443,-4.590007782,12.04860592,-0.501744568
3.5165259999998852,-30.05933189,7.088149071,-117.558403,4.0572052,-0.658943057,1.769211054,-7.494431973,-4.577558994,5.215315342
3.524858999999651,-30.08605766,7.07805872,-117.5570679,-7.297107697,-0.537929475,18.96325493,-4.748277664,-1.164564013,-0.914313018
3.5331919999998718,-30.10640907,7.160295963,-117.5655746,1.874506712,-0.626534879,4.217741013,-4.034024715,8.866855621,3.823898077
3.5415249999996377,-30.14167213,7.054490566,-117.4972458,-4.255455494,-0.762108147,11.46281528,-6.767449856,-15.10365582,0.219129845
3.5498579999998583,-30.17646217,7.222442627,-117.5683365,-1.445379019,-1.188878179,12.92830276,-4.841540813,21.45841026,2.627791166
3.558190999999624,-30.20283699,7.051876068,-117.4833221,0.389763743,-0.983357489,5.680911541,-5.953890324,-22.81905174,-1.989624977
3.566523999999845,-30.21615028,7.158083439,-117.5168915,-4.885368824,0.066845141,17.56239128,-2.809971571,12.8514843,2.703660011
3.5748570000000655,-30.25519753,7.071650982,-117.4762192,0.866230249,-1.834823132,2.07841754,-6.810555935,-11.43582153,-1.485689759
3.5831899999998313,-30.27546883,7.0377388,-117.4184952,-3.924097776,0.236553639,13.47897243,-5.005214214,-7.214084148,3.73119998
3.591523000000052,-30.32714081,7.082137585,-117.4523697,-1.525519729,-1.187893629,10.36849403,-7.222868919,6.599712849,-1.240510345
3.599855999999818,-30.35024261,6.912073135,-117.3198929,-1.013611197,-1.336646318,11.54010105,-6.406418324,-25.72934723,3.002630472
3.6081890000000385,-30.39566803,7.029486656,-117.4012299,-5.896776676,-0.86819011,14.35146332,-5.787065029,17.01851273,-1.680998802
3.6165219999998044,-30.42881775,6.850615978,-117.2655792,1.964854836,-1.667783856,4.991432667,-7.648684978,-26.87051582,2.814775944
3.624855000000025,-30.44004631,6.91900301,-117.3066711,-7.666110516,0.331265748,18.70434189,-2.278194189,9.521553993,-0.510402083
3.633187999999791,-30.48216438,6.864434719,-117.2431793,1.085456729,-1.137622118,4.941962719,-7.669249058,-9.658680916,2.94658494
3.6415210000000116,-30.48139572,6.779417038,-117.1959686,-5.16899395,-0.535063386,18.45249939,-2.102634668,-11.68161774,-0.772999346
3.6498539999997774,-30.49692726,6.858595848,-117.2336655,-2.177454948,-1.741182089,9.310574532,-3.032764435,10.26808262,0.732055008
3.658186999999998,-30.49966049,6.712372303,-117.1218567,-1.848858356,-0.8404181,8.071717262,-3.435497522,-21.91827393,2.128671646
3.666519999999764,-30.5164566,6.824658394,-117.1893005,-5.600973606,-1.37976861,18.22969437,-2.770013571,15.45145702,-0.232974321
3.6748529999999846,-30.53535843,6.697356701,-117.1077728,1.453838229,0.118071876,1.812243462,-4.942460537,-18.13215637,0.163213968
3.6831859999997505,-30.52909851,6.783085823,-117.1659698,-6.942382336,-0.767263174,19.50611115,-0.144886926,12.11860752,-0.848714948
3.691518999999971,-30.50000954,6.794342041,-117.1701508,1.104248643,-0.334498584,2.115602255,2.029185295,1.380889058,-0.19124867
3.699851999999737,-30.46850777,6.812749863,-117.1933441,-6.690433025,-0.37582615,14.3836813,2.413552761,3.109132767,-1.484614015
3.7081849999999577,-30.44553185,6.926600456,-117.2731857,1.052680135,-1.486491203,7.232857227,2.381919146,16.56593323,-1.722288728
3.7165179999997235,-30.41265678,6.900758743,-117.2726669,-4.457705498,0.488543868,12.27086258,2.238888979,-2.913170815,-1.721135616
3.724850999999944,-30.40746689,7.063490391,-117.3918839,-0.663552701,-0.980747938,9.398519516,0.841735423,23.99522209,-2.808845758
3.73318399999971,-30.37669373,7.020415306,-117.3729248,-2.465193748,-1.745321155,8.445167542,1.721225262,-5.789111137,-0.908575237
3.7415169999999307,-30.3734417,7.23156786,-117.5140915,-3.828323126,-0.749922514,11.99224949,0.969678879,30.32720184,-2.138111353
3.7498499999996966,-30.36000633,7.171984673,-117.5074768,-1.313400745,-1.802382231,8.285310745,-0.174164012,-6.737940311,-3.205301523
3.7581829999999172,-30.33511353,7.413424015,-117.660759,-4.24801445,-0.87102139,14.76401424,3.801412344,34.18832779,-1.552723527
3.766515999999683,-30.2927227,7.431419373,-117.6660614,-0.77729243,-0.496448964,0.733128667,3.483407497,2.016326666,0.267258912
3.7748489999999038,-30.28865433,7.664178371,-117.817337,-4.416193485,-0.107669175,16.08612251,1.351664305,33.16175461,-1.897952557
3.7831819999996696,-30.22470093,7.703294754,-117.8298874,0.849139154,-1.334714651,4.486828804,6.200387955,4.662431717,0.759410977
3.7915149999998903,-30.21390533,7.936388016,-117.9642944,-5.203567982,-0.90147543,16.77555847,1.967328668,32.17860794,-0.176597506
3.799847999999656,-30.16961098,7.922252178,-117.9617691,2.563631773,-3.275443316,2.953352928,3.598748684,-1.75720048,-0.915900946
3.808180999999877,-30.17554474,8.14214325,-118.0968018,-7.11370945,-0.065907083,15.62656975,0.031095704,30.84176826,-1.054910302
3.8165139999996427,-30.18830681,8.130368233,-118.092865,3.942172766,-2.724962234,0.893414676,-3.26946497,-1.585969448,-0.644748688
3.8248469999998633,-30.19906425,8.287864685,-118.1780396,-7.929364681,0.277902186,19.54982758,-1.351830363,21.38879395,0.313646466
3.833179999999629,-30.20252609,8.345553398,-118.2155228,2.713881016,-1.694497347,4.032274723,-1.448087931,8.043663979,-0.622438669
3.84151299999985,-30.19774628,8.399207115,-118.214035,-6.771234512,-0.970392883,14.47318268,-0.973865986,5.440975666,2.945713997
3.8498459999996157,-30.22351646,8.591714859,-118.3362656,0.425482929,-2.835699797,7.476422787,-2.602010965,27.1039505,-1.197530389
3.8581789999998364,-30.25210762,8.497799873,-118.2589874,-2.038481951,0.445305169,11.25823402,-6.330597401,-14.39116764,1.7993747
3.866512000000057,-30.28176308,8.66795826,-118.3725739,-4.372997761,-2.188057899,15.78551865,-3.190958738,24.30261803,-1.689118624
3.874844999999823,-30.29495239,8.590771675,-118.2756271,0.994282901,-0.06959065,1.626991272,-4.848967552,-13.83513451,4.813325405
3.8831780000000435,-30.29592323,8.711951256,-118.3488998,-5.527709961,-0.12833111,16.65874481,-0.45430693,16.81854057,-0.515396893
3.8915109999998094,-30.29345322,8.749474525,-118.341713,0.781437159,-1.307362437,4.164165974,-1.356593966,3.422292471,2.561346769
3.89984400000003,-30.2676487,8.711388588,-118.3213501,-2.447327137,-0.892286301,15.5576849,1.075080633,-5.256104469,-0.621567845
3.908176999999796,-30.26651764,8.845158577,-118.3734512,-3.304965734,-1.288526893,8.952178955,-0.432125062,16.94412804,2.307971239
3.9165100000000166,-30.24276924,8.722673416,-118.3040314,2.262916565,-2.242094994,5.968763351,-0.071886361,-16.92754173,-0.710449338
3.9248429999997825,-30.23115158,8.775814056,-118.3214722,-5.287062645,-0.496157587,14.63491821,0.191363946,6.515902519,0.975671828
3.933176000000003,-30.23670769,8.717803955,-118.3136597,1.460667372,-1.751977086,9.158045769,-2.469917059,-6.596166134,-3.060991049
3.941508999999769,-30.19505501,8.639627457,-118.2632904,-3.214391708,-0.05687381,10.72394276,2.565957546,-11.15104198,-0.004136699
3.9498419999999896,-30.17386436,8.670329094,-118.3074036,-3.727461815,-0.478309542,11.89939976,1.675017476,5.684720993,-2.997672558
3.9581749999997555,-30.13971329,8.555335045,-118.2309341,1.313340306,-1.053067207,6.976355076,1.202076435,-16.52847481,0.468074679
3.966507999999976,-30.13126755,8.529129982,-118.2255096,-5.025231361,-2.0122509,15.25484848,-0.745361507,-3.176050186,-1.344222426
3.974840999999742,-30.15237236,8.483387947,-118.200264,-0.094234139,-3.400764942,11.5104208,-4.503174782,-6.288103104,-0.610861123
3.9831739999999627,-30.14766693,8.319856644,-118.1005173,-2.978973389,0.020417353,10.79316425,-2.838148117,-23.02045822,0.00868323
3.9915069999997286,-30.17542076,8.349884033,-118.1133575,-4.502490044,-1.21963644,14.23820591,-4.627045155,3.845285654,0.047283877
3.999839999999949,-30.17725563,8.166230202,-118.0124359,0.549641669,-1.664804578,3.375716209,-3.622763872,-25.21772766,-1.030576468
4.008172999999715,-30.17355347,8.217996597,-118.0181274,-6.260184765,-0.795334041,18.66561127,-0.979680538,5.674526691,2.093887091
4.016505999999936,-30.18900681,8.122991562,-117.9481201,1.535042405,-0.562924743,2.976975918,-4.719360352,-14.21156311,1.202460527
4.024838999999702,-30.20659447,8.073994637,-117.9013367,-4.944015026,-1.745743752,15.47133827,-4.423002243,-7.914403439,1.401303768
4.033171999999922,-30.20869827,8.059067726,-117.8588638,-0.164608777,-1.067492962,4.945075035,-2.621296644,-4.213861465,3.125628233
4.041504999999688,-30.23672104,7.993195534,-117.7800674,-4.236703396,-2.127413511,12.41412067,-6.207700729,-11.5779829,3.664834023
4.049837999999909,-30.26131821,8.007951736,-117.8003159,-1.932047248,0.784744263,8.986628532,-4.272108555,2.591776371,-1.478082299
4.058170999999675,-30.23478508,7.984640598,-117.7543106,-3.603750467,-2.024033785,13.36243153,0.894679546,-5.209205627,2.869998217
4.066503999999895,-30.21679878,8.048266411,-117.7857666,-1.69931972,0.175191283,7.599838734,1.012505054,8.281722069,0.401118875
4.074836999999661,-30.20916176,8.048357964,-117.7710114,-3.164710999,-1.673700929,11.90703678,-0.852223992,-0.906039417,1.072391033
4.083169999999882,-30.19557381,8.093405724,-117.8012161,-1.214493871,-1.154013038,6.256361008,0.476399094,6.312294483,-0.648949385
4.091502999999648,-30.23714828,8.120036125,-117.8147964,-3.159089565,-1.951550126,12.33715343,-6.281723976,3.536352396,-0.231155649
4.099835999999868,-30.23916435,8.125265121,-117.8348999,-0.784100592,-0.916232288,9.440717697,-1.56114912,1.586596966,-2.027276993
4.108168999999634,-30.24339485,8.193618774,-117.8708725,-3.829713345,-1.995566726,10.10890675,-1.418478131,9.202453613,-0.00329143
4.116501999999855,-30.24990463,8.213721275,-117.8967056,-0.836688459,1.169399619,6.246531963,-1.988548398,3.501235723,-1.76496172
4.124834999999621,-30.24878311,8.284754753,-117.9326401,-3.410904169,-2.282490969,15.5525732,-0.7687729,9.478010178,0.161984429
4.133167999999841,-30.19118881,8.320495605,-117.9398804,-0.949343503,-0.269961625,5.881709576,5.385110855,4.007936001,1.091115117
4.141501000000062,-30.20386887,8.422106743,-117.9777222,-4.466918468,-1.874917388,12.51987934,-2.382086039,12.76462746,1.802064061
4.149833999999828,-30.17610741,8.442982674,-117.9953995,-0.464598477,-0.34902209,5.43162632,1.990481973,3.079086781,-0.862905025
4.158167000000049,-30.15667534,8.579352379,-118.0717468,-4.228294849,-1.372247577,13.5481987,2.165761232,18.66666222,-0.056517828
4.1664999999998145,-30.07863998,8.646567345,-118.0926208,-1.305671692,0.248270407,8.412694931,8.092022896,8.096608162,1.564619899
4.174833000000035,-29.99785233,8.792752266,-118.1828995,-3.724837542,-1.103897929,13.19349003,9.815736771,20.51178551,-0.933575213
4.183165999999801,-29.88705063,8.852695465,-118.2136917,0.496223152,0.182926491,6.004999638,12.21811962,7.93964529,0.074947253
4.191499000000022,-29.79973602,8.959721565,-118.2716522,-3.466515779,-1.50796175,16.33771896,10.03312397,14.52524567,-0.015535035
4.1998319999997875,-29.66069031,8.982944489,-118.2684326,1.011341572,-0.494187534,3.622389793,14.97933578,2.113328218,1.36651957
4.208165000000008,-29.57219887,9.053368568,-118.3141327,-4.320649624,-1.3224895,15.72720528,9.955460548,9.988196373,-0.979117155
4.216497999999774,-29.43231773,9.044898987,-118.2950668,1.043925643,-0.555790603,4.764327526,14.7752924,-2.140518188,1.166472673
4.224830999999995,-29.30743408,9.127891541,-118.3337631,-5.240699768,-1.114233255,15.9453249,14.19761467,10.89373684,0.441794395
4.233163999999761,-29.15978622,9.096405029,-118.2976761,2.159941912,-1.605669975,5.738369465,15.40568638,-5.452798367,1.454479218
4.241496999999981,-29.0429554,9.09403801,-118.2905426,-4.860771179,-2.708389997,11.75542259,12.36135387,-0.694132984,0.155171037
4.249829999999747,-28.95772171,9.122566223,-118.2882919,-0.240078613,0.118577234,5.89583683,8.545985222,2.750738621,1.545383811
4.258162999999968,-28.85529518,9.058405876,-118.266243,-4.409774303,-1.888196111,16.97244263,10.34932995,-8.038579941,-1.881583571
4.266495999999734,-28.70493317,9.161015511,-118.3006973,-0.995351672,-1.219182968,7.971781731,17.05204391,12.63161278,2.032105923
4.274828999999954,-28.5872345,9.116463661,-118.2715607,-3.62497139,-0.210634246,9.097509384,12.04788876,-6.383670807,0.021157362
4.28316199999972,-28.49299431,9.205414772,-118.2974548,-0.139394701,-1.20848906,9.20395565,10.17787075,10.77598858,1.977214694
4.291494999999941,-28.37798119,9.11421299,-118.2484589,-3.215207815,-2.266397715,11.83830357,11.34347057,-12.42476273,-0.551256835
4.299827999999707,-28.27458191,9.225027084,-118.2656937,-1.310099244,0.174978167,10.35352707,11.11145878,12.59892845,4.100276947
4.308160999999927,-28.15714264,9.149083138,-118.2176361,-3.019901991,-1.114903808,8.570818901,11.64925289,-10.75771236,0.260778606
4.316493999999693,-28.02311516,9.265125275,-118.2348404,-0.450767189,-2.401171207,12.5739212,14.7938652,13.18534279,4.323069572
4.324826999999914,-27.92401695,9.182073593,-118.1809082,-2.630253792,-0.892041087,5.45520401,9.332906723,-11.83676338,0.523093998
4.33315999999968,-27.84613609,9.223880768,-118.1665192,-0.255337954,-1.199533939,12.98114872,7.435966492,3.536121845,3.493320704
4.3414929999999,-27.71710014,9.172948837,-118.1189575,-5.072003365,-1.685186505,10.66133499,13.04927635,-8.070137978,1.688004017
4.349825999999666,-27.61027336,9.265181541,-118.1259537,-1.129076838,0.51943624,6.773651123,11.30397415,10.04057789,4.133933544
4.358158999999887,-27.52216339,9.25658226,-118.1163101,-4.059038162,-1.21815753,13.20816422,8.865216255,-1.479670286,0.087600686
4.366491999999653,-27.3993187,9.315490723,-118.0951233,0.476053327,-2.676038027,8.661384583,12.692379,4.997375965,5.161025524
4.374824999999873,-27.31546593,9.335328102,-118.1083145,-4.953980923,-0.940575004,11.70659637,8.796876907,2.796280861,-0.74116075
4.383157999999639,-27.21047783,9.368156433,-118.0954361,0.772040486,0.095349491,3.322780848,10.69970703,2.66808176,2.871919632
4.39149099999986,-27.12582207,9.483891487,-118.1365814,-4.673765182,-1.690097332,13.18707752,9.446072578,14.54448509,1.564185023
4.399823999999626,-26.95233536,9.503040314,-118.1117859,0.842592239,-0.445331007,7.367933273,18.71647835,0.66960746,3.188383818
4.4081569999998464,-26.83635521,9.614807129,-118.1296005,-4.341034412,-0.824664414,7.580862045,12.7511034,12.88129997,3.739884138
4.416490000000067,-26.69338036,9.668346405,-118.1077957,-0.484284937,-1.079820752,7.386880875,15.19557285,4.538946152,4.75180006
4.424822999999833,-26.5065937,9.774688721,-118.121376,-3.024921179,0.129085317,12.78897476,21.05301476,12.01866436,3.941955805
4.433156000000054,-26.28453064,9.912419319,-118.1305847,-2.288830757,-0.750921011,9.177226067,25.21669388,15.21524906,5.966327667
4.4414889999998195,-26.10334969,10.02113628,-118.1421661,-2.561781883,-1.824840784,6.372817039,20.45750999,12.27754974,4.083423138
4.44982200000004,-25.93503571,10.16482353,-118.1880493,-3.163667202,-2.071180344,14.6228466,19.54021454,17.79514122,2.295216084
4.458154999999806,-25.69324493,10.31206036,-118.2021103,-3.857325077,-0.478621155,8.60637188,27.79341698,16.59319687,5.754370689
4.466488000000027,-25.47652435,10.56258202,-118.2977982,-1.787904501,-0.908083975,9.388710022,26.47678185,31.94881058,2.329617977
4.4748209999997925,-25.24126244,10.71673679,-118.3211288,-2.676764965,-0.646043003,6.534993172,27.22729111,17.86095047,4.990963459
4.483154000000013,-25.0259552,10.96737671,-118.3842392,-1.108747125,-2.352359295,11.22038269,25.6332798,30.30071449,5.667312145
4.491486999999779,-24.75942421,11.12590981,-118.4101944,-3.863333941,-0.803611159,6.682990551,31.05785751,18.50935364,4.789764881
4.49982,-24.52058411,11.3921299,-118.4857407,-1.443102837,-0.438257515,7.46032238,28.81941986,32.68996811,4.793174744
4.508152999999766,-24.22746086,11.62147713,-118.5405045,-3.829390049,-0.923046947,10.33195114,34.96490479,27.69362068,5.048139095
4.516485999999986,-23.92200089,11.9181881,-118.6238327,0.287477851,-1.128750563,8.084609032,37.10648346,36.49504852,5.035207748
4.524818999999752,-23.60471916,12.1091671,-118.6606064,-3.465958834,-0.873865128,8.322613716,37.47028351,22.67952156,4.83922863
4.533151999999973,-23.27918434,12.40653229,-118.7254105,-0.826817036,-1.474619508,10.13285637,39.11951828,35.73425674,6.726161003
4.541484999999739,-22.91770363,12.62499046,-118.7389984,-3.483747721,-0.278015971,8.866195679,42.20988846,24.70470047,8.373670578
4.549817999999959,-22.54248238,12.88846207,-118.7773361,-0.34507823,-1.094233871,12.8714695,44.4670372,30.89950371,7.498791218
4.558150999999725,-22.14073753,13.0364418,-118.7311478,-1.905021667,-2.84227705,5.011086941,45.44343948,14.33703518,11.30112743
4.566483999999946,-21.7678566,13.2704916,-118.7449188,-2.805948019,-0.391186088,12.90851879,43.54668045,26.65190315,8.438680649
4.574816999999712,-21.30520058,13.39287281,-118.679985,-2.031876564,-0.6473701,8.117364883,52.19959259,10.84273911,11.99732971
4.583149999999932,-20.81671524,13.65065002,-118.688446,-2.929309845,-0.058293197,13.27070332,57.24485397,29.16363335,9.767334938
4.591482999999698,-20.25588608,13.77018738,-118.5950623,-1.300241113,-0.102307141,5.090749264,63.12108612,9.57837677,14.78128815
4.599815999999919,-19.70653343,14.0454998,-118.5668945,-4.423005104,-1.334719181,13.47900772,63.5387764,29.93029213,13.79593945
4.608148999999685,-19.0991745,14.15498447,-118.4758911,0.676195264,0.462955594,2.85838151,68.69965363,8.838102341,13.90941143
4.616481999999905,-18.47469521,14.40314484,-118.4249649,-4.660243034,-1.307011008,18.00927162,71.83465576,26.24824905,14.72408867
4.624814999999671,-17.75885201,14.54850769,-118.320694,-0.126524046,-0.594962597,3.791228056,81.24916077,12.7763052,16.4957943
4.633147999999892,-17.06572342,14.78756428,-118.2437057,-4.339233875,-1.301396132,12.26733398,79.23916626,24.65723991,16.64574623
4.641480999999658,-16.30835152,14.91559505,-118.1563034,-0.058480524,-0.183929861,6.870154858,86.67298126,11.77141094,13.67763424
4.649813999999878,-15.55912971,15.15270329,-118.0685654,-4.177423,-1.967126727,12.79580021,85.57944489,24.53016281,17.1217289
4.658146999999644,-14.76873398,15.31495953,-117.9812088,-0.5394063,-1.732538223,9.408828735,90.5697403,16.11227036,14.40942287
4.666479999999865,-14.00315189,15.543643,-117.8877029,-3.665905714,-2.364077091,10.74589157,87.27654266,23.84147072,16.88239098
4.674812999999631,-13.235425,15.69450474,-117.8073502,-1.309496522,-0.996152282,6.409873009,88.00688934,15.37201881,12.8433876
4.6831459999998515,-12.46196842,15.91779709,-117.723381,-3.336295366,-2.786929369,16.30927849,88.48058319,23.93154716,14.93481159
4.691478999999617,-11.63667583,16.10472488,-117.6332626,-2.823426962,0.066000663,5.499466896,94.52892303,19.73350906,14.40411758
4.699811999999838,-10.81632805,16.34826851,-117.5656815,-3.538877726,-1.731430769,13.22874928,94.54877472,27.0865345,12.98833656
4.708145000000059,-9.944460869,16.57536316,-117.4679184,-2.447911024,-0.167210281,10.29482555,99.77444458,24.7442131,15.53314495
4.7164779999998245,-9.079249382,16.8290596,-117.3948059,-2.087244272,-1.511793375,11.07984066,99.66823578,28.56937981,13.01450062
4.724811000000045,-8.21353817,17.06837082,-117.2963409,-3.235859156,-1.65927279,11.08437729,98.9159317,26.65904999,15.04831409
4.733143999999811,-7.37076807,17.30914307,-117.210144,-2.750980616,-4.981266499,14.23581314,96.41182709,27.2117672,13.49655437
4.741477000000032,-6.524313927,17.55642509,-117.1180496,-3.451634884,0.094777331,6.679058075,96.73938751,28.14706039,13.61361504
4.749809999999798,-5.69472599,17.86024857,-117.0505219,-1.890024424,-2.846916199,13.89505863,95.41317749,35.36188889,11.37245274
4.758143000000018,-4.879238129,18.14898682,-116.9337692,-1.647712111,-1.339595556,4.815763474,92.0039444,33.24040222,16.01724434
4.766475999999784,-4.156077385,18.38464546,-116.8763428,-2.154620647,-4.739891052,12.13649273,82.91790009,27.60609627,8.654788971
4.774809000000005,-3.382389307,18.64183617,-116.7666855,-3.385360718,-1.952577829,9.608627319,87.14165497,29.94346046,14.03497887
4.783141999999771,-2.610444546,18.92982292,-116.7131424,-2.399195194,-1.500512123,14.83015347,88.83478546,34.13130569,7.864747047
4.791474999999991,-1.833037257,19.20601273,-116.5860062,-0.714155138,-1.655097127,3.687035799,86.780159,32.52506638,15.25056458
4.799807999999757,-1.158697009,19.45679092,-116.491539,-1.745847225,-3.226990223,10.83418941,75.45597839,29.75555611,11.41842079
4.808140999999978,-0.436346114,19.72799301,-116.3679047,-1.341018796,-1.336414576,7.34180212,80.18295288,32.31394577,13.98548126
4.816473999999744,0.255933225,19.98296547,-116.2349548,-1.323274851,-3.363264561,13.0071516,75.93185425,30.53700447,15.01539898
4.824806999999964,0.972963572,20.11769485,-116.105072,-2.010570526,-1.825768709,6.433169365,79.1782074,16.287714,14.01861382
4.83313999999973,1.667367458,20.414114,-115.9701004,-3.562028885,-1.211043954,12.95091438,75.99033356,35.88660431,14.34655952
4.841472999999951,2.337955952,20.59901428,-115.8374557,-1.151869059,-1.318688035,8.008091927,73.3706665,22.66135597,13.67954731
4.849805999999717,2.989325285,20.76974487,-115.70858,-1.621563911,-1.216783643,13.42502308,70.98479462,21.12095261,13.44501877
4.858138999999937,3.703735113,20.99463844,-115.5481949,-1.712381959,-2.432438135,9.770553589,77.34458923,27.95748138,15.93190861
4.866471999999703,4.41937685,21.05050659,-115.4194641,1.232919216,-2.910440922,4.089174747,78.6160202,7.702257633,13.86003208
4.874804999999924,5.116894245,21.16109467,-115.2511673,-3.745360136,-0.62953645,9.934114456,74.90641785,14.75437641,17.22892952
4.88313799999969,5.852441788,21.28883171,-115.0831146,-1.971452713,0.787982047,10.02693462,79.23406219,17.06621552,17.23258018
4.89147099999991,6.549153328,21.3141613,-114.9277802,-0.669941008,-2.674609661,12.7246027,75.30990601,4.860517502,16.49179459
4.899803999999676,7.332698345,21.31966782,-114.7690887,-1.863179922,-1.354754329,14.55702114,85.46472168,2.793545723,17.28364182
4.908136999999897,8.163972855,21.32985878,-114.5943909,0.389078915,-1.051458001,7.331847191,90.60422516,3.809159756,18.74213982
4.916469999999663,8.917015076,21.20893478,-114.4544067,-1.415852904,-1.398678422,8.899407387,82.63191986,-12.02498627,17.39823341
4.9248029999998835,9.695416451,21.13698769,-114.3081665,-2.9556849,-1.446081519,11.93830109,85.54619598,-5.911625862,17.10085487
4.933135999999649,10.54827213,21.04599953,-114.1612701,0.129898787,-0.21133548,11.1316433,94.32913208,-7.832333565,17.96508598
4.94146899999987,11.41600132,20.81551743,-114.0477982,-0.7138412,-1.160800576,9.39067173,97.73955536,-24.76880836,17.30981255
4.949801999999636,12.2641325,20.61908531,-113.9144516,-1.89898169,-2.053203821,13.58485889,94.4781723,-19.97894096,19.26249123
4.9581349999998565,13.14186096,20.39924049,-113.8305664,-1.422757506,-1.687001348,12.74529934,100.2764206,-23.7010746,14.55559254
4.966467999999622,14.02062702,20.09052658,-113.7330399,-0.502127647,-1.519544125,6.92802763,99.85434723,-33.45731735,18.93180847
4.974800999999843,14.81351948,19.80739784,-113.6750641,-2.816573381,-2.776885509,8.92501545,91.25037384,-31.31771469,14.34853554
4.983134000000064,15.660676,19.46402168,-113.6187515,-0.970606983,-0.585834205,12.69236851,97.85678864,-38.11751175,16.49551392
4.99146699999983,16.51277733,19.14823723,-113.5900726,-1.360333562,-2.747036934,14.68179131,99.59292603,-35.55109787,13.17457104
4.99980000000005,17.37160683,18.70796394,-113.5615082,-1.295658946,-0.932223856,10.53641415,100.3892975,-49.60110474,18.11385918
5.008132999999816,18.17161369,18.41145134,-113.5636597,-2.270318747,-2.325814247,11.85528564,94.56013489,-33.99876785,10.18201828
5.016466000000037,18.89333153,17.96699333,-113.5587234,-0.472254843,-3.906237841,7.814324856,84.88669586,-50.41379166,17.04246521
5.024798999999803,19.53802872,17.56114006,-113.6240997,-2.925043583,-3.550029039,14.08237743,78.23596954,-48.48826599,8.528924942
5.033132000000023,20.24499893,17.14234352,-113.6135788,-3.27029562,-2.87605691,13.44418716,83.0064621,-46.95030212,17.5648098
5.041464999999789,20.86091614,16.7266674,-113.6913605,-0.6446473,-1.421437383,9.428219795,75.10637665,-49.88180161,8.705867767
5.04979800000001,21.43165779,16.29314041,-113.7512741,-3.896579266,-3.58671999,18.15329742,69.04959106,-51.0738945,11.77748966
5.058130999999776,22.00541115,15.93039894,-113.7966919,-1.249389172,-0.057159804,8.138780594,68.84191895,-42.41910934,10.79586124
5.066463999999996,22.4523716,15.51338005,-113.8725052,-2.12880969,-4.884626865,9.097160339,54.6561203,-49.75421143,10.14724445
5.074796999999762,22.87224197,15.09640026,-113.9377975,-2.255363226,-1.610288143,7.379928589,50.93007278,-49.12548065,11.8596611
5.083129999999983,23.27104378,14.79366589,-114.0131149,-3.736225128,-2.52478075,14.05739117,48.77557373,-37.01154327,5.415213108
5.091462999999749,23.64499283,14.40605545,-114.0369339,-0.910342693,-2.435919046,13.2841301,44.07264328,-43.81108093,15.53418159
5.099795999999969,23.96209526,14.08139801,-114.160965,-4.60199213,-2.014609814,12.25751972,40.262146,-41.57166672,1.886199713
5.108128999999735,24.26832199,13.83558464,-114.1063843,-1.288943529,-3.105131865,10.88006496,33.64621735,-24.36671448,17.40709686
5.116461999999956,24.47961426,13.51780987,-114.2313538,-3.331042528,-2.543746948,7.044765949,27.46587944,-40.88240051,1.768320799
5.124794999999722,24.68482208,13.28044415,-114.1646881,-2.362580538,-1.516347051,7.032064915,21.2493782,-22.7035141,18.48070526
5.133127999999942,24.81437111,13.13953209,-114.2278824,-4.986527443,-3.341635704,11.26406384,15.84260654,-18.57735062,-0.306705058
5.141460999999708,24.93553162,12.87997437,-114.1518936,1.81245172,-1.789083481,11.30414391,10.96435261,-24.5596199,20.71608734
5.149793999999929,25.0565052,12.86219788,-114.165863,-8.656783104,0.206369922,9.725989342,13.45699215,-2.751122952,-1.258837461
5.158126999999695,25.10059166,12.66551399,-114.0445328,5.503639221,-4.117620945,0.769631803,0.549720287,-15.39554882,22.42303848
5.1664599999999155,25.06830025,12.57766914,-114.0790329,-9.302131653,-0.89228183,13.52061844,-4.399526596,-11.39375019,0.125368878
5.174792999999681,25.16318893,12.54390335,-113.8853531,2.50800395,-0.563291073,10.79315567,4.80785799,5.923717499,21.81676865
5.183125999999902,25.12740898,12.46802425,-113.9016037,-7.230488777,-1.355648637,11.9967804,-5.232450962,-9.311031342,1.194840193
5.191458999999668,25.14468575,12.41765976,-113.7435989,1.362623453,-0.475962162,17.45029831,-3.534022331,2.35693264,18.88367653
5.1997919999998885,25.15239525,12.47963047,-113.6764603,-4.307933331,-1.478232503,7.458509922,-2.161483288,9.804759979,2.983662128
5.208124999999654,25.13751793,12.31441021,-113.5862122,3.544422626,-2.192305088,5.010430813,-5.631855011,-13.49281502,17.55353165
5.216457999999875,25.15409088,12.38848686,-113.520752,-8.153903008,1.470831752,11.55257416,-1.038606167,11.03414059,2.185726881
5.224790999999641,25.1513958,12.27095413,-113.4359589,3.791295528,-2.437280416,11.89668751,-4.016799927,-8.580388069,14.54575157
5.2331239999998616,25.13597298,12.30635834,-113.388504,-7.03623867,-1.269192815,15.52262497,-4.406776428,5.934217453,2.244767666
5.241456999999627,25.21987915,12.24928284,-113.2998734,2.736655712,0.63110441,7.663520813,6.283646584,-1.812386394,11.87380028
5.249789999999848,25.24773598,12.1854248,-113.254425,-2.892818451,-0.783081532,5.375715733,0.84915024,-4.939577103,7.100252628
5.258122999999614,25.24894142,12.04115295,-113.2334747,-1.046204209,-1.963538408,12.16276264,-1.907031775,-14.64632797,9.164686203
5.266455999999835,25.36318016,12.08704567,-113.1382599,-3.915976763,0.43421486,13.21179771,9.976887703,9.484761238,6.780025482
5.274789000000055,25.4438591,11.83718681,-113.167717,2.189723492,-0.812127531,7.856456757,8.892359734,-28.6058712,9.293171883
5.283121999999821,25.54732513,11.77248001,-113.1388702,-4.357488632,-1.199629188,15.14861298,10.28231239,-5.656469822,5.781684875
5.291455000000042,25.70115089,11.61630535,-113.1374741,1.017523766,0.086096123,14.89599133,16.90426254,-16.86554718,7.806056976
5.299787999999808,25.84497261,11.51950169,-113.1374893,-4.242556572,-1.606931806,8.641414642,15.85438538,-10.61001015,4.346340656
5.308121000000028,25.93009186,11.25296783,-113.2032394,1.586268187,-0.364856601,3.682077408,10.25163269,-32.19125748,6.558568954
5.316453999999794,26.06701851,11.17603779,-113.2308655,-3.430365562,-1.067146063,11.10387802,15.70392513,-9.940912247,0.27820912
5.324787000000015,26.24736595,10.93725967,-113.2647247,-0.249656066,0.439511091,12.81631565,20.8978672,-27.51532173,8.606633186
5.333119999999781,26.36832237,10.79535198,-113.3545761,-3.444119453,-1.911847353,14.03971958,15.15078926,-20.12099075,-2.670003653
5.341453000000001,26.49724197,10.5864296,-113.3805923,-1.262755036,-0.543316901,13.39960384,14.52864742,-23.85437393,7.966635227
5.349785999999767,26.68950081,10.47930527,-113.4491653,-3.680329561,-0.559981823,10.94630527,23.15706253,-15.22313976,-2.09053278
5.358118999999988,26.86026001,10.24866295,-113.4563065,1.409126639,-0.50546205,6.161463737,19.12374878,-25.12766457,11.27028751
5.366451999999754,26.96613312,10.10857773,-113.5740433,-3.259451389,-3.340368271,10.2702961,13.78998089,-21.40777588,-5.431834698
5.374784999999974,27.11842918,9.847437859,-113.575676,-1.790279269,0.047178939,13.25874805,16.78755188,-28.03808975,13.62961864
5.38311799999974,27.260149,9.789765358,-113.678627,-4.611876011,-0.056675903,14.0435276,17.70030212,-11.82858181,-8.279727936
5.391450999999961,27.39665222,9.614171028,-113.6459808,-0.454392821,-2.847604275,14.30507755,14.19676304,-16.98490906,12.66006088
5.399783999999727,27.50031281,9.513422966,-113.7710953,-4.172149181,-1.380972743,10.22272396,13.51693249,-17.64509201,-8.13982296
5.408116999999947,27.56966209,9.332158089,-113.7570801,0.397205293,-0.857861698,6.256585598,6.525497913,-18.55862045,11.08201504
5.416449999999713,27.62100792,9.313331604,-113.8386307,-4.231357574,-1.257483006,8.688729286,6.331441879,-6.567925453,-8.085108757
5.424782999999934,27.69219017,9.149603844,-113.7971268,1.276314974,-2.670455933,9.177536011,6.219152451,-15.15710545,13.02977657
5.4331159999997,27.65011787,9.103399277,-113.9003601,-6.196344376,-0.457338691,10.20570278,-4.502854824,-10.65639305,-8.778767586
5.4414489999999205,27.62582397,8.991461754,-113.857811,1.394908309,-2.129364252,11.62379932,-5.242005825,-9.598501205,10.2539053
5.449781999999686,27.65098381,9.040277481,-113.8790283,-8.607042313,0.061167888,13.4912014,1.999972224,3.958488226,-5.465181828
5.458114999999907,27.63219452,8.920329094,-113.831543,4.577116966,-1.109318137,9.061953545,-4.665172577,-10.17712593,11.21720505
5.466447999999673,27.55586433,8.936673164,-113.8727036,-7.021836758,-2.361910343,13.58607674,-9.813249588,-0.57112062,-5.718609333
5.4747809999998935,27.55517387,8.810337067,-113.8259811,3.345368385,-0.091137506,9.718209267,-2.470058203,-10.91494465,11.4784956
5.483113999999659,27.52000237,8.851885796,-113.8357544,-5.892684937,1.119425774,8.712787628,-5.442590714,3.792252064,-3.903866291
5.49144699999988,27.41768456,8.736822128,-113.8189545,3.192167282,-3.788748503,8.136392593,-14.10904121,-11.36839294,7.691687107
5.499779999999646,27.32164383,8.718599319,-113.847435,-7.82054615,-1.197406888,15.18828297,-12.39475346,-3.617908478,-2.618953228
5.508112999999867,27.25798988,8.661913872,-113.8235626,0.966979086,1.64466536,10.07129192,-9.591994286,-4.783074856,5.187972069
5.5164459999996325,27.18188095,8.718746185,-113.7980194,-3.940719604,-1.629318953,11.14279556,-10.9859972,7.340387344,-1.027438283
5.524778999999853,27.12753677,8.595677376,-113.8105316,1.959373832,-1.51007998,10.31210232,-7.817927837,-13.854743,4.974811077
5.533111999999619,27.04119682,8.556411743,-113.8287735,-3.764940262,-0.20338358,7.957122803,-11.41962242,-5.300841331,-0.401836216
5.54144499999984,26.93608475,8.470709801,-113.8475342,0.432712138,-1.651263714,12.89802074,-13.80146599,-10.21129799,2.237314463
5.54977800000006,26.8815155,8.472690582,-113.8233032,-4.564711094,-0.625173628,12.47155762,-8.370988846,1.433308601,1.914779544
5.558110999999826,26.76257896,8.341146469,-113.8734207,-0.013320344,0.291455567,8.155324936,-14.91448307,-16.80868149,1.366763353
5.566444000000047,26.61270523,8.334838867,-113.8677444,-3.012169123,-3.526799679,11.53939152,-19.5035038,-0.384623498,0.537783861
5.574776999999813,26.4926815,8.176368713,-113.9339447,-1.786319256,0.943543792,10.61375904,-14.78290653,-20.56245422,1.023097277
5.583110000000033,26.38325119,8.173649788,-113.9295883,-1.725042462,-0.222101957,9.149830818,-14.60592937,-0.122615345,0.108591557
5.591442999999799,26.26820183,8.087118149,-113.9668274,-2.385761738,-0.536271691,12.67726231,-14.69624805,-11.30361557,0.193425938
5.59977600000002,26.17532158,8.061239243,-113.9697876,-1.492768764,-2.285350084,11.988554,-12.49421597,-2.997634411,0.563910246
5.608108999999786,25.99265289,7.943390369,-114.0413971,-3.609498262,0.271552801,10.02096748,-22.245924,-16.48167038,-1.86894381
5.616442000000006,25.80849075,7.954740524,-114.050293,0.239524081,-4.360417366,13.76486397,-23.35219955,0.713497579,-2.025420666
5.624774999999772,25.66400719,7.833392143,-114.1151581,-5.609059334,2.673729897,8.910179138,-17.79058075,-16.5024395,-1.068677664
5.633107999999993,25.51403046,7.822721481,-114.1340485,2.590150118,-0.371737331,4.693208218,-19.08763123,-2.174367428,-1.946272492
5.641440999999759,25.34585571,7.757798195,-114.1703339,-4.809909821,-0.227832377,10.58754253,-21.11187935,-8.92566967,-0.998443484
5.649773999999979,25.20707321,7.751865387,-114.1926575,0.699908257,-2.520119667,12.37563419,-17.68789101,-1.840921283,-2.600358009
5.658106999999745,25.04276657,7.676105499,-114.2394638,-6.460865021,1.247110844,10.20295906,-20.48410034,-10.63104057,-1.625403285
5.666439999999966,24.87866402,7.739144802,-114.2440262,1.299853802,-2.866352081,12.91265583,-21.00934029,6.553545475,-4.212672234
5.674772999999732,24.76680756,7.713243008,-114.2541504,-7.484811783,1.212426782,11.64134216,-14.78090191,-3.363021612,-0.233576253
5.6831059999999525,24.6953907,7.785192966,-114.261879,1.163671851,-0.558306873,6.874588013,-9.832742691,7.381703854,-4.976385593
5.691438999999718,24.61904907,7.789811134,-114.2367859,-4.512018204,2.432144403,9.506104469,-11.09004211,1.712042809,2.033399105
5.699771999999939,24.56706619,7.916362762,-114.220726,0.150930375,-2.809775829,13.65881252,-7.872434139,14.46468067,-5.25353241
5.708104999999705,24.55210686,7.938098907,-114.1833191,-4.871098518,1.588113666,11.46666527,-3.935678959,4.184790134,2.513460875
5.7164379999999255,24.51280212,8.03998661,-114.1910629,0.686836481,-2.247181177,10.39724731,-5.951827526,10.59045124,-6.601302147
5.724770999999691,24.44197464,8.113059998,-114.1230621,-5.384560108,-0.388316125,12.78451443,-11.16481209,11.29217815,3.27107954
5.733103999999912,24.40414619,8.229613304,-114.1633453,-0.559089422,-0.27666539,10.49703503,-5.20988512,10.59498405,-10.85364914
5.741436999999678,24.39811707,8.262804985,-114.0743637,-1.608796597,0.873953462,5.799088955,-3.775461912,7.954873085,7.531571865
5.749769999999899,24.36460686,8.402011871,-114.1171112,-0.467693478,-1.446432233,10.30310345,-4.632976055,12.94667912,-12.26258755
5.7581029999996645,24.37180519,8.426037788,-114.0337067,-2.730135202,-0.066225283,10.22183228,-2.122088432,6.675467491,7.383726597
5.766435999999885,24.32597923,8.513580322,-114.1025772,-0.364086419,-0.929161906,11.1665163,-5.62883234,6.009703159,-12.55679417
5.774768999999651,24.29097557,8.563109398,-114.0193863,-3.440088511,-2.415813208,15.47628498,-7.203977108,9.44613266,6.104909897
5.783101999999872,24.25953102,8.59011364,-114.1289902,-1.850511074,1.185935736,7.89509201,-3.15321517,-2.585577965,-13.96833992
5.7914349999996375,24.22202492,8.636108398,-114.0609283,-1.226253867,-1.624425292,10.29243279,-7.247189999,8.312140465,4.653044224
5.799767999999858,24.19159698,8.676681519,-114.1314621,-2.829710722,2.000306129,9.863167763,-3.711682796,0.797486484,-10.4565258
5.808100999999624,24.18063164,8.697642326,-114.1042175,0.22369425,-1.897489786,8.667525291,-3.331387281,3.582112312,1.469988108
5.816433999999845,24.13092422,8.76112175,-114.136055,-3.643937111,1.176670432,13.26668549,-6.753603458,5.283922672,-7.192426682
5.824767000000065,24.09985733,8.722425461,-114.1625748,0.164516523,-2.974789858,12.86681175,-4.765733242,-5.559749603,-1.419515491
5.833099999999831,24.03458214,8.7436409,-114.1974258,-4.686714649,-0.184223488,11.39806843,-8.548008919,0.468420357,-5.547352314
5.841433000000052,23.97999763,8.734405518,-114.236763,-0.103788629,-1.966010928,13.18762589,-7.355409622,-2.945406675,-4.257597923
5.849765999999818,23.9567852,8.715573311,-114.2692108,-5.027273178,1.155788779,10.73112202,-3.576950788,-3.705457449,-3.124577761
5.858099000000038,23.87112236,8.71863842,-114.2972412,2.28507328,-0.681225359,6.972566128,-11.29249668,-1.047775984,-3.634403944
5.866431999999804,23.78554916,8.705554008,-114.3389587,-5.012148857,-0.067814633,11.60972023,-10.86432934,-3.589476585,-4.594963074
5.874765000000025,23.68968201,8.629571915,-114.3762589,3.343677282,-1.719187975,4.456258774,-12.35011101,-10.16629219,-0.827237487
5.883097999999791,23.5403595,8.607096672,-114.4292068,-5.676877022,-0.712340117,13.07679939,-18.35457802,-5.053485394,-5.179687023
5.891431000000011,23.45081139,8.54971981,-114.4685669,-0.017552232,-1.963112473,11.02942181,-11.56367493,-8.21374321,-1.984693766
5.899763999999777,23.34685135,8.485625267,-114.5187531,-3.772861481,0.990623295,9.223692894,-12.95763016,-9.523759842,-2.994048595
5.908096999999998,23.21563721,8.477500916,-114.5457993,-0.783955514,-1.527334571,12.64904308,-16.78811455,-2.200801373,-3.009468794
5.916429999999764,23.08409309,8.454939842,-114.5757751,-4.359977245,0.773639798,10.39258862,-16.63401604,-3.980145931,-2.772459745
5.9247629999999845,22.91373825,8.409546852,-114.6315002,-1.063599944,-1.641404986,9.72594738,-20.98326683,-7.634684086,-4.4069314
5.93309599999975,22.68020058,8.442637444,-114.6188278,-4.484369755,-0.939643979,12.22425652,-29.62349701,4.147268295,-0.723423362
5.941428999999971,22.49308968,8.46704483,-114.6781387,-2.087455034,-0.899238765,12.9998579,-22.92818451,-0.035014674,-8.071741104
5.949761999999737,22.32411575,8.487882614,-114.637886,-2.239826441,0.709876537,7.191119194,-22.29036331,3.845889568,2.430599928
5.9580949999999575,22.12201118,8.551147461,-114.7068024,-1.362643957,-0.513434052,9.748648643,-24.54857063,3.899603128,-10.88984776
5.966427999999723,21.94906425,8.619452477,-114.6614227,-1.96118331,-0.755343974,11.09550858,-22.93574142,9.504333496,1.298655152
5.974760999999944,21.76071548,8.628949165,-114.7378922,-1.928500533,0.190293163,7.554469585,-22.74678802,-2.354846239,-9.291493416
5.98309399999971,21.54800987,8.688367844,-114.7104187,-2.846454144,0.019827951,9.873579979,-27.41783142,7.778524399,-0.06431739
5.991426999999931,21.29397392,8.783209801,-114.7523727,-2.153448343,-0.156219825,11.05042458,-31.2394352,8.742082596,-9.237066269
5.9997599999996964,21.11348534,8.874131203,-114.709671,-3.976295471,-0.475271881,17.03652,-23.73337173,11.70103931,-0.333728135
6.008092999999917,20.9776268,8.972758293,-114.7548828,-1.397459745,1.162239194,6.601727009,-16.98206329,9.085461617,-9.701292992
6.016425999999683,20.81829643,9.010904312,-114.7294464,0.048612751,0.268954068,6.629772186,-20.88331985,5.053191185,0.076035887
6.024758999999904,20.64579391,9.089911461,-114.7785263,-3.114512205,-1.22484076,12.75046444,-21.29317284,6.771624565,-9.245718002
6.0330919999996695,20.49015808,9.152131081,-114.7560425,-1.296296477,0.319362879,8.908290863,-20.39844131,7.652448177,-1.185273647
6.04142499999989,20.34227753,9.218804359,-114.7873001,-4.842154503,0.742748499,12.57299042,-18.6669426,6.170996189,-6.707857609
6.049757999999656,20.22922897,9.295575142,-114.7670822,-0.130020335,-0.721138597,10.32481861,-15.24283123,9.18507576,-2.042863846
6.058090999999877,20.09171867,9.3447752,-114.7741013,-1.700273991,1.237298369,6.346859932,-17.88648033,5.219017506,-3.261333942
6.0664239999996425,19.97454643,9.372514725,-114.7682571,-0.522206724,-1.137029409,12.62743473,-15.47645569,3.107916355,-1.515799403
6.074756999999863,19.87867165,9.363253593,-114.7929535,-3.394690514,0.623577118,9.063393593,-12.54378128,-2.077519894,-2.81638813
6.083089999999629,19.78970528,9.364087105,-114.7826843,-1.454816699,0.908541322,11.46038532,-12.1638155,0.22649388,0.012384483
6.09142299999985,19.69040489,9.391744614,-114.7939682,-3.838526487,1.001846671,10.6038475,-13.21612835,2.635769367,-2.825404406
6.099755999999616,19.60863304,9.407752037,-114.7759781,0.060271248,-1.249717832,12.25259686,-11.48870182,2.319074392,0.46688351
6.108088999999836,19.56580353,9.366437912,-114.7942276,-2.349861622,0.701277196,9.443036079,-6.304610729,-5.431959629,-0.818195462
6.116422000000057,19.54566574,9.333591461,-114.8139114,-0.959430814,-0.136291727,6.353315353,-3.363354206,-4.686508179,-1.738386989
6.124754999999823,19.49317169,9.303061485,-114.798378,-3.684036493,1.763503671,9.105172157,-8.122990608,-2.876529932,2.511181116
6.133088000000043,19.4189415,9.30414772,-114.8309479,-2.027257919,0.131075174,14.35294247,-9.641428947,-1.294927835,-4.375219345
6.141420999999809,19.42808342,9.306576729,-114.8084869,-2.13591671,-0.835631192,13.09756088,-0.859921157,1.123811841,1.964957714
6.14975400000003,19.45868301,9.288991928,-114.8281326,-1.472887278,0.874526918,8.193858147,2.689302683,-2.896585941,-2.178004026
6.158086999999796,19.47288322,9.258071899,-114.8334885,-1.336253405,0.705116928,3.583705664,0.286123812,-3.746286631,0.190736398
6.166420000000016,19.43748093,9.217298508,-114.8432236,-1.413194895,-0.658258021,11.08398533,-5.447277069,-5.095772743,-0.052790944
6.174752999999782,19.42596817,9.209323883,-114.8399582,-3.827503443,-0.388736755,15.63301373,-2.964694023,-0.810075819,0.234844133
6.183086000000003,19.45799637,9.204009056,-114.8556824,-1.569149017,-0.273345292,11.0270586,2.803183317,-1.408040047,-2.390576601
6.191418999999769,19.5036602,9.194246292,-114.8185959,-3.81430006,1.786680698,8.200564384,3.245489597,0.324570745,4.088018894
6.1997519999999895,19.52754784,9.196193695,-114.8532104,-0.201551333,0.596728504,5.763668537,2.238876104,-1.439827323,-5.074947834
6.208084999999755,19.56589508,9.167305946,-114.8232117,-1.924064398,-0.293774664,10.01364136,2.504700422,-2.114710808,4.061738491
6.216417999999976,19.5804615,9.189312935,-114.8428192,-3.052244186,-0.285542935,12.17197895,0.815698206,1.442299128,-4.141719818
6.224750999999742,19.60549736,9.195363998,-114.8398132,-2.360717058,-0.832612395,12.2966671,1.425444961,0.767748237,-0.355756104
6.2330839999999625,19.65100861,9.209625244,-114.8357697,-3.860587597,0.503580511,10.93232155,4.075622082,1.50607872,-1.184658527
6.241416999999728,19.69707298,9.249306679,-114.839592,-1.51883328,1.288572907,6.145489693,4.080257893,4.296108723,-2.476691484
6.249749999999949,19.73147774,9.283699036,-114.8144531,-0.745646477,0.757961333,7.692442417,2.308675051,4.673304558,0.493701547
6.258082999999715,19.76356697,9.32911396,-114.7913589,-2.847149611,-1.22643292,13.03606224,1.880405068,6.017514229,0.287558228
6.266415999999936,19.8121891,9.344485283,-114.7926025,-1.784227252,-0.110753156,11.45469379,4.510962009,1.500878811,-1.59266758
6.2747489999997015,19.85877228,9.354556084,-114.7696609,-3.091406345,-0.4252958,8.899705887,3.620764494,2.02184701,1.696699858
6.283081999999922,19.84010506,9.416517258,-114.749939,-2.703423262,1.003760815,6.567564011,-3.932450771,7.511515141,-1.399920344
6.291414999999688,19.84375763,9.451296806,-114.7309952,-0.913020194,-0.348632991,11.18338013,-1.455733776,4.651967525,0.24657546
6.299747999999909,19.91379166,9.487731934,-114.7053528,-2.723599434,-0.018642012,9.779811859,6.593885422,4.858699799,0.269858748
6.3080809999996745,19.96430397,9.536276817,-114.686264,-1.656083465,0.65762043,5.929513931,4.16219759,6.210747242,-0.310188383
6.316413999999895,19.94645882,9.567750931,-114.6713257,-1.834629774,0.119230032,11.27509403,-3.744314909,3.874729633,-0.707362711
6.324746999999661,19.93817711,9.626676559,-114.6545486,-3.518476009,-1.956100702,15.77637196,-2.850762367,7.2891078,-0.9915784
6.333079999999882,19.96481323,9.648265839,-114.662468,-2.220363379,0.770162046,8.474845886,2.045437336,1.850385189,-2.809010506
6.341412999999648,19.96385002,9.663271904,-114.6519928,-0.780810118,0.548682928,5.28511095,-1.848502517,2.078838587,0.104083456
6.349745999999868,19.93904114,9.682829857,-114.6448746,-2.386210203,-0.13447997,11.20140839,-4.420529842,2.203349352,-1.118650556
6.358078999999634,19.97062683,9.702254295,-114.642952,-1.735918283,0.528061211,12.37055969,2.22834897,2.234675646,-1.026029468
6.366411999999855,19.98032188,9.673862457,-114.6450577,-2.541572571,0.494940758,8.546700478,-0.095592327,-3.573493242,-0.163341999
6.374744999999621,19.94438744,9.686470032,-114.639183,-1.586108208,-0.706412196,11.33934402,-5.951698303,1.622905254,-0.311008066
6.383077999999841,19.92746925,9.678201675,-114.6520462,-2.155215263,-0.146849498,11.05185699,-3.089998722,-1.704652905,-2.100033998
6.391411000000062,19.92897606,9.623171806,-114.665451,-1.521505117,0.36688596,5.421848774,-1.07193017,-6.785006046,0.315067887
6.399743999999828,19.88091278,9.582258224,-114.6903687,-2.169103622,-0.079507999,8.773358345,-6.662620544,-5.725421429,-1.704499245
6.408077000000048,19.85646629,9.57253933,-114.7020187,-1.198067069,-0.630411267,13.438344,-4.22230196,-1.601197124,-1.34602809
6.416409999999814,19.85731125,9.515768051,-114.7196426,-4.055253506,0.900583386,9.56043148,-0.936968803,-7.238250256,-0.300506234
6.424743000000035,19.80853081,9.522494316,-114.7348175,-2.036905766,-0.06107384,9.385926247,-7.073115349,0.115353718,-2.41045332
6.433075999999801,19.7435627,9.511505127,-114.7391357,-2.351027727,0.245873675,13.08749676,-9.110856056,-1.509114027,-0.60890168
6.4414090000000215,19.715868,9.52881813,-114.7619324,-3.013968706,-0.134591118,11.38285828,-4.393353462,1.009239316,-3.68796277
6.449741999999787,19.65213203,9.50626564,-114.7651291,-1.722221375,0.002307772,5.192463875,-8.956094742,-2.829809904,-0.185703248
6.458075000000008,19.5639019,9.51721096,-114.7967682,-0.994048297,0.064909063,11.71113396,-11.48150444,-0.056325704,-4.416099548
6.466407999999774,19.51082611,9.525115967,-114.7889557,-3.403007984,-0.192692652,11.90685749,-7.88974905,1.042256117,-0.210011125
6.4747409999999945,19.43169022,9.542647362,-114.8219452,-2.700864553,0.457108706,7.661600113,-10.36057377,0.64546597,-4.829410553
6.48307399999976,19.33136177,9.550105095,-114.8025055,-2.502251625,-0.073386565,11.93828583,-13.74555016,1.346758485,0.828454316
6.491406999999981,19.23060989,9.63170433,-114.8194809,-3.59138608,0.114337422,10.14481449,-13.27106857,8.543487549,-5.578089237
6.499739999999747,19.14985466,9.699339867,-114.7718811,-2.105908394,0.400901198,9.511192322,-11.96161938,9.251312256,1.588070035
6.508072999999968,19.06860733,9.748311996,-114.7924347,-1.534339547,0.821165681,6.95601511,-10.85352039,4.722381592,-4.668143749
6.5164059999997335,18.97411728,9.841682434,-114.7438736,-2.076329708,0.298030734,6.524513721,-13.63907051,12.19395351,0.699537694
6.524738999999954,18.83484459,9.950492859,-114.7368546,-1.988304496,-0.725567698,12.11818123,-18.38016701,12.58803082,-3.891239166
6.53307199999972,18.72936249,10.0212574,-114.7015228,-3.070962906,-0.466996819,14.87748909,-14.70295906,9.125317574,0.161408171
6.541404999999941,18.62250328,10.14117718,-114.7078247,-2.683531046,0.849305689,6.047112465,-14.21216488,13.36035061,-5.757390022
6.5497379999997065,18.46861267,10.2346859,-114.6533737,-0.574558675,0.122073025,8.209572792,-20.93132591,12.42497444,1.459948301
6.558070999999927,18.33890343,10.34036827,-114.6620102,-3.103933811,0.026834192,12.52995872,-16.90114975,11.67547131,-5.418565273
6.566403999999693,18.28253174,10.42612743,-114.6199188,-1.068797827,1.013964295,8.728822708,-8.990341187,11.09192467,0.467037201
6.574736999999914,18.18052864,10.51454258,-114.6116409,-3.230031967,1.338148117,10.66172981,-13.94249725,10.34691048,-2.839825153
6.58306999999968,18.07909775,10.61771488,-114.5679474,-1.23099792,0.375260174,11.28830242,-14.43649483,13.11453152,-0.025998458
6.5914029999999,18.00940895,10.70822144,-114.5680847,-2.192378998,0.689943671,8.068198204,-9.881947517,10.28620434,-3.826818466
6.599735999999666,17.95819855,10.70124245,-114.5370255,0.439305365,0.005047437,7.766742706,-8.139307022,0.080287814,2.674702406
6.608068999999887,17.86992264,10.77229023,-114.5354462,-4.306401253,1.146166682,8.60255909,-12.14937305,8.133405685,-2.893000603
6.616401999999653,17.75481415,10.81677914,-114.5110092,-0.122308239,-1.696897507,13.2715168,-15.67094898,5.722363472,0.065918259
6.624734999999873,17.68867683,10.85642719,-114.5025177,-4.888511181,0.370777488,11.39309311,-9.647986412,4.801171303,-0.942219675
6.633067999999639,17.61133003,10.89196587,-114.4816742,0.340506405,1.609441996,3.051124573,-11.0553627,4.556452751,-0.02730478
6.64140099999986,17.50304031,10.93239689,-114.4612503,-2.881127357,-0.06327755,12.54968452,-14.97828579,5.314788342,0.381767422
6.649733999999626,17.40851212,10.9940033,-114.4301147,-1.950479388,-0.733185291,12.99623966,-13.43689919,8.032562256,0.609119415
6.658066999999846,17.31942749,11.02600002,-114.4262848,-2.704415321,1.420533299,7.696764946,-12.29836941,3.763666391,-1.161400795
6.666400000000067,17.18872833,11.03781223,-114.4107361,1.720487237,0.032840874,5.805426121,-17.45797348,1.829842925,0.824893773
6.674732999999833,17.04016876,11.04664993,-114.4154434,-3.759329796,-0.81297785,12.19951725,-19.24080276,0.814699411,-1.288242698
6.6830660000000535,16.93488312,11.02636337,-114.4212875,0.055102736,0.911557436,11.67658997,-13.83066559,-2.722793818,-0.869500995
6.691398999999819,16.79860497,11.00108242,-114.427742,-3.234822989,-0.023941979,8.332116127,-17.72574806,-3.161643028,-0.294922411
6.69973200000004,16.63711929,10.98560143,-114.4583511,0.018952521,0.468464494,9.714821815,-19.98326111,-3.049555302,-3.980120659
6.708064999999806,16.51338959,10.95874405,-114.4803925,-2.487735987,1.445816875,11.35680676,-15.86443615,-3.866649151,-2.01850462
6.7163980000000265,16.40978622,10.85631561,-114.5229568,-0.82962966,0.218359143,10.21419907,-12.76590729,-13.44637489,-2.411657572
6.724730999999792,16.27516365,10.86699867,-114.5590439,-3.429268599,1.481596112,10.23134136,-16.86121368,-0.001844225,-4.887299538
6.733064000000013,16.16217041,10.78275394,-114.6180725,-0.044712067,1.070764899,10.47444153,-13.59985733,-11.78495979,-4.603699207
6.741396999999779,16.09915733,10.72582912,-114.66922,-3.285103321,0.724078059,8.235816002,-7.937569618,-8.273833275,-4.341766357
6.74973,16.02342987,10.64225674,-114.7313843,-1.245449185,0.683769524,9.249111176,-9.13864994,-11.70606709,-4.696679115
6.7580629999997655,15.93836975,10.60006046,-114.7715225,-1.543959856,1.947976589,13.53355503,-10.84163666,-6.209249973,-3.605614185
6.766395999999986,15.86308002,10.50089741,-114.8444824,-2.770061255,0.298144549,11.7888422,-8.825437546,-13.90248871,-5.655189514
6.774728999999752,15.83638287,10.4469738,-114.908493,-0.628236949,0.585058689,7.578729153,-3.326521158,-8.323756218,-5.947421074
6.783061999999973,15.78935528,10.33420086,-114.9601974,-3.498656988,1.765287519,7.491190434,-5.903006554,-14.80562019,-2.900351524
6.7913949999997385,15.72188663,10.33573055,-115.02565,-2.649083853,0.59992075,13.52504158,-8.208183289,-1.957823992,-7.934316635
6.799727999999959,15.6435957,10.28937149,-115.078064,-2.04916811,-0.120819628,10.04722786,-9.651625633,-7.150932312,-5.172411442
6.808060999999725,15.59930325,10.27655602,-115.135788,-2.301234245,0.193813875,10.90742779,-5.59868288,-3.353902578,-6.598278522
6.816393999999946,15.56934834,10.26466751,-115.1808548,-2.117591858,0.963477194,5.970655918,-4.053504467,-2.862544775,-5.23972559
6.8247269999997116,15.49579239,10.2539587,-115.2079849,-2.822215319,0.939204693,9.09427166,-9.767144203,-2.132154703,-3.192456245
6.833059999999932,15.40459538,10.29985905,-115.2417297,-3.348134756,1.258515358,12.06075764,-11.64356709,4.186250687,-5.807337761
6.841392999999698,15.30681992,10.33198452,-115.2385406,-0.875951111,0.044960827,9.806024551,-13.3225317,3.78254509,-1.104947209
6.849725999999919,15.24479294,10.36678505,-115.2812042,-3.570674419,1.607270837,11.34567833,-7.909651279,2.587870598,-6.656039238
6.858058999999685,15.20759773,10.42908669,-115.2769852,0.537775576,-0.538024664,11.12796783,-6.076029778,7.309009552,-1.93013525
6.866391999999905,15.15296459,10.49039078,-115.2997665,-5.40228796,2.687218189,10.91866302,-7.382202625,6.193637371,-5.536056042
6.874724999999671,15.09783649,10.56826591,-115.3257523,2.645509005,0.488207728,4.739824295,-7.566318035,8.186605453,-5.844989777
6.883057999999892,15.03104687,10.56280899,-115.3424683,-3.898404598,1.327383637,6.244470119,-8.975408554,-1.337678194,-2.722178936
6.891390999999658,14.96072006,10.63001633,-115.3858261,-0.49849081,0.320080012,13.35386181,-9.003712654,6.432311535,-7.474106312
6.899723999999878,14.90049458,10.6613369,-115.391922,-3.777928114,0.443269312,10.66021919,-8.41071701,3.242826462,-2.696794987
6.908056999999644,14.84964943,10.73296165,-115.451973,-1.038937449,0.538775325,8.488772392,-6.285299301,6.45508337,-9.498452187
6.916389999999865,14.81669521,10.75391769,-115.4505386,-1.401328683,1.006652951,10.63419533,-5.316234589,2.289105654,-1.453146815
6.924722999999631,14.75909424,10.87344742,-115.4883881,-4.290745258,0.178434625,10.54408646,-7.581763744,12.69473648,-8.421244621
6.933055999999851,14.66941929,10.91133118,-115.5047302,0.677948773,0.33266598,6.379693508,-11.70094204,3.699810266,-4.077915192
6.941388999999617,14.57885933,10.97440147,-115.5476532,-3.570089579,0.638106167,7.483412266,-11.41037655,6.010061741,-7.250418186
6.949721999999838,14.47709656,11.07422543,-115.5477905,0.151530698,0.160528839,7.098261356,-13.60167599,11.49255943,-3.677001238
6.9580550000000585,14.33967686,11.1398344,-115.5704117,-3.800423622,0.871194124,12.17363644,-17.48810005,6.927513123,-4.987733841
6.966387999999824,14.18877316,11.23468971,-115.5987015,-0.398569703,-0.447334707,5.477759361,-18.84322357,10.11523151,-6.68206501
6.974721000000045,14.0359869,11.23892117,-115.5961685,-2.006270885,1.511932373,10.78231621,-19.91430473,0.527614951,-0.281039476
6.983053999999811,13.90043163,11.35388279,-115.6307602,-3.129808664,1.333817124,12.77584362,-16.86818504,12.33711338,-7.828378677
6.9913870000000315,13.76753807,11.40620136,-115.6135635,-0.875867188,0.302666128,9.243828773,-17.87561607,6.545605183,0.016431538
6.999719999999797,13.62862587,11.45454597,-115.6479416,-1.85257268,1.419089913,6.813815117,-17.16569328,4.492623329,-6.322927475
7.008053000000018,13.4821701,11.471632,-115.6391754,0.759406745,-0.648468375,6.485217571,-19.30355835,2.198534489,0.072936557
7.016385999999784,13.32003689,11.49222183,-115.6712799,-4.367123127,2.775259495,11.07235622,-20.00136948,1.342071176,-5.278865337
7.024719000000005,13.14378357,11.57550335,-115.6757965,-0.321134508,-0.453640342,7.313606739,-22.56272316,9.572595596,-3.254674435
7.0330519999997705,12.92956066,11.54759121,-115.6917953,-2.195882559,-0.05941397,8.792346954,-26.63867188,-3.865601063,-2.086537123
7.041384999999991,12.69761467,11.5731945,-115.7219696,-1.194550514,1.067954659,8.520230293,-28.62861633,2.172972441,-4.588947296
7.049717999999757,12.45232677,11.53654003,-115.7331161,-1.861251354,-1.027552843,13.12124729,-30.47966194,-4.755261421,-1.356223702
7.058050999999978,12.22979069,11.58798027,-115.7708054,-3.620131493,1.184867263,11.50125122,-27.319067,5.0487113,-6.096448898
7.0663839999997435,11.9891367,11.58725357,-115.7765427,0.165146038,1.409253716,5.486101151,-30.06140137,-0.386954516,-1.624430299
7.074716999999964,11.73768711,11.58672237,-115.8236847,-2.419683695,0.802482009,7.523635864,-30.55691338,-1.238859177,-5.860234737
7.08304999999973,11.46242905,11.57127857,-115.8346024,-1.151448488,0.545544803,8.008627892,-34.121521,-2.199163437,-1.722277284
7.091382999999951,11.19357967,11.54661083,-115.8610077,-3.216075659,1.590381861,13.81025314,-33.14756775,-3.547984838,-2.910497189
7.099715999999717,10.90817451,11.56221676,-115.8743515,-2.367523909,0.500225902,9.181550026,-35.3117218,1.444836617,-2.59948945
7.108048999999937,10.67027092,11.52563572,-115.8886032,-0.748018026,1.431991816,9.923324585,-29.727211,-4.662152767,-1.271056175
7.116381999999703,10.42946148,11.52860165,-115.9023819,-3.388116598,2.627110004,10.24259853,-29.958992,-0.029430779,-2.318448544
7.124714999999924,10.22517776,11.52401352,-115.9133377,0.663629293,-0.08888422,10.50839901,-25.77146912,-0.809333384,-1.618487597
7.13304799999969,9.996659279,11.53242683,-115.9255219,-4.721486568,1.804184437,10.05806732,-28.53525162,0.675153255,-2.191555738
7.14138099999991,9.792357445,11.52236557,-115.9618912,2.864936352,1.090708613,5.095451355,-25.16359138,-1.960898638,-4.454036236
7.149713999999676,9.56460762,11.49123764,-115.9758072,-5.786414623,0.120616302,9.754833221,-28.43061829,-4.004097462,-1.464520693
7.158046999999897,9.356104851,11.54534721,-116.0179367,-0.136108309,1.390901804,11.32189941,-25.52957344,5.555821896,-6.402641773
7.166379999999663,9.120760918,11.5623455,-116.0204391,-4.994767189,0.687969327,10.02811909,-29.53674698,1.85814786,-1.469310641
7.174712999999883,8.915664673,11.65986538,-116.0822601,-0.489690691,0.547791958,8.899652481,-24.63857841,10.38298035,-9.460700989
7.183045999999649,8.729838371,11.72263241,-116.0652008,-3.153929472,2.676257849,8.449990273,-24.05749321,7.635031223,-0.078584515
7.19137899999987,8.496063232,11.87280369,-116.1406097,-3.007348299,-0.814539194,10.92260456,-27.72421265,16.45809937,-11.90358925
7.199711999999636,8.267334938,11.96490097,-116.1166153,-0.64843446,0.999880016,8.995055199,-29.37657928,11.22702312,0.231565699
7.208044999999856,8.002775192,12.10911655,-116.2069168,-3.681856155,1.007809162,6.761170387,-31.00778961,15.59736061,-13.38896275
7.216377999999622,7.752766132,12.1983242,-116.1961899,0.944431722,-1.133764982,9.916230202,-31.61381531,10.66863537,-1.126361489
7.224710999999843,7.476558208,12.38269901,-116.2653656,-5.28237009,1.500209928,10.31322479,-32.89779282,20.82162476,-11.41986847
7.2330440000000635,7.183568001,12.5325861,-116.2749023,1.557968974,-0.481432319,8.954581261,-36.24150467,17.5886898,-4.351916313
7.241376999999829,6.842630386,12.66286659,-116.3350067,-4.012831211,-0.123294756,7.599547863,-40.85977173,14.62256432,-9.343268394
7.24971000000005,6.467880726,12.80786896,-116.3671494,0.217709467,0.209699035,5.763988972,-45.48902893,16.76899529,-6.51676178
7.258042999999816,6.072557449,12.92076397,-116.4051514,-4.278725147,1.444534063,11.55887127,-47.94404221,12.94678307,-6.346812248
7.266376000000037,5.653941154,13.10773945,-116.4579391,-0.469052047,-1.416341186,11.51995659,-50.14888,21.60262871,-9.311772346
7.2747089999998025,5.194683552,13.25317669,-116.4861069,-2.501858473,-0.779137373,9.768805504,-55.86054611,17.029562,-5.374959469
7.283042000000023,4.686095238,13.36622238,-116.5747757,-1.156854153,-0.595912635,9.97439003,-59.92687988,12.54857254,-12.33311653
7.291374999999789,4.193543434,13.52711678,-116.6262589,-1.843247771,1.193801284,3.241179943,-59.18917084,18.74938965,-7.932652473
7.29970800000001,3.588345051,13.61104965,-116.7124863,0.532695055,-1.097099304,6.268548012,-71.53268433,9.295641899,-11.60122776
7.3080409999997755,2.878077507,13.70911217,-116.7941742,-2.279164076,-1.122283578,10.28451824,-84.43688202,11.17639446,-10.62208652
7.316373999999996,2.124705315,13.78976631,-116.9164734,0.031149466,-2.327590704,13.43632793,-88.29171753,8.996975899,-15.38189507
7.324706999999762,1.386158824,13.87210846,-117.0155258,-3.638862371,-1.540284872,13.58911133,-87.30331421,9.488307953,-12.28746414
7.333039999999983,0.541152596,13.85539436,-117.1716614,0.879178643,-0.599822521,2.6688869,-98.30236053,-2.350972176,-18.79627609
7.341372999999749,-0.412737697,13.83841515,-117.2845535,-1.237457514,-1.065007448,9.551781654,-112.7450562,-2.088429451,-13.5983181
7.349705999999969,-1.411759734,13.87185287,-117.4430389,-1.729797125,-1.247931838,14.4477911,-116.7161484,4.272929668,-19.04416275
7.358038999999735,-2.45272541,13.78209972,-117.5667648,-0.704711437,-1.771947384,6.503786564,-122.885704,-10.31558228,-15.22287655
7.366371999999956,-3.590535402,13.66385269,-117.701767,-1.425485969,-0.549547136,9.401122093,-134.0821075,-13.3642664,-17.1200676
7.374704999999722,-4.761003494,13.61579132,-117.8154221,-2.011291027,-0.205115169,11.7147646,-138.7575378,-4.822577477,-14.08830261
7.383037999999942,-5.943445683,13.46361828,-117.9416046,-0.264086276,-1.199329853,9.891695976,-139.7749329,-16.83791924,-16.86542702
7.391370999999708,-7.156099319,13.24265957,-118.0232391,-1.28529048,0.144881546,9.724678993,-144.7758942,-25.29269791,-12.94227505
7.399703999999929,-8.436948776,13.0666256,-118.1501007,-1.991405964,1.429210424,11.23698139,-151.6810455,-18.94989586,-17.99075127
7.408036999999695,-9.704676628,12.89065361,-118.2311935,0.717564583,-2.960141897,13.60094929,-151.459671,-19.3962574,-13.14369297
7.416369999999915,-10.95973015,12.623456,-118.3260651,-3.064670324,0.346812725,11.22086811,-149.5437622,-29.5881176,-17.09215546
7.424702999999681,-12.22274685,12.35969543,-118.4143219,-1.552782655,1.799185991,7.320295811,-150.7891235,-28.96806526,-16.93982887
7.433035999999902,-13.50821781,12.13543701,-118.4906006,-2.447681904,1.499354839,9.931346893,-153.8016052,-24.3100338,-14.99114323
7.441368999999668,-14.80437183,11.90320778,-118.5890274,-1.510098338,0.372954726,12.74016476,-154.5974884,-24.2361908,-18.46694565
7.449701999999888,-16.05683327,11.65520096,-118.6443329,-1.103023887,0.243080586,14.88687515,-150.4155884,-27.01495743,-14.52960396
7.458034999999654,-17.28172493,11.39566708,-118.7223663,-3.016336203,-0.667441428,14.17296982,-146.6358185,-27.24456978,-18.17098236
7.466367999999875,-18.45746422,11.13803864,-118.7651749,-0.045669645,1.703819752,7.647667885,-141.6137695,-28.0111084,-14.39978409
7.474700999999641,-19.62930489,10.89064407,-118.8192139,-3.450598478,2.928216457,9.355355263,-140.9002838,-26.02339935,-16.15520668
7.483033999999861,-20.76156044,10.68276024,-118.8554459,0.415459484,0.760754466,11.02249908,-136.5951538,-22.0871067,-12.73380852
7.491366999999627,-21.84741783,10.44954109,-118.86483,-4.023114681,2.085367203,14.14413357,-131.6153259,-25.71068764,-11.64676094
7.499699999999848,-22.87764359,10.21301556,-118.8691711,1.079388499,2.158046484,10.23731136,-125.0571594,-26.1848259,-11.4655714
7.508032999999614,-23.83836174,9.95776844,-118.8257065,-3.999363661,2.815134525,11.38506985,-117.7198715,-30.19536209,-7.87721014
7.5163659999998345,-24.7096653,9.718759537,-118.811882,0.929895222,2.847881317,13.84204865,-106.3768539,-26.96591949,-10.47457981
7.524699000000055,-25.49460793,9.489319801,-118.7459106,-5.372315407,3.014689922,12.19843483,-97.03327179,-28.28253555,-5.061790466
7.533031999999821,-26.17458534,9.247473717,-118.7131042,1.50237596,2.850726843,7.687957764,-83.78672791,-27.98409081,-9.304703712
7.541365000000042,-26.77709007,9.037930489,-118.6319046,-6.708757401,3.842683792,12.59472752,-75.37055969,-26.83478928,-3.048303127
7.5496979999998075,-27.2887764,8.851238251,-118.6056519,2.302330017,2.876911163,8.745275497,-63.44750595,-21.55291176,-7.554550648
7.558031000000028,-27.72237396,8.627150536,-118.4986038,-6.098372936,3.433389425,9.454749107,-55.50671768,-29.75123215,-1.609488964
7.566363999999794,-28.07785988,8.482879639,-118.4734421,2.937576056,2.465998888,14.05339432,-44.67197037,-16.88121033,-5.616303921
7.574697000000015,-28.344944,8.26081562,-118.3843613,-7.127409935,1.979693174,15.65228844,-35.12789536,-28.52015495,-3.724713564
7.583029999999781,-28.57387733,8.146323204,-118.3717117,3.291728735,2.673777819,11.10407829,-29.27902985,-13.03031731,-5.290201664
7.591363000000001,-28.69867897,7.927538395,-118.2867355,-5.658555031,2.719820023,11.78953648,-17.92456436,-27.92150307,-4.165890217
7.599695999999767,-28.77800941,7.811048985,-118.2506561,1.608879447,1.675662756,12.24836254,-11.71940041,-14.59203815,-2.958534718
7.608028999999988,-28.79370117,7.635132313,-118.2048111,-5.208631039,1.214506626,9.774838448,-4.142347813,-21.16490936,-5.834681034
7.616361999999754,-28.77494812,7.521780968,-118.1705399,-0.378512174,2.729010582,15.04543781,0.113957748,-14.08538437,-3.112910986
7.624694999999974,-28.72049522,7.386313438,-118.1637344,-3.349553347,0.941721976,7.097428322,4.908380508,-14.67843342,-7.557520866
7.63302799999974,-28.63679695,7.27043438,-118.1126328,-0.833285451,2.028035879,12.82923222,7.663909435,-15.31768799,-1.477544785
7.641360999999961,-28.51338387,7.152360439,-118.1236725,-1.892859817,0.953206122,7.697327614,13.45447063,-11.85292625,-8.379635811
7.649693999999727,-28.3644104,7.039282799,-118.0457382,-1.802567363,1.808927894,10.24180317,15.12977123,-16.49458694,1.458910465
7.658026999999947,-28.22151375,6.979255199,-118.0847397,-2.85648489,0.033160023,12.34760094,16.19857407,-4.177285671,-7.951851368
7.666359999999713,-28.04211044,6.878569126,-117.9875565,-1.292029858,1.145123601,12.30761147,18.53518867,-16.20842934,4.180706501
7.674692999999934,-27.87761879,6.855567455,-118.067337,-4.948403835,1.130550385,10.23536777,19.36150169,1.982414603,-10.13902855
7.6830259999997,-27.70059776,6.787426472,-117.9603577,-0.232036307,-1.082746863,11.37853909,18.12376976,-13.277771,7.139356136
