time,Euler_X,Euler_Y,Euler_Z,Acc_X,Acc_Y,Acc_Z,Gyr_X,Gyr_Y,Gyr_Z
0.0,-2.14880538,3.983012438,-149.6490936,-0.688937843,-0.398035049,7.512042999,-0.238033086,5.228031635,3.806544304
0.008333000000220636,-2.135469437,4.107010841,-149.6318207,-0.361034095,-0.145497248,13.36025906,0.691674054,14.22915649,1.978943229
0.016665999999986525,-2.144245148,4.23242569,-149.6031952,-1.390352488,0.479299426,10.56587219,-2.093246937,14.46288681,3.584623337
0.02499900000020716,-2.166224241,4.342045307,-149.5827942,-0.100141428,-0.338955134,3.192042828,-3.591653824,12.48833752,2.339437962
0.03333199999997305,-2.134568453,4.424463749,-149.5653381,-0.629040718,-0.979952574,5.06166935,2.84946847,9.357560158,2.056195498
0.041665000000193686,-2.074708939,4.537477016,-149.5381927,-2.868414879,-0.43944338,16.65114594,6.166256428,12.86945152,3.109529972
0.049997999999959575,-2.053656578,4.668057919,-149.5267487,1.736701012,0.3302733,10.57511711,1.625620484,15.16302681,1.532025933
0.05833100000018021,-2.052325726,4.776627541,-149.5322723,-1.697513461,-0.8783831,10.61738014,-0.553421259,12.48429108,-0.799625337
0.0666639999999461,-2.062083483,4.852710247,-149.5152588,-0.00345017,-1.630578279,6.530865192,-2.132590055,8.603322983,1.957580924
0.07499700000016674,-2.019456625,4.946942806,-149.5292358,-1.711075902,-0.598119915,8.671387672,4.496823311,10.79964161,-1.845326781
0.08332999999993262,-1.982825279,4.985591888,-149.5278015,-0.02111721,-1.23318696,7.230644226,3.591025829,4.180589199,-0.067544743
0.09166300000015326,-1.9801718,5.063832283,-149.5384827,0.090558656,0.008943536,9.459208488,-0.322483212,8.86753273,-1.57758081
0.09999599999991915,-1.998825192,5.116258144,-149.5380249,-2.279298544,-0.992514729,13.63557529,-3.034236431,5.837573528,-0.128173605
0.10832900000013979,-2.016902924,5.233612537,-149.5296021,-1.809468031,-1.891165614,7.240549088,-3.014540195,13.47838116,0.895870984
0.11666199999990567,-2.020736694,5.247862816,-149.5435791,0.584448397,0.117309444,9.382308006,-1.096084476,1.320145011,-2.011870146
0.12499500000012631,-2.049479246,5.34519577,-149.5334167,-2.328663588,-1.275725961,12.48645496,-4.311977863,11.07040977,1.03052485
0.1333279999998922,-2.105317354,5.44831419,-149.5361938,-0.374377728,0.236552984,12.11177158,-7.459789276,11.93074322,-0.281372458
0.14166100000011284,-2.173488379,5.510699272,-149.5442963,-0.35516265,-0.886490405,2.307744503,-8.836323738,6.958377361,-1.293185949
0.14999399999987872,-2.20848012,5.579367161,-149.5433807,-1.773167253,-1.084865451,6.08306551,-5.00023222,7.782309055,0.024038963
0.15832700000009936,-2.236438036,5.603778839,-149.5427551,0.195240378,-0.737887144,11.04577827,-4.103989601,2.361824512,-0.417332739
0.16665999999986525,-2.269456625,5.730212688,-149.5489807,-3.030526638,-0.004503933,15.09611416,-4.679491043,14.74223804,-0.54622364
0.17499300000008589,-2.346249342,5.79671526,-149.543045,0.87679255,-0.229571775,7.308643818,-10.02992153,7.382753372,0.426310569
0.18332599999985177,-2.408951044,5.876400471,-149.5608826,-1.559116721,-1.440782785,7.873595238,-8.09747982,9.195267677,-2.132641315
0.1916590000000724,-2.432835817,5.96156311,-149.5494537,-2.632666111,0.007144251,9.705029488,-3.746774197,9.594594002,1.2016536
0.19999200000029305,-2.453926802,6.107260704,-149.5614166,0.375841886,0.927201807,10.04685593,-3.170095682,17.08138275,-1.081561327
0.20832500000005894,-2.4688375,6.26194334,-149.5618896,-3.136596918,-0.523627043,7.989609241,-2.527997732,17.98869133,0.141352192
0.21665800000027957,-2.446817636,6.371401787,-149.5393372,0.740488827,0.196008921,2.36224103,1.555360794,12.56021214,2.848059893
0.22499100000004546,-2.358070612,6.531873226,-149.5341339,-1.666218638,0.730721474,9.234207153,9.834575653,18.65279198,0.828070045
0.2333240000002661,-2.247440338,6.688414574,-149.5143433,-1.520931602,1.466097116,13.07703304,12.21349907,18.22646713,2.710819244
0.24165700000003199,-2.111073017,6.922373295,-149.4960632,-3.034085751,-0.244003087,8.958173752,15.3493576,27.40775871,2.658260584
0.24999000000025262,-1.88874948,7.117313385,-149.4589844,0.634875476,1.564743757,8.578124046,25.34734726,22.77618599,4.830375671
0.2583230000000185,-1.624444604,7.335741997,-149.4348907,-2.910589933,1.604218483,11.48657131,30.59062386,25.54673958,3.089503527
0.26665600000023915,-1.301256537,7.59922266,-149.3812103,-0.432660282,0.913025081,5.49055481,37.15879059,30.99599266,6.79202652
0.27498900000000503,-0.89598006,7.83810997,-149.3274536,-0.984499574,1.450594783,10.0202713,46.99618912,27.96688843,6.36903429
0.28332200000022567,-0.445332915,8.068667412,-149.2629242,0.264140427,2.275695801,6.569965363,52.22108841,27.12818336,7.59050703
0.29165499999999156,0.114865363,8.360427856,-149.1994324,-3.39199996,1.075978637,10.94883537,65.35144806,34.42089462,7.077952862
0.2999880000002122,0.712779999,8.596689224,-149.0982056,0.325152814,1.029613495,7.372962952,69.17269897,27.99095345,11.40793228
0.3083209999999781,1.383060575,8.885359764,-149.0303192,-0.600663066,1.929957867,7.743420601,78.4043808,34.21039581,6.882165909
0.3166540000001987,2.112845898,9.116528511,-148.9329529,-2.207867384,1.770881176,12.9283905,84.96260071,27.63195038,10.28596878
0.3249869999999646,2.881163597,9.401932716,-148.8420868,-1.328347087,-0.653469145,7.471581936,89.619133,34.11957932,8.857409477
0.33332000000018525,3.6976583,9.669362068,-148.7338409,-0.187273934,1.885241747,10.38169575,95.04466248,32.32610703,10.54615498
0.34165299999995113,4.535436153,9.903948784,-148.6535034,-0.711689115,0.783881128,6.548806667,98.07176208,28.20016098,7.052213669
0.34998600000017177,5.468403816,10.16803646,-148.5294189,-1.907871962,0.672917604,10.81725597,108.5790176,32.40034103,11.44179249
0.35831899999993766,6.378415108,10.43036652,-148.4039001,-1.286137223,0.332600117,7.973288059,105.6835556,32.2843895,11.09716702
0.3666520000001583,7.341252804,10.69422626,-148.2879639,0.341978848,0.429742813,8.512956619,112.2092438,32.62285614,9.394890785
0.3749849999999242,8.336188316,10.97209644,-148.1653748,-3.008472919,1.116636038,16.02911377,115.8082352,34.45541763,9.37087059
0.3833180000001448,9.313995361,11.21641541,-148.0352173,-1.927418947,-0.677959502,9.498529434,113.5504074,30.87558746,10.24480724
0.3916509999999107,10.33536434,11.52239895,-147.8973083,0.0629154,0.138662308,11.99115372,118.4935684,38.4001503,9.331562042
0.39998400000013135,11.30799198,11.77438068,-147.7819366,-1.613524914,-0.154188067,10.40264511,113.1387405,31.79916954,7.239374638
0.40831699999989723,12.30371094,12.0501585,-147.6526184,-0.53021431,-1.482194901,9.353590965,115.4887619,34.96419907,7.705694199
0.41665000000011787,13.30274391,12.31167507,-147.5170288,-1.777528286,-0.283222109,12.19073105,115.6709595,33.67949677,8.151233673
0.42498299999988376,14.2379961,12.56681919,-147.3950653,-1.09531796,-0.574751794,11.68861103,108.304985,32.61329269,6.215607643
0.4333160000001044,15.15900707,12.8263588,-147.2664948,-2.168887854,-2.954148293,6.566610336,106.3495102,33.49652481,6.252823353
0.4416489999998703,16.06485176,13.08671665,-147.1427307,1.075995922,-0.092333443,14.22509289,104.6267776,33.46434402,5.159671307
0.4499820000000909,16.88341904,13.36269665,-147.0240936,-2.96431303,-2.133741379,9.693572998,94.18756866,35.24093246,3.49515748
0.4583149999998568,17.67975616,13.55050182,-146.9145508,0.947522044,-2.327318192,5.394989967,91.78502655,24.80970001,5.146517754
0.46664800000007745,18.47528839,13.87405205,-146.7860413,-3.029271841,-1.031877041,18.04893303,91.02544403,41.11054993,1.791744113
0.4749810000002981,19.16481209,14.0724144,-146.6852264,0.796753824,-1.752307534,12.5868969,79.14044189,25.82707977,3.075660706
0.48331400000006397,19.80504608,14.33870697,-146.5831757,-4.225156307,-2.012135744,13.49768162,73.03767395,33.63568878,0.128853127
0.4916470000002846,20.44303894,14.60527706,-146.4620514,1.993831754,-2.29236722,8.860450745,72.28681946,34.39907455,1.858643293
0.4999800000000505,20.98855019,14.80646896,-146.3929291,-2.6504457,-1.674741149,13.02452374,62.57014847,24.97194099,-1.438244939
0.5083130000002711,21.47616768,15.06439877,-146.269165,-1.83089304,-2.71892786,14.51079464,54.08328247,33.58639145,1.821806192
0.516646000000037,21.9210453,15.30129719,-146.1888428,1.981128454,-2.623243809,8.614114761,50.07532501,29.40488243,-2.268505812
0.5249790000002577,22.26630402,15.46311092,-146.1243744,-1.053219676,-2.569064379,10.31444168,38.8171196,20.35980606,-0.731159568
0.5333120000000235,22.56051064,15.64118671,-146.0673065,-1.610365748,-2.279041767,10.17249584,32.68185043,21.82045174,-2.450875998
0.5416450000002442,22.85157967,15.83883286,-145.9863129,-0.264180511,-1.387313485,14.42488861,31.77110672,25.06375504,-0.855439782
0.5499780000000101,23.05314255,16.00367546,-145.9441681,-1.16802454,-2.323123217,12.69358444,22.01136398,19.66430473,-3.635763884
0.5583110000002307,23.19162941,16.10660934,-145.8951416,-1.120832205,-2.999674797,10.73473358,14.5159626,13.17585182,0.025627052
0.5666439999999966,23.30169868,16.29286003,-145.8482513,0.516343653,-1.337042093,14.60807419,10.84946537,22.21965408,-4.259470463
0.5749770000002172,23.3266468,16.40509605,-145.8184509,-1.078043818,-2.130112886,10.57669449,1.554617882,13.3457737,-2.494160891
0.5833099999999831,23.32310104,16.51279449,-145.80513,-0.16892387,-2.111737251,9.103748322,-1.669664145,12.0283823,-4.109906673
0.5916430000002038,23.2990799,16.66955566,-145.7538605,-3.001760006,-1.327410698,17.08033752,-5.033583164,19.24261284,-2.340655088
0.5999759999999696,23.20405579,16.8057003,-145.7412872,0.329990745,-2.047422886,7.189002037,-12.62754059,15.13288403,-5.525607109
0.6083090000001903,23.09683228,16.87992859,-145.7314453,-0.78442359,-1.682995558,5.266271591,-13.56486416,8.285425186,-2.761548042
0.6166419999999562,22.9599247,17.01013184,-145.7075195,-1.923370361,-0.793724835,16.57069016,-18.05732727,15.00570869,-3.985756159
0.6249750000001768,22.80639076,17.14516449,-145.6815948,0.941343486,-1.668720603,8.610407829,-19.66267776,15.74842358,-3.852357388
0.6333079999999427,22.62771606,17.23731804,-145.6700592,-1.652900338,-0.488485366,13.2496891,-22.64081764,10.26353836,-3.452364922
0.6416410000001633,22.45344734,17.40872574,-145.6080475,-3.779567003,-0.431738347,15.35761642,-23.41939735,21.40318298,-1.614517808
0.6499739999999292,22.29575539,17.59883499,-145.5432892,0.298824757,-0.929989696,8.04564476,-22.05172729,23.47012901,-2.231437445
0.6583070000001499,22.05910873,17.68408203,-145.5334625,-1.746324897,-1.909937859,10.23394489,-29.01772499,9.592064857,-3.098838329
0.6666399999999157,21.87069321,17.92635918,-145.4473267,-1.026374698,-0.503959954,15.45462513,-26.56135941,30.19573021,-2.150215626
0.6749730000001364,21.5810051,18.04588509,-145.4237366,0.909003973,-2.290706396,3.068614244,-35.86458206,14.03552914,-3.07391715
0.6833059999999023,21.3079071,18.18298149,-145.3853912,-1.08558917,-0.682252288,16.37159157,-34.99346542,16.46319771,-2.347060919
0.6916390000001229,21.01736259,18.39031219,-145.3327179,-1.707919955,-0.272012532,9.310123444,-37.04821396,25.09977913,-3.644911766
0.6999719999998888,20.71808243,18.48998833,-145.3083649,0.494411439,-1.321472764,7.123720169,-37.63069153,11.71592712,-2.073551893
0.7083050000001094,20.39730072,18.63555717,-145.2685699,-3.155113697,-0.459579796,18.17121887,-40.19371796,17.68910408,-2.147603273
0.7166379999998753,20.08730125,18.8188343,-145.2153625,1.444573998,0.431305975,9.060826302,-40.04157257,22.27926254,-2.33932662
0.724971000000096,19.70962715,18.83155251,-145.2467957,-0.230783194,-1.048144698,9.016426086,-44.25952911,-0.014190312,-4.121209621
0.7333039999998618,19.43409538,19.00925064,-145.1771698,-2.699769735,1.546242595,16.19422722,-36.56465912,22.2914753,-0.09912724
0.7416370000000825,19.10640526,19.00725365,-145.207962,2.094256163,-0.534333467,0.973794818,-38.25065613,-1.597228646,-3.459744215
0.7499699999998484,18.84560204,19.04763603,-145.1788788,-3.57778573,1.017448783,18.74760246,-33.22663498,5.207646847,1.143894315
0.758303000000069,18.57978058,19.13023567,-145.1787872,1.983600259,0.634645224,5.709542274,-32.01657486,9.187976837,-3.4071064
0.7666360000002896,18.31207466,19.05092049,-145.2241669,-2.124943018,0.376237541,12.38657856,-31.13682175,-11.10475349,-2.271984577
0.7749690000000555,18.11776161,19.15752029,-145.2164307,-1.870327473,1.279018283,13.55862141,-23.72568893,12.23832417,-3.402187586
0.7833020000002762,17.90984535,19.05710602,-145.2813568,0.661316395,-0.525377274,1.777707815,-23.19070625,-14.18325233,-3.676771879
0.791635000000042,17.76018143,19.10674286,-145.3009033,-2.511672735,1.736068726,19.09254265,-17.29068947,4.818460941,-4.170920372
0.7999680000002627,17.59473038,19.04340172,-145.3762054,1.7333709,0.098933019,2.563689232,-17.69094086,-10.28327465,-6.230972767
0.8083010000000286,17.46539116,19.00702667,-145.4491577,-3.766172886,1.816247225,18.7517643,-12.75215149,-6.807777882,-6.812312126
0.8166340000002492,17.38264084,19.01586342,-145.490921,0.260186374,-0.233763486,4.25886631,-9.088110924,-0.855208158,-5.242030144
0.8249670000000151,17.28384209,18.88542938,-145.5923157,-1.315495253,0.954670608,12.53493309,-7.975224495,-18.50928688,-6.559039116
0.8333000000002357,17.25543022,18.94888115,-145.6111908,-0.59657371,0.280386806,8.726277351,-3.464811802,6.186080456,-4.708152771
0.8416330000000016,17.16890717,18.73970985,-145.7442017,0.684219003,0.89911747,10.00795746,-5.286910057,-28.56964874,-7.242686749
0.8499660000002223,17.17845535,18.80945587,-145.7422943,-4.81308651,0.644904077,16.2924099,0.283280671,7.613819599,-2.664803028
0.8582989999999882,17.13902283,18.60404968,-145.8553772,2.262977362,0.662782609,3.209815025,-0.422737688,-27.45236015,-5.249513149
0.8666320000002088,17.16908646,18.66844749,-145.8451996,-5.540612221,0.392009705,16.13370323,2.427269459,7.278376102,-1.575275779
0.8749649999999747,17.18537521,18.57484627,-145.9207001,2.783803701,1.098447919,2.305170298,4.814875126,-13.36443424,-5.12661314
0.8832980000001953,17.23996735,18.54948235,-145.9595795,-5.026455879,0.474523038,15.27575016,7.24768877,-4.663507462,-3.724797249
0.8916309999999612,17.32319069,18.54860687,-145.9886627,1.396807432,1.553984523,6.232422352,11.07245731,-1.171287656,-3.372934103
0.8999640000001818,17.42136383,18.46452522,-146.0627594,-2.905631065,0.367700875,9.146265984,13.81346798,-12.59385681,-5.436469555
0.9082969999999477,17.5897274,18.5642662,-146.0480499,-1.900492191,1.53512311,12.56050491,19.6237545,11.84109497,-2.251902342
0.9166300000001684,17.72559738,18.44467354,-146.1388397,-0.322094589,0.76144582,5.842366219,18.97415352,-17.25650024,-5.891969204
0.9249629999999343,17.91812325,18.55006409,-146.1220703,-3.562662601,1.018425584,14.314188,22.44803429,12.56152248,-2.307792664
0.9332960000001549,18.10102272,18.49856377,-146.1928711,0.432268232,-0.225701407,6.039924622,23.85960579,-8.815296173,-6.151004791
0.9416289999999208,18.29255486,18.54109955,-146.1867218,-3.052110672,0.007851126,13.13002968,22.73965263,5.012900829,-1.183813691
0.9499620000001414,18.48841476,18.58057785,-146.2268524,0.827286363,-0.218191013,7.230728149,24.24909973,2.607236147,-6.230435371
0.9582949999999073,18.66823959,18.53691864,-146.2745056,-2.342704535,0.39161402,9.72095108,23.40054703,-6.735983372,-3.724695921
0.9666280000001279,18.90293121,18.66576576,-146.2788239,-2.821364403,0.979272008,13.53717899,27.5402565,14.03219414,-5.845302105
0.9749609999998938,19.07674217,18.58360291,-146.333786,0.65327388,-0.17298606,7.023604393,22.96964073,-11.39519024,-2.959829092
0.9832940000001145,19.29402542,18.7359066,-146.3125916,-4.379060268,0.61210376,17.55896187,24.47307587,17.60445786,-4.133628368
0.9916269999998804,19.45913506,18.68355942,-146.3785706,1.483145356,-0.021817211,3.002619505,22.36401558,-8.443479538,-5.246361256
0.999960000000101,19.66351318,18.76834488,-146.3731079,-4.720594883,0.334780782,16.27920532,23.52710915,9.348752022,-3.223706484
1.0082929999998669,19.84013748,18.77633286,-146.4008026,1.27156055,-0.635014832,6.602900028,22.27700424,-0.192209303,-3.550723553
1.0166260000000875,19.98576736,18.78487778,-146.427063,-2.333351135,-0.042767309,11.44330311,17.70163155,-0.497556657,-3.55441165
1.0249589999998534,20.12867737,18.87665176,-146.4209137,-2.270386934,-0.472618163,12.49329185,16.92208862,10.56086636,-3.387765408
1.033292000000074,20.22566605,18.82767677,-146.456131,0.834245384,-0.299942434,5.425628185,12.21551895,-7.342782021,-2.128824949
1.0416250000002947,20.32628822,18.91269875,-146.4631042,-3.43027091,0.079562061,14.41720009,12.35419655,9.275056839,-4.547039509
1.0499580000000606,20.41613579,18.91879845,-146.467804,1.30437088,-0.327091485,5.344915867,10.17611408,0.053649019,-1.156969428
1.0582910000002812,20.45726013,18.9384613,-146.5098877,-2.91279459,-0.315276712,15.72017193,6.576006413,0.526820779,-5.569559097
1.066624000000047,20.50947762,18.9723568,-146.4859009,-0.893147528,-0.344556123,10.21762276,4.542314053,4.314936638,0.724998236
1.0749570000002677,20.5134697,18.95012474,-146.5374146,0.237823933,0.5194785,6.941560268,2.491151333,-4.561383247,-4.811353207
1.0832900000000336,20.53494453,18.97433281,-146.546463,-3.5057652,0.138222188,13.60673428,2.141285896,1.912012815,-2.382917643
1.0916230000002543,20.536623,19.01307869,-146.5720978,0.218877614,-0.32082805,9.737668991,1.19640255,3.315955162,-4.627109051
1.0999560000000201,20.53532219,18.9525013,-146.5920868,-1.955100536,0.446751058,12.41777897,-0.164545879,-8.0511446,0.023449836
1.1082890000002408,20.52283287,19.03008842,-146.611496,-1.269083858,0.170974568,10.59624004,-0.755158901,7.92977047,-5.60449791
1.1166220000000067,20.53515244,19.00209236,-146.6152649,-2.270905972,0.092725776,8.418471336,0.837111592,-3.742803335,0.377541006
1.1249550000002273,20.51004791,18.98273849,-146.6542511,0.046912026,0.07910078,11.82677174,-1.517720461,-3.750385284,-3.608789921
1.1332879999999932,20.50993156,19.04120445,-146.6238556,-4.005571842,0.019945763,12.53306866,-1.990840912,7.330832958,0.370676428
1.1416210000002138,20.47038078,18.99052048,-146.6777496,1.770849943,0.11825043,9.729349136,-2.674612999,-7.865389824,-3.876484632
1.1499539999999797,20.4562397,19.02985954,-146.6418152,-5.073801041,-0.110453479,12.06241894,-3.890904903,5.40123558,1.76777935
1.1582870000002004,20.42757034,19.04254532,-146.6583557,1.117901564,0.593461096,10.22148705,-2.840951443,0.73575604,-2.570593357
1.1666199999999662,20.38869095,19.01627731,-146.6647644,-2.421851873,-0.03551086,9.244421005,-5.204453945,-3.656201124,0.016508376
1.1749530000001869,20.36905098,19.08529663,-146.642746,-2.104962111,1.253946066,13.13214493,-3.282438993,8.59517765,-0.827186227
1.1832859999999528,20.34688759,19.07650757,-146.6413422,-1.743502617,-0.336135685,10.15071392,-3.502976894,-1.38145256,0.111742094
1.1916190000001734,20.3005867,19.08651161,-146.637207,0.460886627,0.504110813,9.212575912,-5.798499584,1.242251873,-0.261854321
1.1999519999999393,20.28124809,19.15867996,-146.6245575,-5.118564129,0.333998144,12.71017933,-3.605178833,8.172286987,-2.062099934
1.20828500000016,20.23635483,19.12551689,-146.6223297,2.22218132,0.307439655,6.491876125,-5.56897068,-3.703153133,1.327931643
1.2166179999999258,20.1812191,19.17945099,-146.6312103,-3.523219347,0.007912469,12.52116394,-7.056825638,5.279568672,-3.582048893
1.2249510000001465,20.13719177,19.2009697,-146.6125336,-0.478565842,1.221080065,11.17436981,-6.131253719,3.089704514,0.80645138
1.2332839999999123,20.06702995,19.20524597,-146.6369934,-1.687038422,-1.128035545,7.613161087,-8.244402885,-0.917604446,-3.180033207
1.241617000000133,20.00013924,19.20512199,-146.6269226,-1.491153836,0.956695437,12.81807613,-8.554463387,0.307127476,0.782117903
1.2499499999998989,19.92651749,19.24609184,-146.6411285,-0.976448238,0.545737386,8.061266899,-9.062957764,3.624222755,-3.592396975
1.2582830000001195,19.83076668,19.22737885,-146.6637573,-1.368849039,-0.0546626,9.10833931,-10.74565887,-3.061131716,-1.943941474
1.2666159999998854,19.74211502,19.24155426,-146.6803284,-2.195206642,0.164791852,13.86226749,-10.77096558,0.517522871,-2.74553895
1.274949000000106,19.62701416,19.25847435,-146.7007141,0.178172767,0.030962948,8.610214233,-13.16991806,1.047404528,-3.156800985
1.283281999999872,19.51208878,19.23785973,-146.734787,-2.729731798,0.488253713,11.05311394,-13.23472404,-4.070436001,-3.210847378
1.2916150000000926,19.38809013,19.25587845,-146.7468719,-0.828954101,0.017652724,10.91937542,-14.58323765,1.488968849,-2.313862562
1.2999479999998584,19.26453781,19.24367142,-146.7647247,-1.406119227,0.14602825,7.862375259,-14.90997219,-2.498207808,-1.824527979
1.308281000000079,19.12670135,19.19509315,-146.8142853,-0.619953752,0.548060417,11.50066185,-14.7848978,-7.455613613,-3.691857338
1.3166140000002997,18.99686623,19.22446632,-146.8063507,-3.009218216,-0.243464738,11.63560581,-16.68475723,3.179328918,-0.700754344
1.3249470000000656,18.84029961,19.15063095,-146.850647,1.115920901,0.784582376,10.22012997,-17.25826454,-10.11985493,-2.181565285
1.3332800000002862,18.67992592,19.11577988,-146.8758087,-2.729450941,-0.13470684,10.9640646,-19.04370117,-5.324893475,-1.758725166
1.3416130000000521,18.51855087,19.11770248,-146.8925018,-1.856756926,0.447820246,9.398301125,-18.94275475,-0.500297368,-2.176390886
1.3499460000002728,18.32919502,19.01976776,-146.9468384,-0.358976871,0.053049006,9.310734749,-21.38369751,-13.5451479,-2.531584501
1.3582790000000386,18.11583138,18.99557686,-146.9832153,-1.221491933,0.473768622,10.76250935,-24.43517113,-4.170460224,-3.323371649
1.3666120000002593,17.90548515,18.96440315,-147.0354309,-2.736498833,0.006982479,11.5370636,-23.99381065,-5.837973118,-4.881896019
1.3749450000000252,17.6689415,18.83322525,-147.0921631,0.925926566,-0.192222342,9.199016571,-26.44759369,-17.09101295,-1.637391567
1.3832780000002458,17.42214203,18.80788231,-147.147522,-3.238192558,0.362376809,11.2193594,-28.26430511,-5.242008209,-5.479964733
1.3916110000000117,17.20129013,18.69194412,-147.1885071,-0.014478322,1.536590695,7.650050163,-25.20606613,-14.81008339,-0.62217021
1.3999440000002323,16.94676208,18.58663559,-147.2679291,-1.16752851,-0.369319439,9.682460785,-28.2882576,-15.17962265,-5.322181702
1.4082769999999982,16.71520805,18.4924984,-147.3006134,-1.832918763,0.660242379,11.28921986,-26.84191895,-12.0387764,-0.611028016
1.4166100000002189,16.48263931,18.38228035,-147.3829346,-0.110520639,1.78192246,10.61769581,-25.57442474,-15.79966736,-5.601325035
1.4249429999999847,16.23681259,18.23912621,-147.4166107,-1.43774581,-0.376371562,9.658526421,-28.55123901,-17.71945763,0.831502795
1.4332760000002054,16.00657654,18.14588356,-147.4790039,-2.312942505,0.769661725,13.04764938,-26.08312416,-13.17023468,-4.125047684
1.4416089999999713,15.77124119,18.00683784,-147.5239258,-0.891332567,1.585711002,9.249537468,-26.90247536,-17.61453819,-0.689126015
1.449942000000192,15.52330875,17.88661575,-147.5844727,-1.532559514,0.151808649,10.1712532,-28.30449677,-16.20434761,-3.165768623
1.4582749999999578,15.31327534,17.80072403,-147.6060181,-3.863566399,0.767193615,13.09752083,-24.76449966,-10.76213551,0.037640143
1.4666080000001784,15.07597637,17.65405464,-147.6846466,0.473626852,1.397883177,9.120735168,-26.3926239,-19.78821754,-4.461491108
1.4749409999999443,14.84329033,17.56226349,-147.7019501,-4.212050915,-0.420078456,12.29685402,-27.66513252,-11.33294964,0.597234726
1.483274000000165,14.62915897,17.49932671,-147.7358398,-0.120744236,0.97051543,7.867851734,-25.2610836,-8.737610817,-2.230155945
1.4916069999999308,14.3926363,17.33753777,-147.7984772,-1.595544577,0.545751989,9.613077164,-26.51680374,-20.78466797,-2.412274361
1.4999400000001515,14.16803074,17.30175018,-147.8138885,-1.340253711,1.104378581,13.29993439,-27.19319153,-5.04518795,-1.054436445
1.5082729999999174,13.93172741,17.16517067,-147.8735657,-0.30036214,0.643575847,5.434492111,-26.63270569,-17.75800323,-2.994306803
1.516606000000138,13.73918152,17.06292915,-147.9091034,-2.536537886,0.750197113,12.48855209,-22.64102364,-13.33431721,-1.422564149
1.524938999999904,13.55988312,16.9667511,-147.9343414,-1.081632733,2.097290277,10.17979813,-21.04320526,-12.10506248,-0.432727128
1.5332720000001245,13.33951473,16.8163147,-147.9972534,-1.014765143,1.040587664,8.274975777,-25.04229355,-19.68583679,-3.227601528
1.5416049999998904,13.17570972,16.79053116,-148.0071106,-3.247625589,-0.300106019,10.0833683,-19.74494362,-3.48384428,-0.738228142
1.549938000000111,13.03462315,16.6224308,-148.0501556,1.144908071,1.980792761,6.533925533,-16.23526001,-21.21792221,-0.646273136
1.558270999999877,12.89111137,16.57398033,-148.081131,-4.400698185,1.29455173,16.25195885,-16.60525322,-6.686162949,-2.513525724
1.5666040000000976,12.7576189,16.4801693,-148.08815,0.453474373,1.069946408,8.530148506,-16.56949806,-11.60281658,1.309976459
1.5749369999998635,12.60571575,16.3831768,-148.1450958,-3.912297964,1.656290174,8.508543015,-16.75409889,-13.02358913,-4.189004421
1.583270000000084,12.54225159,16.38593864,-148.1300507,-2.295779467,-0.392372519,9.438375473,-8.913907051,0.253952324,1.217278123
1.59160299999985,12.43003559,16.24326324,-148.1853485,-0.663573205,0.695104897,7.009728432,-12.07299232,-18.33318901,-2.86971736
1.5999360000000706,12.34420395,16.30369949,-148.1803131,-2.771202087,1.290127754,14.94843292,-11.25917244,6.759967804,-1.389111161
1.6082690000002913,12.19372082,16.16362381,-148.2230225,1.645936966,0.211062089,4.33777523,-17.10867882,-17.71770859,-1.590798616
1.6166020000000572,12.09909821,16.19113541,-148.231781,-4.918318748,1.224081397,12.42092609,-11.85103893,2.569094658,-2.083102942
1.6249350000002778,12.00239468,16.0990181,-148.2625732,0.799675941,-0.601438463,2.651353836,-11.07152462,-11.8070116,-1.518821955
1.6332680000000437,11.92481422,16.09808922,-148.2715607,-3.922003984,0.817315102,17.50095749,-9.800262451,-0.771065354,-1.390878558
1.6416010000002643,11.8130455,16.07962799,-148.2967987,0.613446653,2.060824394,7.179656506,-13.07775974,-3.026834726,-2.749458313
1.6499340000000302,11.72548866,16.06500435,-148.3063049,-3.413354158,1.85193193,14.67673492,-10.98182201,-2.38796401,-1.117959023
1.6582670000002508,11.64432621,16.07687187,-148.3237152,-1.746359706,-0.277906001,5.201596737,-9.67866993,0.723051369,-2.613983631
1.6666000000000167,11.63012695,16.07888412,-148.3108673,-2.61944294,1.162428617,11.33990383,-2.920125246,0.08868929,1.002630949
1.6749330000002374,11.56874657,16.09580231,-148.3250122,0.334287316,0.870066643,5.686787605,-7.424211025,1.386741996,-2.368318081
1.6832660000000033,11.54434013,16.10495758,-148.3347778,-1.948383927,0.294584155,9.900597572,-3.391836882,0.403923661,-1.722992659
1.691599000000224,11.48929691,16.09726334,-148.3330841,0.002737351,1.524288654,9.683387756,-7.198905945,-1.143983006,0.012717467
1.6999319999999898,11.43302917,16.13401031,-148.3454437,-3.845231295,0.888731897,14.51285172,-7.130465031,3.592024803,-2.673178434
1.7082650000002104,11.36790371,16.15265274,-148.3490906,-0.829612195,-1.137533426,5.059324741,-8.240381241,1.828100801,-1.217931271
1.7165979999999763,11.33566475,16.22190285,-148.3620911,-3.232175827,1.884464145,12.26804066,-4.222250938,7.406447411,-3.506768703
1.724931000000197,11.30794048,16.25889587,-148.3735504,-0.654913247,0.531732559,4.629423618,-3.49782896,3.803649902,-2.529764414
1.7332639999999628,11.31298256,16.31349564,-148.3821259,-3.750050068,1.898344517,12.08387375,0.10492871,5.784526825,-2.652994156
1.7415970000001835,11.28531075,16.38328171,-148.4086304,0.028901696,0.796098709,5.408804417,-2.990590572,7.318845749,-5.00053978
1.7499299999999494,11.28944683,16.44599915,-148.4143372,-2.625283957,1.164673567,9.062578201,-0.098076917,6.805766582,-2.519314051
1.75826300000017,11.30615234,16.55333328,-148.4347839,-0.391819,0.181211486,5.113077164,2.125815392,11.86903572,-5.193261147
1.7665959999999359,11.38994026,16.64808464,-148.4296112,-4.697368622,1.54453063,14.44927979,9.091119766,10.8173151,-2.058232069
1.7749290000001565,11.46449661,16.76164246,-148.434082,-0.324801713,1.121305943,9.540154457,8.518386841,12.94952106,-3.569831133
1.7832619999999224,11.55490303,16.87266159,-148.4337921,-3.061692476,1.190024257,11.9134903,10.05214214,12.6135664,-3.027551889
1.791595000000143,11.61586857,16.95864868,-148.4145508,1.501898408,-0.052143127,2.761719227,6.055116653,10.24501705,-0.273739368
1.799927999999909,11.66351414,17.05227852,-148.4249878,-2.148902178,0.284479111,9.093268394,5.295806885,10.31540298,-3.84428668
1.8082610000001296,11.73518848,17.15353203,-148.4096375,-0.724366307,-0.093320869,8.298342705,7.464694023,11.94400978,-1.110172391
1.8165939999998955,11.80739784,17.18645668,-148.4115448,-3.678451777,1.658657074,12.96101665,7.944601059,3.376250982,-1.418106556
1.824927000000116,11.86596203,17.31326866,-148.3884125,-1.421441674,0.481134981,10.18835354,5.602641106,15.12301922,-0.89859879
1.833259999999882,11.86736393,17.31272125,-148.3972015,-0.610166132,-0.59048152,4.767670155,-0.305398524,-0.718402386,-1.373409748
1.8415930000001026,11.89811802,17.44248581,-148.3678284,-0.8209185,-0.411833614,8.286242485,2.031503677,15.61337757,-0.284727871
1.8499259999998685,11.8913002,17.35897446,-148.4041901,0.365954429,1.565505862,6.515716553,-0.30199188,-11.11127663,-2.410351038
1.8582590000000891,11.89629364,17.45847893,-148.3791199,-4.087111473,0.629624605,17.79749107,-0.914710164,11.95794392,-0.022847902
1.866591999999855,11.87627792,17.39773369,-148.4009552,1.060146332,-0.254145324,4.703070164,-2.404766798,-8.095481873,-1.348230958
1.8749250000000757,11.883255,17.40286446,-148.3916473,-5.10415411,1.110643387,18.81149864,-0.112779468,0.503178835,0.546057045
1.8832580000002963,11.86359978,17.38607216,-148.3817749,0.314345032,0.798420608,7.807248592,-3.500876665,-2.186789989,1.11856091
1.8915910000000622,11.79799175,17.27569008,-148.4195709,-1.82202661,0.505162477,8.425876617,-7.139585495,-14.17438221,-1.896811247
1.8999240000002828,11.7803545,17.31001091,-148.4122009,-2.042298794,0.080401003,11.28192329,-3.167968512,3.758722782,-0.416333795
1.9082570000000487,11.72968006,17.11885071,-148.4416656,2.014644623,0.51495856,3.739608049,-5.658443451,-23.47133255,0.993896782
1.9165900000002694,11.66263771,17.10815811,-148.4582367,-4.256031036,1.122933507,15.47922611,-8.24862957,-2.088226318,-2.002521276
1.9249230000000352,11.62042999,17.0077858,-148.4836884,0.155663952,-0.037075952,5.466248512,-4.796982765,-12.71191025,-0.803031981
1.9332560000002559,11.56004906,16.84020042,-148.5186005,-1.049515247,1.314587474,11.62131023,-6.814490795,-20.952425,-0.28703323
1.9415890000000218,11.49756622,16.83116531,-148.5310822,-4.130074501,1.611304402,14.33292484,-7.695772171,-1.674249053,-1.566259503
1.9499220000002424,11.44818783,16.6636982,-148.5700531,-0.312952578,-0.098870613,4.530645847,-5.36600399,-21.032547,-0.793734133
1.9582550000000083,11.41728497,16.57938957,-148.5756989,-4.41003561,0.716914415,16.74346924,-4.149608612,-10.37443066,0.99002856
1.966588000000229,11.36387444,16.51137543,-148.5857544,-0.686994076,2.271217823,7.472786903,-6.855010033,-8.676336288,0.078264304
1.9749209999999948,11.29508495,16.37101746,-148.6094055,-2.499980211,-0.33745718,6.756351948,-8.091231346,-17.38072205,0.259741217
1.9832540000002155,11.27136993,16.37717819,-148.585495,-3.391499519,0.097587101,13.54000854,-4.442789078,0.815467656,2.152274847
1.9915869999999813,11.20905972,16.21097946,-148.6126862,0.536546469,1.448693752,6.757775307,-7.203084469,-20.50786591,0.434788942
1.999920000000202,11.15000916,16.19445419,-148.5847626,-4.110051155,0.809364617,14.39374447,-8.810325623,-1.766409039,3.142418861
2.008252999999968,11.07844353,16.10718727,-148.59729,1.730222106,-0.086876966,2.508687973,-8.814603806,-10.89299488,0.222856715
2.0165860000001885,11.04053402,16.00703049,-148.5939941,-4.453499794,1.511359692,10.14542389,-5.448045731,-12.16957951,2.276144981
2.0249189999999544,11.02889633,15.97297859,-148.5762634,-1.264635921,1.443728447,10.89200592,-2.630428553,-3.960191488,2.408288956
2.033252000000175,10.96217728,15.82113934,-148.5905151,-1.612607837,0.112344481,10.26756859,-8.326319695,-18.64673233,1.457668304
2.041584999999941,10.91957092,15.84244251,-148.5404968,-3.254602671,1.312893867,13.96209908,-7.402745247,3.263164282,4.804193974
2.0499180000001616,10.84778214,15.68696594,-148.5572968,1.116082549,0.562131405,0.140745401,-8.856278419,-19.13565826,1.213743687
2.0582509999999274,10.84189987,15.68490314,-148.5277863,-5.779067039,0.470217437,16.8982811,-2.317268372,0.053418487,3.014091015
2.066584000000148,10.81916714,15.56288528,-148.5114594,1.47918129,1.928030968,7.301080704,-4.045309067,-14.47384071,4.2030797
2.074916999999914,10.77711868,15.50615692,-148.5020142,-5.733382225,1.950780988,19.36877251,-6.006641388,-6.828474045,1.964599371
2.0832500000001346,10.7357235,15.45599556,-148.4545746,0.169488147,-0.655850112,5.173676968,-7.275954723,-5.335983753,6.111134052
2.0915829999999005,10.67227554,15.34396172,-148.4653473,-3.690099001,1.806702018,10.34908962,-7.930039883,-13.79083538,0.888954997
2.099916000000121,10.64746857,15.33916569,-148.4147034,-0.599378645,-1.172565103,4.862754345,-5.373175621,0.072091281,5.465015888
2.108248999999887,10.55856228,15.17632675,-148.422287,-1.409526706,1.138233066,11.81565857,-11.09104443,-19.72053528,2.348685503
2.1165820000001077,10.46325207,15.19172192,-148.3973999,-0.904958189,1.357246995,12.31456947,-13.00829315,1.895005465,2.093823195
2.1249149999998735,10.34567738,15.0143528,-148.4017334,-1.846543789,0.471003175,7.800004959,-14.63823605,-21.37634468,2.966987848
2.133248000000094,10.2456665,14.99044991,-148.402298,-3.24883604,0.281039625,10.94740963,-12.77320576,-3.281004667,0.046784405
2.14158099999986,10.14313698,14.85731602,-148.4160919,-1.579656005,1.067397594,7.774122238,-12.54518986,-16.3617115,0.868719876
2.1499140000000807,10.02323627,14.77516937,-148.4251556,-1.269727468,0.621455789,14.85738087,-14.89939499,-10.33614159,0.291400433
2.1582470000003013,9.881572723,14.66975403,-148.4707642,-2.555994034,2.350636959,9.63994503,-16.27808189,-13.72882462,-3.412201405
2.1665800000000672,9.733030319,14.57964516,-148.4777527,-3.482813597,-0.762647212,9.958402634,-18.40186119,-11.24093819,0.638652682
2.174913000000288,9.60114193,14.50428772,-148.5142059,-1.764532328,1.020289302,8.062335014,-15.39815426,-9.984610558,-3.039949417
2.1832460000000538,9.422418594,14.41253757,-148.5589752,-2.11256218,-0.730782866,6.852109432,-20.89579391,-12.16561508,-3.713323355
2.1915790000002744,9.21326828,14.29319,-148.608902,0.189068824,-0.338063151,9.993739128,-24.28646278,-15.43374157,-3.79436779
2.1999120000000403,8.931348801,14.21539497,-148.6732635,-2.661955357,0.394858718,11.91585159,-32.7197113,-10.84613037,-6.320166111
2.208245000000261,8.610705376,14.11520958,-148.7307892,-2.000357151,-0.227130368,11.51935005,-37.46297836,-13.26207161,-5.165809631
2.216578000000027,8.308275223,14.03816128,-148.7993011,-4.022131443,-1.09803772,13.75212002,-35.08301544,-10.7666235,-6.929197311
2.2249110000002474,7.950146675,13.93998051,-148.8683472,-0.23333393,0.178762063,10.19987965,-41.64833069,-13.16550732,-6.677027702
2.2332440000000133,7.504102707,13.73387432,-148.9622955,0.943520844,-0.173514649,6.469023705,-51.62067032,-26.42651367,-7.923965454
2.241577000000234,7.025128841,13.59869385,-149.056778,-1.938309312,0.130253643,12.39959431,-55.47534561,-17.84600449,-9.260189056
2.24991,6.53430891,13.45533371,-149.1420898,-4.978097439,-0.519062042,12.28441334,-57.29644394,-18.7062149,-8.25534153
2.2582430000002205,6.009897709,13.24631786,-149.2270966,0.073843151,-0.523772597,6.238480568,-61.25384903,-26.37984657,-7.506844997
2.2665759999999864,5.420443535,13.0216074,-149.3463593,-1.543714643,0.198860675,9.15466404,-68.27518463,-28.666008,-11.58658028
2.274909000000207,4.749949455,12.83834743,-149.4203033,-1.819123626,-0.559715867,12.5609808,-79.15555573,-23.03773499,-7.047620296
2.283241999999973,4.043217659,12.68082237,-149.54039,-3.953009129,-1.116228938,12.27110481,-82.42024231,-20.37259102,-12.96557236
2.2915750000001935,3.335582256,12.49411297,-149.6365509,-1.906055927,-0.197793901,6.968134403,-83.0843277,-23.45167732,-10.17765331
2.2999079999999594,2.538993359,12.26623821,-149.7553558,-0.10535422,-0.253961772,13.1807394,-93.32832336,-28.46999931,-12.90873623
2.30824100000018,1.630904913,12.10521507,-149.8780823,-3.537184715,0.530912161,16.59841156,-106.5478821,-20.20210838,-14.06377029
2.316573999999946,0.697594881,11.9087677,-150.0035858,-1.22870338,-1.254088402,4.101055145,-109.6600037,-24.31612396,-14.65222645
2.3249070000001666,-0.268935174,11.66703987,-150.1238251,-1.27919805,-1.086065054,4.036309719,-113.5935516,-29.43511391,-15.03038788
2.3332399999999325,-1.260049224,11.41390896,-150.2837524,-2.437335491,0.693307757,16.94008255,-115.8911133,-30.56991196,-19.60859299
2.341573000000153,-2.343131065,11.20103645,-150.3936615,-2.989938498,-0.18965441,14.88985443,-127.9252472,-25.47550964,-14.86903
2.349905999999919,-3.510823965,10.90137863,-150.5571136,2.514732122,0.813778877,6.374611378,-137.1618195,-35.37564087,-21.46286201
2.3582390000001396,-4.704108715,10.63575935,-150.6753082,-4.853766918,-1.427992821,15.10447788,-141.076767,-31.10663223,-17.42579079
2.3665719999999055,-5.894852161,10.40585518,-150.8081818,-2.278457165,0.682506979,13.1818018,-140.7757263,-26.47052002,-18.56005669
2.374905000000126,-7.112298489,10.09441471,-150.935791,-0.321687132,0.450342208,4.788889885,-143.9019165,-35.69831467,-20.51233482
2.383237999999892,-8.334832191,9.696997643,-151.0295563,0.140590221,3.59139967,11.89105701,-145.5687408,-46.21510696,-17.79431915
2.3915710000001127,-9.594213486,9.420293808,-151.1547089,-4.628109455,0.952125549,17.05086899,-149.1940918,-30.73203087,-21.04020119
2.3999039999998786,-10.85262012,9.077443123,-151.2259979,-0.00355811,1.266980171,9.154150009,-150.4335938,-39.43870544,-16.01305962
2.408237000000099,-12.05927563,8.68902874,-151.327774,-0.649087131,1.779677749,5.793676376,-143.5128937,-43.51864243,-22.18365669
2.416569999999865,-13.23649883,8.281587601,-151.3544464,-1.471313238,0.17415297,14.72178555,-141.5924072,-47.46102142,-14.19499874
2.4249030000000857,-14.403162,7.917297363,-151.443924,-2.415503502,2.824151993,13.6204195,-139.183548,-40.24894714,-21.31447029
2.4332359999998516,-15.49987507,7.533977032,-151.4515686,-2.472578764,3.353925228,13.28400326,-132.2793274,-44.65470886,-13.14629841
2.4415690000000723,-16.58794785,7.198572159,-151.5009613,-3.079642534,2.102253437,7.305098057,-130.5434113,-37.44265747,-17.1374855
2.449902000000293,-17.6287632,6.806755066,-151.4591675,1.785828114,-0.114630789,-0.177643642,-126.3045578,-46.84972763,-9.477701187
2.458235000000059,-18.6018734,6.454818726,-151.4745483,-2.396646738,4.591341019,13.14711189,-117.334465,-40.05488586,-14.94034767
2.4665680000002794,-19.54966927,6.108838081,-151.4096222,-1.889756441,-0.433047652,15.65451241,-115.3838882,-42.21589279,-6.650901318
2.4749010000000453,-20.45178604,5.84072113,-151.4140015,-2.110089302,3.059745789,17.63987732,-109.0100327,-30.65920639,-11.27574635
2.483234000000266,-21.26533699,5.540754795,-151.3592987,-4.017359257,5.158317566,14.40841675,-99.0724411,-36.41083908,-7.115781784
2.491567000000032,-21.97881508,5.327558994,-151.3601379,-1.062996387,2.758170843,0.799229026,-86.44343567,-24.43090057,-9.154618263
2.4999000000002525,-22.58569336,5.057063103,-151.3064575,0.523375571,2.134988308,-3.582071781,-74.200737,-32.91501999,-6.773185253
2.5082330000000184,-23.1362648,4.813138962,-151.2524109,-0.125009611,3.085984468,14.19096661,-67.38950348,-29.87701988,-5.79529953
2.516566000000239,-23.66630173,4.632444859,-151.2308044,-5.723758221,0.92608279,18.42292023,-64.60961151,-21.37268066,-6.641362667
2.524899000000005,-24.13425827,4.547109127,-151.2310638,-1.547701359,2.810292721,15.95694351,-57.00986099,-10.16432095,-3.611745596
2.5332320000002255,-24.50643349,4.46120882,-151.2284698,-3.081706047,1.125477552,4.077180862,-45.47595978,-9.968746185,-4.36359787
2.5415649999999914,-24.85837173,4.393976688,-151.2080231,0.2623685,1.806484699,1.973771691,-43.2846489,-9.190121651,-0.571326494
2.549898000000212,-25.21563148,4.277207851,-151.2017975,-0.822797298,1.110747695,10.33944321,-43.7195816,-13.45766544,-5.656069279
2.558230999999978,-25.50052834,4.24531126,-151.2066803,-3.035042763,1.218024373,17.4480114,-35.00739288,-4.049640179,-1.616311193
2.5665640000001986,-25.75969124,4.282532692,-151.27742,-2.728362083,2.01941967,10.11305904,-31.2589016,7.24239397,-6.103109837
2.5748969999999645,-25.96730995,4.259152412,-151.2698822,0.487190366,0.493181914,4.417739391,-25.86314201,-3.80297327,0.200751662
2.583230000000185,-26.15000534,4.198390007,-151.3140106,-1.496294618,0.835520208,8.934580803,-22.32127953,-4.677520275,-8.347990036
2.591562999999951,-26.36493111,4.143893719,-151.2818909,2.382618666,0.543878376,12.67978477,-26.95113182,-8.427010536,1.10145092
2.5998960000001716,-26.51539421,4.112273693,-151.3405304,-4.498611927,1.218114734,21.21976662,-18.33926201,-0.718889415,-8.376729012
2.6082289999999375,-26.66482162,4.136466026,-151.3352356,-0.918155313,1.424415588,10.52823544,-18.87118912,1.416147232,2.466535807
2.616562000000158,-26.79386902,3.984271049,-151.3392639,2.526469231,0.746088564,-0.919680476,-16.24045753,-16.54055405,-9.048181534
2.624894999999924,-26.85957336,3.851279497,-151.2651978,-2.887583256,0.914381087,6.654922485,-9.385418892,-19.13563728,1.293122411
2.6332280000001447,-26.93445587,3.715059996,-151.2605438,2.218290567,-0.491467178,14.61610126,-9.811639786,-15.27743816,-7.299753666
2.6415609999999106,-27.00494957,3.579481602,-151.1893921,-4.685670853,1.21655333,20.12450218,-9.90034008,-19.27003098,0.820437074
2.649894000000131,-27.17279434,3.427939653,-151.1585693,3.174013615,-1.326111913,9.381803513,-21.15724373,-18.3184433,-5.395821095
2.658226999999897,-27.3333683,3.228411436,-151.0762482,-3.518594742,0.228129506,7.727390289,-20.73930359,-26.69753838,-1.626326203
2.6665600000001177,-27.44089699,3.040484667,-151.019516,0.478718609,-1.071046114,7.565115929,-14.064888,-23.59728432,-4.739507198
2.6748929999998836,-27.53614044,2.874165297,-150.9424744,-4.221878529,0.365004808,9.329949379,-12.80161667,-22.85854149,-0.472736597
2.6832260000001042,-27.64094543,2.667830467,-150.8702545,3.378144741,0.21045199,10.53129196,-13.78430939,-26.40048218,-4.197663784
2.69155899999987,-27.78853416,2.508126736,-150.7919769,-4.840038776,0.915581346,14.87245178,-19.02964592,-22.23527145,-0.042647731
2.6998920000000908,-27.97600937,2.326870203,-150.7268219,3.34965992,-0.460672945,12.32003307,-23.61785889,-23.32559967,-3.668832779
2.7082249999998567,-28.14189339,2.245720148,-150.6965027,-7.631474495,0.013826048,11.41798401,-20.94756126,-11.19901085,-0.841479301
2.7165580000000773,-28.26799774,2.093354702,-150.6170044,2.193862915,-0.609201789,8.640639305,-16.28389931,-21.06528473,-0.642943144
2.724891000000298,-28.37927437,2.037477732,-150.6022034,-6.561683178,-0.120308712,8.817170143,-14.20668221,-7.191556454,-2.017172575
2.733224000000064,-28.51477242,1.891869783,-150.5142517,5.624322891,0.614531338,8.642743111,-17.51548386,-21.2277832,1.355237126
2.7415570000002845,-28.65228462,1.841971636,-150.5347137,-6.344806671,0.206538439,15.58990192,-17.31645584,-4.901131153,-4.662765503
2.7498900000000503,-28.82509232,1.779009104,-150.450531,3.218854666,1.417663813,15.33223057,-21.84672356,-11.92673683,4.821177483
2.758223000000271,-29.00771523,1.769582033,-150.5135193,-5.93491745,-0.102622539,14.62976742,-22.58221245,1.883659005,-6.886723518
2.766556000000037,-29.1650486,1.753084064,-150.4334259,-0.126081795,0.916796207,8.929811478,-19.96466446,-6.848276138,7.032557487
2.7748890000002575,-29.31105042,1.711536288,-150.474411,-0.841192245,-1.14108932,2.008359909,-18.28027344,-2.718004704,-6.488857269
2.7832220000000234,-29.47485542,1.636918664,-150.3585815,0.432222188,-0.263486207,6.267626762,-20.85284233,-15.0662241,7.30911541
2.791555000000244,-29.61860657,1.509534717,-150.3473358,1.106068373,-0.027775053,9.338842392,-18.19425964,-14.71144009,-6.174519062
2.79988800000001,-29.76742363,1.414464474,-150.225235,-4.414046764,0.771918237,16.43241692,-19.02319145,-17.61223221,6.672217846
2.8082210000002306,-29.92837906,1.299868345,-150.2072754,3.367606878,0.021382548,11.60459423,-20.27708435,-13.71304989,-4.857691765
2.8165539999999964,-30.05179787,1.193547964,-150.0874481,-7.089782238,2.77946806,17.67030716,-15.91123676,-18.68175125,5.672927856
2.824887000000217,-30.19195747,1.080597878,-150.0371857,2.983045816,-1.000109553,6.988935947,-17.8600235,-15.42789841,-1.538238168
2.833219999999983,-30.33250809,0.958547354,-149.9372711,-5.783264637,0.901464224,8.56426239,-17.86906433,-19.13883972,2.572836161
2.8415530000002036,-30.41851425,0.78080231,-149.8507233,2.405006409,-0.302008599,9.462889671,-11.39944363,-24.33359146,-1.78359735
2.8498859999999695,-30.50024796,0.660820067,-149.7627563,-6.138412476,0.882797599,10.30164051,-10.73052406,-18.20727158,1.399549603
2.85821900000019,-30.55132103,0.485672891,-149.6669312,4.117385864,-1.514783978,6.419250965,-7.169633389,-24.61181259,-0.758335531
2.866551999999956,-30.62513733,0.38738054,-149.6143341,-5.446942329,2.928993464,14.23860741,-9.693631172,-13.81217003,-0.969934285
2.8748850000001767,-30.67760086,0.233117566,-149.5210419,2.086660385,-0.564159036,11.80610275,-7.287867546,-22.33121681,0.255053848
2.8832179999999425,-30.71099663,0.204994917,-149.5106964,-7.798373222,2.491054773,10.01221561,-4.801592827,-3.980989456,-1.055997968
2.891551000000163,-30.72790718,0.065430664,-149.4389648,3.349278212,-1.005452871,7.511681557,-2.986927748,-19.4858284,-1.114117026
2.899883999999929,-30.71930504,0.07750731,-149.4713135,-6.554592609,-0.272447497,8.566431046,0.24790737,2.781872511,-2.996890783
2.9082170000001497,-30.66317558,-0.052362803,-149.4086456,2.61184001,1.253269076,11.74757004,5.794723988,-17.94529152,-1.429761648
2.9165499999999156,-30.60309982,-0.037280884,-149.4730835,-7.410674572,2.018530846,19.72592735,6.41512394,5.050986767,-6.131305218
2.9248830000001362,-30.52213478,-0.123302095,-149.4309387,2.86046958,-0.359247714,9.216292381,8.769970894,-12.14219952,-0.87851727
2.933215999999902,-30.4479084,-0.091721795,-149.5076447,-4.392954826,1.328457117,11.71165848,8.100926399,7.489181042,-6.410271168
2.9415490000001228,-30.37236977,-0.133100882,-149.4878082,0.161153093,-0.671413898,6.760378361,8.110735893,-6.203537941,-0.386698157
2.9498819999998886,-30.27805519,-0.085314222,-149.5574646,-2.303329945,-0.437690586,10.22624588,10.51468182,8.724042892,-4.720473289
2.9582150000001093,-30.16361809,-0.124773994,-149.5490723,-0.849265873,-1.603050232,8.271895409,12.76943016,-5.329658031,-1.415263772
2.966547999999875,-30.04022789,-0.083084159,-149.5759583,-0.611897409,1.563804865,13.7178278,14.01425457,5.499082565,-0.683464766
2.974881000000096,-29.92436409,-0.102337636,-149.6024475,-3.064384699,0.106488451,15.38067436,12.92828655,-1.12226212,-3.842007399
2.9832139999998617,-29.87090302,-0.025452703,-149.6000061,0.782798707,0.738022208,13.62258625,5.627000332,7.404858112,4.454303265
2.9915470000000823,-29.82768631,-0.055680562,-149.6496735,-4.326954365,0.177959532,13.66769314,4.198212147,-0.919269383,-6.860184669
2.9998799999998482,-29.79931641,0.040188834,-149.637146,-1.505157471,-0.594010293,7.680617332,2.61819768,8.785824776,6.624033928
3.008213000000069,-29.74587059,0.010931292,-149.7115784,-2.94758606,-1.572071075,8.224040985,5.426363468,0.614319086,-9.329217911
3.0165460000002895,-29.6731739,0.103996947,-149.7147217,-3.531348467,-1.246050596,9.129080772,7.936711311,9.439781189,4.807676792
3.0248790000000554,-29.60087967,0.110803239,-149.8047028,-0.080548733,1.189097047,11.09716988,7.705109119,5.265865326,-8.805381775
3.033212000000276,-29.53600311,0.23052977,-149.8630981,-3.547477961,-0.311359078,12.97700024,7.016598225,15.50787258,0.594468057
3.041545000000042,-29.5050106,0.315713853,-149.9576111,-0.274505526,2.32626152,14.01363659,2.773625135,13.65621853,-4.583078384
3.0498780000002625,-29.51131439,0.478552133,-150.0697174,-3.234100342,-1.611207008,10.25417042,-1.451251984,23.18559074,-2.483762026
3.0582110000000284,-29.51256561,0.633796036,-150.1636963,-1.994508982,0.326739937,8.215957642,-0.830055237,21.32030869,-1.034456849
3.066544000000249,-29.50084114,0.801336288,-150.2971802,-1.164122581,-1.685552716,5.689098358,0.59551847,24.49633026,-3.685352325
3.074877000000015,-29.45231819,0.97147882,-150.4092712,-2.427308321,-0.599681973,8.208846092,5.012899876,23.45825768,-1.23381269
3.0832100000002356,-29.38508606,1.146839261,-150.5202332,0.21018374,0.083108813,11.51585102,7.525761127,24.42276382,-1.660059452
3.0915430000000015,-29.33840179,1.354695559,-150.6656647,-2.134013414,1.858700395,15.38116169,4.957831383,29.35830116,-2.545262814
3.099876000000222,-29.35826683,1.573451638,-150.7755432,-1.428395152,-0.814976573,13.13931179,-2.835421085,28.89481163,0.977657735
3.108208999999988,-29.39961815,1.781391859,-150.9378662,-2.058311224,-1.659032345,9.445319176,-5.432424545,30.2841568,-4.164545059
3.1165420000002086,-29.379076,2.013437748,-151.0551605,-3.498375177,-1.334736466,7.504517078,2.142542839,30.71916199,1.00652504
3.1248749999999745,-29.32104874,2.230592251,-151.1956177,-0.375990123,0.652102411,13.76973629,6.539768219,29.95619583,-1.351075292
3.133208000000195,-29.32042122,2.462071657,-151.3449707,-3.406587362,0.256049722,17.25095177,0.021349486,32.54149246,-2.410199404
3.141540999999961,-29.36445618,2.700431585,-151.4737549,-0.890674651,-0.535375416,8.981124878,-5.651376247,31.47755241,1.121609926
3.1498740000001817,-29.37940598,2.923696518,-151.6199951,-1.173047304,-1.54615891,6.153251171,-1.723173618,31.49896812,-2.533864737
3.1582069999999476,-29.38597488,3.1293993,-151.7497559,-1.330673575,-0.108906135,13.0110054,-1.034124136,28.0937748,-0.834666014
3.166540000000168,-29.4536171,3.325396538,-151.8463287,-0.46270439,-0.762660027,7.361951828,-8.254782677,25.72363853,1.074838042
3.174872999999934,-29.52960205,3.522228718,-151.9774628,-0.387993366,-0.503948331,9.389567375,-9.256760597,27.24932861,-1.447794557
3.1832060000001547,-29.57585335,3.710732222,-152.0924683,-3.935931206,-0.061933823,15.48185158,-5.468693256,26.02383232,-1.22384882
3.1915389999999206,-29.65649986,3.892937183,-152.1735229,-1.985649586,0.557624042,16.76297379,-10.12083054,22.75315094,2.968140841
3.1998720000001413,-29.7441597,4.075891495,-152.2996521,-1.770175457,-1.119030714,10.46068096,-10.25602245,26.10554504,-2.638984919
3.208204999999907,-29.78833961,4.272273064,-152.3988495,-3.005600214,1.196989655,14.60553551,-5.533678055,25.28402138,2.012934685
3.216538000000128,-29.86853981,4.379960537,-152.4591522,-0.822073281,-1.065706015,9.845531464,-9.867196083,14.35385132,-0.231988207
3.2248709999998937,-29.94304085,4.537549496,-152.5404358,0.973866761,-0.679440796,5.771187305,-9.279783249,20.20606422,1.553388715
3.2332040000001143,-30.00173187,4.595985889,-152.5888519,-1.503236175,0.218043059,10.60430145,-7.369599819,8.52163887,-1.913665175
3.24153699999988,-30.08857536,4.678064823,-152.6038513,-1.699582815,-2.005548477,11.27470303,-11.3799448,8.365084648,3.973626137
3.249870000000101,-30.16785622,4.744307518,-152.655838,-0.302966923,0.422898948,11.73330975,-9.791069031,9.549180031,-1.785876036
3.2582029999998667,-30.25677872,4.785163403,-152.6686859,-3.687021255,0.31855008,14.61990643,-11.64305401,3.973677635,1.689758658
3.2665360000000874,-30.35711098,4.818929672,-152.6884918,-0.72527492,-1.743234754,9.216417313,-12.62948322,4.246725082,-0.40022245
3.2748689999998533,-30.4389267,4.869475842,-152.7098236,-2.569607973,0.406454831,9.469836235,-10.70536709,5.475439548,1.428621173
3.283202000000074,-30.53537178,4.832251549,-152.7086639,0.171446055,0.082853071,8.931329727,-12.37290573,-4.366074562,-2.546592951
3.2915350000002945,-30.6010952,4.873285294,-152.7234344,-2.419685602,-0.949742615,7.197132587,-8.836117744,4.097777843,1.527440906
3.2998680000000604,-30.67478561,4.859468937,-152.7084045,-1.401298642,0.543637693,11.36040592,-9.785817146,-2.790158987,0.303900093
3.308201000000281,-30.73512459,4.852733612,-152.702301,-0.177573606,0.012122236,7.646753788,-8.40149498,-2.131949663,0.791928172
3.316534000000047,-30.77267265,4.889413834,-152.7289124,-4.381658077,-0.004990703,15.17794609,-5.025205612,4.96282196,-0.881770015
3.3248670000002676,-30.80161667,4.876948833,-152.6874695,-1.545041919,0.234663561,9.314311028,-4.986887455,-4.83742857,3.981823206
3.3332000000000335,-30.81328201,4.923913479,-152.7331085,-2.0710361,-0.478694618,11.25445461,-1.722993016,7.188316345,-2.198777437
3.341533000000254,-30.8112812,4.918388367,-152.709549,-2.997439384,0.894939959,14.40212536,-0.790352821,-2.458812952,1.681971431
3.34986600000002,-30.79774284,4.939172745,-152.7310028,-1.892572641,-1.165761709,8.999455452,0.752610266,2.421685219,-0.404013336
3.3581990000002406,-30.7753067,4.982850075,-152.729538,-2.448303223,0.572290003,14.24455929,1.582562804,3.365492821,3.376968384
3.3665320000000065,-30.74920082,4.950909138,-152.7210846,-0.285084426,-0.743236721,5.745139599,2.255884171,-4.256829739,-1.493463516
3.374865000000227,-30.69198418,5.022646427,-152.7401886,-2.841919422,0.092965126,15.43321705,5.978093624,7.547938824,2.933124542
3.383197999999993,-30.65975952,4.960879803,-152.7001953,-0.909728646,-1.147100925,4.594175339,2.66105032,-9.260597229,-0.068364397
3.3915310000002137,-30.59651566,5.054984093,-152.7311249,-1.873357773,-0.211096108,15.13983345,7.125253201,11.15388584,2.172791719
3.3998639999999796,-30.55518913,4.941087246,-152.6878052,0.109804668,-0.304387063,3.832334518,3.417874575,-15.42924881,-1.974653006
3.4081970000002,-30.46379471,5.017196655,-152.7311249,-3.50247407,-0.173252597,18.41337585,10.33500099,9.474003792,0.693825841
3.416529999999966,-30.40185928,4.914151669,-152.6592865,0.538414538,-1.011440754,3.662401438,5.897077084,-15.4588356,0.742236674
3.4248630000001867,-30.30500603,4.964337826,-152.677002,-3.451897144,-0.51461947,17.56318283,10.72356796,5.24890852,1.732739329
3.4331959999999526,-30.24301529,4.86662674,-152.6169128,1.689390302,-0.79352963,3.868560791,6.033344269,-14.19492531,-0.105428211
3.4415290000001733,-30.14822578,4.857640743,-152.5897217,-5.451958656,-0.638910353,19.93013573,10.02212143,-3.578334808,2.777979374
3.449861999999939,-30.10020256,4.826210499,-152.5515747,0.312462866,-1.490070462,5.577361107,4.588624954,-5.998803616,1.654282808
3.45819500000016,-30.0283699,4.761954784,-152.4951935,-4.444380283,-0.396485209,14.74660587,6.980481625,-11.06634903,2.494199038
3.4665279999999257,-29.98721504,4.815852642,-152.5150604,-0.951579154,-1.139235854,10.26371288,4.348618984,6.342585087,0.779915214
3.4748610000001463,-29.96284103,4.691469193,-152.4289703,-3.042160988,-1.651286364,9.949244499,0.992846429,-19.10389328,2.011729717
3.483193999999912,-29.93711853,4.818704128,-152.473587,-2.742758274,-0.08405292,14.81713676,2.743758917,15.44634628,2.601138592
3.491527000000133,-29.94337273,4.666170597,-152.3716278,-0.933806956,-2.492724419,3.137641191,-2.835983515,-22.9573307,1.947207808
3.4998599999998987,-29.91179276,4.808438301,-152.4084625,-3.818492174,0.51121676,16.3651619,3.366518259,16.54566002,4.303333759
3.5081930000001194,-29.94446182,4.717570305,-152.3441467,0.552530229,-2.717264652,-0.20576337,-5.628754616,-14.29079914,1.72771883
3.5165259999998852,-29.94878578,4.777649879,-152.3495941,-3.48849535,-0.115889274,22.37849236,-1.253919482,6.125221729,2.637664557
3.524859000000106,-30.00332832,4.769864559,-152.3383179,-0.708954632,-1.159497976,1.121645093,-7.727481365,-2.517776728,1.255955577
3.5331919999998718,-30.02636909,4.749153137,-152.2856903,-3.70510602,-0.652199209,15.54831409,-4.079810143,-5.74547863,3.807518482
3.5415250000000924,-30.05707359,4.863650322,-152.354248,-0.101375073,-1.065720081,8.544280052,-4.058115005,14.97279072,0.32088241
3.5498579999998583,-30.11277771,4.711544991,-152.2472687,-1.879539967,-0.866755843,12.57174015,-8.545937538,-22.65444374,1.521038055
3.558191000000079,-30.13284874,4.869356632,-152.3494873,-3.604740143,-1.387622952,15.03539181,-2.444213629,21.49538422,-0.541792512
3.5665240000002996,-30.1836853,4.69952774,-152.2242432,-0.088714577,-0.275924116,3.809752226,-8.144770622,-25.59145927,2.312493563
3.5748570000000655,-30.19646072,4.801229,-152.2973633,-4.20996809,-1.21645999,19.34915733,-1.863103151,13.91384888,-0.873753011
3.583190000000286,-30.22083473,4.725832939,-152.2360992,1.214152217,-0.908430338,4.153819561,-4.325451374,-11.95152855,1.381107092
3.591523000000052,-30.25036812,4.669193745,-152.2019196,-5.126488209,-0.659864724,21.43118286,-4.931048393,-8.937858582,0.61516434
3.5998560000002726,-30.27933884,4.730301857,-152.2120056,-1.008732796,-0.186069593,6.337123394,-4.167078495,6.495143414,2.254757404
3.6081890000000385,-30.32176208,4.549655437,-152.1109924,-1.119420171,-2.000720024,11.33115005,-6.861877918,-25.25893021,-0.903824329
3.616522000000259,-30.34593391,4.688472748,-152.1704559,-4.95382309,-0.097429954,16.57501221,-3.377263069,16.93694115,2.817041159
3.624855000000025,-30.39009094,4.527398109,-152.0836182,1.951448441,-1.171975851,0.768981874,-7.18284893,-22.94147491,-0.303451955
3.6331880000002457,-30.39735031,4.548825264,-152.0746765,-5.699666977,0.473807067,23.7076416,-1.744021893,1.229649782,1.826794267
3.6415210000000116,-30.41232681,4.522395611,-152.065979,0.052925717,-1.47454381,1.478998661,-2.927297354,-4.284416199,-0.186497256
3.649854000000232,-30.42108917,4.441168785,-151.9812775,-4.450564861,-0.736933112,14.44657898,-2.63506484,-13.98214626,3.406783104
3.658186999999998,-30.42459679,4.536206722,-152.0554047,-0.629890442,-0.822556496,11.15297508,-0.766839027,13.28160858,-1.317288995
3.6665200000002187,-30.46161652,4.375780106,-151.9345398,-2.163472414,-1.608781338,8.384509087,-6.360402584,-24.37108612,2.315259218
3.6748529999999846,-30.46245193,4.491186619,-152.0258942,-3.605742216,-0.672589719,14.72392845,-0.290696025,16.4387455,-1.849860549
3.6831860000002052,-30.4650116,4.41204834,-151.9499054,-0.713156998,-0.302673578,3.441669464,-1.803934097,-13.24168968,2.623653173
3.691518999999971,-30.45053101,4.48165369,-152.03125,-4.318979263,-0.561024487,17.99201012,1.462303996,11.11830807,-3.645264387
3.6998520000001918,-30.41991425,4.507907867,-152.0335999,-0.467075586,-1.445224643,1.123317122,2.908457756,2.41151619,0.956064045
3.7081849999999577,-30.39987755,4.544089317,-152.091507,-3.582725763,-1.471980214,20.53925514,1.923488259,6.247171402,-3.287459373
3.7165180000001783,-30.39653397,4.637084484,-152.1552734,-1.383489013,-2.553520441,2.498884439,0.223035991,13.03904343,-1.330147505
3.724850999999944,-30.34102249,4.626270771,-152.1699982,-2.341376781,0.213298663,14.90450287,5.781837463,-1.219212174,-1.707982898
3.733184000000165,-30.3360424,4.789413452,-152.2758179,-2.318900824,-1.084682226,10.76521969,0.850380063,22.84092712,-1.430581212
3.7415169999999307,-30.31443596,4.73686552,-152.2866516,-2.200143099,-1.210540056,12.03471279,1.670086503,-5.805081844,-3.78885746
3.7498500000001513,-30.29563522,4.963190556,-152.414505,-4.91795063,-1.540084481,11.88298225,2.765430212,30.71534729,0.108770929
3.7581829999999172,-30.28395271,4.964869499,-152.4486694,-0.294181585,-0.589764357,5.431158066,0.727943718,1.252830625,-2.972814083
3.766516000000138,-30.26144028,5.194442272,-152.5738373,-1.996264219,-1.649859428,5.26821661,3.243187189,30.88621521,0.571799815
3.7748489999999038,-30.20838737,5.195437431,-152.6028137,0.476100445,-0.079661138,8.554284096,5.655942917,0.860651195,-2.467675209
3.7831820000001244,-30.18743896,5.434243202,-152.7125854,-4.430964947,-1.843532562,14.22055244,2.944858074,30.91757202,2.682312012
3.7915149999998903,-30.14412117,5.419372082,-152.7333527,0.974698544,-0.239838198,6.7790308,4.409118652,-1.259528637,-2.614162922
3.799848000000111,-30.1033802,5.692082882,-152.8659668,-6.794174671,-1.87449038,21.04016685,5.640964985,35.80639267,2.329630375
3.808180999999877,-30.09895706,5.675270557,-152.8967133,1.634477377,-1.219522715,3.573172331,-0.125842735,-0.84027499,-3.807735205
3.8165140000000974,-30.07058716,5.924340248,-153.0188141,-3.932572842,-1.725829005,16.02866554,4.095144272,32.72161484,1.97208035
3.8248469999998633,-30.06595421,5.892230034,-153.0207672,3.072508335,-1.943369508,-0.188280866,-0.436722726,-4.121945381,-1.804983974
3.833180000000084,-30.04825211,6.028221607,-153.0644531,-5.145498276,-1.259080768,17.71920013,1.877946258,16.28923225,3.264163017
3.84151299999985,-30.07824707,6.098577499,-153.1311951,1.509311438,-0.829371929,4.262870789,-3.780532837,10.34193993,-2.245292902
3.8498460000000705,-30.09482384,6.117976665,-153.1142883,-5.197469711,-3.206816435,18.61875343,-2.994944572,0.556610107,2.513947725
3.858179000000291,-30.11502838,6.309185982,-153.2394714,-1.205201387,0.349675208,7.877218723,-1.822940588,26.40156937,-1.019114137
3.866512000000057,-30.15106392,6.237650871,-153.1605072,-2.200495958,-2.073986053,6.040252209,-6.149491787,-12.59874725,3.439389944
3.8748450000002777,-30.14736557,6.401854992,-153.2501678,-0.522235334,-0.207632944,12.91577435,0.839955091,21.9618969,0.253363281
3.8831780000000435,-30.17857933,6.304956913,-153.1792755,0.183911666,-1.438832045,-0.451678395,-5.718584538,-15.27015972,1.908555508
3.891511000000264,-30.16489601,6.394270897,-153.2220612,-4.278744221,-0.849017262,21.23622322,1.185644746,10.87671471,1.392659068
3.89984400000003,-30.16192055,6.445259094,-153.2397766,-1.579616427,-1.196529627,7.084639072,-0.194002211,5.903530598,0.852198362
3.9081770000002507,-30.13949776,6.395143986,-153.2059937,-2.444871187,-0.344552934,14.07716274,1.21640718,-8.165996552,0.862239122
3.9165100000000166,-30.094944,6.531600475,-153.2726288,-3.233516216,-1.412069678,16.51292801,5.456896305,17.7043972,0.946945786
3.9248430000002372,-30.09802437,6.442009926,-153.2230682,1.006117225,-1.643199444,3.823063135,-2.0583601,-13.16843414,0.053982005
3.933176000000003,-30.06855202,6.454607487,-153.2441864,-2.000153065,-1.090080142,17.74250984,3.033967495,2.123842955,-1.818508267
3.9415090000002238,-30.06859016,6.39611721,-153.2320557,0.26804179,-1.430726767,1.901077509,-1.18768096,-7.72684288,-1.886386156
3.9498419999999896,-30.02839851,6.289863586,-153.1787109,-2.792460442,-1.995904684,11.87619781,3.327353716,-14.66871071,-1.274641395
3.9581750000002103,-29.99247169,6.341052055,-153.2073975,-2.464144945,0.40515691,19.28642273,3.66804862,6.074787617,0.539141238
3.966507999999976,-29.99326324,6.183046341,-153.1494293,0.853050768,-2.721359491,4.738892078,-1.643076897,-20.32559586,-3.886500597
3.974841000000197,-29.98456764,6.155805588,-153.1210175,-4.984270096,-1.32875967,22.71746063,-0.334880501,-5.449095249,1.682842374
3.9831739999999627,-30.01453209,6.138363361,-153.1121826,-0.46629706,-2.052762508,0.087626874,-4.497680187,-2.786828756,-0.532212615
3.9915070000001833,-30.02571297,5.956220627,-152.9959106,0.128207177,-0.929615855,7.420485497,-3.814448595,-26.75766754,1.399216771
3.999839999999949,-30.04013443,5.969706059,-153.0192108,-4.604824066,-0.842260718,15.7823782,-2.23105073,2.346046209,-1.993197083
4.00817300000017,-30.08966446,5.800400257,-152.8951721,1.87014389,-2.759202003,0.129616603,-8.471990585,-25.90771484,2.981921673
4.016505999999936,-30.08067322,5.818915844,-152.914978,-6.000226498,0.765617669,21.72045326,0.530662954,2.659718275,-1.326638103
4.024839000000156,-30.09810638,5.758906841,-152.8414459,-0.50356257,-1.550484776,7.720590115,-3.77156806,-11.07846451,3.588899851
4.033171999999922,-30.09514236,5.724616528,-152.8095093,-5.328063011,-1.011608124,16.3800869,-1.029615402,-6.392262936,1.606947541
4.041505000000143,-30.08209038,5.745748043,-152.7801056,1.47821784,-0.81433183,5.024687767,0.21007514,-0.500937581,4.702939987
4.049837999999909,-30.09654236,5.670006275,-152.7549896,-4.348617554,-0.597488761,14.93888569,-2.823227167,-9.8150177,-2.358866453
4.058171000000129,-30.13574409,5.721549988,-152.7345581,-0.030309614,-2.260411024,1.419898748,-5.94549942,3.221592188,5.556022167
4.066503999999895,-30.10746765,5.673557281,-152.7307434,-3.03277421,-1.201219082,11.58978367,2.56005311,-5.657031536,-2.893204451
4.074837000000116,-30.10746384,5.737164974,-152.7398376,-2.040968895,-0.13562347,12.74095249,-0.890530169,6.210824966,3.288880825
4.083169999999882,-30.10339737,5.757475853,-152.7672577,-4.535252571,-1.86335659,11.75028419,0.029417945,3.302762985,-2.004262209
4.0915030000001025,-30.09846497,5.808485508,-152.7784729,-0.403256357,-1.955882788,9.814904213,-0.271305978,5.048014641,2.279833317
4.099835999999868,-30.09794617,5.830489159,-152.8189545,-2.899844885,-0.490565836,7.458869457,-0.235548526,4.259737015,-3.250959158
4.108169000000089,-30.13277054,5.849090576,-152.8139801,0.918098032,-2.576219559,3.295894861,-5.238982201,0.697360396,2.029505253
4.116501999999855,-30.13721657,5.87109375,-152.8720703,-1.945647955,-0.377341896,14.1831131,-0.610720277,5.317861557,-5.066752434
4.1248350000000755,-30.13424873,5.895976067,-152.8547363,-2.941357374,-0.503898144,11.67972279,-0.845986903,0.654891968,3.603807688
4.133168000000296,-30.11747742,6.0008111,-152.9308624,-3.95451355,-1.223193288,13.18289089,2.169487715,14.99392319,-1.938998103
4.141501000000062,-30.08061409,6.038888454,-152.9174652,-0.750663877,-0.59591043,7.591257572,3.466002703,2.704773664,3.278506994
4.149834000000283,-30.03220177,6.165359497,-153.015274,-4.111429691,-0.302544773,15.15831566,6.060547829,18.07304001,-2.148676395
4.158167000000049,-30.00643921,6.212663174,-153.0031128,-0.291052908,-1.950599909,3.029375792,1.944056511,3.306170225,4.405174732
4.166500000000269,-29.94643974,6.336822987,-153.1051331,-0.488932431,-0.756867886,10.29742241,7.749038219,18.53816414,-3.492501974
4.174833000000035,-29.88430786,6.380459785,-153.109314,-2.723143101,-0.549749672,8.020051003,6.522858143,3.915636063,2.473502874
4.183166000000256,-29.79469872,6.53524971,-153.2179565,-2.7647295,-1.322922945,16.298666,11.430089,22.11079407,-2.390372753
4.191499000000022,-29.68013,6.59099102,-153.2181702,-0.679770231,-0.081654027,7.37159586,12.77401352,5.007136345,3.491464138
4.199832000000242,-29.55894089,6.691504955,-153.2920074,-2.307166815,-1.255493641,12.00459766,14.77897072,14.38702011,-2.083770037
4.208165000000008,-29.42906189,6.687600613,-153.257782,1.228955388,-1.883937359,1.923860192,14.12647247,-3.239561319,3.539107084
4.216498000000229,-29.30474663,6.750585556,-153.3122101,-1.635805607,-0.297688037,14.90967751,14.89284897,9.321469307,-2.341654062
4.224830999999995,-29.19727898,6.703509808,-153.2523651,-0.398086071,-1.589492083,6.580574989,11.08465385,-9.195538521,3.616154909
4.233164000000215,-29.04800224,6.779407024,-153.3011322,-4.532009125,-0.47786051,20.62776184,17.8098011,10.33909988,-1.039733291
4.241496999999981,-28.92711449,6.788386345,-153.2731476,-1.069098949,-2.417918921,5.100198746,13.13286972,-1.476558447,3.637081385
4.249830000000202,-28.78199768,6.77327776,-153.283493,-1.059770584,-0.498293281,16.62082291,16.77173042,-1.439929962,-2.350055218
4.258162999999968,-28.67661095,6.802769184,-153.2685852,-2.09509182,-1.862369776,3.897179604,11.46730328,1.487892747,3.392593145
4.266496000000188,-28.57521439,6.767046928,-153.2604065,-1.68884778,-1.987472177,11.33192348,11.2638731,-4.677620411,-1.594511867
4.274828999999954,-28.47740555,6.831218243,-153.2850952,-2.047580242,-0.890986979,8.49889946,11.1127491,7.37967968,1.286078095
4.283162000000175,-28.34197998,6.799009323,-153.2623596,-1.815364003,-0.584243655,16.15139771,15.13951397,-5.13655138,0.149446279
4.291494999999941,-28.25617218,6.901043415,-153.2868195,-3.535035849,-2.823843718,8.197178841,9.67620182,11.37837029,3.425456524
4.299828000000161,-28.11526871,6.795196533,-153.2106171,2.70400238,-0.01828385,2.161726236,15.03032494,-15.93265057,1.60797286
4.308160999999927,-28.01017952,6.874997616,-153.2367096,-4.01102972,-0.714439154,13.55490208,12.01798344,9.152955055,1.910604596
4.316494000000148,-27.90340424,6.818883896,-153.1768036,-0.841394186,-1.662065029,13.78823948,11.16897297,-9.740864754,2.752595901
4.324826999999914,-27.79508781,6.911685944,-153.2119141,-4.082193375,-1.902983069,13.5604248,12.53723621,11.04397678,1.647879243
4.3331600000001345,-27.65508652,6.860223293,-153.1472931,0.103571698,0.075986803,10.97069263,15.08278084,-9.494866371,3.547354937
4.3414929999999,-27.57814407,6.915939331,-153.1552277,-1.663556457,-2.073685884,4.416386604,8.39395237,5.65392065,2.323659897
4.349826000000121,-27.46361923,6.837697029,-153.0915527,0.044964686,-1.962297797,9.212676048,12.03988647,-12.27931499,1.994722009
4.358158999999887,-27.36704636,6.925069332,-153.1138763,-5.970310688,-1.260021091,16.26534271,10.94636059,9.781502724,2.614151239
4.3664920000001075,-27.25858498,6.963201046,-153.0885773,-0.869361579,-0.240033492,8.163973808,11.86025143,2.235009193,4.381968975
4.374824999999873,-27.17148399,6.995529652,-153.1061554,-1.428881764,-2.473525286,5.683983803,9.766490936,3.726397991,-0.072411455
4.383158000000094,-27.05920601,7.025660515,-153.0802307,-0.859129667,-1.042334318,5.323559284,12.30511856,1.363971114,4.001264572
4.39149099999986,-26.9534626,7.033360004,-153.0776367,-0.997676551,-0.073488675,14.15668869,11.70341301,-0.020465773,0.758194149
4.399824000000081,-26.85382462,7.144852161,-153.0997772,-4.587473869,-1.839245081,13.98892879,11.49391747,12.67737293,3.308066607
4.408157000000301,-26.70797539,7.226677418,-153.1133728,-2.153723717,-0.231033415,8.223293304,16.77383232,8.85406208,2.923955441
4.416490000000067,-26.5315876,7.339366436,-153.113739,-0.150106177,-1.30367744,9.142439842,20.38444519,11.66212845,5.623876572
4.424823000000288,-26.35292244,7.404027462,-153.1134949,-1.47479558,-0.922984064,7.529896736,20.50695419,6.315281391,3.390262842
4.433156000000054,-26.18632889,7.504039288,-153.0970001,-1.637190223,-1.009882092,8.466234207,18.94682121,9.445240974,6.677186489
4.441489000000274,-25.97896194,7.641367912,-153.1400146,-4.499206066,-1.046807051,14.68635273,24.63454628,16.43194008,2.565792322
4.44982200000004,-25.75580788,7.772332668,-153.1404114,-2.449815989,-1.201402783,8.671913147,25.99776268,13.71442127,6.418944359
4.458155000000261,-25.56583023,7.973477364,-153.1938171,-1.495965838,-0.407778233,4.157275677,22.75918007,23.9385891,4.542676926
4.466488000000027,-25.36050606,8.054675102,-153.2052765,-0.921651959,-1.801906228,4.499894142,24.04244614,8.936516762,2.561565876
4.474821000000247,-25.10295486,8.31912899,-153.27565,-5.435107708,-1.923365355,15.9097662,31.18760109,31.67798424,5.83328104
4.483154000000013,-24.84769821,8.501893044,-153.2929077,-0.619731545,0.152347431,11.96679592,30.1464653,20.29882813,7.009099483
4.491487000000234,-24.61880493,8.759043694,-153.3721008,-2.419430256,-2.611269236,5.634245872,27.99544144,31.43815613,4.09237957
4.49982,-24.33953667,8.923918724,-153.3868103,0.546754956,-1.386185408,3.533149481,32.99516296,18.28237724,6.216391087
4.50815300000022,-24.08049393,9.210808754,-153.4746704,-3.475747824,-0.905331373,12.87937737,31.90140343,35.28315735,4.044099331
4.516485999999986,-23.77719688,9.428133965,-153.5106354,-2.998647928,-0.666683614,10.09246254,36.30748367,25.117733,6.289547443
4.524819000000207,-23.45984268,9.751482964,-153.6067352,-0.835152447,-1.27432847,4.993664265,39.1472435,39.68863297,4.619935989
4.533151999999973,-23.12296677,9.940032005,-153.611618,-1.246417522,-0.371803641,7.341306686,39.73800659,20.56221008,8.022072792
4.541485000000193,-22.7786026,10.18940639,-153.6544037,0.113545969,-1.620277882,7.364351749,41.3914032,29.15858078,6.385733128
4.549817999999959,-22.37567902,10.36336231,-153.6253357,-3.806460857,0.091821909,13.47533512,46.94209671,17.50922585,10.78808689
4.55815100000018,-21.99062157,10.64629936,-153.6515808,-1.065700412,-2.612887859,10.43913841,45.98663712,32.30611038,9.157896996
4.566483999999946,-21.54925728,10.78817272,-153.6057129,-0.629672527,0.654904366,10.96722126,51.15401459,13.3559742,10.94272232
4.5748170000001664,-21.13639259,11.01419544,-153.5968781,-1.509883165,-1.685862541,6.920649529,48.57720566,24.62396431,9.920790672
4.583149999999932,-20.63492966,11.11445522,-153.5111237,-1.043114424,-1.377589822,4.820769787,57.41534424,7.192537785,13.32859993
4.591483000000153,-20.13345909,11.3691473,-153.4919128,-2.999796391,0.553759277,12.60387897,58.96994781,27.60084343,11.82364082
4.599815999999919,-19.56990242,11.46127605,-153.3856659,-0.136544228,-1.821034908,7.081272602,64.31911469,5.70824337,15.11239338
4.6081490000001395,-18.97762299,11.74424267,-153.3573608,-5.438823223,-0.187909305,16.45165062,69.65149689,30.70088196,13.35173225
4.616481999999905,-18.35237694,11.86813259,-153.2331696,1.103757501,-0.533409357,1.138466358,71.19561768,8.969419479,18.18251801
4.624815000000126,-17.67071152,12.12787914,-153.1714478,-4.784475327,-1.078204751,12.53080463,79.56583405,27.19381905,15.35497379
4.633147999999892,-16.96782303,12.23493004,-153.0407715,2.443836212,-0.016255585,3.304601431,80.25408936,7.254006863,18.06222916
4.6414810000001125,-16.22686577,12.4411602,-152.9659882,-5.603602886,-0.968079209,16.04776764,86.31508636,20.99184608,14.26506615
4.649813999999878,-15.48343468,12.57619953,-152.8238525,0.416991919,-1.618003726,4.365923405,84.73457336,10.59226131,20.04804993
4.658147000000099,-14.69886303,12.79022026,-152.7510071,-4.776426315,-0.975076258,16.03440285,91.55303955,22.33577919,13.71301079
4.666479999999865,-13.93351364,12.94930649,-152.6305695,-0.507931888,-1.080083847,8.31889534,87.83952332,14.56619167,17.97680283
4.674813000000086,-13.12705421,13.16406727,-152.5555573,-5.800994396,-2.086894274,16.0157795,94.06801605,22.73929405,13.35549068
4.6831459999998515,-12.33616829,13.36440182,-152.4265442,0.022382595,-0.435128987,9.888037682,90.57183838,19.68094254,19.60025597
4.691479000000072,-11.53637886,13.56721687,-152.3664246,-4.361083984,-0.91456008,9.199633598,93.61882782,22.06368446,10.73433781
4.699812000000293,-10.68855953,13.75308704,-152.2389984,0.592914402,-3.087120056,4.200213909,97.34545898,18.57580376,18.4832592
4.708145000000059,-9.835478783,13.99397373,-152.1664276,-3.822514296,0.96291399,16.42880058,99.5923996,26.60502625,12.38397121
4.716478000000279,-8.985532761,14.18850803,-152.0395508,-1.476804137,-2.432223082,6.71950388,97.50628662,20.16761589,17.98841286
4.724811000000045,-8.091366768,14.43735695,-151.9538269,-5.150210857,-0.835694134,15.6989603,104.0618668,27.69085503,13.26007748
4.733144000000266,-7.213982582,14.67699623,-151.8274231,0.415514171,-2.504843712,6.614695072,100.6911316,26.0974884,17.98727417
4.741477000000032,-6.381142616,14.91829967,-151.7501526,-3.827029467,-1.66183722,10.1818943,96.86869812,27.30651855,11.35349751
4.749810000000252,-5.575302124,15.13525391,-151.6131744,-1.908658981,-4.003646374,6.379128456,91.65838623,23.79175949,18.10461044
4.758143000000018,-4.722796917,15.41025734,-151.5371094,-2.956348419,-0.468688488,15.91690159,99.04741669,31.6218338,11.31738663
4.766476000000239,-3.902796984,15.66722965,-151.4183044,-2.681713581,-2.541143417,13.85044384,93.7985611,29.26891136,15.61868382
4.774809000000005,-3.155911684,15.97039986,-151.3409576,-0.185444623,-2.352648258,11.38400173,86.2501297,35.30807495,10.73794174
4.783142000000225,-2.434940577,16.17016602,-151.2395325,-1.476602435,-3.942719221,2.920614481,82.36478424,22.92679787,12.45552731
4.791474999999991,-1.676827192,16.50486183,-151.1295013,-4.850743294,-0.885325313,16.19013977,86.41660309,39.23180771,13.68767834
4.799808000000212,-0.937717736,16.71767616,-151.0180206,2.607472181,-2.731420994,2.379328728,84.08538055,24.78986549,13.00488377
4.808140999999978,-0.198743254,16.94040871,-150.8956909,-2.356538773,-1.570640683,11.89721775,83.58726501,26.1364975,13.90059662
4.816474000000198,0.496454507,17.17383385,-150.7536163,-1.714871764,0.188516885,18.66344261,77.63941193,27.6058712,15.83147335
4.824806999999964,1.196038008,17.48350525,-150.6132813,-3.665669203,-2.891498566,8.333674431,78.09486389,36.94385529,15.11235905
4.833140000000185,1.876008987,17.60618591,-150.4743347,1.03438735,-2.190683603,5.560974121,75.78715515,14.69572258,15.10255623
4.841472999999951,2.56882453,17.83350372,-150.3326416,-4.856488228,-2.561083078,18.48084831,77.12945557,27.43763733,14.71322823
4.8498060000001715,3.288383722,17.99385452,-150.1797485,1.36152637,-0.85094583,-0.017152425,79.91996765,19.66141701,16.05708694
4.858138999999937,3.962118149,18.09908485,-150.0401001,0.537423849,-0.578027487,9.277378082,74.82609558,13.16105938,14.69036579
4.866472000000158,4.645472527,18.30785751,-149.8947449,-4.76348114,-1.854403138,18.13358307,75.77088928,25.77814674,14.24806499
4.874804999999924,5.352057934,18.40600586,-149.7096558,0.706678331,-1.494086623,4.215866566,76.96595001,13.12420654,19.56143188
4.8831380000001445,6.066590786,18.43928719,-149.5699768,-1.079707861,-2.94599843,11.311553,79.66429901,5.108903885,15.03132725
4.89147099999991,6.834443569,18.54179955,-149.3710327,-3.224951744,0.050958112,16.53369713,83.74692535,14.3220005,20.70508385
4.899804000000131,7.544051647,18.54322052,-149.2141266,2.519459724,-0.603645861,1.575637341,78.38300323,1.955516934,17.29397011
4.908136999999897,8.292610168,18.47940826,-149.0501099,-1.860231638,-1.787308574,8.110795021,82.75485229,-5.455404758,19.13043213
4.916470000000118,9.102989197,18.45221329,-148.8908539,-2.805932522,-1.213871717,14.60970592,90.41033173,-0.931443036,18.01563644
4.9248029999998835,9.933601379,18.34292412,-148.7350006,1.223743677,0.304078996,8.616829872,92.95224762,-10.44195652,19.26386452
4.933136000000104,10.72832298,18.1612072,-148.608139,-1.201965451,-1.864903808,15.92758751,89.81674194,-19.30649376,17.73821259
4.94146899999987,11.56318951,18.07444,-148.44104,-1.498747349,-1.733099461,8.362843513,93.13322449,-6.971610069,20.30450249
4.949802000000091,12.41627789,17.79171562,-148.3500977,1.999317288,-0.401153684,5.077021122,98.22834015,-31.4763298,16.80739021
4.9581349999998565,13.27396679,17.53363609,-148.2309875,-3.882202148,-1.28120482,15.76734161,97.77427673,-27.60567284,19.75484657
4.966468000000077,14.13133335,17.27276993,-148.1359863,-2.192246437,-1.496248603,10.90045071,98.6920166,-28.28281403,17.59006691
4.974801000000298,14.99408245,16.95229149,-148.0602722,1.14173758,-2.289902449,9.890320778,100.0477142,-35.47356415,17.67009354
4.983134000000064,15.83479786,16.61591911,-148.0210419,-1.12763083,-1.718768597,15.13876438,98.74410248,-38.16382599,14.67473316
4.991467000000284,16.64455223,16.29397392,-147.9515991,-2.387277126,-1.19646275,15.15706158,94.00514984,-35.29033279,18.07206917
4.99980000000005,17.45178604,15.94084167,-147.9229279,0.258389175,-2.265924692,4.487505913,95.13033295,-39.99204636,15.19006634
5.008133000000271,18.2569313,15.46729183,-147.9461517,-1.593893409,-2.684613228,6.125597,96.57135773,-55.34525299,14.46486759
5.016466000000037,19.05412102,15.09561443,-147.9373016,-2.032918692,-1.607610583,21.76239395,94.59962463,-42.3780632,14.84298992
5.024799000000257,19.77547646,14.67031384,-147.977417,-2.037825346,-2.31225276,13.77864456,87.00353241,-50.11190796,12.17052078
5.033132000000023,20.42936325,14.23094082,-147.9780426,0.86019665,-2.532963753,10.37555408,77.70019531,-49.9859581,17.66027069
5.041465000000244,21.02473259,13.83827019,-148.0553894,-4.771808624,-2.25594902,21.01122284,72.90483856,-47.68732071,7.849881172
5.04979800000001,21.59436417,13.40929413,-148.0595551,-1.085855603,-4.180240154,1.744892001,67.68763733,-48.58139038,17.86075211
5.05813100000023,22.14668465,12.93747425,-148.1969452,-0.212716639,-1.89774549,6.572837353,69.2510376,-58.95347977,5.79289341
5.066463999999996,22.68071938,12.5520134,-148.2055359,-5.568237305,-1.802705765,21.28747368,63.52648544,-43.59205246,16.3108902
5.074797000000217,23.15062141,12.15354729,-148.315033,1.74853909,-2.264427662,9.273722649,58.42062378,-49.47195053,6.394307137
5.083129999999983,23.55890656,11.73779869,-148.3678284,-5.328817844,-3.319941521,15.31068802,49.51834106,-48.70632553,13.69221401
5.0914630000002035,23.897295,11.43265724,-148.4302216,0.981382549,-0.734379172,19.27328682,41.33470917,-36.90270615,7.61888504
5.099795999999969,24.2322979,11.08532524,-148.4816132,-5.845202446,-4.782569408,-3.063096523,40.6173172,-40.97058105,11.07835579
5.10812900000019,24.51901054,10.69810104,-148.5632477,3.30234623,-0.145122349,16.12722588,35.48801041,-46.72692108,10.01690197
5.116461999999956,24.78269005,10.51429558,-148.5597992,-10.28047276,-4.163089752,15.92664623,30.77711868,-20.32489777,9.172252655
5.1247950000001765,24.99902534,10.17958736,-148.6081238,6.843107224,-0.979276359,1.129358649,26.23690414,-39.26498032,11.33325768
5.133127999999942,25.15166092,10.00728703,-148.6246796,-11.61301422,-4.437222958,25.53356552,17.87747955,-20.00339508,6.595374107
5.141461000000163,25.27750206,9.840385437,-148.5552673,6.112884998,0.046162922,7.522873402,12.90782547,-15.05661774,15.55895233
5.149793999999929,25.35813713,9.639687538,-148.6178741,-7.343758106,-3.850246906,0.369973361,10.15744591,-25.38313103,3.210758924
5.15812700000015,25.4754467,9.515350342,-148.5077515,0.226053432,-0.034784004,27.25818062,11.12425423,-8.315895081,17.77501678
5.1664599999999155,25.51155663,9.47059536,-148.5045166,-4.364113331,-2.264528513,5.66750288,3.479860306,-5.129302025,2.261749744
5.174793000000136,25.53643227,9.268023491,-148.4140778,0.494012505,-0.925153852,14.80568123,0.471827298,-17.75351715,19.7425518
5.183125999999902,25.53415298,9.376707077,-148.3150635,-7.694075108,-3.004566193,16.01375198,-2.989463806,16.37519646,4.562369823
5.191459000000123,25.50721359,9.188912392,-148.2430878,3.831255198,-1.903661966,-4.395068169,-5.366056919,-17.09694862,17.00677109
5.1997919999998885,25.50788498,9.237955093,-148.1694336,-5.295261383,-0.793714523,17.4408493,-2.124470472,8.622252464,4.944994926
5.208125000000109,25.50569725,9.192122459,-148.0303955,0.029961774,-0.189012513,7.757828236,-3.673543453,1.695983052,16.83840752
5.216457999999875,25.48027229,9.16896534,-148.0184631,0.261581153,-2.323847771,7.592526436,-4.069358826,-2.347134829,2.075252533
5.224791000000096,25.50291824,9.121439934,-147.8929443,-6.029299736,0.46099025,22.72845268,-0.409341127,0.821077287,15.48622799
5.2331239999998616,25.49132538,9.132680893,-147.8577576,2.779340029,-1.876859188,0.738274336,-2.851991177,2.564381838,2.783614159
5.241457000000082,25.49136925,8.982954979,-147.8081512,-2.955611944,-1.038623095,7.45228672,-1.662287474,-14.11859417,12.64983654
5.249789999999848,25.55407715,9.037275314,-147.7289124,-0.434910536,0.614768565,17.04042816,5.248370171,9.482403755,5.269834995
5.258123000000069,25.63178062,8.910598755,-147.6980286,-2.327526569,0.07322149,7.435482502,8.019831657,-12.56088924,9.474463463
5.266456000000289,25.68227005,8.81125164,-147.663208,1.376329541,-2.390271902,14.93564796,4.625585556,-9.404573441,8.488186836
5.274789000000055,25.74389648,8.758842468,-147.6096802,-5.239294529,-0.14669323,15.03864956,5.693750381,-3.342990875,8.057739258
5.283122000000276,25.82085228,8.654351234,-147.5769043,3.313505888,-1.571942449,0.83203429,7.851084709,-10.0460062,8.559369087
5.291455000000042,25.93711853,8.428427696,-147.6271515,-3.324163914,0.812252998,10.86267376,14.12899113,-27.42536545,6.076277733
5.299788000000262,26.08307648,8.342311859,-147.5887604,-1.695966959,-1.466672182,11.60943127,16.05609322,-7.737395287,8.230278015
5.308121000000028,26.22993088,8.183963776,-147.64328,-1.948894382,-0.748052478,10.68455696,17.85017395,-20.34178925,2.174944401
5.316454000000249,26.3609581,7.986330986,-147.6676025,0.567992508,-2.162017345,9.773176193,15.34568977,-22.98812866,7.520767689
5.324787000000015,26.47059441,7.807656765,-147.7507172,-2.473233461,-0.15753223,17.07953453,13.81695461,-24.02901268,0.29841885
5.3331200000002354,26.63398361,7.694072247,-147.7521973,-4.983875275,-1.295561671,11.67739201,18.84256935,-12.71737099,5.539580345
5.341453000000001,26.78175354,7.443932056,-147.8460236,2.59908247,-0.407378256,4.124455452,18.51254654,-32.2640419,3.131664515
5.349786000000222,26.90633583,7.278240204,-147.8943481,-2.501981258,-2.908110857,6.938310146,14.9044323,-20.78376007,3.452096224
5.358118999999988,27.06289864,7.072491646,-147.9648285,-1.09858644,1.364959478,17.54577065,19.14554405,-26.24101448,3.336398363
5.3664520000002085,27.23898506,6.96068573,-147.9835815,-5.662511349,-2.757112026,17.12065315,20.61712646,-13.40529346,3.738770962
5.374784999999974,27.37754059,6.763010025,-148.0309601,2.995181799,0.023434747,7.326904774,16.61216354,-24.10145187,5.476212025
5.383118000000195,27.50517464,6.602460384,-148.1233521,-3.803916216,-2.774451733,7.887248516,15.81763268,-22.61981392,-1.288960218
5.391450999999961,27.64149094,6.414106846,-148.1479187,-0.750828505,0.507839561,17.86198807,16.00059891,-21.82272911,7.475687504
5.3997840000001815,27.76063919,6.335877419,-148.1970825,-5.594458103,-3.051567316,8.588717461,14.16676235,-11.48611736,-1.223669052
5.408116999999947,27.8500576,6.157553673,-148.2328186,4.555208683,-0.805827796,3.510417461,10.50874424,-21.35136986,5.821541786
5.416450000000168,27.90453339,6.03020525,-148.3247681,-5.520016193,-2.410437822,14.12162876,6.92029047,-19.08535576,-2.948302269
5.424782999999934,27.94769287,5.923601151,-148.3091431,-0.039702766,-0.434020609,20.4234333,4.302052975,-10.86433125,7.248201847
5.433116000000155,27.99808311,5.925075054,-148.3536072,-7.016104698,-1.370782375,13.55190754,5.806912899,-2.78022027,-5.164802551
5.4414489999999205,28.02957726,5.767174244,-148.3513184,3.446246862,0.043694012,7.391467571,3.073465824,-17.03580284,8.754141808
5.449782000000141,27.99270248,5.754098415,-148.4068451,-4.185955524,-3.951895475,10.95658493,-4.544374943,-4.947004795,-5.511670589
5.458114999999907,27.98936844,5.67186451,-148.3501129,-1.792378545,0.530999184,17.72094536,-1.75419116,-5.970576763,10.22360325
5.466448000000128,27.94527626,5.696782589,-148.3526917,-2.791471958,-2.191011906,9.573817253,-6.051081181,2.050714016,-2.069911957
5.4747809999998935,27.87007332,5.56987381,-148.3318481,3.108453512,-2.158627748,0.88046217,-9.942706108,-12.73038006,8.941969872
5.483114000000114,27.80677986,5.555589676,-148.3715515,-3.439175606,-0.494770318,9.841324806,-7.922047138,-4.178347588,-3.790368795
5.49144699999988,27.77039146,5.486448765,-148.3301392,-4.622737885,0.453833997,22.88493729,-5.517512321,-5.469894886,7.857769966
5.499780000000101,27.69199181,5.527154922,-148.3197327,0.102117784,-2.375266314,7.883086205,-10.31592846,4.454123497,-1.56759119
5.508112999999867,27.62050056,5.3974123,-148.3476105,-0.74364531,-1.220238686,2.008674383,-8.927970886,-15.7756815,3.888689756
5.516446000000087,27.54402161,5.397175312,-148.3365936,-0.67304492,-0.085721329,16.66512871,-10.09172821,0.137868643,0.784730613
5.524778999999853,27.45596123,5.352604866,-148.3289642,-4.899035931,-1.186798692,16.41408157,-11.31964874,-4.762044907,2.890630722
5.533112000000074,27.38461685,5.372450352,-148.3019867,2.124683142,-1.736544013,3.212791204,-9.654621124,3.151844501,1.368376613
5.541445000000294,27.29391479,5.209414959,-148.3619385,-3.309047461,-0.42020303,10.14762115,-10.88444138,-21.11039162,2.235009432
5.54977800000006,27.18628502,5.178226948,-148.3592072,1.706697822,-1.694835544,11.00107765,-13.7356596,-3.625593424,1.608638167
5.558111000000281,27.10116577,5.100865841,-148.3935699,-7.693467617,-0.360387802,17.09688759,-10.50980568,-10.57291985,0.19511649
5.566444000000047,27.00336838,5.073417664,-148.3645172,1.627108574,-1.364459038,14.275033,-12.83362961,-1.800911307,4.194856167
5.574777000000267,26.87331581,5.010063171,-148.4134064,-3.350888252,-1.134919524,6.912267208,-15.75132465,-9.866426468,-2.150699854
5.583110000000033,26.74530411,4.946416855,-148.42453,3.652973413,-0.944401681,6.461847305,-16.0340786,-7.864698887,1.859478712
5.591443000000254,26.62269211,4.840275764,-148.5000458,-6.243327141,-0.130295157,15.51465416,-14.60035038,-15.87570953,-2.733910799
5.59977600000002,26.49196815,4.819938183,-148.4765167,0.492152721,-0.662349403,13.81440735,-16.71508408,-1.371386409,3.213959455
5.6081090000002405,26.3836689,4.776224136,-148.5445862,-6.883546352,-0.51499176,12.54583073,-12.97130966,-8.764066696,-5.338188171
5.616442000000006,26.23238945,4.678552151,-148.538147,3.141376019,-1.861723661,7.751033783,-19.00815201,-10.6119051,5.488044262
5.624775000000227,26.04044914,4.638077736,-148.6281128,-2.584248066,-2.144771099,2.54369092,-22.81364059,-9.543562889,-7.905224323
5.633107999999993,25.86256599,4.547206879,-148.635788,1.511345029,-0.137777865,8.496873856,-22.06293488,-10.65406799,3.551582098
5.6414410000002135,25.70419121,4.496096134,-148.7250824,-5.651956081,0.349042267,16.28217506,-18.81939888,-10.61195564,-7.33835268
5.649773999999979,25.52949905,4.476554871,-148.6979675,-0.365982234,-1.267231345,15.74921513,-22.0074482,-1.159864068,3.543384552
5.6581070000002,25.39652443,4.509395123,-148.7596893,-6.907811165,0.887747526,13.74015141,-16.03351402,-0.060526449,-8.744060516
5.666439999999966,25.27490425,4.472360611,-148.7294617,0.299506277,-1.062265396,9.073635101,-15.66884708,-2.916898727,4.774175167
5.674773000000187,25.14510727,4.527070522,-148.7891846,-2.6025846,1.149795651,7.926318645,-15.66774559,2.449374676,-9.644786835
5.6831059999999525,25.04076385,4.566422462,-148.7243805,-0.115481727,-2.80384779,5.394688606,-13.92753792,7.117185116,4.621359825
5.691439000000173,24.9743824,4.608846664,-148.7804718,-1.613641977,1.435405612,11.03700447,-8.084213257,1.33018589,-8.616834641
5.699771999999939,24.91056061,4.644892693,-148.72435,-1.506236076,-1.56728828,12.71538448,-8.9910326,6.304777622,3.867070913
5.70810500000016,24.84856224,4.741531849,-148.7404175,-3.539076567,2.050215721,15.35033417,-7.938135624,9.26437664,-7.004778385
5.7164379999999255,24.81950569,4.821867466,-148.659729,-4.82582283,-2.32600975,9.008374214,-5.083530426,12.35419655,4.311145782
5.724771000000146,24.79252815,4.887924194,-148.6924591,0.87682426,0.430677027,11.18644238,-3.559918404,5.102497101,-7.258588791
5.733103999999912,24.751688,4.988419056,-148.6165314,-3.993602991,-2.264736891,5.669972897,-6.473845005,14.30579662,2.791836977
5.741437000000133,24.71113777,5.03966856,-148.6375885,3.813232422,1.02306211,5.715518475,-5.30240345,4.080693722,-5.240672588
5.749769999999899,24.68550682,5.090463161,-148.6314087,-4.629347324,-2.138023615,10.94018841,-3.930606604,5.400466919,-2.27182889
5.758103000000119,24.65066528,5.175011635,-148.6078644,1.562752724,0.744524062,15.08502102,-5.0878582,9.941973686,-2.059282303
5.766435999999885,24.63920975,5.251988411,-148.6066742,-7.465573311,-1.361028314,15.65053177,-2.177927494,8.008688927,-4.118513584
5.774769000000106,24.61714554,5.316270351,-148.5713501,2.019150734,0.758602262,14.00082111,-3.6921134,8.319568634,0.243373707
5.783101999999872,24.58672523,5.421020985,-148.5970154,-5.161349773,-2.339613199,6.912477493,-4.150966644,9.705093384,-8.418144226
5.791435000000092,24.56674957,5.424674988,-148.5632477,2.602061749,0.098229691,7.625828266,-3.435125113,1.625773907,3.107173204
5.799767999999858,24.52458,5.476602077,-148.6446228,-1.007036924,-1.33935833,7.421775341,-4.921494484,1.18187952,-11.82701778
5.808101000000079,24.49599648,5.494255066,-148.6074066,-2.17720747,-0.711930275,14.34686565,-4.511332989,3.321871758,2.785612106
5.816434000000299,24.47323608,5.510727406,-148.6944885,-1.888263941,0.235140756,16.0404911,-2.519109011,-2.958213568,-10.68034172
5.824767000000065,24.44064903,5.560512543,-148.642395,-3.443008661,-0.012855033,14.17858124,-5.166903973,7.562795162,2.811611176
5.833100000000286,24.39509392,5.58178997,-148.7232361,0.008280069,-1.060738564,7.493015766,-5.313007355,-2.113737822,-10.2439785
5.841433000000052,24.33688164,5.534200191,-148.712677,-1.612140179,-1.046214342,8.699751854,-7.761471748,-5.132786274,3.125871897
5.8497660000002725,24.25057793,5.54803896,-148.7881012,0.041697804,-1.498712659,3.161734104,-10.27164459,-2.640418291,-9.292898178
5.858099000000038,24.19948387,5.463294983,-148.8178711,-2.334972143,-0.720016599,13.77208614,-6.442467213,-11.18274117,0.551589787
5.866432000000259,24.11923599,5.481919765,-148.8783112,-2.24347806,-0.612296402,16.01257324,-9.729287148,-1.36383009,-7.898738861
5.874765000000025,24.06427193,5.433300972,-148.8843842,-1.917972445,-1.093926311,11.43203831,-7.178442001,-6.07262373,1.339253426
5.8830980000002455,23.98033333,5.419681549,-148.9694672,-0.890265644,0.109406762,15.26153183,-9.89729023,-6.07930851,-9.01477623
5.891431000000011,23.85247993,5.368951797,-148.9635468,-1.330024004,-1.103781462,9.329549789,-16.06041336,-5.727549553,2.735639572
5.899764000000232,23.72165298,5.363360405,-149.0435791,-0.342995077,-1.163160205,7.506851196,-15.59210587,-4.919164181,-8.87530899
5.908096999999998,23.59144592,5.284777164,-149.0548553,-3.734113216,-0.89971447,12.94789219,-16.15213776,-9.628062248,2.16907835
5.916430000000219,23.44145966,5.283974648,-149.1268463,-1.753740191,-0.588805318,13.51507759,-17.99308395,-3.967927933,-8.244098663
5.9247629999999845,23.30552864,5.280826569,-149.102829,-6.632844925,-1.566587329,9.347458839,-17.22993279,0.340554208,2.405190229
5.933096000000205,23.14335632,5.263501167,-149.1778564,3.005343199,0.374545127,10.66017342,-19.42338562,-5.893300533,-7.815060616
5.941428999999971,22.93974686,5.262168884,-149.1663818,-5.213864803,-1.9185251,8.505897522,-25.2140007,-0.062293854,0.94561398
5.949762000000192,22.71210098,5.291144848,-149.2087708,4.220613003,0.747668326,4.843414783,-27.64128685,0.79226166,-6.415473461
5.9580949999999575,22.51376534,5.319395542,-149.2422943,-7.764825821,-1.395934701,14.48425007,-24.08459091,1.137182951,-5.380016804
5.966428000000178,22.30399132,5.391737938,-149.2286682,1.442899942,0.95631361,15.28869534,-26.11652374,8.200160027,-2.200085163
5.974760999999944,22.09808159,5.502637386,-149.249649,-7.452403069,-1.125576615,12.78291512,-25.1247406,10.92075253,-7.729869366
5.983094000000165,21.94666481,5.578861237,-149.2301788,0.94275564,-0.002526863,6.303831577,-19.18719482,8.90411377,-1.669485211
5.991426999999931,21.78465652,5.603773117,-149.2841949,-2.62611413,0.650987864,10.16184998,-19.46628952,-0.082477868,-7.478054047
5.999760000000151,21.58428001,5.664011478,-149.276535,2.135858774,-0.305458397,9.708000183,-24.9271965,6.607848167,-2.217553377
6.008092999999917,21.37298012,5.765696049,-149.3114166,-4.210920334,-0.75492841,9.467471123,-25.59850121,9.375880241,-8.72290802
6.016426000000138,21.21068192,5.851808548,-149.2819824,-1.695751786,0.615105271,14.50718117,-20.6232872,10.45700359,-0.873087287
6.024758999999904,21.0433197,5.954529762,-149.3294373,-3.618571758,-0.841810465,10.70255089,-20.15820885,9.001115799,-10.1068697
6.033092000000124,20.90758896,5.993587494,-149.304184,0.825022757,0.775047541,5.284336567,-17.39312172,5.007828236,0.742339134
6.04142499999989,20.74768448,6.074284077,-149.3552551,-2.333398104,-0.38865298,9.323969841,-19.20596886,6.428726196,-9.519763947
6.049758000000111,20.61576462,6.109267712,-149.3288574,-0.813479602,-0.621490479,7.606023788,-16.95757294,4.593952179,1.069509745
6.058090999999877,20.49720383,6.178595066,-149.3625031,-2.853530407,1.179885149,16.94342232,-14.45759964,5.923460484,-7.059439182
6.066424000000097,20.36387253,6.22625494,-149.3321228,-0.990594506,-0.115288921,12.80435467,-17.18364525,6.177706242,1.005730271
6.074756999999863,20.2607975,6.288002491,-149.348938,-1.324367285,0.063955091,7.223159313,-12.81214142,5.798001766,-4.833740234
6.083090000000084,20.17492485,6.269193649,-149.3397827,-0.940683663,-0.06248543,8.153258324,-11.21542454,-2.18727684,1.411767244
6.09142299999985,20.0986805,6.265326977,-149.3809052,-1.779116035,0.118877344,7.943335056,-9.27537632,-2.580301523,-4.826644421
6.09975600000007,20.03619957,6.226846695,-149.3634796,-0.756997347,0.333268315,14.81067181,-8.515120506,-4.069666862,3.143033266
6.108089000000291,19.93592834,6.259043217,-149.3926392,-1.969775677,1.144592881,12.30338764,-12.31947517,1.986857891,-4.969367027
6.116422000000057,19.87379837,6.252398491,-149.3589783,-2.603311062,-1.851346493,4.613287449,-8.685095787,0.169220477,3.650272131
6.1247550000002775,19.84782982,6.207736492,-149.4034576,-0.363279492,0.615231276,7.879221916,-3.205775261,-7.29795742,-3.547136307
6.133088000000043,19.85420418,6.174356937,-149.4031525,-3.273430109,0.646753371,12.10589409,-0.027125476,-4.203065872,0.996944547
6.141421000000264,19.8088665,6.152488708,-149.4100952,0.020816837,0.887016416,12.96932697,-6.02300787,-3.204110146,-0.266285568
6.14975400000003,19.74663925,6.151795864,-149.4193878,-2.681358337,-0.707571268,9.239657402,-8.137181282,-0.902005255,-1.413547277
6.1580870000002506,19.77109528,6.149736404,-149.4225464,-2.083804131,-0.361664623,8.027545929,2.30347538,-0.814942539,-0.649602652
6.166420000000016,19.82469177,6.134290218,-149.415741,-2.227834463,0.878858924,15.2157526,5.555048466,-1.916252017,0.996534526
6.174753000000237,19.84610939,6.119599342,-149.4362335,-0.706522405,1.734806776,12.04025841,2.160547972,-2.943203688,-2.079619884
6.183086000000003,19.83493996,6.077321053,-149.4257507,-2.529038191,-1.412463069,6.05316782,-2.263709068,-4.795855045,2.500448704
6.191419000000224,19.83798409,6.066374779,-149.4373016,1.527580976,-0.34707877,5.752531052,-0.160908625,-2.158025026,-1.229560256
6.1997519999999895,19.87828636,6.048541546,-149.4509125,-4.68415451,-0.473416567,11.35558319,4.219522953,-3.012105703,-1.195313931
6.20808500000021,19.92038727,6.054707527,-149.4270935,-1.877705574,0.761767209,14.44781113,4.076646805,1.206929922,2.03972578
6.216417999999976,19.94692802,6.064001083,-149.4608765,-3.553674221,0.684954584,13.62717438,2.8220613,-0.771833777,-4.563662529
6.224751000000197,19.98817253,6.071061134,-149.4264832,-1.9546417,0.315501451,7.50740099,3.838664532,1.740525603,3.187601805
6.2330839999999625,20.00199318,6.102146149,-149.4411316,-0.155567914,-0.894479215,5.457643032,1.05567801,2.460823774,-3.313457727
6.241417000000183,20.02541733,6.112463474,-149.4369202,-1.753572106,-0.696599364,4.440513611,2.080426455,0.878119946,-0.330730975
6.249749999999949,20.0699501,6.104147434,-149.4432526,-1.415761352,0.43938458,12.17262173,4.634960175,-1.644638896,-0.764200747
6.25808300000017,20.11189461,6.148406506,-149.4345093,-1.902229667,0.993752718,15.59916878,4.241703987,4.890128136,-1.225845933
6.266415999999936,20.14605331,6.196734428,-149.4094086,-4.116808891,0.736553967,16.26164246,2.988118649,6.02832365,0.42152071
6.274749000000156,20.17892265,6.252623558,-149.3719025,-2.468853235,-1.083370805,5.429998875,2.777825832,7.380756378,1.507282853
6.283081999999922,20.23823357,6.266599655,-149.3769836,-0.260674179,-0.556417823,6.028320789,6.396476269,0.916720688,-1.543232083
6.291415000000143,20.28007889,6.28424263,-149.3505707,-0.523682892,0.581298947,10.96852589,3.994475603,2.619426966,1.844698548
6.299747999999909,20.25652122,6.345118523,-149.3379974,-1.3419137,0.083886653,9.252006531,-3.781276464,6.926564693,-1.520768642
6.308081000000129,20.27524567,6.382645607,-149.3242035,-3.300452232,-1.299304962,9.46783638,1.380953074,4.336938381,-0.395893633
6.316413999999895,20.33636856,6.421754837,-149.3063965,-3.444319248,0.823431134,15.42844296,6.307646751,4.691823959,-0.030941999
6.324747000000116,20.34832954,6.475673199,-149.2878723,-1.537102938,0.60552758,13.13071823,0.507379532,6.375242233,-0.558697701
6.333079999999882,20.31696129,6.529836655,-149.2767029,-1.915472507,-1.499332547,5.590753078,-4.704669476,6.109315872,-1.408193827
6.341413000000102,20.32502174,6.535648346,-149.2739868,0.010815099,-0.383950293,3.232219458,0.247651219,0.308638722,-0.313825548
6.349745999999868,20.33850288,6.551268578,-149.2872009,-0.702365458,0.891644597,12.91545773,1.010033369,0.762241304,-2.524948835
6.358079000000089,20.30832863,6.533221245,-149.2848358,-1.577606559,0.224763528,10.78564835,-4.33528614,-2.389372587,0.635015368
6.366411999999855,20.30170631,6.543757915,-149.2945557,-3.483782768,-0.425422549,9.663696289,-1.450354815,0.336993724,-1.919351697
6.374745000000075,20.33701324,6.53037405,-149.2913208,-1.341557145,0.347964138,13.05015087,3.510187149,-1.830802798,0.54208684
6.383078000000296,20.31326103,6.509243488,-149.3069611,-2.692291021,0.235863149,13.81085014,-3.427313089,-3.47236824,-1.262961268
6.391411000000062,20.29109573,6.508109093,-149.2966309,-1.198182106,-0.863293588,6.36909771,-3.481102943,-0.158654585,0.822665215
6.3997440000002825,20.29447556,6.495776176,-149.3310242,-0.999786079,0.021263944,10.94570637,0.084437333,-3.257746935,-3.730098724
6.408077000000048,20.26675224,6.436848164,-149.3356934,-1.293025851,0.794875026,12.46820068,-3.947128057,-7.284124374,1.550519228
6.416410000000269,20.21679306,6.427412987,-149.371521,-2.114021778,-0.571399212,6.465429783,-6.303587437,-2.986645937,-4.013392925
6.424743000000035,20.20847702,6.406311989,-149.3695679,-1.90692234,-0.995545626,10.19042778,-1.707726598,-2.754400969,0.71559757
6.433076000000256,20.16736412,6.364140034,-149.4104919,-1.947838187,1.325945735,14.82191658,-5.177739143,-6.880393505,-3.231953144
6.4414090000000215,20.08613205,6.37257576,-149.4096985,-3.2385149,-1.21164906,8.749944687,-10.44210529,0.526692748,-0.635924637
6.449742000000242,20.04521561,6.394475937,-149.4286194,-1.062424541,-0.07841327,9.58700943,-5.447916985,1.246247768,-3.419013739
6.458075000000008,19.98320198,6.387384892,-149.4395752,-3.113242865,0.293716997,14.54105377,-7.980140209,-1.704601645,-1.314061403
6.466408000000229,19.88688469,6.405635834,-149.459137,-1.271118999,0.277753264,8.64470005,-12.08610439,0.815442145,-3.335742474
6.4747409999999945,19.82425117,6.435594082,-149.4593201,-2.439358711,-0.657232523,7.214009285,-8.198348045,2.915271521,-1.623968124
6.483074000000215,19.76065636,6.445581913,-149.4679871,-1.590150118,0.935464263,10.84426975,-8.30513382,0.331204832,-1.771659732
6.491406999999981,19.6705761,6.473453522,-149.4775238,-2.508875608,-0.584301651,7.365420818,-11.36816311,2.307087183,-2.578252554
6.499740000000202,19.56336594,6.508621216,-149.4625854,0.101591937,0.205541626,9.531988144,-13.8565855,4.124366283,-0.135115102
6.508072999999968,19.44771385,6.599280834,-149.4630432,-3.278759241,-0.586857796,8.284909248,-14.56151962,9.77909565,-4.064621925
6.516406000000188,19.3569088,6.6596632,-149.4407196,-2.789310932,0.213928387,12.10551167,-11.99471474,7.270102978,-0.291438907
6.524738999999954,19.26036263,6.748090744,-149.4381256,-1.768487573,0.341553599,14.96295643,-12.31102276,9.658655167,-3.595291615
6.533072000000175,19.13804054,6.873978615,-149.3945923,-3.828440189,1.44780612,15.07937622,-16.08871651,15.52554798,-0.464642346
6.541404999999941,19.01370049,7.010497093,-149.3770142,-2.93337965,-2.035454035,5.205710888,-15.86576939,15.70651531,-3.754407644
6.549738000000161,18.92712212,7.091044426,-149.3419952,0.953691006,1.259926438,8.942443848,-11.69436073,10.04945278,0.405486256
6.558070999999927,18.79793167,7.218657017,-149.351059,-1.836026669,1.004255295,12.41431427,-16.05703163,13.68250084,-6.350590706
6.566404000000148,18.66874886,7.302048683,-149.3016052,-0.400079042,-0.808052301,4.624717712,-17.0423069,10.92061901,1.965393543
6.574736999999914,18.5929203,7.398201466,-149.3109283,-2.176478386,0.957078278,9.408830643,-9.648168564,10.12002182,-5.115215302
6.583070000000134,18.52124596,7.44975996,-149.2850037,-1.042872787,1.222498536,11.69450283,-9.793168068,6.400396347,0.559299648
6.5914029999999,18.42239761,7.52771616,-149.2833862,-2.084196568,-0.391282707,11.05707645,-12.58010101,8.474509239,-3.162743807
6.599736000000121,18.34094238,7.61824894,-149.2335815,-1.265011549,0.680133045,10.26583767,-11.35205173,11.72974682,1.800617218
6.608068999999887,18.2724781,7.666828632,-149.2535248,-2.858842373,-0.302160203,9.350122452,-8.589554787,4.331636429,-4.46200037
6.616402000000107,18.23083687,7.682307243,-149.2104034,-0.999596715,0.837717652,12.04158688,-6.478148937,2.922059536,3.891993761
6.624734999999873,18.09652328,7.767234802,-149.2101288,-1.14422071,-0.455713153,7.460305214,-16.81846809,9.236330986,-3.523162842
6.633068000000094,18.00616455,7.798956871,-149.1822205,-0.427578896,-0.681212544,4.066206455,-12.08648777,4.200388908,1.5793612
6.64140099999986,17.92935944,7.822903633,-149.1863403,-1.577168941,1.412338257,12.5931654,-9.845293045,2.123893976,-1.732956767
6.64973400000008,17.82061577,7.837077141,-149.1616974,-1.886255622,-0.674395442,10.38761711,-14.24238682,2.071231127,1.871645331
6.658067000000301,17.7183075,7.912134647,-149.1417389,-2.096553087,0.126916945,9.782002449,-13.30349731,8.842662811,-0.869296074
6.666400000000067,17.60650635,7.898920059,-149.1349335,-1.753861308,0.191828117,11.46687031,-14.31866646,-1.712516665,0.857551873
6.674733000000288,17.49264336,7.93844986,-149.1409149,-0.427575409,0.14161329,13.05128574,-14.26085758,3.84967947,-2.488884687
6.6830660000000535,17.35157394,7.934961319,-149.1241455,-3.161044836,0.893484354,13.21917343,-17.99807739,-0.249226585,1.631435156
6.691399000000274,17.21023178,7.952626705,-149.1401672,-0.571366549,-0.040567067,7.276023865,-17.39439964,1.000197768,-2.826941252
6.69973200000004,17.09309578,7.919066429,-149.1677551,-1.434690118,0.322479486,11.44781399,-14.38910675,-5.261574745,-2.341858625
6.708065000000261,16.94527626,7.889519215,-149.1873322,0.097443044,0.99274987,8.313947678,-18.11587906,-4.527957916,-1.565235138
6.7163980000000265,16.82610893,7.860844135,-149.2236938,-2.580196857,0.800879896,9.744109154,-14.49215221,-4.995903969,-3.534073591
6.724731000000247,16.72069931,7.78374958,-149.2837067,-0.231959,0.190703198,7.828078747,-12.36952591,-11.3722105,-4.540712833
6.733064000000013,16.63822174,7.716906548,-149.327713,-2.330373049,1.930144787,13.02654457,-9.973620415,-9.634028435,-3.107007265
6.741397000000234,16.50582314,7.684927464,-149.3808594,-0.518721819,0.325375915,8.062856674,-15.73687744,-5.936126232,-5.34348917
6.74973,16.4440155,7.630695343,-149.4382019,-2.547217131,0.020084467,10.32447624,-7.289914131,-8.621009827,-5.088755131
6.75806300000022,16.37663269,7.534267426,-149.4926758,-0.237408996,1.910882473,11.31689835,-7.925711632,-13.38646317,-3.330312014
6.766395999999986,16.31094742,7.46948719,-149.5678406,-2.264302254,0.965630412,11.63881493,-7.493215561,-10.42461014,-6.787363052
6.774729000000207,16.23103714,7.391514778,-149.613205,-0.394363463,-0.193063051,7.946035385,-9.591022491,-10.94901371,-2.94217968
6.783061999999973,16.18024445,7.320767403,-149.6936188,-2.679291487,0.388971925,8.623989105,-5.648502827,-11.27023792,-7.216657639
6.791395000000193,16.16930771,7.255696297,-149.7524109,-2.664181709,1.486516476,12.16126156,-1.122236609,-9.903719902,-4.926386356
6.799727999999959,16.11792755,7.202109337,-149.8120422,-3.21421957,0.635336757,12.68236637,-6.05518055,-8.59736824,-5.429399014
6.80806100000018,16.04101563,7.212812901,-149.8638763,-0.568011761,0.55743444,11.2324543,-9.15376091,-0.930693328,-6.667001724
6.816393999999946,15.93834209,7.193247318,-149.9154205,-2.800395012,-0.446801305,7.397418976,-12.33479309,-4.396069527,-5.649809837
6.824727000000166,15.89989471,7.212965012,-149.9432678,-2.134227753,0.395754397,9.75416851,-4.901130199,0.912315011,-4.216333866
6.833059999999932,15.86489391,7.246789932,-149.9653625,-3.323909998,0.534354448,10.77392483,-4.656847954,2.735562086,-4.039928913
6.841393000000153,15.79515553,7.256896973,-149.9797058,0.750936806,1.28457725,9.46740818,-8.856276512,0.243271217,-2.355920792
6.849725999999919,15.71335411,7.333708286,-150.0221558,-1.981126308,1.565952897,9.858379364,-9.958969116,7.053431034,-7.75970459
6.858059000000139,15.61597633,7.325500965,-150.0190887,-0.749650538,0.071910597,7.940184116,-12.44106674,-1.305839419,0.233819544
6.866391999999905,15.55322552,7.408307552,-150.0631714,-2.647087812,0.990304649,10.21768856,-7.641598701,7.715379238,-8.118047714
6.874725000000126,15.48726463,7.435997963,-150.063385,-1.69940114,-0.096671574,9.799115181,-8.621213913,2.738969088,-1.29605484
6.883057999999892,15.44324589,7.515536308,-150.1029663,-1.35744977,0.801674724,10.66398811,-5.453169346,7.495635986,-7.482123852
6.891391000000112,15.43814659,7.552452087,-150.1073456,-2.255654097,1.511522174,12.8501482,-1.251716495,3.675604343,-2.062714338
6.899723999999878,15.37144852,7.612857342,-150.1570587,-1.049358487,1.413706303,11.03963661,-8.006651878,4.970532417,-8.022661209
6.908057000000099,15.32777977,7.661933899,-150.1890106,-0.365799338,-0.747980773,5.334247589,-5.441411018,4.219138145,-5.606981277
6.916389999999865,15.25747108,7.71323967,-150.2106628,-1.390963316,1.976497769,11.78972721,-8.878458023,4.812774658,-4.502009392
6.9247230000000854,15.1919136,7.773896694,-150.2611237,-3.86239934,-0.314282835,9.232348442,-7.763496399,4.992611885,-8.085083008
6.933055999999851,15.1469574,7.850614548,-150.253891,-1.166162252,0.408128858,9.488827705,-6.302177906,8.661826134,-1.975984812
6.941389000000072,15.02477741,7.940953732,-150.2976379,-1.398578525,-0.343158543,5.141045094,-14.65308857,8.6596241,-8.223247528
6.949722000000293,14.92725563,7.962748051,-150.3136749,0.999455094,-0.218202814,6.862499714,-12.22493362,1.586635709,-2.911775589
6.9580550000000585,14.81765366,8.061887741,-150.3498535,-4.239724159,1.843923926,18.17892838,-13.26236057,9.94115448,-7.591701508
6.966388000000279,14.68679047,8.152578354,-150.3433075,-1.605772376,-1.165570378,8.764023781,-16.60325432,10.27419281,-2.416908741
6.974721000000045,14.55692482,8.238013268,-150.3635864,0.564888597,2.152024269,8.745121956,-15.94944954,8.8565979,-5.299688816
6.983054000000266,14.4165287,8.290999413,-150.3919983,-1.19152534,0.710456014,6.226961613,-17.14748001,4.86477232,-5.252252102
6.9913870000000315,14.2840786,8.31801033,-150.3975525,-1.717545748,0.940839469,10.98111629,-16.51263046,2.523374081,-1.82731986
6.999720000000252,14.12749195,8.430850983,-150.4124146,-2.529906034,0.366125405,11.66607475,-19.32080078,12.24702835,-5.427837849
7.008053000000018,13.9555378,8.446205139,-150.4006958,0.310594767,0.177760437,5.615486622,-21.55697441,1.671265364,0.519059837
7.016386000000239,13.81253719,8.492736816,-150.4495544,-1.335108042,1.139373779,7.70718956,-17.0854187,3.581831455,-7.363532066
7.024719000000005,13.63952732,8.479606628,-150.4436951,-1.6427356,-0.561426103,9.272492409,-21.58140945,-1.818841815,0.66582948
7.033052000000225,13.4650507,8.545081139,-150.4794769,-0.938655257,0.368588418,13.92163086,-21.09243393,6.195868015,-6.365088463
7.041384999999991,13.25962162,8.565453529,-150.4863586,-2.542470217,1.01857841,10.97685242,-25.24458313,1.737555265,-1.744535208
7.049718000000212,13.03687,8.571469307,-150.5258026,-0.180363223,1.227400422,10.6916399,-26.81632805,-0.809589624,-5.116549969
7.058050999999978,12.78897476,8.576370239,-150.5460663,-2.849195242,-0.337581307,6.151521206,-30.10072327,-0.416334122,-2.859268427
7.066384000000198,12.52444458,8.566364288,-150.5770264,0.442268342,0.262190998,8.301035881,-31.98155594,-2.423339367,-3.715886354
7.074716999999964,12.25438786,8.596063614,-150.6159821,-2.813800097,0.349134773,10.72506332,-32.42783356,2.035988092,-5.664645195
7.083050000000185,12.00350285,8.57796669,-150.6400909,-0.536462665,0.086345375,10.41154194,-30.46541786,-3.169917822,-2.734244823
7.091382999999951,11.76355934,8.599330902,-150.651413,-4.817184925,2.070674896,13.64976692,-29.30862236,1.778359175,-2.22731328
7.099716000000171,11.49483395,8.586994171,-150.6785889,2.133177519,0.558291793,4.81488657,-32.55077744,-2.546928167,-3.255879402
7.108048999999937,11.23444557,8.575212479,-150.6951294,-2.42331934,1.195770383,10.18912506,-31.66926193,-2.225699663,-2.031287432
7.116382000000158,10.97477913,8.558817863,-150.7254639,0.237984568,1.7558465,7.276379585,-31.41012383,-3.069509983,-3.545730352
7.124714999999924,10.75502205,8.528112411,-150.7243958,-4.196112633,1.603304505,14.31128693,-27.11009789,-4.04776907,0.43460983
7.133048000000144,10.51227188,8.545326233,-150.7594452,-0.738980234,0.160248771,7.739498138,-29.29517746,0.814981461,-4.868167877
7.14138099999991,10.3100338,8.54112339,-150.7611389,-2.308513403,1.906148434,12.05147362,-24.95893478,-0.98468864,-0.489078462
7.149714000000131,10.08469963,8.571933746,-150.8055573,-0.954184055,0.675414681,8.529031754,-27.03886414,2.259599686,-6.235712528
7.158046999999897,9.915953636,8.569272041,-150.8051147,-2.942946434,0.836408734,12.23819447,-20.97921753,-0.758924365,-0.278042585
7.166380000000117,9.680547714,8.636818886,-150.8547974,-0.825935185,1.34456265,7.275852203,-28.1476326,6.536309242,-7.586122036
7.174712999999883,9.480520248,8.673711777,-150.880127,-0.687450707,-0.797392249,6.502524853,-24.26945114,3.413393259,-4.083423615
7.183046000000104,9.251527786,8.749238968,-150.914444,-2.561606646,2.575937986,9.973213196,-27.64584923,7.833439827,-5.88753891
7.19137899999987,9.066100121,8.865639687,-150.9538574,-3.139535666,-0.129927769,11.45608807,-22.25140762,12.59218216,-7.22375679
7.1997120000000905,8.846952438,8.980940819,-150.9606476,-2.857455254,1.577530503,13.83334732,-26.96133614,13.09491634,-3.345093727
7.208044999999856,8.606887817,9.149215698,-151.0197449,-1.440753937,-0.890544415,5.893873215,-28.41654015,18.44371796,-10.36890984
7.216378000000077,8.348185539,9.263881683,-151.0151062,-0.282614648,0.936683059,8.338602066,-31.92564392,13.24312401,-1.881111383
7.224711000000298,8.044541359,9.411735535,-151.107666,-1.234835386,-0.105541877,7.293752193,-35.35984039,15.54472733,-13.76275539
7.2330440000000635,7.768696308,9.521813393,-151.0969086,-2.744890213,0.152885675,13.92555523,-34.10634232,12.81242275,-0.95269686
7.241377000000284,7.435772419,9.739274025,-151.1772308,-2.200699091,-0.302281141,11.5070715,-39.0647049,24.15520477,-13.25336933
7.24971000000005,7.10895443,9.858206749,-151.1766815,-0.304666042,-0.541669548,6.095301151,-40.02127838,13.71871185,-2.138407707
7.258043000000271,6.746377468,10.01994896,-151.2638245,-0.407674342,1.889453292,10.70124435,-42.43164444,17.57220459,-12.95109367
7.266376000000037,6.349183083,10.14199734,-151.2789917,-3.09623456,-1.081701875,11.00073051,-48.13706207,13.89932537,-3.8457551
7.274709000000257,5.907180786,10.30724335,-151.347168,-0.750280917,0.793228984,14.28627682,-52.31670761,18.40337944,-10.50573349
7.283042000000023,5.394286633,10.47801781,-151.394043,-2.76128149,-0.931783676,6.678516865,-61.32580948,19.40220261,-7.919823647
7.291375000000244,4.841940403,10.59700394,-151.4650269,1.455629706,-2.131903887,2.278119326,-65.45435333,13.02170372,-9.996994972
7.29970800000001,4.286403179,10.73158073,-151.5414429,-3.659326315,-0.795580506,13.7079916,-65.760849,14.93381405,-10.66537666
7.30804100000023,3.6899786,10.88446426,-151.6368561,-1.033764124,0.328975737,16.1650238,-70.15452576,17.06729507,-12.87853909
7.316373999999996,2.999243021,10.92503452,-151.740921,-0.531831563,-0.579896867,11.09059143,-81.32063293,3.697475195,-12.92002487
7.324707000000217,2.198823214,11.01432133,-151.8650818,0.919534147,-1.196677089,10.90242672,-93.9474411,9.590929985,-15.48088169
7.333039999999983,1.350154519,11.11565781,-152.0034943,-4.05723381,-2.125342607,10.86463261,-99.44889069,11.20288372,-17.06832886
7.341373000000203,0.466662318,11.10500145,-152.1263123,1.712543368,-1.589434266,5.839743137,-103.7751541,-1.971111298,-15.51051807
7.349705999999969,-0.50806421,11.05053711,-152.2887421,-1.069817901,0.239337385,14.4274168,-114.021019,-6.976196289,-19.52716446
7.35803900000019,-1.554617167,11.08806992,-152.422699,-2.374661922,-0.818836093,14.54251003,-123.0773468,4.352468014,-16.87683487
7.366371999999956,-2.630286932,11.00689888,-152.5704346,-0.368999898,-1.509088159,5.786920547,-126.4812012,-9.545690536,-18.13931274
7.374705000000176,-3.75459981,10.88703632,-152.6917114,0.324040204,0.483778715,15.45547676,-132.7256775,-13.96735859,-16.29883003
7.383037999999942,-4.974377632,10.81394768,-152.8332977,-2.945348024,-0.066302337,18.10433006,-143.9745331,-7.922604561,-17.69966316
7.391371000000163,-6.18915081,10.68899632,-152.9300079,0.342728615,-1.274371743,2.580082417,-144.1583405,-14.16447639,-14.1779232
7.399703999999929,-7.411467552,10.49171829,-153.065567,-0.948957682,1.35267365,9.556395531,-144.4874878,-22.06152534,-19.07612991
7.408037000000149,-8.694537163,10.27389145,-153.1425018,-0.83213675,1.319304943,20.3142662,-152.8489838,-24.90694237,-14.1066227
7.416369999999915,-10.01565933,10.10749245,-153.2866364,-2.649796009,0.25460878,12.29194355,-156.2756653,-17.3813591,-20.43915367
7.424703000000136,-11.29746056,9.921396255,-153.356308,-1.206160545,0.148273721,4.104388237,-152.9046478,-20.65719032,-13.73822784
7.433035999999902,-12.56434727,9.640931129,-153.4808197,0.687978208,0.86638999,7.890341759,-150.2878265,-30.33420181,-21.7594738
7.4413690000001225,-13.78926849,9.414978981,-153.5605927,-3.627761126,1.813231349,17.16299248,-145.962616,-24.43584251,-16.86450958
7.449701999999888,-15.04306698,9.188612938,-153.657135,-1.856810093,3.658541679,18.8707695,-149.3823547,-23.90983582,-18.22994423
7.458035000000109,-16.32108307,8.986932755,-153.7442474,-2.240657091,0.909281492,8.519286156,-152.3030853,-20.67762947,-17.86103058
7.466367999999875,-17.56557846,8.738621712,-153.8090363,1.236782908,0.03154555,3.168203115,-148.9424591,-26.71247673,-16.42946053
7.4747010000000955,-18.77441025,8.481511116,-153.8728333,-1.579255939,1.583506584,6.001900196,-144.5459595,-27.14157486,-17.98863792
7.483033999999861,-19.92082977,8.245268822,-153.9098206,-0.844182789,1.72093904,15.02684212,-137.7227783,-25.74053001,-13.93382549
7.491367000000082,-21.04404259,8.032352448,-153.9646759,-3.193477392,2.172420025,14.38226891,-134.5591278,-21.9527607,-15.82314777
7.499699999999848,-22.09318542,7.827313423,-153.9730225,-0.94298172,3.395292521,12.38107204,-126.556778,-22.96355057,-10.36561871
7.508033000000069,-23.07448196,7.617718697,-153.9911804,-2.32373929,3.183864117,9.578882217,-118.2102356,-22.77567482,-12.19145584
7.516366000000289,-23.95201874,7.388878345,-153.9606934,-0.251180559,3.555649519,10.44369793,-106.5803528,-27.07451248,-8.027228355
7.524699000000055,-24.77253723,7.159804821,-153.9553833,-0.99238503,3.846977711,5.359668255,-99.36445618,-25.89024162,-10.83435917
7.533032000000276,-25.50052261,6.946247101,-153.9049072,-0.691469312,2.101277828,9.650273323,-88.89809418,-26.20030785,-5.838347912
7.541365000000042,-26.13963699,6.717560768,-153.8760223,-1.171759605,3.808803082,7.277522564,-77.95613098,-26.89357185,-8.729512215
7.549698000000262,-26.69640923,6.49338913,-153.7900391,-1.392571449,1.582784653,11.16136169,-68.79150391,-29.09932518,-3.187144041
7.558031000000028,-27.16932297,6.323151588,-153.7721252,-0.748723805,3.562344551,9.369657516,-57.87068939,-19.99415588,-7.00641346
7.566364000000249,-27.58506775,6.065186501,-153.6639099,-0.747235179,2.074304104,11.22748661,-52.08277512,-33.87278748,-3.168363571
7.574697000000015,-27.88727951,5.947357178,-153.6735535,-3.716852665,3.181235313,10.28896999,-37.04571533,-12.886693,-7.101812363
7.583030000000235,-28.13135719,5.700335026,-153.5563202,-1.347463369,2.635966063,9.032649994,-31.50845909,-33.19178009,-1.959364414
7.591363000000001,-28.29514694,5.646798611,-153.5902405,-1.208013296,2.266464472,11.11563683,-20.14406586,-4.607643604,-6.218907356
7.599696000000222,-28.40110588,5.379819393,-153.4725647,-0.957780242,3.263495922,5.058765411,-14.8601408,-35.31599808,-3.23951292
7.608028999999988,-28.42313194,5.35010767,-153.5155182,-3.328375101,1.401548862,18.20402527,-3.071377039,-1.658854842,-5.640408039
7.616362000000208,-28.43247795,5.122903824,-153.4219513,-1.781044364,1.642912865,4.985800743,-2.934624672,-29.74772835,-3.540863276
7.624694999999974,-28.37703514,5.090246677,-153.4485779,-0.40253672,1.032474637,14.03487587,6.031832695,-2.85355401,-4.178014755
7.633028000000195,-28.32800293,4.861098289,-153.3785706,-1.454399705,1.244006395,6.097724915,4.367704391,-28.62144279,-6.090301514
7.641360999999961,-28.20011139,4.806728363,-153.3918457,0.145959273,0.676463246,12.05266857,14.57745934,-5.910767078,-4.005247116
7.649694000000181,-28.08628654,4.643486023,-153.3353577,-3.708313465,1.80026567,11.82361412,12.31152534,-20.9059639,-3.678692579
7.658026999999947,-27.92900467,4.580523014,-153.335556,0.725331008,-0.359801501,11.93174076,17.97380829,-7.533968449,-3.160772085
7.666360000000168,-27.77866173,4.481420994,-153.2901459,-4.863808632,2.559151411,12.94177628,16.82365227,-13.49811745,-1.149874687
7.674692999999934,-27.608675,4.413641453,-153.3008118,-0.757907331,-1.389455557,6.84683609,19.58497429,-7.517704964,-4.426756859
7.6830260000001545,-27.42421722,4.387279034,-153.2552643,-3.576992035,2.334727049,14.47625256,20.92836189,-5.769403934,2.973570585
7.69135899999992,-27.27602768,4.343039513,-153.3042755,-1.581279874,-1.678765535,10.93488979,17.33460617,-2.806578398,-7.395933151
