,time,Euler_X,Euler_Y,Euler_Z,Acc_X,Acc_Y,Acc_Z,Gyr_X,Gyr_Y,Gyr_Z
0,0.0,-22.168731685,8.0763945575,2.569381699999994,-1.487532079,-1.0997140405,9.740601062500001,100.851455695,-3.357186198,8.458357810999999
1,0.0041664999999966,-21.26456642,8.0936951635,2.669029199999997,-3.154562235,1.132530361,10.1807456025,104.41635895,-3.008024752,11.435983180000001
2,0.00833299999999325,-20.30422115,8.124285698000001,2.7501297000000022,-1.9908738735,-1.16938141,10.140288350999999,112.55445865,-0.333277166,9.965830803
3,0.01249949999998985,-19.307762145,8.133113384000001,2.8528519000000045,-2.039134443,0.192803033,7.543454885499999,115.43843079999999,-3.6698207855,11.447854045
4,0.0166659999999865,-18.266851425,8.1663250925,2.9334411500000073,-1.618106842,-0.031935435,14.31115389,122.22675325,0.34251153450000005,10.00023699
5,0.02083249999998315,-17.221235274999998,8.147636413499999,3.042716949999999,-1.9326743485,-1.0034292635,10.8361659025,121.22420120000001,-6.6071760655,11.270269875
6,0.02499899999997975,-16.125715735,8.158189296500002,3.1389846999999946,-2.3018101455,0.1846563965,9.93509817,128.51407625000002,-2.415580094,10.964412209999999
7,0.0291654999999764,-15.01265717,8.148215294,3.2648620499999907,-1.1383792165,-1.6057023405,6.272051692,129.05930325,-5.648010253500001,13.56365633
8,0.03333199999997305,-13.83330154,8.121135235,3.384742750000001,-0.749349654,1.058211386,11.891940120000001,138.17996215,-7.04338193,12.631862165000001
9,0.03749849999996965,-12.636325835000001,8.069087267,3.5259551999999985,-2.36543864,-0.313317269,11.123219965,138.89950565,-10.3916323195,14.345114705
10,0.0416649999999663,-11.38131952,8.011505604,3.6678466999999983,-2.1153556705,0.002859771499999997,12.83273077,146.91230775,-10.612631799,14.698833945
11,0.0458314999999629,-10.1123662015,7.9575231075,3.8124618500000054,-1.6642990115,0.246801645,8.757205963,147.5310974,-10.037120344,15.072810175
12,0.04999799999995955,-8.7683696745,7.8818478585000005,3.961868250000009,-0.29140593849999996,-0.25166411699999996,10.90857983,157.5012131,-12.217813970000002,15.688785079999999
13,0.05416450000006985,-7.4008009435,7.7712035175,4.1112976,-1.91844219,0.04036092749999998,13.681213379999999,159.3580551,-16.09717178,15.03173542
14,0.0583310000000665,-6.0186319355,7.64169693,4.271385199999997,-1.1905961035000001,-1.362175524,9.719695566999999,161.9786911,-18.003611565,16.746266365
15,0.06249750000006315,-4.584530592,7.516866207,4.4211349499999955,-2.0782172085,0.9326078295,13.818990705000001,167.43444060000002,-17.017206665,15.620799065
16,0.06666400000005974,-3.1789438724999997,7.347664118,4.5693512,-1.7759610415,-1.2060654465,11.148605825,165.06247715,-21.795381545,15.864334110000001
17,0.0708305000000564,-1.740020275,7.161492825,4.732345549999991,-1.047647655,-1.950762391,7.345715761,167.93904874999998,-23.619350435,17.643217085
18,0.07499700000005305,-0.3054743185,6.955860376,4.865188599999996,0.6992780565,-0.21390295050000002,10.681711673999999,168.88002775,-25.29971504,15.02372551
19,0.07916350000004965,1.111773908,6.7241425515,4.990592949999993,-3.4470796585,-0.32844847450000003,12.885847565,166.03285979999998,-28.169563295,14.330922125
20,0.0833300000000463,2.547626734,6.4781515595000005,5.124931349999997,-1.5494720935,-1.6397464875,10.64167166,169.14271545,-29.33858395,16.59902191
21,0.0874965000000429,4.005555987499999,6.195495844,5.223312400000012,-0.1002515575,-0.86282295,15.682746885,171.42998505,-33.686740875,12.889648914999999
22,0.09166300000003955,5.418215752,5.9079596995,5.30709075,-2.654653192,-0.852965862,16.900541304999997,167.14581299999998,-33.909817695,12.42871809
23,0.0958295000000362,6.7630951405,5.6523633,5.379409800000005,-1.3749142140000001,-2.7426798344999996,11.72781372,158.32608034999998,-30.09780216,11.006215095
24,0.0999960000000328,8.0856673715,5.3001098634999995,5.399452199999999,0.3630640005,-3.3891990185000003,4.9922280315,157.16812135,-41.950784685,7.492569208
25,0.10416250000002945,9.416802882999999,4.996581316,5.414169300000012,-4.108584523499999,-0.733257085,10.210431816,157.39907835,-36.23063374,6.613709688
26,0.1083290000000261,10.707927225,4.6689832209999995,5.400970450000003,0.1419860795,-1.982473314,16.733742235,153.76292415,-39.327058789999995,4.9998941425000005
27,0.1124955000000227,11.91621876,4.3481286765,5.3834990999999945,-3.8126809594999997,-2.9729100465,14.5675354,142.9977112,-38.632509235,5.0931818485
28,0.11666200000001935,13.05278635,4.0929234025,5.360878,0.2834139615,-0.7824632825,16.67553711,135.27635955,-30.83548927,3.6216709615
29,0.12082850000001595,14.107048035,3.7689329385,5.332046550000001,-3.010687113,-4.291081071,7.5962851030000005,124.63752364999999,-39.067533495,5.426636219
30,0.1249950000000126,15.1476078,3.511967182,5.3186416500000036,0.161375135,-2.0388430955,14.4655981045,123.64539335,-30.594199179999997,5.836428403499999
31,0.12916150000000926,16.089397429999998,3.253093481,5.285781849999992,-1.9841895699999998,-2.8266464475,11.567410708999999,111.19592285,-31.445622444999998,4.2751686575
32,0.1333280000000059,16.94236565,2.991918445,5.2670975000000055,-2.9260527495,-4.065124512,18.755981445,101.13396835,-31.030447960000004,6.3460407255
33,0.1374945000000025,17.662727355,2.8531087635,5.2753219499999915,-2.0256485345,-3.587899685,9.5544743515,84.394309995,-16.08351469,5.613114357
34,0.14166099999999915,18.338171955,2.689432204,5.2787857,-4.980252981,-3.5583474635,9.3250247235,79.69218826,-18.90252495,6.0543448925
35,0.14582749999999575,18.96512318,2.578319967,5.299064600000008,0.6559472045,-1.161216676,9.3457039575,73.169605255,-12.338876008,6.3049752715
36,0.1499939999999924,19.490883824999997,2.469500542,5.322036749999995,-2.6936227085,-3.5887850519999995,13.610854625,61.642683025,-11.77497077,6.5298476215
37,0.15416049999998904,19.937286375,2.3783451915000002,5.333770749999999,-2.4821346405,-4.988409042500001,13.75126505,51.57062149,-10.305758474000001,4.6854565145
38,0.15832699999998565,20.24836445,2.4108820555,5.42206569999999,-1.2821867765000001,-2.480145693,13.826171875,35.57826996,6.9492795465,8.2775838375
39,0.1624934999999823,20.51137257,2.4332350495,5.483245850000003,-2.5245729685,-2.9831784965,12.975893975,29.36377525,4.582621097500001,5.618436098
40,0.1666599999999789,20.743913650000003,2.3813262585,5.550514249999992,0.6549949644999999,-0.032490138,6.835369227999999,26.255944255,-3.3337213395,9.438519477500002
41,0.17082649999997554,20.958148,2.469821751,5.666450499999996,-2.2479255795,-2.406527758,9.152276995,23.27186775,14.38055849,8.882702827
42,0.1749929999999722,21.11733341,2.4948575495,5.7552108999999945,-2.2500789764999998,-3.1747498515,16.008822440000003,17.30626535,6.2778977155,8.500061512
43,0.1791594999999688,21.22781849,2.498151541,5.85578919999999,0.05984357000000001,-0.384444252,9.280736924,10.934296605,4.2326381205,10.801947590000001
44,0.18332599999996546,21.30157566,2.6477252245000003,5.967338600000005,-3.0202913285,-2.107294083,7.9149625295,6.9242994785,21.225387575,5.6095840930000005
45,0.1874924999999621,21.418587685,2.6505170465,6.05097194999999,1.936484575,-0.654977128,10.053553582,11.810765270000001,3.47592926,8.9368224145
46,0.1916589999999587,21.49640179,2.6386757495,6.10058595000001,-2.7004129889999997,0.9489036200000001,9.739202023499999,7.7238328455000005,0.506348848,5.6902415755
47,0.19582550000006904,21.605010989999997,2.724491954,6.185340850000003,2.684855044,-1.7058313489999999,11.966705319999999,10.8313164735,12.818008423,5.4089853765
48,0.19999200000006565,21.73599911,2.640205562,6.205635049999998,-5.014775634,-0.9472566245,12.575616835,14.25049734,-8.842344880999999,5.609980345
49,0.2041585000000623,21.809947010000002,2.6635679005000004,6.244773850000001,4.1942276955,-0.43744221299999997,17.367019175000003,6.9623849395,3.8491155505,3.043778181
50,0.2083250000000589,21.938400270000002,2.6013572810000003,6.264678950000004,-3.8539713625,0.06682671600000001,3.2143217324999998,13.97194004,-6.377010584,4.663443923
51,0.21249150000005554,22.096629145,2.542757988,6.2600326999999965,1.445609927,-1.361660421,13.134864805500001,17.30514908,-7.215353907,1.76735723
52,0.2166580000000522,22.228690145,2.4144560095,6.2265701000000035,-0.823350638,-0.1311315,5.660499943,14.722518919999999,-16.108878136,1.8356837035
53,0.2208245000000488,22.40428066,2.3292618395,6.215629550000003,-1.0001164375,-0.4249306845,11.670778275,19.42898178,-10.437537967,2.2826007600000002
54,0.22499100000004546,22.57356262,2.1678537725,6.164283749999996,-0.67217958,0.794749422,13.87791109,19.25213337,-20.58909798,1.4458479285
55,0.2291575000000421,22.756329535,1.986401737,6.110717749999992,0.9983456655,-1.3512184619999998,6.6693491934999996,20.5116024,-23.047643665,2.1166724565
56,0.2333240000000387,23.015460015000002,1.8696610925000001,6.090026850000001,-2.108689174,0.312488229,9.798037529,29.859545705,-14.2071166,2.855644286
57,0.23749050000003535,23.29758453,1.5400331915,5.9480132999999995,1.1224082709999998,-0.20270377350000007,8.0202670095,32.736190795,-43.544994355,-0.4380557315
58,0.24165700000003196,23.535225869999998,1.4597227874999998,5.9548798000000005,-2.1316939295,-1.344995357,16.473000525,27.173472405,-8.851518153,4.280385852
59,0.2458235000000286,23.799220085,1.061701506,5.784019450000002,-0.10515487199999995,0.5186917335,6.2187041045,30.542294499999997,-52.450878145,0.08417516949999998
60,0.24999000000002525,24.06225586,0.9799126459999999,5.776939400000003,-2.428575136,-1.6060293315,9.7757897355,30.236452104999998,-9.6485581415,2.8620602484999997
61,0.2541565000000219,24.334882735,0.7029967455,5.656570450000004,-0.14565342649999996,-1.781273365,8.625139713500001,31.389964104999997,-36.7128315,0.188706875
62,0.2583230000000185,24.623950005,0.47896020100000003,5.575500500000004,-1.9286618235,0.5196420105,8.480558633000001,33.420318605000006,-28.827729225,1.9029356915
63,0.26248950000001514,24.890874865,0.33416588599999997,5.515716550000008,-2.3978596330000004,-1.4685699045,12.691590785,30.567358015,-19.27068615,0.5086030365
64,0.2666560000000118,25.125633235000002,0.08599716400000001,5.426490799999996,2.2603379485,-1.31459599,13.2015523925,26.871922495,-31.84670162,2.552129507
65,0.2708225000000084,25.305900575000003,-0.051168650500000024,5.354545549999997,-4.5832521915,-1.1332165,11.592384339999999,20.140014649999998,-19.04374981,-1.055102408
66,0.27498900000000503,25.543552395,-0.257736266,5.302108750000002,2.0978562835,-1.5031884315,12.259557725,27.150690079999997,-25.42930889,4.5869902375
67,0.27915550000000167,25.689761165,-0.41185227049999995,5.2091522500000025,-3.8508019444999997,-1.3417236805,15.556895255,16.02030516,-21.98011303,-2.3139786125
68,0.2833219999999983,25.810012819999997,-0.547107488,5.19139100000001,0.9487376215,-2.3634933235,14.619098189999999,13.073624615,-15.87830734,4.7979451415000005
69,0.28748849999999493,25.88689041,-0.6869116165,5.109085099999987,-3.65800035,-0.1583556905,7.799466133,7.6881029605,-19.888079644999998,-1.833262801
70,0.29165499999999156,25.96618557,-0.704456214,5.137306199999998,-3.1992409825,-3.1194090845,10.020172117000001,8.208749056,-0.753692627,3.603398442
71,0.2958214999999882,26.035774234999998,-0.7800795305,5.101982100000001,-1.6682252885,0.296757825,10.0785982625,6.88065052,-10.5102004995,-0.0977631065
72,0.2999879999999848,26.021512985,-0.743837418,5.158027650000008,-0.3803057369999999,-1.698667705,11.0779952995,-2.9369026424999998,6.5193098785,3.836423397
73,0.30415449999998145,26.073048595000003,-0.771140825,5.163192750000007,-1.367765844,0.2592635155,8.4979193225,4.791488886,-3.1723616125,1.7107877729999998
74,0.3083209999999781,26.108444215,-0.7267930469999999,5.210083050000009,-1.8292003275,-1.393346399,11.580025195000001,2.99580276,6.918148993999999,2.403089225
75,0.3124874999999747,26.120265959999998,-0.709177617,5.2490616000000045,1.0465241074999998,-0.15751889350000003,18.482320785,0.09904390550000008,3.444269568,2.974965572
76,0.31665399999997135,26.068467140000003,-0.716812756,5.240386950000001,-2.691140473,-1.5391820225,10.339590552,-7.541664362000001,-1.608963966,-0.8016681675000001
77,0.320820499999968,26.077965735,-0.6559587045,5.302055350000003,1.127491802,-0.6912950574999999,10.066795585,-0.11870253050000001,9.2948689475,3.137321651
78,0.3249869999999646,26.0581274,-0.617725544,5.284362800000011,-4.777734518,-0.7894274445,14.520640375,-3.7586456535,2.8555393220000003,-4.273940205500001
79,0.32915349999996124,25.98212719,-0.6073149295,5.325431800000004,3.757566452,-2.420661807,9.426413535,-10.34825468,2.767573774,3.6736198665
80,0.33331999999995787,25.95498085,-0.5796379895,5.3083496,-4.3411959410000005,1.5560696125,6.750453949,-4.641299486,1.750751972,-3.677499771
81,0.3374865000000682,25.920334815,-0.5484481449999999,5.356597899999997,1.5227268340000002,-1.1382834315,7.7857747055,-5.384637833,5.384266615,3.334909797
82,0.3416530000000648,25.879655835,-0.5288715065,5.346076949999997,-0.1072655095,-1.731263399,10.133978844000001,-6.2189571855,1.2213508245,-2.478984177
83,0.34581950000006145,25.864817619999997,-0.5878133025000001,5.360679599999997,-3.7395033834999998,0.926020324,11.609743595000001,-3.074758649,-6.1028743975,4.344264507
84,0.3499860000000581,25.809695245,-0.548278391,5.351509099999987,3.285590291,-0.4548284564999999,10.73478985,-7.9221241475,3.4464015960000003,-3.329274416
85,0.3541525000000547,25.779764175,-0.6046305075,5.370269750000006,-3.3130098585,-2.095617473,11.744395735000001,-4.842474103,-5.607622862,4.6862404345
86,0.35831900000005135,25.78338051,-0.6804185655,5.293960550000008,2.8547064065,3.0324414964999997,8.5965352055,-0.9991412904999999,-12.51461887,-4.6218340399999995
87,0.362485500000048,25.796398165,-0.6974901035,5.318351700000008,-5.122637868,-2.1215075255,11.505959511499999,0.34638759500000005,-1.06972713,3.2570034265
88,0.3666520000000446,25.818044665000002,-0.8382156305,5.2225799499999965,5.341529369,0.3095948625,12.734486342,1.1343012155,-20.55220413,-3.301368713
89,0.37081850000004124,25.816785815000003,-0.8549227880000001,5.2134705,-6.5596773625,-0.1247243885,9.323692082,-1.4008870275,-2.765901804,-0.376497343
90,0.37498500000003787,25.89086437,-1.004326098,5.151695250000003,4.1581583025,-0.7376692445,10.146607874499999,7.4305126665,-19.71966362,0.7741265
91,0.3791515000000345,25.919939040000003,-1.052134275,5.096580500000002,-4.827477455,0.46598853199999996,14.613201140000001,2.1809752285,-8.5362126815,-3.6572518350000003
92,0.38331800000003113,25.96429634,-1.183741793,5.0456772,3.708540678,-0.41129467049999996,12.849034785,3.874090433,-17.222364905,1.0678963365
93,0.38748450000002777,26.004258155000002,-1.2368907335,4.9899368500000065,-5.544261217,-1.172015488,6.618512154,3.4793484215,-9.147459506499999,-3.4444619415
94,0.3916510000000244,26.0966959,-1.3769199845,4.941322350000007,2.381852984,0.741617814,13.0354895595,9.6065320965,-18.01260328,1.7350192965
95,0.395817500000021,26.129074095,-1.415778875,4.87818145,-3.8451511860000003,-2.2564917805,12.218497039999999,2.5548790695,-8.006369830499999,-4.945839642999999
96,0.39998400000001766,26.155808444999998,-1.5484484135,4.843406700000003,2.9673177600000002,-0.8847355245,14.01176023,1.764001787,-16.483571055,2.900850892
97,0.4041505000000143,26.1492424,-1.5588227510000001,4.757560699999999,-5.2906935215,-0.007171749999999977,9.8677949905,-2.203644216,-6.138567686,-8.919313669000001
98,0.4083170000000109,26.168847085,-1.6946327685,4.7451401,0.07516664249999999,-1.8773334625,13.924403665,0.9560644775,-15.635741712999998,5.45315671
99,0.41248350000000755,26.109264369999998,-1.6816376445,4.683212299999994,-2.1156992315,-1.0051648765,9.867573975500001,-8.464237690000001,-2.370847344,-7.554125309
100,0.4166500000000042,26.062045095000002,-1.739327192,4.694129950000004,-1.080758199,-1.1618850825,9.378932235,-6.9909193515000005,-5.9855993755,3.8252044915
101,0.4208165000000008,25.987928394999997,-1.7124559585,4.661743199999989,0.5235942899999999,-1.4571900365000001,7.7682085035,-10.090461255,0.6919622419999998,-5.1073765755
102,0.42498299999999745,25.936359404999997,-1.804526955,4.641357400000004,-4.362024307,0.509199895,13.21274376,-7.627523899,-11.3463537715,2.242283344
103,0.4291494999999941,25.851919170000002,-1.7075407509999998,4.65042115,1.0907385055,0.9102499785,11.544828174,-11.157089710000001,10.4411081085,-4.281586885499999
104,0.4333159999999907,25.779026985,-1.7652487159999999,4.640640250000004,-3.9663239715,-1.8162199855,9.3326306345,-10.1395630825,-7.087665675999999,1.5771840215
105,0.43748249999998734,25.704391479999998,-1.610620439,4.668411249999991,1.5792692455,-0.7552824020000001,14.547941210000001,-9.9249048225,17.65317202,-5.2830789085
106,0.44164899999998397,25.609491345,-1.6927334665,4.6531296,-4.123965919,0.9327123020000001,11.152270316500001,-12.793557645,-10.0171403885,2.2428725364999997
107,0.4458154999999806,25.49787235,-1.5031577944999999,4.706230149999996,2.2192813755,-0.9421245455,16.282123565,-14.26831627,22.761015890000003,-4.2884273525
108,0.44998199999997723,25.37938118,-1.509131432,4.6977310000000045,-5.102255463500001,-1.116515607,7.780367493,-15.58573818,-1.419566691,-0.940830231
109,0.4541484999999738,25.2801342,-1.3159712555,4.774467450000003,0.876121104,-0.7321087345,14.8056087515,-12.756051540000001,24.3804636,-1.884299755
110,0.4583149999999705,25.147039415000002,-1.2959533035000002,4.764938350000008,-3.5905805825000003,-0.281705983,8.908462525000001,-17.311756135,1.3445367215000001,-2.3564206955
111,0.4624814999999672,25.0010767,-1.1046149135,4.848777800000008,0.756331611,-0.4104865915,14.218308927499999,-18.38928032,24.552609445,-0.938006893
112,0.4666479999999638,24.83761597,-1.0200686755,4.880454999999998,-0.40198366350000003,-0.638341159,6.10330951,-20.836037635,10.458618643000001,-1.082727075
113,0.4708144999999604,24.708475115,-0.8539850335000001,4.942520149999993,-2.160217643,-1.3441747425,12.3744058625,-16.467798235,20.72412014,-1.924385846
114,0.4749810000000707,24.57637119,-0.7764760205,4.989028900000008,-0.03292086749999995,0.15303171399999999,7.325400351,-17.069024085000002,10.437304497,0.9292975365
115,0.4791475000000674,24.459656719999998,-0.673767902,5.017204300000003,-2.4183294775,0.6259577345,11.843279363,-15.05268288,12.1203010095,-2.392011821
116,0.483314000000064,24.31905079,-0.5234855485,5.086746199999993,1.8338926695,-0.68655172,10.158987762,-18.07267189,19.528077125,-0.0851994905
117,0.4874805000000606,24.20075321,-0.458420485,5.085533150000003,-2.7598581314999997,-1.5644795894999999,9.6637914185,-15.27835703,6.5714879035000004,-3.681201935
118,0.4916470000000572,24.103741645,-0.3148682715000001,5.140136699999999,0.43097853649999995,0.59685272,9.41647625,-12.905211444999999,18.0576334,-1.3497041165
119,0.4958135000000538,24.030899050000002,-0.3153303265,5.116691549999999,-2.840485096,0.5482139065,10.2549810415,-9.835188865500001,-1.6847450734999998,-2.8873904945
120,0.4999800000000505,23.91659546,-0.16809937349999998,5.170875550000005,2.6516866685,-0.899174303,13.336862085,-14.985309125,18.439826964999998,-1.5036717055
121,0.5041465000000472,23.814137459999998,-0.200314969,5.122428900000003,-2.6172053425,0.07026858700000001,6.9239085915,-13.37181091,-6.362448931,-4.052364707
122,0.5083130000000438,23.716305735,-0.05762073400000001,5.188980099999995,0.2767361399999999,-1.4239310920000001,12.821549894,-13.0506506,18.547122,0.085955009
123,0.5124795000000404,23.644989965,-0.13541537499999995,5.10761260000001,-2.549331218,-0.22181075799999997,6.2754955295,-9.617456436,-12.946603775,-5.474980593
124,0.516646000000037,23.568603515,-0.03662964699999999,5.153335550000008,-0.201307833,0.09781119249999998,15.635196685,-10.500878332500001,12.71804714,-0.06834515949999997
125,0.5208125000000337,23.43835163,-0.05674725799999997,5.097373950000005,-0.282204479,-1.785980672,6.9714096805,-16.63826895,-5.3699177525,-5.398112535499999
126,0.5249790000000303,23.321297645,0.017546147000000012,5.108947749999999,-0.7513903605000001,-0.533219971,12.667747737500001,-15.423693179999999,8.3955556155,-2.6786990165
127,0.5291455000000269,23.174844745,0.04757848400000003,5.092796300000003,-2.3945831660000003,-1.6138920190000001,12.447774885000001,-18.576895715,2.0768988134999997,-3.4112793210000003
128,0.5333120000000235,22.99181747,-0.03707864849999998,5.033744800000008,4.0154722335,-0.5187151875,10.014654637500001,-23.303678515,-12.470541477,-2.8970103265000002
129,0.5374785000000202,22.823387150000002,0.12657579800000002,5.063415499999991,-9.308253051,-1.3438416125,13.088594436000001,-21.257257459999998,19.022913935,-4.633209229
130,0.5416450000000168,22.648985865,0.021232217499999984,5.006179849999995,7.6594560145,0.1257280965,10.319548369500001,-22.224868774999997,-14.665950294999998,-1.7534234524999999
131,0.5458115000000134,22.400100709999997,0.11233571199999998,5.004356399999992,-9.7284274085,-0.9598625895,19.897146225,-30.947877885,9.5695257195,-4.738612175
132,0.54997800000001,22.145565035,0.1306167545,5.008789100000001,5.5161125655,-1.2852768005,7.4079542175,-31.824144365000002,1.8805663570000002,-0.57021188
133,0.5541445000000067,21.87657261,0.14519810699999997,4.994613649999991,-5.243826627500001,-1.1215292815,6.0101089475,-33.33835411,0.5349603889999999,-2.5659980774999998
134,0.5583110000000034,21.61478329,0.16504305600000002,5.0023041000000035,1.4946660399999998,-0.34836161100000007,17.299848555,-32.748558994999996,2.2051441670000003,-0.3674493355
135,0.5624775,21.300237655,0.23676337300000003,5.022575399999994,-4.394636273,-1.2820731105,7.79957664,-38.77557564,8.451224567,-1.1104683575
136,0.5666439999999966,21.001563075,0.21685212849999996,5.020133950000002,4.044380188,-2.1270138025,6.5338890554999995,-37.169076919999995,-2.6913799194999997,0.22910022750000003
137,0.5708104999999932,20.681930545,0.341267586,5.071891800000003,-8.080910444,-0.02338567349999998,18.036750315,-39.457014085,15.72641087,0.175259292
138,0.5749769999999897,20.318778039999998,0.299965888,5.088691749999995,4.5251038075,-0.5991285590000001,10.047807691,-44.87985992,-4.2945993545,3.351436496
139,0.5791434999999865,19.92012596,0.40298777799999996,5.1323090000000064,-2.8535835745,-2.460341275,3.5770539639999996,-48.922325135,12.96706915,0.378470436
140,0.5833099999999831,19.567990305000002,0.4045570045,5.150260900000006,-0.5983747835000001,-0.3002628985,10.3870148645,-43.60788345500001,0.5498809814999999,1.596294314
141,0.5874764999999798,19.19444656,0.5151229875000001,5.220474250000009,-4.1211373805000004,-0.07500597850000001,15.305553915,-45.946525574999995,14.87599659,3.2777323725
142,0.5916429999999764,18.77460289,0.5118096545,5.2430267499999985,2.9221171139999997,-0.7644752644999999,11.2676277175,-51.701681135,0.14032113550000003,2.3993679285000002
143,0.595809499999973,18.346620559999998,0.6675734685,5.308532749999998,-4.177032232,-2.034971386,4.932505965,-52.51317215,19.794160845,1.2018813119999998
144,0.5999759999999696,17.965762140000002,0.707640877,5.36768339999999,-1.7142267820000001,0.6671193765,14.11999178,-47.115007399999996,6.4201310875,4.885284543
145,0.6041424999999663,17.54450226,0.8735076115,5.4376067999999975,-3.3453307150000002,0.17534407949999997,14.47361946,-51.73184395,21.083469389999998,1.6628546565
146,0.6083089999999629,17.124342915,0.9828301369999999,5.531448400000002,-0.05055227849999999,-0.0808039605,6.8388853075,-51.90678215,15.51632452,6.5463240145
147,0.6124754999999595,16.73976803,1.1755017635,5.611656199999999,-2.6796642545,-0.9863224325,3.2362322810000004,-47.41082573,24.48990822,2.1805839540000003
148,0.6166420000000697,16.41046906,1.261113018,5.687614400000001,-0.09896200899999996,0.777927637,10.323897365,-41.028640745000004,12.083536145,5.457582951
149,0.6208085000000665,16.070239065,1.467000544,5.7680893,-2.9025098089999997,-0.201552689,12.730546475,-42.147686005,25.994508745,2.076537445
150,0.6249750000000631,15.76106596,1.6296662094999999,5.875335699999994,0.25453861050000004,0.7091242595,8.929488182,-38.76403618,21.934071539999998,6.6741847995
151,0.6291415000000598,15.50086546,1.871567309,5.9243926999999985,-3.4220809935,0.36642849450000003,12.526433945,-32.502942085,29.11212635,-2.4534761905
152,0.6333080000000564,15.263837814999999,2.019915998,6.045021050000003,-0.2977402135,1.1161535085,12.997091295,-30.24613762,20.643177989999998,8.916159867
153,0.637474500000053,15.033654214999999,2.280031085,6.075561499999992,-1.606220901,0.07598218349999997,10.008818149,-28.854722025,30.654969215,-4.9014835355
154,0.6416410000000496,14.86906052,2.430417299,6.181297299999997,-2.4903644325,-0.282073319,5.9654239415,-21.601579665000003,20.352101325,7.2330687045
155,0.6458075000000463,14.734876155,2.6270218495,6.188751199999999,0.8903616965000001,-0.1121673585,10.462374212,-17.235728260000002,22.605397225,-5.4271223545
156,0.6499740000000429,14.61987257,2.8063063625,6.286102249999999,-2.921685934,-0.15509161349999998,11.397226808500001,-15.684682369999999,23.417229655,5.484498501
157,0.6541405000000395,14.49049568,3.018692851,6.281433100000001,1.3774712085,0.07383537299999998,11.183278562,-16.59531021,24.092256544999998,-7.230404854
158,0.6583070000000362,14.369352339999999,3.2203047275000003,6.3496399,-4.8297212125,-0.24638538050000003,11.12304306,-16.320250989999998,25.126392365,1.5478822884999999
159,0.6624735000000328,14.22578812,3.4222239255,6.355689999999996,0.67722629,-1.2142929434999998,9.992978573,-18.3771019,23.222332,-5.5773887635
160,0.6666400000000294,14.09690857,3.5942115784999995,6.398803700000002,-2.508671403,-2.5841950175,8.484281063000001,-17.10750437,20.92836857,-0.3620446475
161,0.670806500000026,13.938571450000001,3.7307257655,6.385086099999995,0.8813938465,-0.7276974620000001,8.679147004499999,-20.008789065000002,15.067709449999999,-5.852304935499999
162,0.6749730000000227,13.743124965,3.9064358475,6.419349699999998,-2.458482504,-1.48114562,14.088076115,-25.058542255,21.109414105,-1.390277803
163,0.6791395000000193,13.498360635000001,4.015842915,6.404991150000001,0.029846191500000008,-1.6789366005000002,12.26749611,-30.373620035000002,11.932121275,-5.0588035585
164,0.683306000000016,13.21903038,4.2270733115,6.441215499999998,-3.535062194,-0.8366023005000001,14.418890950000002,-35.16737938,25.318766595,-1.9830445650000001
165,0.6874725000000126,12.85572958,4.293567777,6.393630950000002,2.202933669,-3.0779289005,8.747260333,-44.28068924,6.0644505005000005,-7.597504139
166,0.6916390000000092,12.474087715,4.452983499,6.410408050000001,-4.3314936159999995,-2.7879995109999998,10.2766144275,-47.29704666,18.761190415,-2.6125171185
167,0.6958055000000058,11.991459845000001,4.540271044,6.368011500000009,1.9417533875,-1.9703069329999998,13.879615785,-58.629282,8.7445094605,-7.4166121480000005
168,0.6999720000000025,11.472022055,4.6749546525,6.3762665,-6.581741333,-3.0174058675,10.561473967,-63.765808105000005,15.685462473,-2.7080241445
169,0.7041384999999991,10.851668355000001,4.8162014485,6.3282928,4.9306693075000005,-2.642208934,11.005080936,-75.06788635500001,15.093257427,-9.103052617
170,0.7083049999999959,10.14304304,4.838426113000001,6.2735977000000105,-6.4145474435,-2.191914052,8.3508722765,-85.84188079500001,1.0971989629999999,-7.3088269235
171,0.7124714999999924,9.3775787355,5.101809263,6.238586400000003,0.630132526,-2.588963449,18.696238039999997,-92.58938217,29.95994091,-10.094987867
172,0.716637999999989,8.507300854,5.1708807945,6.15705109999999,-4.9208574295,-2.5800766050000004,10.888102768000001,-104.8974495,6.340026707,-11.173832895499999
173,0.7208044999999856,7.5949499605,5.3846697804999994,6.113235500000002,2.203455806,-2.1072561445,11.2644007185,-110.1018333,24.19648075,-9.452656267
174,0.7249709999999822,6.589728594,5.5205140109999995,6.01603695,-3.8016273975,-3.4494182465,7.745181443499999,-120.86104585,14.4101200115,-13.76963997
175,0.7291374999999789,5.579654932,5.67915225,5.984062199999997,0.19412124149999999,0.8818869515000001,15.440285445499999,-121.94906234999999,18.071688651,-6.5663239954999995
176,0.7333039999999755,4.480245471,5.941647291,5.87747195,-4.5458290575,-2.8846149445,15.33662891,-131.97560885000001,29.92798948,-15.619844435000001
177,0.7374704999999722,3.3326027395,5.942611694,5.850708000000012,5.449335337,-0.9910637435,3.0396719725,-138.45954895,-0.5679990055000002,-4.2251650094999995
178,0.7416369999999688,2.155051291,6.238671780000001,5.716789250000005,-7.08374238,-2.2337858675,13.400994305000001,-140.9512482,34.385426519999996,-17.96713543
179,0.7458034999999654,0.95029214,6.278105974,5.714225749999997,1.9807579519999998,-0.1862425205,9.1961109635,-145.62385555,4.2957792285,-1.3954897525
180,0.749969999999962,-0.27091275150000005,6.581404447500001,5.558006300000002,-4.869422793,-1.1356565655000002,18.61297655,-145.7921524,35.94213104,-19.145400045
181,0.7541364999999587,-1.556544006,6.5611982345,5.545783999999998,4.4810694455,-1.8035125735,5.695646702,-155.2104416,-2.7928020955000004,-2.3432784079999998
182,0.758303000000069,-2.8686383964999997,6.8014798160000005,5.366210949999996,-5.180404424500001,-0.5877456965,15.0479011515,-156.2898941,29.295419695,-20.66169167
183,0.7624695000000656,-4.2104492185,6.85891366,5.337417599999995,-0.5995693955,-0.3626735585,12.351855753999999,-161.74181365,6.727124094,-3.6713342664999997
184,0.7666360000000622,-5.56242466,7.008645773,5.1765671,0.5414965005,-0.5959844590000001,8.469034193,-161.2496338,19.1833601,-17.87881279
185,0.7708025000000589,-6.916852236,6.95079422,5.1271591,-0.971330553,-0.5395241080000001,7.856741786,-162.98084260000002,-6.620950043500001,-7.094720364
186,0.7749690000000555,-8.2456386085,7.0826911925000005,4.97258755,-2.8774006365,0.5302233695,12.895175692999999,-158.52929685,17.769679545,-16.537899015
187,0.7791355000000522,-9.580014706,7.046959638500001,4.894355750000003,-0.9681125845000002,0.6419265345,13.256710055,-160.1641159,-3.1556258209999997,-10.2253327375
188,0.7833020000000488,-10.904465675,7.1243078705,4.756957999999997,-0.8738212285,-0.07977470750000004,11.234400745,-158.24175265000002,11.691237925,-14.780409335
189,0.7874685000000454,-12.234295365000001,7.0710473060000005,4.680313100000006,0.7379552725,0.42919806400000005,9.469521523,-159.69648745,-4.871112613,-10.206120013
190,0.791635000000042,-13.52925253,7.059094429,4.562202450000001,-1.4977694305,1.1963505445,9.243989944500001,-154.99443055,1.388923466,-14.370239255000001
191,0.7958015000000387,-14.73945999,7.0386376385,4.474128749999991,-5.3965649605,1.7866830825,10.952902315,-145.19748685000002,-0.28350366650000003,-10.7340898495
192,0.7999680000000353,-15.95814037,7.0354828835,4.376976049999996,1.5249236525,1.0758049490000001,14.415537835000002,-146.16003415,2.3478246925,-11.527444840000001
193,0.804134500000032,-17.14982891,6.977347851,4.280639649999998,-2.06921494,-0.0450472795,5.904090643,-142.8765259,-3.9141697885,-12.918364045
194,0.8083010000000286,-18.303380965000002,6.880934477,4.218338000000003,1.7385143044999998,0.44495292000000003,7.5635666855000006,-138.8693466,-9.1085680705,-10.86159611
195,0.8124675000000252,-19.39193153,6.791651726,4.1261062500000065,-1.3333336935,2.0932463405,10.1498990045,-130.59836575,-7.098440647,-13.806589599999999
196,0.8166340000000218,-20.452878955,6.6553442480000005,4.106483499999996,-1.9566959145,1.850358188,13.33970785,-128.38110734999998,-14.92467308,-8.0760436055
197,0.8208005000000185,-21.43373394,6.5823161605,4.034141550000001,-2.3230632545,1.3624444599999999,8.159170628,-117.9534874,-5.4764420985,-11.524396419999999
198,0.8249670000000151,-22.33638668,6.4468476775,4.023742650000003,-0.499290094,2.893288612,11.94964409,-109.51612854999999,-14.97183609,-7.5242242815000004
199,0.8291335000000118,-23.179085729999997,6.3216290475,3.984954849999994,-1.7500014899999998,1.9763649105,10.586165430000001,-101.9242592,-12.622429847,-9.9370074295
200,0.8333000000000084,-23.921569825,6.192209959,3.9901886000000104,-1.4982630015,1.7629668120000002,10.0919740215,-90.50223922999999,-14.83482361,-5.9665727615
201,0.837466500000005,-24.615661619999997,6.00965333,3.9957733499999932,-1.173311204,1.8179545405000002,10.0865039845,-84.63683319,-20.61365509,-8.705299377500001
202,0.8416330000000016,-25.22021866,5.9146780965,3.97727965,-1.142640576,1.5887942315,9.526056292,-73.650382995,-9.7533211705,-7.1353669165
203,0.8457994999999982,-25.775366785000003,5.672422886,4.003700249999994,-1.7992531955,1.88335681,11.421721458499999,-68.26576996,-28.16621494,-9.563299181
204,0.8499659999999949,-26.25775051,5.5725221635,4.0001067999999975,-1.7413989305,1.7113133075000002,10.82871056,-59.17725372,-10.9314723,-5.966969967
205,0.8541324999999915,-26.67827034,5.340590477,4.0168915,-2.2086291315,2.1123937365,8.6380801205,-51.98957634,-26.38713455,-10.529531955
206,0.8582989999999882,-27.02396202,5.236814260499999,4.021881100000002,-2.0254841445,0.8111933765000001,10.9577651025,-42.86920166,-11.724900245499999,-5.391870022
207,0.8624654999999848,-27.315382955,5.031819105,4.033882150000011,-1.5019800515,2.0221355555,10.3222012525,-36.439373020000005,-23.12917042,-9.8942837725
208,0.8666319999999814,-27.552064895,4.919476032,4.0477676,-1.8907491564999999,0.708874166,9.7744748605,-29.876778605,-13.074170588000001,-5.0323820115
209,0.870798499999978,-27.741067885,4.7613823415,4.03715514999999,-1.611598909,0.9050609765,9.652182100000001,-23.916916845000003,-16.7975235,-9.8970160505
210,0.8749649999999747,-27.88571072,4.643010378,4.064079300000003,-1.040224791,0.9066723585,12.570807456,-18.951560020000002,-14.4101033215,-4.06664598
211,0.8791314999999713,-27.997924805,4.506413221000001,4.057884200000004,-1.900790453,1.6139489415,10.3134083735,-14.754664425000001,-14.713682649999999,-8.320583343500001
212,0.883297999999968,-28.072690960000003,4.3849568365,4.084541349999995,-1.1821347475000001,0.05366648749999997,9.6693923465,-10.548496247500001,-14.705419540000001,-4.3291784525
213,0.8874644999999646,-28.093029025,4.2946300505,4.072639449999997,-3.2238339185,0.8690532445,9.069430113,-3.686490774,-9.4799957295,-6.3278565405
214,0.8916309999999612,-28.09767628,4.176061391999999,4.109672549999999,0.260464862,-0.113291703,13.286219595,-2.212699115,-14.981565,-3.082942605
215,0.8957974999999578,-28.06899357,4.119822979,4.088005100000004,-4.0284626485,0.8097524495,11.5699148155,2.271854639,-5.3166957495,-5.4407327174999995
216,0.8999640000000682,-28.047241210000003,4.027685642,4.117706299999995,-0.393093407,-0.7684845255,9.4664587975,1.03010878,-11.7701797505,-2.36471951
217,0.9041305000000648,-27.979169845,4.025651455,4.079948450000003,-3.8419499395,1.3932257595,12.277288914,7.1231908795,1.318204522,-4.071959376000001
218,0.9082970000000614,-27.93492508,3.956843376,4.104469299999991,0.37911017249999995,-1.644169986,11.606242178,3.777933955,-9.0121016495,-1.5766717195
219,0.912463500000058,-27.85187721,3.97876215,4.0769272,-4.6021928785,0.464366306,11.703039644499999,8.823937893,3.282598525,-1.657855928
220,0.9166300000000546,-27.801216125,3.965638518,4.081733700000001,0.2418590485,-0.8998702465,10.386499645,4.713813305,-2.0052678585,-0.5260523705
221,0.9207965000000512,-27.725079535,3.9880952835,4.054222100000004,-3.0838360785,-0.536407694,10.596805573000001,7.9887719155,3.3292873505,-1.6243395805
222,0.924963000000048,-27.6632452,4.023180008000001,4.037010199999997,-1.6246545315,-0.5367228390000001,15.72788334,6.2392058375,4.346556485,-0.1664989295
223,0.9291295000000444,-27.61371708,4.0474944115,4.024436949999995,-2.617601156,-0.5166189895000001,7.5797388555000005,4.665364027000001,2.6930877564999998,0.044587925
224,0.9332960000000412,-27.55440998,4.1224467755,3.9797668500000043,-0.4220519065,-1.3007309435,13.786832335,6.174031019,10.1016798015,-0.8644677700000001
225,0.937462500000038,-27.526988985000003,4.125180483,3.9687041999999906,-2.1938390135,-0.0034005270000000004,9.0596976285,2.002238989,0.34278905400000004,-1.027579099
226,0.9416290000000345,-27.497078895,4.227520943,3.908760049999998,-2.229122281,-1.974276543,12.631035805,2.7863045335,13.860903265000001,-1.008202076
227,0.9457955000000312,-27.49092007,4.2480773925,3.907363900000007,0.189099578,-0.7664085924999999,11.654952049,-0.634707898,1.7161281705,1.0017342865
228,0.9499620000000278,-27.49597359,4.320770979000001,3.8577575500000023,-2.826482177,-0.4255731705,10.600576401,-1.487610817,10.130495308,-1.609803617
229,0.9541285000000244,-27.512111665,4.3728485105,3.8348693500000053,-0.04727152000000001,-1.2484163645000002,10.4647352715,-3.117892921,6.2731178415,0.48916785400000007
230,0.958295000000021,-27.538950919999998,4.4462110995,3.80300905,-3.4628676174999997,-0.45875891999999996,10.772802355,-4.254576087,9.221074700499999,0.294845492
231,0.9624615000000176,-27.596961975,4.5420463085,3.7518845000000027,0.06703257599999998,-1.8778287175,12.603957654999999,-7.873842956000001,12.501581906999998,-0.0997354555
232,0.9666280000000143,-27.62924862,4.563593626,3.7565612500000043,-3.2221363785,0.128037039,9.978578093,-5.2457056044999995,1.6886377335000002,1.319235593
233,0.9707945000000108,-27.692980765,4.7237885,3.687896749999993,-1.646135986,-0.803121179,11.260066510000001,-8.375371695,20.32354641,1.6015690565
234,0.9749610000000075,-27.755645755,4.699376344499999,3.6957702999999924,0.6457837820000001,-0.8020920455,8.3275926125,-8.9240903845,-3.380131662,-0.8401469884999999
235,0.9791275000000041,-27.79764652,4.8630523685,3.6236954000000026,-4.1640042065,0.2271867395,15.768283364999998,-5.717765093000001,20.884560585000003,1.424779534
236,0.9832940000000008,-27.884177209999997,4.8874528405,3.624549900000005,0.8504054845,-1.8638323545,7.8410761935,-11.71964121,2.19273901,1.1789337395
237,0.9874604999999974,-27.923717500000002,4.95275259,3.5989761000000016,-1.9975627065,0.11721263050000001,9.367936373,-5.882860184,7.851685525500001,0.8263408839999999
238,0.991626999999994,-27.980612755000003,5.0432026385,3.572738650000005,-0.5327823315,-0.473916754,12.272372247,-7.881309270999999,10.709365127,2.0385476355
239,0.9957934999999906,-28.03789711,5.01115489,3.5865936499999975,-1.402353704,-1.2772695425,5.3629194495,-8.423319101,-4.6670679150000005,-0.478883784
240,0.9999599999999872,-28.08050823,5.137769699,3.5361251500000037,-1.8653512300000001,-0.6742480774999999,17.94878721,-5.905004501500001,15.896645544999998,1.4881873730000001
241,1.004126499999984,-28.186258315,5.0913438795,3.5390014500000007,-1.022505615,-1.3571529985,10.7119660385,-14.128019335000001,-5.558840394000001,-2.4164856675
242,1.0082929999999806,-28.264041900000002,5.1720845695,3.5322341999999907,-4.3009734155,-0.988332242,9.614900709499999,-10.58764553,8.573368668,3.48395896
243,1.0124594999999772,-28.35158062,5.2174155715,3.4840316500000057,0.9728818534999999,-0.0654588045,13.380998134,-11.389742375,7.038062281499999,-2.5611931085
244,1.016625999999974,-28.461314199999997,5.1796627045,3.522140500000006,-2.9228832125,-1.3802215455,9.213012695,-14.910471914999999,-6.4981793765,1.466850698
245,1.0207924999999705,-28.55332756,5.295211792,3.4417648000000014,-2.6745860575,-0.8538561615,15.126883505,-11.570606705,16.287496570000002,-1.9349256755
246,1.024958999999967,-28.67633438,5.269632101,3.4747085500000026,0.4146526635,-0.7833918035,8.395838143,-16.452628615,-4.926246226,1.6952017545
247,1.0291254999999637,-28.778344150000002,5.342569828,3.4204864500000127,-3.200872779,-0.466919571,9.961108685500001,-13.05310726,10.307646273,-1.6738011240000001
248,1.0332919999999604,-28.86920071,5.405233383000001,3.408081050000007,0.16926372050000005,-1.3542998435,10.55284357,-12.090651990000001,6.9562709025,2.0678120255
249,1.0374585000000707,-28.968561174999998,5.394168377,3.4011382999999995,-2.0860747505,0.8451030700000001,7.862003803,-13.262655735,-1.2428224085,-1.560688436
250,1.0416250000000673,-29.056715009999998,5.519369364,3.3446883999999955,-1.6808234155,-1.7387914655,14.579313275,-11.2627754195,16.06466532,1.0742229225
251,1.045791500000064,-29.139043805,5.502781152500001,3.355499249999994,-0.04428970799999998,0.46805332600000005,9.340172052,-11.421414375,-2.8482779115,0.0417640165
252,1.0499580000000606,-29.203400610000003,5.598984003,3.330032349999996,-4.9979462625,-0.696751304,9.041123151999999,-8.754831791,11.2199466205,2.571285486
253,1.0541245000000572,-29.25004673,5.6537718770000005,3.304489099999998,2.94553566,-0.379753947,11.945351599999999,-6.71967721,6.7350407255,0.4909801865
254,1.058291000000054,-29.303170205,5.634089947,3.3190765499999912,-4.509155035,-0.303511828,8.599687099499999,-7.874648571,-3.251732886,-0.013402580999999969
255,1.0624575000000505,-29.32211685,5.7557885644999995,3.2642822499999937,-1.2537323685,-0.456258476,14.2504963885,-3.048159003,15.44468403,1.3125891090000001
256,1.066624000000047,-29.351664545,5.739833355,3.2742233000000027,-0.8622596715,-0.602235213,10.256501914,-4.993213892,-2.595547855,-0.19108862450000003
257,1.0707905000000437,-29.370715145,5.7680671215,3.2564087000000086,-2.091223717,-0.479299739,7.903016805,-3.4998012784999997,3.5172127485,-0.383983031
258,1.0749570000000404,-29.35969639,5.834699869,3.2170334000000054,-1.3514650049999999,-1.4426640865,11.5887723,0.47417712200000006,8.9287390705,-0.46599978200000003
259,1.079123500000037,-29.37922859,5.809425116,3.2289123500000017,0.02146112900000008,-1.13919571,7.3989888455,-3.9215904475,-3.8312363625,-0.3836116045
260,1.0832900000000336,-29.364515304999998,5.8368883135,3.195579499999994,-2.341758251,-0.2365582225,13.041646960000001,0.8444117904999999,4.479251385,-2.2043227549999997
261,1.0874565000000302,-29.35297394,5.8822846415,3.168968200000009,-0.780826837,-0.7957642975,12.54829788,0.277325325,5.8186193705,-0.2031208795
262,1.0916230000000269,-29.35545826,5.860782146,3.1691894500000046,-3.0643333195,-1.2618380784999998,8.7141814245,-1.627643809,-2.604340434,-1.587032437
263,1.0957895000000235,-29.320537565000002,5.9219341275,3.14605714999999,-1.3790646194999998,-0.40149685749999997,12.674201013,3.038860321,7.2581908705,1.041090667
264,1.0999560000000201,-29.305825235,5.9156615734999995,3.1159362500000043,-1.2234930395,-0.807275385,10.766958235499999,0.811964907,0.7582518159999999,-3.8211057185
265,1.1041225000000165,-29.277908325,5.89342618,3.140213000000003,-0.7084174004999999,-0.9649942515000001,11.502681732500001,1.6084075195,-4.240014315,1.111593813
266,1.1082890000000134,-29.265197755000003,5.8938372135,3.1020812999999947,-3.3796887394999997,-0.8420618775000001,13.84442711,0.667795092,1.9211763145000003,-4.3060348035
267,1.11245550000001,-29.253840445,5.9079990385,3.095115650000011,-0.495314479,-0.9619315565,12.278758525,0.004040777499999981,1.3872735500000002,0.030179962499999997
268,1.1166220000000067,-29.24378395,5.86015749,3.0828934000000032,-1.779668033,-1.132435799,10.5478539455,0.029975086499999998,-4.6402876375,-4.401601553000001
269,1.1207885000000033,-29.229867935,5.8726680275,3.085769650000003,-2.697736144,-1.3996506334999999,8.5851609725,0.187579453,0.6385948655000002,0.9066543280000001
270,1.124955,-29.2079916,5.8756160735,3.039360049999999,0.861469537,-0.9534083305,11.39095068,1.8681104485,2.6619538069999997,-4.9484398365
271,1.1291214999999966,-29.216585154999997,5.8315424920000005,3.065322850000001,-2.146066427,-1.5089755360000001,10.2235434075,-2.8018517495,-6.6369566915,0.02603042099999997
272,1.1332879999999932,-29.21881199,5.8500230315,3.0173263499999905,-3.6074986455,-0.7165747585,11.3930618745,-1.007215887,4.385170519,-4.2853643895
273,1.13745449999999,-29.21666336,5.8968582155,2.987518300000005,-0.47612221499999996,-0.845723629,14.09174347,-0.829696283,6.1248638645,-0.3933706695
274,1.1416209999999865,-29.25974464,5.845010281,2.965095550000001,-2.5725096465,-1.8524789215,9.827516556500001,-6.222723007,-4.4673537015,-5.7245390415
275,1.145787499999983,-29.2696867,5.905883312,2.9425277999999935,-2.51631403,-2.0765078069999996,9.161466835,-2.373530567,7.16391778,1.1529609265
276,1.1499539999999797,-29.31382179,5.9255800245,2.896354699999989,1.0791877805,-0.7072316815,11.04960108,-6.0513119695,4.4053475859999995,-3.9232811930000002
277,1.1541204999999763,-29.387958525000002,5.8765540125,2.9149704000000014,-1.8380939585,-2.253863871,6.650414586,-10.58818245,-6.7497609875,-1.0188830495
278,1.158286999999973,-29.42700958,5.954868793499999,2.847801199999992,-2.3770096305,-0.18168291450000001,13.99239254,-5.183067083499999,11.774904249999999,-2.7191053629999997
279,1.1624534999999696,-29.50129986,5.9748244285,2.834854149999998,-1.174793065,-1.168164745,12.2794713995,-10.217430112999999,2.2975648344999997,-0.15338440250000002
280,1.1666199999999662,-29.56609631,5.974050045,2.8242493000000053,-2.450146019,-1.801361024,10.808068753499999,-8.971591949499999,0.19382917849999992,-1.512277365
281,1.1707864999999629,-29.611449245,6.0728821755,2.769302400000001,-1.8747276215,-0.5841515665,13.1935477245,-6.218266487499999,12.999226570000001,0.1632843465
282,1.1749529999999595,-29.705145835,6.024805307499999,2.7854461499999985,0.5633616745000001,-1.7328463195000001,4.768678127499999,-12.774872775,-6.3166002035,-1.4859589935000002
283,1.17911950000007,-29.7546711,6.0532565115,2.7530136000000027,-1.6985329985000002,-1.623532653,11.313440324,-7.0045330525,4.317593336,-1.6952781085
284,1.1832860000000665,-29.814771655,6.0953819750000005,2.712547299999997,-1.8133262989999999,0.490194917,13.2925148,-8.0246338845,6.439599037,-1.991468668
285,1.187452500000063,-29.879004475000002,6.0593283175,2.7207718000000085,-2.7281458379999997,-1.683440864,8.924148083,-9.290950772999999,-4.8257867095,-1.2621929495
286,1.1916190000000597,-29.925794605,6.1375646595,2.677230850000001,-0.7852585614999998,-1.3609240945,12.007999658000001,-6.387153864,10.374369146500001,-0.16181159
287,1.1957855000000563,-30.011207579999997,6.0943324565,2.671554549999996,0.2797236365,-1.465183675,6.2382325825,-11.6625356695,-4.7802390435,-3.0132849215
288,1.199952000000053,-30.064850810000003,6.0558502675,2.7005539000000027,-1.264891561,-0.8529377284999999,7.4834492205,-8.133672714500001,-6.0774383555,0.31095679099999995
289,1.2041185000000496,-30.113799094999997,6.1080350875,2.628822349999993,-3.062844634,-0.6780181080000001,13.968246935,-6.446693659,9.0877270715,-4.170702338
290,1.2082850000000462,-30.16785145,6.0581765175,2.6536941499999926,-0.26065944500000005,-1.3023219705,10.725270747,-8.1303043365,-7.010654448,-0.733322799
291,1.2124515000000429,-30.200719835,6.057584286,2.616539000000003,-3.9619295595,-0.0533418955,13.359467506000001,-4.9589288235,1.5542275905,-3.832991123
292,1.2166180000000395,-30.244105339999997,6.093703746499999,2.602737399999995,-0.31803739100000006,-1.8523100014999998,8.892092228,-6.357274294,4.2253048,0.469880372
293,1.2207845000000361,-30.274398804999997,6.000935793,2.607513449999999,1.3144459869999998,-1.0640497505,7.159240603000001,-5.1831822395,-10.533701894,-4.9887828825
294,1.2249510000000325,-30.312372205,5.9967820645,2.6012573000000003,-3.7560027835,-1.0793252885,12.267324923,-5.805531263500001,-0.39766716950000003,-1.2778174575
295,1.2291175000000294,-30.338780405,5.991173983,2.5707015999999925,-0.36282139999999996,-1.258306712,11.668590545,-4.2728003260000005,0.6323448420000002,-3.3420174119999997
296,1.233284000000026,-30.36996555,5.957663298,2.5980835000000013,-2.8076683285,-0.675246578,8.7617549895,-5.411468506,-5.4636192325,0.43465434
297,1.2374505000000227,-30.3577528,5.9813895225,2.57519529999999,-1.2567668109999999,-0.9744029195,11.269659278999999,0.2640251965,3.2120379210000003,-0.8252905605
298,1.2416170000000193,-30.354278565,5.956503391,2.587333649999991,-0.8629471585,-1.0242861804999999,9.1369488245,-1.0608008285,-3.6516553015,-0.5571736435
299,1.245783500000016,-30.34484577,5.8964653015,2.6135558999999944,-1.237102176,-0.740587607,7.871630192,-0.676170975,-8.416465998,-0.8522367774999999
300,1.2499500000000126,-30.32246113,5.9483203885,2.5838164999999975,-2.262112439,-1.4468379615,12.039090155,1.7264636155000002,6.814898491,-0.2716517895
301,1.2541165000000092,-30.29602146,5.935030222,2.5930404499999895,-0.694616452,-0.6065056995,10.111678126,1.5722082855,-2.5540531274999996,0.2768898905
302,1.258283000000006,-30.23301506,5.9614424705,2.6124267499999974,-3.9700545070000004,0.105962634,11.704855444,5.9946022029999995,1.2277990579999998,3.2218608855
303,1.2624495000000024,-30.135032655,6.057103872000001,2.5883254999999963,-1.530580014,-0.3746585845,10.147291185,10.574762345,10.750091553,3.3868173365
304,1.266615999999999,-30.01176071,6.0829734805,2.614944449999996,-0.812873751,0.349978477,10.4515287895,13.12937069,0.74771145,3.9861644505
305,1.2707824999999957,-29.845711710000003,6.151455879,2.6010361000000017,-2.797224879,-0.3391373305,11.019011734500001,18.615882874999997,7.3306814415,2.7211805580000004
306,1.2749489999999923,-29.642341610000003,6.2398676875,2.599136400000006,-1.8255930545,0.19049586400000001,10.827742101,23.104488375,8.979882481,4.773164272500001
307,1.279115499999989,-29.387291905,6.270471573,2.618255650000009,-1.153186917,-0.099891182,7.8813300134999995,28.866366385,1.450618386,3.8836458919999997
308,1.2832819999999856,-29.083532335,6.4153220655,2.598518350000006,-1.9688614605,0.0739400125,10.5888400085,35.38975334,15.969895365,6.0930714605
309,1.2874484999999822,-28.7318182,6.447798252,2.62458805,0.5310038850000001,0.25139646250000003,9.228241443,40.368560790000004,1.3070898054999998,4.717315912
310,1.2916149999999789,-28.316113469999998,6.539026499,2.6274490499999956,-2.5375287535,1.5119032265,7.857948778500001,48.523622515,9.1088006485,5.1479604245
311,1.2957814999999755,-27.824253085000002,6.646622658,2.6283569500000112,-1.718204975,-0.3945289555,11.984600541999999,57.520364765,10.7352144705,6.3145291805
312,1.2999479999999721,-27.260977744999998,6.695807457,2.680549599999992,-1.0591523015,1.3219117525000001,7.0274534225,65.5455513,2.0081571339999997,7.8772270675
313,1.3041144999999685,-26.6542387,6.8334999085,2.6687088000000045,-2.1953774095,0.512897089,10.056659223,71.48792266999999,14.776306155,6.329934596999999
314,1.3082809999999654,-25.967185020000002,6.8922948835,2.7284621999999956,0.04829701049999999,-0.24738678349999998,10.108242989499999,80.27185821500001,2.8189136985000003,9.181014060999999
315,1.312447499999962,-25.23806572,6.981621265499999,2.7448577999999912,-2.605607152,1.871934891,10.537994860000001,85.773670195,8.2638461615,6.4404461385000005
316,1.3166139999999587,-24.438488005,7.0906419755000005,2.7956237500000043,-2.3747457265,-0.3181514145,10.442436220000001,93.88668823500001,8.9858388915,10.641159535
317,1.320780500000069,-23.568330765,7.166000843,2.8414611500000007,-0.448144123,0.2676652055,8.351559639,102.257183075,5.5027825835,8.710035324
318,1.3249470000000656,-22.645349505,7.2747268675,2.905136099999993,-3.2526032925,1.7772817020000002,10.662861825,108.48460005,8.6786549115,11.72936773
319,1.3291135000000622,-21.66298485,7.3875350950000005,2.947990450000006,0.049702942,-0.780601978,11.98473215,115.74968340000001,10.095153332999999,9.879516599999999
320,1.3332800000000589,-20.63522434,7.4452166559999995,3.047805749999995,-2.333773136,0.216256667,8.450753212,120.47346495,1.8246848580000001,13.211378100000001
321,1.3374465000000555,-19.555764195000002,7.60222435,3.0933532499999927,-1.8652465345,1.7432488204999999,11.856427195,127.35902405000002,15.370200635,11.48261881
322,1.341613000000052,-18.44171238,7.642828226000001,3.2153549000000083,-0.9375114885000001,-1.3924353125,5.3010493515,130.43466185,-0.46190321450000005,14.95877409
323,1.3457795000000485,-17.247000695,7.800984382999999,3.2819061499999975,-2.5176913145,1.3463619945,15.042807105000001,140.85070035,15.219917295,13.153836250000001
324,1.3499460000000454,-16.03847361,7.826692103999999,3.4179306000000054,0.14885166299999997,0.22585244449999997,9.063359501499999,141.49366759999998,-2.0234075785,16.03989601
325,1.354112500000042,-14.7474885,7.9383275504999995,3.5134277500000053,-2.58704555,0.13790808650000003,10.5316629395,151.9267807,9.524222254,14.17075348
326,1.3582790000000386,-13.40492439,7.986018658,3.6502914499999974,-0.8192909655,1.4221622945,8.9416737545,157.5205612,1.249573842,16.84967041
327,1.3624455000000353,-12.00231695,8.0380346775,3.7825393499999933,-1.325632304,0.994169086,13.718153955,164.6968384,2.2830970284999994,16.275754929999998
328,1.366612000000032,-10.561591150000002,8.045405626,3.925315850000004,-0.14532061300000002,-0.910345435,12.535186764999999,169.18323514999997,-2.7985032795,16.48060703
329,1.3707785000000285,-9.077056407499999,8.033063172999999,4.07742309999999,-2.108562112,1.8362141250000001,9.810113431,174.22605900000002,-4.8437247885,16.85473919
330,1.3749450000000252,-7.581100225,8.0371813775,4.208595299999999,-2.801073551,-1.4919769765000002,9.339187382,176.00822449999998,-2.1124207975,15.144781590000001
331,1.379111500000022,-6.0485687255,8.0252771375,4.3855667000000125,0.19769129150000003,-1.2532092335,12.34067917,179.60222625,-4.2138551475,19.842085840000003
332,1.3832780000000184,-4.562659979,7.9603173735,4.500015250000004,-1.0079176425,-0.05715879800000001,7.427248001000001,175.0938492,-9.363872766,12.46375179
333,1.387444500000015,-3.0278048515,7.897852182,4.662429799999998,-0.9747556445000001,-1.477800727,10.497242927,180.16376495,-9.07799983,17.864691735
334,1.3916110000000117,-1.5150785445000001,7.872814417,4.783782950000003,-3.7062565085,-0.22344946849999997,17.07760811,178.2196808,-3.9158141614999997,13.93037558
335,1.3957775000000083,-0.028566539499999988,7.7493052485,4.941658050000001,0.299048327,-1.176822662,10.072368624,174.48251340000002,-15.42512417,17.666186330000002
336,1.399944000000005,1.46563673,7.659281254,5.046974149999997,-2.2124397755,-1.8415628675,13.46465778,176.3004761,-10.988236191,12.298873425
337,1.4041105000000016,2.93028903,7.5899419785,5.206932099999989,-0.9810540045,-0.6795576815,15.63341045,171.87781525,-7.960524081999999,18.472269060000002
338,1.4082769999999982,4.3185898065,7.4350936415,5.294738750000008,-0.3165625445,-2.4036237,9.059875251000001,163.9086838,-18.229615215000003,11.252540585
339,1.4124434999999949,5.714962244,7.272660017,5.438293450000003,-1.435418248,-3.050798893,6.0909409525000004,164.0019379,-18.303674700000002,18.031066895000002
340,1.4166099999999915,7.1109299660000005,7.1187758445,5.504638699999987,-0.1250231565,-0.3582418115,14.27468729,165.20959475,-17.81673527,9.550577164
341,1.420776499999988,8.4417653085,6.9252045155,5.614227299999996,-2.5423054695,-1.2595518234999998,17.721974850000002,156.7344208,-21.63717175,15.434802529999999
342,1.4249429999999845,9.696441651499999,6.753249884000001,5.673980749999998,-0.4810199375,-1.880697906,14.582014560000001,148.3940048,-19.605243205,9.907026766
343,1.4291094999999814,10.895468715,6.5809721945,5.7371749999999935,-2.791855514,-3.176679492,12.801704885,141.6109619,-19.3414917,10.765844823
344,1.433275999999978,12.04882765,6.3582599165,5.756500249999988,-0.002597450999999973,-2.5991882090000002,4.353749633,136.82617190000002,-26.08150196,7.2132713795
345,1.4374424999999746,13.191016675,6.1762731075,5.791648850000001,-3.8717889785,-2.195799053,15.027974605,135.20741275,-20.74396515,8.489120245
346,1.4416089999999713,14.257213595,6.009257078,5.801300050000009,0.524633616,-2.537593901,8.7459232815,126.51771545,-19.54442978,5.557767153
347,1.445775499999968,15.247631075000001,5.788926363,5.793197599999999,-1.7303669455,-2.3854947685,15.198236940000001,117.5521088,-26.165658,5.4060811995
348,1.4499419999999645,16.143516065,5.7376782895,5.823600800000008,-2.3365983365000003,-3.68332839,15.538577555,105.8301315,-5.2826167345,4.845198393
349,1.4541084999999612,16.97024727,5.4599034785,5.7901839999999964,1.5216073689999998,-2.0300825235,7.667093873000001,98.22453308499999,-33.443172455,5.3177833555
350,1.458274999999958,17.7443161,5.4413952825,5.838134750000009,-5.228782654,-3.302328944,16.86629534,91.01194000000001,-0.754338145,5.777409792
351,1.462441500000068,18.453856469999998,5.2101728915,5.803787249999999,3.181003213,-2.3680388925,8.6876963375,84.18035506999999,-28.006004335,4.4028999805
352,1.4666080000000645,19.09480953,5.1687951085,5.870513900000006,-7.3195097444999995,-2.835477352,21.791039465,74.8306427,-2.472522259,8.754078865
353,1.4707745000000614,19.608271600000002,5.0094890595,5.858207700000008,3.2371337415,-3.5555300709999997,7.6275061085,60.43239975,-18.885753635,4.6789051295
354,1.474941000000058,20.096244815,5.0185654164999995,5.930450399999998,-8.3055667875,-2.5317231415,10.258074582,56.416257855,3.6195657255,7.32373333
355,1.4791075000000546,20.514736175000003,4.9519073965,5.953376800000001,2.246922374,-3.0803949834999997,6.569932861000001,48.68037224,-6.9137011170000005,5.089418888
356,1.4832740000000513,20.891724590000003,4.992491245,6.022270199999994,-3.400907636,-2.954163313,10.213797332,43.14857483,7.1271675245,5.572540283
357,1.487440500000048,21.19647121,4.9524354934999995,6.05641940000001,1.2973538045000002,-1.8612317445,6.871956824,34.912586215000005,-3.3813078405,5.269596815
358,1.4916070000000445,21.50614452,4.9793765545,6.107109049999991,-3.4001818895,-0.8299250155,19.086475370000002,35.263927460000005,4.8777445535,4.064638615
359,1.4957735000000412,21.688274385,4.9891479015,6.174552949999992,0.8153755364999999,-2.8538285495,16.414871694,19.86088848,3.6967704315,6.811570883
360,1.499940000000038,21.853754995,5.0442545415,6.223747250000002,-4.3331062795,-2.5438258645,12.011582256499999,17.96248913,7.9818417735,2.5933014155
361,1.5041065000000344,21.97153759,5.0685379505,6.31274415,0.48085513700000004,-0.9757941065,6.839441894,11.901913165,6.3169270145,8.5271720885
362,1.508273000000031,22.08362293,5.121880293,6.348060599999997,-2.6959585544999998,-2.1060093645,6.9631284485,11.701979635,7.1699063195,1.0959180295
363,1.5124395000000277,22.18334484,5.1736326219999995,6.439758300000008,1.8442241105,-1.162082225,2.230981767,9.690546512000001,9.5240552425,7.552909851
364,1.5166060000000243,22.285802845,5.183838606,6.458961500000001,-3.6405578849999998,-0.766579926,15.590454574999999,10.716140745,1.6587462425000004,1.2543934585
365,1.520772500000021,22.327407835000002,5.2183835510000005,6.560058549999994,2.9048064350000002,-1.3183116615000001,14.356422426,2.6177499295,8.065189062,9.370727062
366,1.5249390000000176,22.394030569999998,5.162283421,6.537002549999997,-4.846514344,0.46703384849999996,8.720611572,6.8652303215,-7.6193081155,-0.415379705
367,1.5291055000000142,22.4746933,5.224554777,6.637962349999995,1.5397699475,-1.918208003,16.52625561,7.2931556705,11.156924009499999,8.032318115
368,1.5332720000000108,22.493151665,5.1196157934999995,6.601402300000004,-1.4490939975,-1.0687102080000002,8.048473833,1.263281673,-13.651648045000002,0.41359306149999997
369,1.5374385000000075,22.57059765,5.203736782,6.694000250000002,-0.8722806575,-0.7111784515,11.2260558585,6.9796123505,13.212607385,6.033345461
370,1.541605000000004,22.628882410000003,5.024814366999999,6.646057100000007,-0.4261198640000001,0.0008058250000000378,6.0742183935,6.1973927025,-22.365567205,2.666712046
371,1.5457715000000005,22.701283455000002,5.0538060665,6.703895549999999,-1.2973091305,-0.872556001,17.111606600000002,6.726862430500001,5.5194647315,4.6395454405
372,1.5499379999999974,22.766623494999997,4.992402792,6.689880349999996,-1.1627120975,-1.1231514215,4.6372962145,6.6988396644999995,-7.7863446765,1.0428452195
373,1.554104499999994,22.845116615000002,4.847181796999999,6.676818850000004,0.5394060615,0.4048547535,14.873656275,8.196698904,-17.0244984635,4.897238731
374,1.5582709999999906,22.899971004999998,4.893163204,6.714515700000007,-4.825340271,-1.8061270715000002,13.50768137,4.9064970015,6.4964300105,1.7524747845
375,1.5624374999999873,22.993657114999998,4.6684536935,6.650634749999995,5.1099284885,0.5190319865,0.004426240999999997,10.574767589,-28.167075155,3.137336373
376,1.566603999999984,23.11509037,4.6667306425,6.665191649999997,-8.8774542805,-0.716433287,18.37508726,13.057051659999999,0.15402460100000015,1.2905351815
377,1.5707704999999805,23.206591605,4.5149081945,6.640228249999993,5.8139181135,-1.3557930585,9.122722626,9.972432136,-18.28595829,4.1664254665
378,1.5749369999999772,23.314823150000002,4.444971919,6.588851949999992,-5.378920793500001,-0.6921651215,5.6165897845,12.107609275,-10.474995613,-2.708488464
379,1.579103499999974,23.428383824999997,4.317645669,6.5749359,2.0239180919999997,-0.062381049,20.79098511,12.460139275,-15.043489455,4.2026828525
380,1.5832699999999704,23.49038887,4.250381589,6.532501199999999,-4.689393163,-1.568956703,10.255715371,6.5043125150000005,-9.76346779,-1.7414865195
381,1.587436499999967,23.59548092,4.0871616605,6.481231700000009,3.670938015,0.20855182399999997,4.8907036779999995,11.7658515,-20.766685485,1.860183537
382,1.591602999999964,23.71389961,4.0326645375,6.451843299999993,-7.0424568655,-1.335255444,15.362032415,13.098623275000001,-7.7348093965,-0.9641008675000001
383,1.5957694999999603,23.798192020000002,3.8884272575,6.415199250000001,3.5988243815,-0.516999185,12.498977660000001,9.1659035685,-17.973080635000002,2.671796024
384,1.5999360000000706,23.87632465,3.8574485775,6.372802700000008,-3.84416759,-1.207591951,6.9312570095,8.373243809,-5.7882802485,-3.483869314
385,1.6041025000000673,23.951503754999997,3.7329095604999996,6.360656700000007,-1.0804385840000001,-1.520127475,16.447329995,7.8131763935,-14.609006885,4.361823558999999
386,1.608269000000064,23.989703175,3.7420787815,6.338966400000004,-2.177467942,-0.297373429,12.639123914999999,3.4390313624999997,-0.3854115010000001,-3.107378006
387,1.6124355000000605,24.02205372,3.6426416635,6.316780100000003,0.06540769350000009,-0.870100647,2.5046725125,2.7818728685,-12.339057924999999,2.1100625395
388,1.6166020000000572,24.08118057,3.6341359615,6.301345800000007,-2.565531611,-1.1234166325,10.886559485,5.8558492665,-2.02330029,-1.6361604635
389,1.620768500000054,24.106595995,3.5757466554999997,6.275268549999993,-3.4870741365,0.1269808785,13.956489564999998,1.9739995595,-8.030806303,-0.315765977
390,1.6249350000000504,24.118100165,3.6057640314999997,6.272041299999998,0.587313473,-2.123912096,5.8474993705,0.08563488699999999,2.791894246,-2.124431908
391,1.629101500000047,24.14233589,3.5887236595000003,6.258606,-3.532477498,-1.8430029155,10.572588921000001,1.719105683,-2.886128664,-0.993025437
392,1.633268000000044,24.151988985,3.6805617809999998,6.280372599999993,0.40342741049999997,1.948597908,17.79441738,-0.33532249950000004,10.78032827,-2.453101218
393,1.6374345000000403,24.13180542,3.7074534894999998,6.295776349999997,-3.070612907,-1.7267889975,11.9581155755,-3.796541691,3.346109362,0.075971834
394,1.641601000000037,24.122392655,3.777588606,6.304374700000011,3.3797501325,0.321530905,8.459929941,-2.525012851,7.7542357445,-2.8350093365
395,1.6457675000000336,24.143937110000003,3.87749958,6.342025749999991,-7.830108881,0.006098091499999986,15.146064760000002,0.9947545085,12.432088852500002,-1.1368240115
396,1.6499340000000302,24.16194916,3.9494695665000004,6.364440899999991,4.303975582,-0.9428700505,15.06766081,0.6740961755,8.631101132,-1.3789166805
397,1.6541005000000268,24.137898445,4.0398062465,6.398467999999994,-4.4866268635,-0.4855543375,9.003698349,-4.455507755,11.203822611,-1.0680754785
398,1.6582670000000235,24.14887714,4.1838582755000004,6.454277050000002,1.181802988,-0.4786013885,9.532273291,-0.49556529550000006,18.15830803,-1.3167769315
399,1.66243350000002,24.16227722,4.2674672605,6.503143300000005,-2.402725637,-1.561161399,6.9181654455,-0.07874447100000004,11.1927557015,0.9224583209999999
400,1.6666000000000165,24.14559841,4.304152727,6.5102462499999945,2.3492857785,-0.065434821,8.753471135,-3.398381591,4.0151981115,-1.371783197
401,1.6707665000000134,24.145912170000003,4.443521619,6.587966899999998,-4.877268314,-0.7302106319999999,11.027933595,-1.946989715,18.71792698,1.323398173
402,1.67493300000001,24.1517725,4.459142089,6.606697050000008,2.381776452,-0.9385496675,8.114160776,-0.7798062860000001,2.2740317585,0.9627238065000001
403,1.6790995000000066,24.128955840000003,4.493644595,6.641731249999992,-2.965663552,-0.4299064575,14.36144972,-4.365037322,5.142019220500001,1.7561504845
404,1.6832660000000033,24.071639065,4.5506161455,6.693954450000007,-0.14619985199999996,-0.6458301845,13.128746985,-8.6787056925,8.444668293,2.6134718660000003
405,1.6874325,23.994621275,4.5386487245,6.71772,1.7548639775,-2.6574862005,2.214570701,-10.718341349,-0.5083977285,2.8727903365
406,1.6915989999999965,23.96582794,4.499895573,6.706947350000007,-2.6234499215,0.9102803915,12.575520995,-4.708703637,-5.1192611305,0.3325880765
407,1.6957654999999932,23.92532635,4.4910542965,6.749191300000007,0.0036488175000000123,0.4351275415,13.628222945000001,-6.496833324500001,0.73487854,4.7743535040000005
408,1.69993199999999,23.877378465,4.4070029260000005,6.715072599999999,-0.656585239,-1.8472133575,7.901818991,-6.755000353,-11.226772310000001,0.023533001499999984
409,1.7040984999999864,23.84962368,4.3515951635,6.731765749999994,-0.16377918349999998,-0.3411860165,11.4406719205,-4.7617764475,-5.620340109000001,4.165489793
410,1.708264999999983,23.806444165000002,4.237320304,6.682258649999994,-2.751855254,0.462470606,14.85866928,-6.0579731465,-15.28517151,-0.20638676
411,1.71243149999998,23.72892189,4.1595988275,6.6960525500000045,2.1538575890000002,-1.4809080365,9.7371392245,-10.6650257115,-8.218968391,4.974528551000001
412,1.7165979999999763,23.682839395000002,4.0183944700000005,6.607574449999987,-2.0774598419999997,-0.2414544225,5.3244664665000005,-6.09786725,-20.12526512,-3.228726625
413,1.720764499999973,23.63866806,3.8636422159999997,6.608100899999997,0.6624564829999999,-0.27133022249999994,11.611127374999999,-6.561370134500001,-17.32642269,7.196897745
414,1.7249309999999696,23.579782485000003,3.7457876205,6.535842900000006,-3.6473505494999996,0.077674229,13.540628435,-7.816031455999999,-16.775638105,-2.6068253515
415,1.7290974999999662,23.55564022,3.655654311,6.564857500000002,-1.3486921955,-0.815271914,10.731968403,-4.383351326,-8.867712497500001,7.181911707
416,1.7332639999999628,23.537128449999997,3.4937406775,6.481300349999998,-2.08310014,0.539996907,14.438354969999999,-2.9090610745,-22.161868095,-1.7356854080000002
417,1.7374304999999595,23.47512913,3.4275752304999996,6.5282669000000055,-0.25561869149999994,-1.3461797835,10.862289429499999,-9.019900322,-5.3845225569999995,8.0297818185
418,1.74159700000007,23.45097351,3.326752424,6.449424750000006,-1.9274443835,-0.31762210999999996,6.1359562875,-3.6664478779999996,-15.211708545,-4.1926543715
419,1.7457635000000664,23.439263345,3.2388808730000003,6.497077950000005,-1.686234653,-1.8827021720000001,11.50643301,-2.9905133245,-7.7458992005,9.109152794
420,1.749930000000063,23.39589882,3.1579397915,6.426094049999989,0.595253587,0.905781746,10.8828692455,-6.0287079815,-12.650514600000001,-4.256740451
421,1.75409650000006,23.37297058,3.1499546765,6.494964599999989,-5.803392649,-1.1955889764999998,8.5394618515,-4.488011122,2.058404714,7.600921869
422,1.7582630000000563,23.349009515,3.084474206,6.452957150000003,1.4210671935,-0.5133463739999999,13.361748214999999,-3.9036478995,-9.570644379,-1.8301884385
423,1.762429500000053,23.30660057,3.1025389435,6.519004850000002,-5.286617994,-0.14181077450000001,10.8397941585,-6.7766561505,4.786007881,6.089759588
424,1.7665960000000496,23.290195465,3.129933715,6.517517099999992,0.7186345755,-0.14704638700000006,9.830698967,-3.269388318,2.5871785875,-1.7989899665000002
425,1.7707625000000462,23.27652359,3.1480790379999997,6.578323350000005,-5.207401514,-0.6787483095,10.74798822,-3.3003946545,4.5416603085,5.5127477645
426,1.7749290000000428,23.250894545,3.2194662095,6.610916150000008,1.9302094580000002,-0.6601135135,12.048590659999999,-4.58603704,9.045821429,-0.11171019100000001
427,1.7790955000000395,23.23319817,3.3146452905,6.671287550000002,-5.8789019585,-0.9883601364999999,7.57975626,-3.808107376,13.01235342,1.806104854
428,1.783262000000036,23.22902775,3.3616536855,6.72354885,2.219912648,0.014576911499999956,13.05263281,-2.1610985995,7.2881975175000004,3.2091563345
429,1.7874285000000325,23.193828585,3.520468831,6.7928619500000025,-4.878297805500001,-1.6119170040000002,10.503358842499999,-5.9801068310000005,20.447555545,-0.19276648800000007
430,1.7915950000000294,23.181298255,3.5873913765,6.855781550000003,1.4784442185,0.5539049805,9.5281305295,-3.283745408,9.98239374,3.415081978
431,1.795761500000026,23.164349555,3.749598861,6.9081878500000045,-4.6528542040000005,-1.871655703,11.144440172,-3.6856210229999995,20.026831625,-2.1817706155
432,1.7999280000000224,23.147291185,3.8419350385,6.998123149999998,2.4444519280000003,-0.3153793215,10.925899983499999,-4.0732277635,14.05535364,5.19144237
433,1.8040945000000197,23.117646219999997,3.989556789,7.006011950000001,-4.4712262155,-0.8367645365,11.62050104,-4.872251272,16.320715905,-6.3924176695
434,1.808261000000016,23.08841896,4.109071135500001,7.122497550000006,2.8114936349999997,-0.177283168,10.77432108,-5.8018188475,18.299879075,6.863925934000001
435,1.8124275000000125,23.054680825,4.2192956210000006,7.109428399999999,-4.2536622285,-1.4843173920000001,12.338900565,-5.188151597999999,11.21186495,-6.9444046020000005
436,1.8165940000000087,23.008321764999998,4.338050127,7.247970550000005,2.472209692,-0.291043371,11.026736255,-8.107881546,19.239821435,9.3592021485
437,1.820760500000006,22.955461505,4.4271224735,7.202446000000009,-3.5478564500000003,-1.0116933585,8.821979522500001,-7.181810379,7.366949797,-9.524783133
438,1.8249270000000024,22.90666771,4.5456668140000005,7.352195699999996,-0.0714016555,-1.6526150705,11.489411834999999,-8.573446753,19.727080344999997,10.63735342
439,1.829093499999999,22.848243715000002,4.604429245,7.290687550000001,-1.914193034,-0.3230888245,9.652463913,-7.6736934185,3.2839251459999996,-9.8637752555
440,1.8332599999999957,22.793689725,4.6855989695,7.411514299999993,-0.8006450295,-1.1539430025,12.28603983,-9.0334391585,14.23467922,9.2352404595
441,1.8374264999999923,22.726578715,4.7872821089999995,7.364807100000007,-0.8890283404999999,0.718777716,12.27604103,-8.831597805,8.7313697355,-10.213088984999999
442,1.841592999999989,22.661828045,4.843305111,7.474830650000001,-2.3216134905,-1.6275243165,14.22885084,-10.1975941635,10.937538145000001,9.241145134
443,1.8457594999999856,22.587958335,4.972014904,7.4612808000000115,0.248454362,0.9727615414999999,10.95050192,-9.9521694175,13.26658821,-7.767978907
444,1.8499259999999824,22.515916824999998,5.0094559190000005,7.523010249999999,-3.2723183635,-1.1018802825,11.475638865,-10.6217255605,6.642155647,4.773200989
445,1.8540924999999788,22.472904205,5.1708223815,7.538764950000001,-0.387756016,-0.08779546599999999,8.277486086,-6.5568487645,18.245062830000002,-6.002095461
446,1.8582589999999755,22.42710495,5.194878578,7.569457999999997,-2.8781126735,-0.47532512250000003,12.723279000000002,-7.163175583,3.7312518355,1.9636771975
447,1.862425499999972,22.39365673,5.3362400535,7.583267200000009,-0.284384411,-1.774457812,8.773076772,-5.3912343975,15.94555616,-5.2709627155
448,1.8665919999999687,22.36944294,5.377361536,7.597228999999999,-1.9808732865,1.1351713165,11.17904043,-4.396491289,4.8570477965,-0.667244408
449,1.8707584999999651,22.357227325,5.5206577775,7.621055600000005,-0.8964923325,-0.8072756975,14.101787569999999,-2.9543979169999997,16.62377119,-4.2157456875
450,1.874924999999962,22.337467195000002,5.5950267315,7.658294650000002,-1.5503823159999999,-0.6006732210000001,12.692108155,-4.1423726080000005,9.601830006499998,0.3769454955
451,1.8790914999999584,22.30937481,5.729842186,7.676727249999999,-0.9910185635,0.65402022,12.96181107,-4.7959594725,15.439112184999999,-4.4003988505
452,1.883258000000069,22.292601585,5.856239319,7.722335849999993,-3.233769655,-1.483604491,9.111468555,-3.9136765005000003,15.75780344,-1.078551531
453,1.8874245000000656,22.270730020000002,5.9581589699999995,7.722282399999997,0.29976392949999997,-0.4484508185,12.386933328000001,-3.825896144,10.9531738775,-4.925605297000001
454,1.8915910000000624,22.253211975,6.0886199475,7.762634300000002,-3.8115882875000002,-1.3071597215000001,9.874129295500001,-3.9647773505,15.971145629999999,-1.8378857370000001
455,1.8957575000000588,22.208052635,6.165201902,7.74147035,1.531328678,-0.7829799205000001,11.75614452,-6.3471825125,7.1874320505,-6.1031041145
456,1.8999240000000555,22.174082755,6.3140945434999995,7.769630399999997,-4.157405615,-1.3887072205000002,11.694309234999999,-5.795657873,17.473984715,-3.9902634619999997
457,1.904090500000052,22.10115528,6.375497341,7.771064750000008,2.179804802,-0.2288562355,12.930148605,-9.9632210745,6.5237416029999995,-2.899083614
458,1.9082570000000487,22.015081405,6.5262572765,7.775726349999999,-3.5850794315,-1.396487236,10.983339787999999,-11.743081095,16.635504245,-6.6347682475
459,1.9124235000000451,21.88277531,6.591664791,7.784339899999992,2.0244159105,-1.8004440664999999,10.669980763,-17.184391025,7.299854397,-2.256512165
460,1.916590000000042,21.74171162,6.746129036,7.75310515000001,-3.7564798594999997,-0.5349055085,11.205998898,-17.85520649,15.488065720000002,-10.710496427999999
461,1.9207565000000384,21.538093565,6.823298693,7.778488150000001,0.2231710815,-2.386916041,12.8341555615,-25.9885788,9.361906766499999,-0.8781974165
462,1.9249230000000357,21.32135582,6.9691245555000005,7.719810449999997,-3.143950403,-1.6045624615,10.9378020775,-26.522722245,13.394171716,-13.275640965000001
463,1.929089500000032,21.027640345000002,7.079848527999999,7.75495149999999,-0.701234907,-1.376755774,12.95351505,-36.960201264999995,13.5454793,-1.16387406
464,1.9332560000000285,20.709683415,7.2327828405,7.670219400000008,-3.0576062205000003,-1.7408373355000002,10.929379938,-38.240718845,13.207809927,-16.338296890000002
465,1.9374225000000247,20.31668663,7.370727539499999,7.7100982500000015,-0.5038874444999999,-2.876537323,12.528055669,-48.957935335,16.816183089,-1.5866519805000001
466,1.941589000000022,19.853533745,7.4830651285,7.592712399999996,-0.554249495,-2.0019239185,8.716806888,-55.1038208,7.5120112885,-18.12234306
467,1.9457555000000184,19.311849594999998,7.656289577500001,7.62179565000001,-1.9747981430000001,-5.061830521,10.8798055645,-66.66249084500001,20.395589349999998,-3.956174135
468,1.949922000000015,18.68654823,7.728418588499999,7.4791641000000055,0.8849226835,-0.6170817465,10.150534153999999,-74.093490605,2.3099609615,-19.23455906
469,1.9540885000000117,17.97611046,7.989779234,7.512176499999995,-6.367421627500001,-4.4639577865,17.74611664,-87.0194931,30.66504288,-6.4154539105
470,1.9582550000000083,17.169896125,8.049380779,7.367553749999999,2.4501717985,-2.0103126765,11.755171295,-95.646053315,1.274293514,-18.85723114
471,1.962421500000005,16.29673624,8.3788022995,7.387184149999996,-6.5825936795,-1.7475937005,15.412718295,-106.34856414999999,38.18689727500001,-9.4461751005
472,1.9665880000000016,15.28038168,8.422568798,7.219612099999992,5.685412168499999,-3.948053837,7.303069701499999,-120.32686995,-0.7180349824999999,-20.83213997
473,1.9707544999999984,14.225465775,8.7418704035,7.184417699999997,-8.1273305415,-3.5901875495,12.6711688025,-127.22024540000001,35.653764725,-14.16444302
474,1.9749209999999948,13.035892485,8.858838558,7.044548000000006,3.8593684435,-1.7071138325,11.5694646845,-141.48107145,9.370766295500001,-19.659923555
475,1.9790874999999915,11.83453512,9.204088211,7.000534049999999,-9.824720858500001,-0.8119721415,12.232516168,-144.600914,39.002960205,-14.404874325
476,1.983253999999988,10.51478863,9.421977996999999,6.898407000000006,4.287334561,-2.6108326909999997,12.368750336000002,-157.68223575000002,22.942821981,-17.12015104
477,1.9874204999999847,9.1953463555,9.715442657,6.817184449999999,-4.5327471495000005,-0.5906726045,7.782778742,-157.964447,32.71113777,-15.861392975000001
478,1.9915869999999811,7.794793606,9.953997614,6.742675800000001,3.0524072645,-2.1867393255,14.607416154500001,-167.85269929999998,26.64946556,-13.144514085
479,1.995753499999978,6.392512083,10.196832178000001,6.629394550000001,-2.7900124490000002,-0.078446299,5.2079656125,-167.144928,26.92565155,-17.24309778
480,1.9999199999999746,4.9492123125,10.4769024865,6.549049400000001,-3.14570725,-0.416352883,16.403526785,-172.79856105,32.150956155,-13.023644449999999
481,2.0040864999999717,3.5072891715,10.796840190000001,6.421882650000001,-1.635622561,0.3851962985,11.553971288500001,-171.3794327,36.808050155000004,-18.544177060000003
482,2.008252999999968,2.062308848,11.054931165,6.307464600000003,-3.1040071845000003,-0.1216687335,13.69321442,-172.132637,29.92325592,-15.259734635000001
483,2.0124194999999645,0.611667637,11.39380503,6.164344800000009,0.89546014,0.06464491049999999,9.6566843985,-171.8842773,39.900579455,-18.514572145000002
484,2.016585999999961,-0.857566282,11.60877323,5.991027799999998,-0.7047009025,-0.537879869,9.7810988435,-173.501976,25.48583794,-20.642669679999997
485,2.020752499999958,-2.3252766725000003,11.93964291,5.834686300000001,-0.167544432,0.014280915499999991,10.491042136999999,-173.4455795,39.86926079,-18.004087445000003
486,2.024919000000068,-3.7671095130000003,12.100228309999999,5.6386871499999955,-1.8387417194999998,1.361251354,9.881906988499999,-169.46388245,20.11398697,-22.30900574
487,2.0290855000000647,-5.225884199,12.421060090000001,5.442260750000003,-1.8721677665,-0.23395490649999995,16.07873964,-171.26626585,39.860340120000004,-20.374703404999998
488,2.0332520000000613,-6.6574614045,12.59153366,5.234016449999999,-1.4412285685000001,1.65173633,9.3884687405,-167.71593475,22.51326084,-22.50026226
489,2.037418500000058,-8.104196787,12.86218834,5.01026155000001,-1.2107223425,-1.2983571295,11.96468878,-168.9499283,35.243012425,-22.080623625
490,2.0415850000000546,-9.5158801085,12.979634765,4.802513099999999,1.4361423850000001,0.16977962850000003,3.289168,-165.1657181,17.29039669,-22.183231355
491,2.0457515000000517,-10.888362885,13.14656544,4.554855349999997,-0.08229681849999998,1.0696870535,12.5690550795,-159.3335953,24.437973024999998,-24.827948569999997
492,2.049918000000048,-12.196829795,13.1966877,4.371284499999987,-1.5100414005,2.6586860420000002,7.430879354,-153.3359909,9.833602666,-20.166220665
493,2.0540845000000445,-13.512036325,13.371363165,4.1186599500000085,-0.9334828555,0.185342856,16.41650057,-152.23133085,26.561984065,-23.94115448
494,2.058251000000041,-14.768454075000001,13.39314747,3.9443206999999916,-2.218452096,1.9104877710000001,8.720338584,-147.26895145,7.158113956499999,-19.446743965
495,2.062417500000038,-15.996242044999999,13.50018692,3.702827450000001,0.1829508245,1.3123909235,11.79045153,-142.0057373,19.363554479999998,-23.471567155
496,2.0665840000000344,-17.148656844999998,13.50139141,3.5470275999999927,-0.9746630489999999,1.47687909,10.718089105,-135.26646425,4.9741740225,-17.714212420000003
497,2.070750500000031,-18.286598205,13.497311114999999,3.346023549999998,1.1961874365,1.3203650115,11.68024874,-132.37957,6.1034417439999995,-22.041528704999998
498,2.0749170000000277,-19.319754605,13.401786805,3.2177581999999916,-0.27079675699999994,2.5668833255,6.4977498055,-121.7384529,-6.3729965685,-18.197723385
499,2.0790835000000243,-20.30368519,13.33314085,3.048385600000003,0.1418740675,0.9496512115,10.0388064365,-114.86389925,-1.6903108955,-20.83759785
500,2.083250000000021,-21.167868615,13.173346995,2.9486922999999905,-0.44158944499999997,3.9288682935,9.1112098695,-102.2967682,-14.154319285,-18.016330715
501,2.0874165000000175,-21.995290755,13.040512085,2.8111114499999985,-0.539083302,1.364742756,12.290406225,-97.04761887,-9.592884066,-20.226892475
502,2.091583000000014,-22.70549393,12.83456612,2.7525481999999926,-1.2293215245,1.533079922,6.8183150295,-84.987766265,-20.594347,-16.06871605
503,2.095749500000011,-23.369023325,12.632472035,2.659294149999994,0.4479949175,2.7034537795,11.409101490000001,-78.54412460500001,-18.564873695000003,-19.415297504999998
504,2.0999160000000074,-23.929526324999998,12.389768125,2.6130904999999984,-2.506463766,1.0703893899999999,8.4552166465,-67.39280700500001,-24.848678585000002,-16.97585106
505,2.104082500000004,-24.436094285,12.135082245,2.5639342999999997,0.6728062035,1.8057031035,12.496317865,-60.9373188,-26.065202714999998,-17.607616425
506,2.1082490000000007,-24.85125065,11.878598215,2.542533899999995,-3.512491822,2.2644916775,9.7468109155,-50.616113665,-27.268513679999998,-15.46150541
507,2.1124154999999973,-25.219764705,11.599377154999999,2.518486049999993,1.3146244290000002,0.9039737585,9.589886191,-45.057331085,-29.75948238,-16.47749138
508,2.116581999999994,-25.503066060000002,11.351338865,2.501663250000007,-3.7281464335,1.808121562,11.549034121,-34.923934935000005,-26.390408514999997,-14.88590717
509,2.1207484999999906,-25.76344013,11.055324555,2.502975449999994,1.4377171995,0.9999361335,11.132336615,-32.70154476,-32.702788354999996,-14.94423485
510,2.1249149999999877,-25.933981895000002,10.803322314999999,2.509208700000002,-4.0918256045,1.140627861,8.8462626915,-21.93270397,-27.877096180000002,-12.877880574999999
511,2.129081499999984,-26.074608805,10.52668619,2.5224456999999916,1.579748452,1.4195235965,10.0371887695,-18.592885015,-31.131801605,-12.877675535
512,2.1332479999999805,-26.15208054,10.29614973,2.5313950000000034,-4.5694339280000005,1.2965580225,11.4543743155,-10.81673336,-25.64800167,-11.59029722
513,2.137414499999977,-26.22364235,10.0487709025,2.5532227000000063,1.4392443895,-0.3619318305,12.3618154515,-10.469955443,-28.379366875,-10.525833129999999
514,2.141580999999974,-26.24478245,9.832555771,2.573867800000002,-4.7940235135,1.621059179,10.467228652500001,-4.289298414999999,-24.693930625,-9.6452507955
515,2.1457474999999704,-26.271409034999998,9.628288745999999,2.5915985500000005,0.7730570735,-0.719872445,9.2779538645,-4.9764903785,-23.520207405,-8.696255684
516,2.149913999999967,-26.2476511,9.4410586355,2.604171750000006,-3.4174529314999997,0.2617350705,12.079701905,1.2755894065,-21.152912139999998,-8.9606451985
517,2.1540804999999636,-26.25168705,9.261179924,2.628173799999999,-0.1927132255,-0.210339345,12.69919252,-2.3725326655,-21.22306919,-6.7438976765
518,2.1582469999999603,-26.22533417,9.079941749500001,2.647087099999993,-2.6842705015,0.1441886205,11.005281448,1.4753292795,-20.843362810000002,-7.9498808385
519,2.1624135000000706,-26.215707775,8.961786747,2.664909350000002,-1.400455773,-0.31577667800000003,10.352671147999999,-0.6019218415,-14.262956145,-4.125531673499999
520,2.1665800000000677,-26.1877079,8.785973549,2.6693725500000056,-0.992370516,-0.21115552599999998,8.9994676105,1.9514469504999998,-19.509819985,-9.1684145925
521,2.170746500000064,-26.15562153,8.7195677755,2.676078799999999,-2.5991398095,-0.7403647305000001,13.547364235,2.3214695450000002,-8.0642712115,-2.6628303525
522,2.1749130000000605,-26.133105280000002,8.555246830000002,2.6932907500000027,-0.6719447375,-0.860952556,9.302865983,1.064290931,-18.945997235,-7.17361474
523,2.179079500000057,-26.104691504999998,8.5394854545,2.6844177499999944,-2.96995759,-0.486110732,12.781867025,2.1653249265,-1.786215007,-1.6923068165
524,2.183246000000054,-26.120772365,8.396861076,2.6884689500000007,0.6247527155,-1.1063756345,8.3349896675,-3.3294157985,-15.925116065000001,-7.3986086845
525,2.1874125000000504,-26.10704613,8.373447895,2.6841507000000036,-3.901190877,-0.3419785495,13.388779165,0.3259667605,-2.822426677,-1.6676020025
526,2.191579000000047,-26.153521535,8.307996749499999,2.6671448000000026,-0.10198188899999999,-1.6996239425000002,12.5979976655,-6.6095108985,-6.510640620499999,-5.5641682145
527,2.1957455000000436,-26.173068045,8.252079487,2.688629149999997,-2.8921095135,-0.5624190275000001,9.405763386,-4.1086261275,-7.6485785245,-0.6966688785
528,2.1999120000000403,-26.21521759,8.241439819499998,2.642623900000004,-1.1532103715000002,-0.32427147,15.137268065,-5.594763755500001,0.9178800585,-5.763753891
529,2.204078500000037,-26.274600985,8.183941841500001,2.6695099000000084,-3.3444234135,-1.0094322565,8.5904870035,-8.978020191,-8.086401462,-0.23449192200000002
530,2.2082450000000335,-26.339474674999998,8.2208762165,2.609909049999999,0.22249236700000002,-0.9115935414999999,15.119037630000001,-8.094150066000001,6.761249186500001,-4.673214912500001
531,2.21241150000003,-26.42579937,8.1526227,2.6429595999999975,-2.012387395,-0.9673973025,10.9610390685,-12.315799715,-9.553201675,-0.18271279350000003
532,2.216578000000027,-26.533896445,8.2000222205,2.6022720499999963,-0.9739601015,-1.7456640005000001,8.9289445895,-13.606066225,6.8947899345,-2.1244196295
533,2.2207445000000234,-26.633888245,8.15247488,2.628479000000013,-0.260894835,0.169067994,9.9199697995,-13.839258675,-6.959158659,0.18830951299999998
534,2.22491100000002,-26.73972797,8.1858353615,2.585060100000007,-2.7413290139999997,0.2071889785,12.790908335000001,-13.28568363,5.5437148205,-3.1831841465
535,2.2290775000000167,-26.865089415,8.16951561,2.5948867500000006,-2.523406029,-1.727363944,11.9952149415,-16.60393095,-2.7154488565,0.09968423849999997
536,2.2332440000000133,-26.97031498,8.213499069,2.5634841999999907,-1.1757423880000002,0.30933424849999996,10.305472609999999,-13.41707182,6.0403881685,-1.3076325355
537,2.23741050000001,-27.10950947,8.222931862,2.5359954999999985,-1.7290722130000002,-0.965537995,10.3630507015,-17.62837505,2.0499266384999997,-2.4562522175
538,2.2415770000000066,-27.210767750000002,8.228641987,2.5276489000000026,-0.31646196800000004,-0.5680514985,7.3576869965,-13.333261965,0.7099691629999998,-0.928093582
539,2.2457435000000032,-27.31813049,8.297957420500001,2.484458950000004,-2.383905232,-0.7167393865,13.246136665,-13.532476424999999,9.309046746,-0.834242955
540,2.24991,-27.43174744,8.2707977295,2.487037650000005,-0.128733993,0.404074691,6.892553568,-15.00598621,-3.3866699600000003,-1.591092527
541,2.2540764999999965,-27.527049065,8.359928131,2.4266509999999926,-3.295369625,-1.9871837495,10.922442437,-11.784971235,12.364852425,-1.5531706215
542,2.258242999999993,-27.622659685000002,8.3594169615,2.438728349999991,0.47417282699999996,0.542203903,12.2534976,-13.010240555,-1.07128359,0.9024025055
543,2.26240949999999,-27.741104125,8.437471866500001,2.3757018999999957,-3.98796916,-0.9852231445,14.00006771,-14.506806375,11.344932555,-2.431355119
544,2.2665759999999864,-27.839261055,8.4455571175,2.39795685,1.149019629,-0.8604548575,10.2549982055,-13.499946115,-0.7251586909999999,2.5040735004999997
545,2.270742499999983,-27.943288799999998,8.521621704000001,2.3385696499999966,-4.4129798415,-0.78875497,9.666559219,-12.82916069,10.9392397415,-2.1643135549999997
546,2.2749089999999796,-28.059814455,8.535899162,2.3453369000000066,2.998345256,-1.392283112,8.4432233555,-15.43306732,0.7832510474999999,1.247234285
547,2.2790754999999763,-28.15615368,8.559458256,2.2972106999999937,-4.172647357,0.20100888249999999,11.808661459,-12.103509899999999,4.7570578455,-3.9168909785
548,2.283241999999973,-28.28985119,8.660964489,2.2738571499999978,-0.9058062135,-1.2880788745,11.916834352,-16.954299925,11.6952979545,3.028064728
549,2.2874084999999695,-28.392686845,8.6332449915,2.258407599999998,-1.223358661,-0.154408999,9.1402449605,-13.464099404999999,-2.480547264,-3.380093336
550,2.291574999999966,-28.49320793,8.767194271,2.2083511499999986,-2.595542431,0.3687999695,12.483854768,-12.483716965,16.614845275,2.1019945140000003
551,2.295741499999963,-28.602477075,8.715248585000001,2.205734249999992,0.004592954999999899,-1.4445491135,5.8668617905,-14.471009250000002,-5.746042966999999,-3.4003287555
552,2.2999079999999594,-28.674944875,8.8222227095,2.168632500000001,-2.735740185,-0.156118896,14.474667551500001,-9.3443956375,13.025815488,1.9182634950000002
553,2.30407450000007,-28.78129673,8.801370144,2.146362300000007,1.0931235255,-0.68382138,9.410023930000001,-13.762839795000001,-1.3468163014999996,-3.6228654385
554,2.3082410000000664,-28.848257065,8.792559147,2.1724471999999935,-2.6986471415,-0.5639720930000001,8.848251342,-9.8422451025,-2.7615156174999997,1.8166128995
555,2.312407500000063,-28.925217625000002,8.8527584075,2.123237599999996,-0.6092903985,-0.229536813,9.669179915499999,-9.7410950645,8.721007824,-1.7906402350000001
556,2.3165740000000596,-28.983693119999998,8.7763133045,2.1725844999999993,0.21819505100000003,-0.982980937,8.651800035499999,-9.252720592500001,-11.2036294955,0.3820811755
557,2.3207405000000563,-29.032182695,8.786978245,2.145378149999999,-3.164355278,-0.0048601105000000006,14.097428798,-6.732100487,2.262127638,-2.4408705235
558,2.324907000000053,-29.082185745,8.7841653825,2.141136149999994,-2.0013589265,-1.102163762,12.174000265,-7.251761913499999,-0.39131522200000024,-0.8910809235
559,2.3290735000000495,-29.132273675,8.725098133,2.1588745500000073,-0.6424347195,-0.430950195,10.576504229000001,-7.751047611,-7.6386134645,-1.8165233729999999
560,2.333240000000046,-29.167695045000002,8.7387480735,2.139961249999999,-2.951856375,-0.945396751,10.613165619,-5.2333343029999995,2.1801172495000003,-1.4983688595
561,2.337406500000043,-29.185233115,8.688434600499999,2.1437224999999955,0.826882586,-0.7383681125,10.5449583505,-3.5914233925,-5.913776994,-2.7027757165
562,2.3415730000000394,-29.219590185,8.634558201,2.1647033499999964,-3.202468276,-0.855840923,10.507535455,-5.829583167999999,-7.201058743,-1.3408797085
563,2.345739500000036,-29.242609975,8.6537008285,2.139747600000007,0.0834536555,-0.5698899179999999,15.186685085,-3.7352471355,3.020456135,-1.6311785285
564,2.3499060000000327,-29.297637935,8.5951681135,2.160140999999996,-1.755993426,-1.145823076,8.4105172165,-8.2992691995,-7.649436712,-1.6321650445
565,2.3540725000000293,-29.305924415,8.5839004515,2.1738433499999985,-1.6900972725,-0.18223623,9.6287999155,-2.6639314890000003,-2.4004700485,0.5480037185
566,2.358239000000026,-29.31562519,8.5877308845,2.162567150000001,-2.2544275525,-0.455752164,9.8474407175,-2.288862407,0.7126904205,-1.275793791
567,2.3624055000000226,-29.31589317,8.556849956499999,2.1861114499999985,1.227424204,-1.0696359874999999,11.00389743,-1.885105506,-5.0314816835,0.48590204849999996
568,2.366572000000019,-29.331763265,8.4973011015,2.1962204000000014,-3.473700166,-0.7142929844999999,11.96125698,-3.409075737,-7.160101293,-2.8286952975
569,2.370738500000016,-29.333215715,8.533321380499999,2.1919479000000024,-1.8001756075,-0.6953653395,13.229176525,-1.532935232,3.591961026,1.509485364
570,2.3749050000000125,-29.361147879999997,8.4841656685,2.1990890499999978,-0.9642246959999999,-1.043206513,9.72379589,-4.8062167165,-5.9029674530000005,-2.466228366
571,2.379071500000009,-29.360596655000002,8.460621834,2.2302932999999996,-1.9396685960000002,-1.1860618,9.915696621999999,-1.9208756089999999,-4.7072433235,1.6530658599999999
572,2.383238000000006,-29.368360515,8.458185196,2.210708600000004,-1.5023825465,-0.049854165,12.851067539999999,-1.914471686,0.5372262600000001,-2.4809947015000002
573,2.3874045000000024,-29.391052244999997,8.407447338,2.2464218000000074,-0.588063324,-2.0403028725,6.288174987,-4.795305729,-7.818605659999999,0.577383369
574,2.391570999999999,-29.40686989,8.3977389335,2.2369156000000032,-1.707417846,-0.4809540805,13.325015545,-3.0578148365000004,-0.8123358490000001,-1.922937572
575,2.3957374999999956,-29.43166542,8.3912172315,2.238647450000002,-1.2729597095,-0.7921884655,11.32411814,-4.4497429135,-1.215452999,-0.3412392365
576,2.3999039999999923,-29.45005226,8.36446476,2.250762949999995,-1.1829724609999999,-1.109434068,10.242116692,-3.745275021,-3.8484488725,-0.6422641124999999
577,2.404070499999989,-29.458432199999997,8.358279705,2.264442450000004,-3.1715310815,-0.8206423355,8.666663885,-2.691428423,-1.8832157850000002,0.857897565
578,2.4082369999999855,-29.442446705000002,8.391510010000001,2.2406463499999916,-0.278806627,-0.27794829,12.35163498,1.007266972,4.512113929,-0.806028724
579,2.412403499999982,-29.460988045,8.339951992500001,2.2611923500000017,-1.5571388005,-1.9460340139999999,9.8934416785,-4.038929939,-7.034885645,-1.0450992585
580,2.416569999999979,-29.45637989,8.365608691999999,2.247238150000001,-2.9480181930000002,-0.3139970375,14.173775195000001,-0.529574305,3.1499813795,-0.292245619
581,2.4207364999999754,-29.475442885,8.410110473500001,2.2157287499999967,-2.2785576585,-0.9757795930000001,12.180391310000001,-3.19467175,6.033561945000001,-0.7385353445
582,2.424902999999972,-29.490465165,8.388844967,2.2109908999999988,-0.1935700775,-1.286933243,11.317143919,-3.046826005,-2.290879339,-2.0455016495000002
583,2.4290694999999687,-29.500995635000002,8.4232444765,2.1780166500000036,-3.4498866795,-0.502857983,11.222044469,-2.1476640104999998,5.0557891725,-1.529221058
584,2.4332359999999653,-29.501870155,8.4610638615,2.1443557500000026,0.41591182350000006,-1.3583818525,9.546665669500001,-0.8397945164999999,5.569342852,-1.535278976
585,2.437402499999962,-29.509963990000003,8.44662714,2.1467971999999946,-0.7983114720000001,-1.224172741,7.837767841,-2.482915759,-2.118079305,-0.7009206265
586,2.4415689999999586,-29.50680542,8.452074051,2.1258849999999967,-1.0872654615,-0.7110787335,12.359372615000002,-0.577364091,1.4414476755,-2.1956906915
587,2.445735500000069,-29.499018669999998,8.4923539165,2.0947036999999966,-2.281507015,-0.396872625,12.931362155,0.014619325499999999,5.5576872825,-0.9206653385
588,2.4499020000000655,-29.518122675,8.4757585525,2.0999603000000064,-1.363924995,-2.0420240759999997,8.9171054385,-3.713718176,-2.3867088555000002,-0.758616805
589,2.454068500000062,-29.511465074999997,8.536379814,2.0706176999999997,-2.881087303,-0.3132006305,12.540417671,-0.15554887049999994,7.557749508500001,0.452834077
590,2.458235000000059,-29.523552895,8.5635857585,2.0513000499999947,-0.30197206849999997,-0.997527152,9.052215576,-2.4336082935,3.6237227325,-0.6897144614999999
591,2.4624015000000554,-29.520902630000002,8.5525798795,2.0568694999999906,-1.0493071079999998,-1.0336648525,9.163724898,-1.265458427,-1.9704773425000002,-0.11770382550000001
592,2.466568000000052,-29.531599045,8.579307556,2.0433273499999984,-2.009609997,-1.2820951345,10.066068173,-2.3671011925,3.2354047375,-0.1791331615
593,2.4707345000000487,-29.534241675,8.6063899995,2.010505649999999,-0.6558959744999999,-2.0413386225,12.443710805,-1.217342056,4.2327783105,-1.7842876914999999
594,2.4749010000000453,-29.57748222,8.579677581999999,2.0240936499999975,-1.1869289129999998,-0.9209125039999999,8.347464325499999,-6.761825323,-3.928378701,-0.501577988
595,2.479067500000042,-29.593937875,8.601788520500001,2.003456099999994,-2.879713416,-0.882291943,11.095015050499999,-3.0958644150000003,2.9911986584999997,-0.861611575
596,2.4832340000000386,-29.621444699999998,8.6471562385,1.9752883999999966,-1.3071916104999999,-1.0033791065,10.63775873,-4.121394992,6.0366740225,-0.531188056
597,2.487400500000035,-29.647452355,8.606699466999999,1.9786224500000031,-0.303239316,-0.532151401,11.6554822915,-4.6829229595,-4.9642311335,-2.0088093285
598,2.491567000000032,-29.6798048,8.615396499500001,1.9567642000000092,-2.9026601315000002,-1.08216092,12.624995235,-4.8165650365,1.8451530335000002,-2.099842131
599,2.4957335000000285,-29.69726181,8.631694794000001,1.93359375,-1.2686282695,-1.3925768435,12.42453432,-3.1915976405000004,2.4879491775,-1.3277394775
600,2.499900000000025,-29.734052660000003,8.6045393945,1.9323349000000007,-0.525371589,-1.0279481115,8.588956116,-5.7202227115,-3.100181103,-2.058180869
601,2.504066500000022,-29.746219635,8.5745282175,1.936935450000007,-1.0692383349999999,-0.6007380785,11.205080030000001,-3.0536777969999997,-3.9715640545,-1.256160438
602,2.5082330000000184,-29.76291466,8.5690865515,1.9209976500000039,-1.757166386,-1.025505066,9.040889263,-3.045391917,0.028156429499999996,-2.3006450535
603,2.512399500000015,-29.779467580000002,8.523063183,1.930351250000001,-0.965391502,-1.5576720235,10.198164226,-3.680317402,-5.9547075035,-1.6171163325
604,2.5165660000000116,-29.81045151,8.482907772,1.9386749499999922,-1.7388944625,-0.7342939675,10.361383914000001,-5.193581104,-5.016804278,-1.8956583734999999
605,2.5207325000000083,-29.818778995000002,8.471040249000001,1.916770900000003,-2.280213594,-1.5878651145,13.07890844,-2.149008453,-0.5924571455000001,-2.753107309
606,2.524899000000005,-29.842178345,8.412979126,1.92579649999999,-0.49175776550000005,-0.3595747425,11.584153175,-4.2943674325000005,-6.921837806999999,-2.84594655
607,2.5290655000000015,-29.851938245,8.348120689,1.933860800000005,-2.0706852675,-1.254503965,9.041413069,-2.8482135535,-7.87117815,-2.8382749560000002
608,2.533231999999998,-29.857634545,8.301305771,1.9409637500000088,-1.234214604,-1.6879394054999999,8.621396064999999,-2.1339989305,-5.639115094999999,-2.4138602020000004
609,2.537398499999995,-29.850317,8.251037121,1.9303741500000058,-0.075195854,-0.6184386315,11.169873239,-0.4723457695,-5.2479991915,-3.871924758
610,2.5415649999999914,-29.86840248,8.1368889805,1.9714737000000042,-0.9272375255,-1.4338124395,9.087286472999999,-4.19876349,-14.655622480000002,-2.933701396
611,2.545731499999988,-29.860540389999997,8.083360195000001,1.96707155,-3.0189890860000004,-1.4763805865,13.956006525,-0.515153438,-5.951313734499999,-3.4760307069999996
612,2.5498979999999847,-29.861399650000003,8.035857439499999,1.979850749999997,-1.7181254625,-0.54177767,12.430934905,-1.6444212195,-6.0465226175,-1.8654848935000001
613,2.5540644999999813,-29.864583965,7.9730799195,1.9737625000000065,-1.124068439,-1.5080349444999999,12.674799445,-1.8166513145,-6.8212246895,-4.141104579
614,2.558230999999978,-29.86416912,7.8601863385,2.017997699999995,-1.32674396,-1.8185546395,7.882112503,-2.007925749,-14.71015501,-2.5280230045
615,2.5623974999999746,-29.83459091,7.8069550995,2.0087509000000097,-2.024004817,0.063924249,12.164437294999999,2.168949366,-5.6440839765,-3.9372153285000002
616,2.566563999999971,-29.8284235,7.7005853655,2.0498046999999957,0.6518538295,-2.6239814755,8.183539866,-1.2527669670000001,-13.846431254999999,-2.4283709525
617,2.570730499999968,-29.817634585,7.579713583,2.0698395000000005,-0.6857194455,-1.4000675084999998,11.841860295,-0.5544457885,-14.414439205,-4.9465193745
618,2.5748969999999645,-29.833629610000003,7.4473996165,2.1124190999999968,-2.649941921,-0.7045332860000001,10.876035215,-3.913727641,-16.634796145000003,-3.8577479125
619,2.579063499999961,-29.834720609999998,7.3809337615,2.110290550000002,-2.7881999019999997,-1.845181346,13.74227524,-1.627682209,-7.439513444999999,-3.992426753
620,2.583229999999958,-29.858120915,7.2561900615,2.1408691500000003,-0.852277249,-1.6701821685,9.1468019465,-4.603762984,-15.13841391,-4.5927615164999995
621,2.587396500000068,-29.864039419999997,7.115743398499999,2.1736831500000022,-0.4650779555,-1.098430365,8.556782245,-2.7294533254999997,-17.216033935,-4.7935385705
622,2.5915630000000647,-29.88045025,6.956486225,2.215126049999995,-1.6801311970000001,-1.3666023315,9.156640529499999,-3.9050837755,-19.37330723,-5.5807802675
623,2.5957295000000613,-29.883641240000003,6.8255090715,2.242805500000003,-0.7070415615,-1.2710477115,10.429521560000001,-2.3022461535,-15.912743090000001,-4.776850700500001
624,2.599896000000058,-29.911008834999997,6.655157566,2.2942428500000034,-2.16668731,-2.1188437345,10.5233955375,-5.336625575999999,-21.118279455,-5.208759546
625,2.6040625000000546,-29.929179195000003,6.5259866715,2.335571299999998,-2.2317209245000003,-0.705933213,16.12005854,-4.265654564,-16.535568235,-3.2918139695
626,2.608229000000051,-29.972289085,6.395619154,2.3592147500000067,-1.9476097819999998,-1.0307607055,12.821283815000001,-6.8209056855,-15.306980135,-5.696504831
627,2.612395500000048,-30.00741386,6.2632832525,2.408561699999993,-1.144679606,-2.1868845224999998,9.499775647,-6.3866689205,-17.335389135,-2.6063519714999996
628,2.6165620000000445,-30.053216935000002,6.100109338999999,2.4639358499999986,-1.6921751795,-1.698740542,7.5694494245,-7.5379650595,-20.602883339999998,-4.451692104499999
629,2.620728500000041,-30.077446934999998,6.019155979,2.481300349999998,-1.607140422,-0.719484687,12.63322449,-4.6409540175,-10.091176985,-2.8777209519999998
630,2.624895000000038,-30.12727451,5.852727175,2.523551949999998,-0.47648015599999993,-1.4082686305,7.543597698,-7.8330409525,-20.152967455,-5.9642510415
631,2.6290615000000344,-30.15108585,5.72401762,2.565505999999999,-3.6458399295,-1.7489720585,12.28660107,-4.873865128,-16.509953975000002,-3.2616152759999997
632,2.633228000000031,-30.198723795,5.648128271499999,2.573204000000004,-1.4211820665,-0.8497156945,13.136566640000002,-7.1350507735,-8.684366703,-4.123046875
633,2.6373945000000276,-30.249682425000003,5.523693562,2.596061699999993,-0.7099603415,-1.7696798445,7.287592051,-7.8920049665,-14.9089899055,-4.921008587
634,2.6415610000000243,-30.30257702,5.392181635,2.6406326000000035,-1.8626912235,-1.6315474509999999,8.2997186185,-8.1830091475,-16.65629196,-3.733827233
635,2.645727500000021,-30.323649404999998,5.3341181275,2.637748700000003,-2.7345477340000004,-0.5489598735000001,10.5348224645,-4.000764608,-6.4968845845,-3.626886487
636,2.6498940000000175,-30.362558364999998,5.246169567500001,2.653526299999996,-0.2772120685,-1.7088108659999999,10.2284679415,-6.1718657015,-10.406385421500001,-4.0114457605
637,2.654060500000014,-30.392391205,5.149538517,2.6732406499999968,-3.4911488295,-1.243911952,13.111411095000001,-5.2971012595,-11.836084365,-3.6761301755
638,2.6582270000000108,-30.41215515,5.1403250695,2.6458816499999926,-2.848083138,-0.6548045055,14.68778133,-3.4036706685,0.3532394765000001,-3.726371765
639,2.6623935000000074,-30.457160950000002,5.088932514,2.6537704500000103,-0.7751101255,-1.963023961,9.3240716435,-6.991778373500001,-6.4391770895,-2.064213157
640,2.666560000000004,-30.48046875,5.038677454,2.669616700000006,-1.3778367790000001,-1.1702329215,8.488579273,-4.2926769255,-6.508372902,-1.8029093145000001
641,2.6707265000000007,-30.48375797,5.056626558,2.647270199999994,-1.738230169,-0.23369254750000001,9.344013214,-1.6605963854999999,2.566904843,-1.020842463
642,2.6748929999999973,-30.456009865,5.005386114,2.682792649999996,-0.2232895345,-0.03180315349999999,7.7955632195,1.6296801865000001,-7.800725936999999,0.222190693
643,2.679059499999994,-30.37463856,5.0012717245000005,2.6754531999999926,-4.5611468555000005,-0.287058964,12.07979536,8.3400201795,-0.6300269364999997,-0.8593320025
644,2.6832259999999906,-30.27070427,5.0483915805,2.675033600000006,-0.2985715269999999,0.1891696455,12.85014248,11.1489048,4.553917289,2.5027287005
645,2.687392499999987,-30.135419849999998,4.9923877715,2.694427449999992,-1.109585285,-0.5045425295,7.2048454269999995,14.527141095000001,-7.624628782,-1.1638085545
646,2.691558999999984,-29.938076975,5.022725105499999,2.7153701499999983,-1.5291129350000001,0.007701918500000002,7.5281136019999995,22.13723946,1.549015403,3.613696456
647,2.6957254999999805,-29.6796751,5.00040102,2.7261734000000075,-0.09839497499999997,0.12060908249999999,8.6557347795,29.39389515,-3.606237233,0.02157360300000001
648,2.699891999999977,-29.37125969,4.931005001,2.7982635500000015,-0.9970206915,0.45198504650000004,7.543856143999999,34.94004631,-11.841168642,2.9952168465
649,2.7040584999999737,-28.994874955,4.968996048,2.7795486499999953,-2.7453161479999997,-0.02024989549999999,14.47882557,43.86131477,4.4343693255,0.4467642155
650,2.7082249999999704,-28.569721225000002,4.8637742995,2.8716202000000095,0.39765822149999996,0.559987426,7.9547159665,48.748775485,-16.714362620000003,3.274684906
651,2.712391499999967,-28.069082260000002,4.8252339365,2.8920287999999914,-3.08318913,0.8171354534999999,9.380242585,58.376794815,-5.8587430695,0.048840068499999986
652,2.7165579999999636,-27.50413036,4.7838852405,2.9472656000000086,-0.038829267,-0.8647535445,11.275466918,65.91514587500001,-7.816060306,3.2509202955000003
653,2.7207244999999602,-26.889925005000002,4.6317455765,3.0243454000000014,-1.330175221,1.5672578810000002,8.8060536385,71.455287935,-21.066980365,-0.012595881000000003
654,2.7248910000000706,-26.225079535,4.6337320805,3.0577698000000026,-3.1391843560000003,-0.902414322,14.758099080000001,78.138771055,-1.918209478,3.339409709
655,2.729057500000067,-25.500886915,4.488211155,3.145217900000006,0.7304731905,0.5642120239999999,8.7495510585,84.57746506000001,-20.87569046,1.9847834705
656,2.733224000000064,-24.703248975,4.415570259,3.2143860000000046,-3.0210399629999998,1.2839676735,7.5979588035,93.759250645,-11.748496530499999,3.4035054445000004
657,2.7373905000000605,-23.8359375,4.3259112835,3.290145850000002,0.19448360050000002,-0.479671195,10.066939828999999,101.89527129999999,-14.11869764,4.0460495949999995
658,2.741557000000057,-22.90430546,4.2102515695000005,3.39326475,-1.9522295895,0.8215167225000001,9.433847427,109.56241605,-17.977933405,5.4463117125
659,2.7457235000000537,-21.929587365,4.1789391039999995,3.4561233499999986,-2.7274657485,0.5424503685000001,13.77164364,114.93323135,-6.903103828500001,5.6647949220000005
660,2.7498900000000503,-20.893994335,4.0802073475,3.566802999999993,-0.8045463115,-0.4611943665,9.099501133,122.00111390000001,-16.21092844,7.675689459
661,2.754056500000047,-19.792292595,4.0181974175,3.6538315000000097,-2.0122852925,1.675147891,8.0027029515,129.99475095,-11.12282777,7.270734787
662,2.7582230000000436,-18.620987890000002,3.967340708,3.7458572500000002,-2.0608747005,0.9669723804999999,11.40180016,138.47615815,-9.732039452999999,8.062231302499999
663,2.7623895000000402,-17.414561275,3.8862200975,3.8571548500000006,-1.6337987185,-0.8973927500000001,9.0671873075,142.42095185,-13.731402395,9.2855205535
664,2.766556000000037,-16.13724661,3.8695931435,3.948371899999998,-1.189743787,1.2784839275,11.808515074999999,151.2286224,-5.4082484245,9.534502983
665,2.7707225000000335,-14.844221115,3.7884700295,4.054100050000002,-0.790394597,-0.141941816,5.543365121,152.86221310000002,-13.20805168,9.5600214005
666,2.77488900000003,-13.464373590000001,3.79254961,4.140037500000005,-3.0961214305,-0.6552325784999999,11.885932919999998,163.59432220000002,-2.3840696814999998,9.724776266500001
667,2.7790555000000268,-12.077109335,3.7779109475,4.248832699999994,-2.061298251,1.0627850595,11.854909422,164.17986295,-4.9451766015,11.957318310000002
668,2.7832220000000234,-10.651510715,3.768470168,4.333488450000004,-0.6056814195,-1.22878322,13.40132618,169.0982437,-3.457241297,9.361521244
669,2.78738850000002,-9.2089676855,3.7675863505000002,4.423088100000001,-2.5118141175,0.09066356,13.732160095000001,170.9672928,-2.315996019,10.244421485
670,2.7915550000000167,-7.767026663,3.7539404629999997,4.508209250000007,-2.467367411,-0.7296441195000001,9.014688015,171.05617525,-3.4671254605,9.471940517
671,2.7957215000000133,-6.2850277425000005,3.7836043835,4.610786399999995,-0.858277865,-0.8476809565000001,13.89086485,175.6131134,1.687236339,12.165991309999999
672,2.79988800000001,-4.834598303,3.7680609225,4.677528349999989,-0.3430679065,-0.8468295635,8.5843815805,172.219635,-2.9785334765,7.4113144875
673,2.8040545000000066,-3.369476914,3.728717804,4.78952790000001,-1.053161979,-1.0359079835,5.7698435785,173.57644655000001,-5.9506794215,11.704954149999999
674,2.808221000000003,-1.8793997765,3.6991701125,4.861869800000008,-0.522240445,-1.003616214,15.78665018,176.94158175,-4.2865701915,8.1308612825
675,2.8123875,-0.426275216,3.6822282075,4.968559249999998,-3.9672486785,-0.35076335799999997,16.557332995,172.19726559999998,-2.6173112095000004,11.29440689
676,2.8165539999999964,0.9788488895,3.5957013365000003,5.032363899999993,0.191209465,-1.6909852625,7.4717948435,166.82425690000002,-10.695591213,7.333908081000001
677,2.820720499999993,2.420877576,3.5612033605,5.121253949999996,-1.5549669265000001,-2.164579153,13.89675188,171.0272369,-4.2067068815,9.259248734
678,2.8248869999999897,3.8256709575,3.4770717619999996,5.1778488499999895,-0.3013876635,-1.6155071855,16.31435013,166.85295105,-10.059431554,6.9848031995
679,2.8290534999999863,5.1610729695,3.3832923175,5.263862599999996,-0.16043745050000002,-0.9430408735,9.875308992499999,158.28747555,-10.8550024015,9.622226715
680,2.833219999999983,6.4660551545,3.288283348,5.288360600000004,-2.195988417,-1.7883816365,10.67399883,155.11305235,-11.3914051045,3.697263241
681,2.8373864999999796,7.7585623265,3.2041300535,5.364112849999998,-1.9235270619999998,-3.077864528,8.805841205,153.24192045,-9.385609628000001,8.8082785605
682,2.8415529999999762,9.038691520499999,3.0572128295,5.363731400000006,-0.5611363050000001,-1.613616407,15.03967428,152.30015565000002,-17.798294544,2.116752982
683,2.845719499999973,10.224277017999999,3.009503603,5.409568800000002,-2.8290216625,-3.487467289,15.32536745,140.59830475,-5.135308146,5.6986522675
684,2.8498859999999695,11.359667779999999,2.8258184195,5.390319799999986,2.397106826,-0.7259181295,6.939215422,135.0493698,-22.438055034999998,1.4633141459999999
685,2.854052499999966,12.4305644,2.8517191410000002,5.4281845,-7.123884439499999,-3.0990082025,17.059072495,126.8748474,3.6341351270000004,3.455549836
686,2.8582189999999628,13.43076277,2.6708004475,5.416122450000003,5.7043732405,-3.218696117,8.0050417175,118.79399875,-21.842178345,3.1141034364999998
687,2.8623854999999594,14.361143115,2.720519066,5.431541449999997,-8.4591753485,-2.9836364985,16.011947635,110.1478462,5.895575880999999,-0.011865794500000026
688,2.8665520000000697,15.23700762,2.5511796475,5.445564250000004,5.294473648,-1.5907001495,11.669351579999999,103.73308945,-19.573669430000002,6.5156850815
689,2.8707185000000663,16.061886315000002,2.624669373,5.463172950000001,-7.9318482875,-3.558655381,13.226409671499999,97.48013305500001,8.717917440999999,-0.7381765840000001
690,2.874885000000063,16.814763069999998,2.4800329210000003,5.49705505,5.2416517735,-2.8777159450000003,16.120064735,88.86620712499999,-15.858438495000001,8.4821383955
691,2.8790515000000596,17.449004175,2.544718206,5.499771150000001,-5.8245642185,-3.3440272805,11.592564103499999,74.699543,7.172380447,-2.330151379
692,2.8832180000000562,18.04971313,2.5111498835,5.572876000000008,0.040908150500000004,-3.8784267905,9.7003595855,70.37842559500001,-1.5235481260000001,9.20479822
693,2.887384500000053,18.550730705,2.551404834,5.558586099999999,-1.652045548,-1.6302104595000002,9.2654516705,58.830307004999995,3.7029071449999997,-3.4456502195
694,2.8915510000000495,19.009072305,2.6115647555,5.640251149999997,-0.913623661,-2.2842407225,7.5890600685,53.24183655,9.634613991,6.61073041
695,2.895717500000046,19.49644279,2.594133854,5.600555400000005,-1.076298296,-0.9883975385,12.865006925,57.324438095000005,-3.89537251,-4.1655908825
696,2.8998840000000428,19.843372345,2.6247862575,5.674949650000002,-0.37683914599999996,-3.000202775,15.10748291,39.918882370000006,6.113166809000001,6.8547384739999995
697,2.9040505000000394,20.108431815,2.7778408525,5.677024850000009,-3.2145774365,-4.3590062855,13.91461039,30.425787924999998,16.98924732,-6.4037702085
698,2.908217000000036,20.34405327,2.7933337685,5.762672449999997,-0.9420285225,-0.6287559064999999,9.858020304,26.445536615,4.946176171,8.644554138
699,2.9123835000000327,20.5239954,2.913770318,5.764175399999999,0.8574282825,-1.505724251,5.329408765,20.256848335,13.2464094155,-5.155968666
700,2.9165500000000293,20.73538971,3.011010051,5.878105149999996,-2.048406541,-2.039421737,10.3573083885,23.312968255,15.38745642,8.29201293
701,2.920716500000026,20.884891510000003,3.035587072,5.876266450000003,1.2964035365,-0.5567289440000001,15.06187582,16.619428635,2.3171666865,-1.5690002445
702,2.9248830000000225,20.964517595,3.092784762,5.968635550000002,-2.614118576,-2.7738298175000002,13.736673355,7.6426234245,10.0189080255,7.5782928465
703,2.929049500000019,21.050149920000003,3.233471036,6.0152359000000075,-0.16180571900000001,-1.3272975685000001,10.464880942,8.6063084585,17.403636455,-1.2243096235
704,2.933216000000016,21.138755795,3.2399485109999997,6.081062299999999,-2.8799197674999997,-1.044881761,5.203431368,8.863678932500001,3.217148185,6.75344944
705,2.9373825000000124,21.231603624999998,3.305617571,6.090370149999998,5.2911407945,0.6462822855,5.336976021,9.7746868145,7.387811779,-2.0835772155
706,2.941549000000009,21.36459923,3.3417943715000002,6.146888749999988,-8.305299759,-1.251804322,9.979103086,14.193120005,6.169939029,4.326514602
707,2.9457155000000057,21.48875618,3.3359941245,6.1475449,7.142373323499999,0.48524010199999995,10.610744477,13.605437755,-0.990226984,0.052361994999999995
708,2.9498820000000023,21.630118369999998,3.3306794165,6.1677627500000085,-5.874194384,-0.440104991,13.437782285,15.482796195,-0.04080986950000004,2.1466525795
709,2.954048499999999,21.796322824999997,3.2905982734999997,6.173347449999994,4.0705225469999995,-0.4648489205,14.877555375,18.575692175,-4.583502531000001,2.0417111515
710,2.9582149999999956,21.923611639999997,3.2888768914999997,6.184021000000001,-5.037849188,-1.3871109485,5.627831936,13.884532924999998,-0.05339920549999988,0.976402007
711,2.9623814999999922,22.158740045000002,3.1949129105,6.175621050000004,5.382775544999999,1.3158594965,9.8674974465,26.953727725,-11.1967849715,2.936239004
712,2.966547999999989,22.37335968,3.141265273,6.153198250000003,-7.211587906,-0.5495016429999999,13.239028455,24.55913353,-7.3051199915,-0.37977618
713,2.9707144999999855,22.568855284999998,3.0800278185,6.171661400000005,6.9210577010000005,-2.2869929669999998,10.598261359999999,22.05524826,-6.315947532999999,4.551024079
714,2.974880999999982,22.80152702,2.9746612315,6.105888350000001,-7.301686286999999,1.8333469035,11.874549865,26.974165915,-15.03602886,-2.7695418595000003
715,2.9790474999999788,23.025612835,2.8599916700000003,6.0969161999999955,5.5371332165,-1.3050893845,9.0542891035,25.672166824999998,-13.458164213,4.0886110065
716,2.9832139999999754,23.26897049,2.811419368,6.044136050000006,-6.3276779649999995,-2.6515942810000004,10.4603891385,28.146671294999997,-8.181795598499999,-3.92145288
717,2.987380499999972,23.470133785,2.596418798,5.988578799999999,5.1457686425,0.552012749,12.231878759,23.18860531,-26.692584035,3.8366961479999997
718,2.9915469999999686,23.688346860000003,2.6102647185,5.9609375,-5.991687298,-1.070797354,10.3085727675,24.984779359999997,-0.133379817,-4.0480885505
719,2.9957134999999653,23.912448885,2.366817236,5.896987899999999,2.3616439700000003,-1.7180734279999998,11.741969104999999,25.926521305,-30.187532425,4.4182953835
720,2.999879999999962,24.065123555,2.347382128,5.867607149999998,-2.3347569555,-1.1934995655,13.233178615,17.150002475,-3.8976934104999996,-2.5563015345
721,3.0040464999999585,24.25450611,2.1411268115,5.811264049999991,-1.3418281075,-0.28125412,6.674067974,21.671050075,-25.71122837,3.559960008
722,3.008213000000069,24.42314911,2.0811228154999997,5.787544249999996,1.516749695,-2.2860132455,9.698313474999999,19.045112609999997,-8.070793035,0.11553955050000003
723,3.0123795000000655,24.57635689,1.9092671275,5.750991799999994,-3.8762625455000004,-0.9622961430000001,14.40984583,17.22981167,-20.94162369,4.187277198
724,3.016546000000062,24.68272686,1.7990603445,5.6942901999999975,2.728885293,-0.48780474100000004,5.736801028,11.668593407,-15.191679480000001,-0.962890463
725,3.0207125000000588,24.814884185,1.668998301,5.658027649999994,-6.705567598,-2.284394205,14.78631258,14.698273655,-16.35292816,2.22965616
726,3.0248790000000554,24.895569805,1.557893008,5.592689550000003,4.6398530005000005,-0.3335355295,7.761270047,8.582845687999999,-15.72970724,-1.807507247
727,3.029045500000052,24.9522295,1.4582362475,5.5502777500000064,-6.4778842925,-2.079312086,14.193694589,5.645724534999999,-13.35263872,0.06278696649999999
728,3.0332120000000486,25.00776005,1.3305980415,5.4840011999999945,5.7739696505,-0.5541591945,8.9487782095,5.549786091,-17.57678652,-1.0139651615
729,3.0373785000000453,25.052728655,1.294294059,5.482185349999995,-8.2568068505,-1.273722291,13.794437646999999,4.1054501535,-4.401237249,1.26096341
730,3.041545000000042,25.07446766,1.1205040815,5.396209749999997,7.4293174744999995,-1.349358022,13.630115507,1.5295674799999999,-23.598944665,-0.767216954
731,3.0457115000000385,25.068198205,1.1339652910000002,5.420707700000008,-8.250677109,-1.178529233,13.86384654,-2.1027494665,2.3496643305,1.601030648
732,3.049878000000035,25.048780445,0.924276071,5.3178787500000055,5.6584305765,-0.8091291385,9.183261754,-3.4180167915,-28.356463429999998,-0.7983768285
733,3.054044500000032,24.99445343,0.9736075064999999,5.371437049999997,-7.8494780065,-2.434288025,13.590855121,-7.901890278,7.7216551295,2.9610060455
734,3.0582110000000284,24.944149019999998,0.800325796,5.265075699999997,3.077466607,0.20954950149999998,6.8099619135000005,-7.1757810115,-24.575194359999998,-3.1234912875000003
735,3.062377500000025,24.849640845,0.8467198515,5.337471000000008,-5.359240531999999,-2.239263415,13.277377128,-12.72163153,8.347372532,5.215712309
736,3.0665440000000217,24.758984570000003,0.6949198394999999,5.243591300000006,2.8122997955,-0.995167196,3.6191859244999995,-12.049121379999999,-21.609332085,-2.908088088
737,3.0707105000000183,24.65999508,0.7780657559999999,5.3230132999999995,-5.0542805195,-0.2115889675,14.207433226000001,-13.2698431,12.690653325,4.140990496000001
738,3.074877000000015,24.540501595000002,0.6344714014999999,5.24360655000001,2.9166058154999996,-1.4063491825,8.589933163500001,-15.522414685000001,-19.98016453,-1.7682284115
739,3.0790435000000116,24.432989120000002,0.7449438495,5.337196349999999,-4.766257763,-1.222427368,13.4086031905,-14.331246855,16.365300655,4.3395142555
740,3.083210000000008,24.312344555000003,0.5675788964999999,5.238494850000009,4.3072617055,1.147460997,7.3971552515,-15.61676741,-24.627695085,-2.2485728265000002
741,3.087376500000005,24.23158264,0.64851287,5.297187800000003,-6.006467342500001,-1.2357456390000001,15.64311361,-11.0778265,11.4031417375,2.010756582
742,3.0915430000000015,24.141407965,0.5498727705,5.24697110000001,2.852218747,-0.7413487435,6.891673473,-12.011529920000001,-13.6235394465,-0.8507645054999999
743,3.095709499999998,24.05256939,0.526247978,5.266639700000013,-3.7772924900000002,1.058096148,15.65406656,-11.996787545,-1.9754800820000002,2.8689739705
744,3.0998759999999947,23.964949609999998,0.563201159,5.279991150000001,-0.29005599000000004,-2.1824994685,10.2424800395,-11.796203134999999,4.3491501790000004,-0.5573146715
745,3.1040424999999914,23.886136055,0.432038233,5.2646866000000045,0.9114681485,1.1105689255,7.132519007,-10.734520435,-15.4865279175,4.2886060475
746,3.108208999999988,23.803521155,0.5303232370000001,5.290145899999999,-3.6092235445,-1.242996991,15.325395585,-11.239797595,11.6703729605,-2.257331729
747,3.1123754999999846,23.737588885,0.4012819825,5.26197814999999,4.0324418545,-1.8428176045,1.7865142845,-9.1090006835,-15.888770585,2.8689744475
748,3.1165419999999813,23.674941065,0.46524742250000006,5.279121400000008,-7.918373823,0.13137699649999998,19.909732814999998,-8.914203167,7.508399070000001,-1.6402462725
749,3.120708499999978,23.56706333,0.404017791,5.291595450000003,6.873378991999999,-2.007419467,9.4155777685,-14.123311520000001,-6.4956269285,4.134689808
750,3.1248749999999745,23.491613389999998,0.3426783385,5.236900349999999,-6.270620823000001,-0.10522975400000001,4.692549944,-10.393875595,-9.714651645,-3.5230598449999997
751,3.129041499999971,23.425801274999998,0.31525883099999996,5.27175905,2.5239621995,-0.7124270049999999,18.36857414,-9.1309113505,-1.712087274,4.8810613155
752,3.133207999999968,23.329882625,0.2249157725,5.213478099999989,-3.1846253874999997,-1.6952677965,6.9061136265,-12.79175377,-13.07534218,-2.427513361
753,3.1373744999999644,23.25705433,0.128748119,5.215675349999998,1.806009099,0.2125059365,10.751143693,-10.001029492,-10.8555459995,4.419404267999999
754,3.141540999999961,23.160453795000002,0.10166335099999996,5.197891200000001,-5.359250903,-0.330540438,17.650891305000002,-12.89924145,-4.169421911,-0.962301254
755,3.1457074999999577,23.05514908,-0.04182750000000002,5.1950073,4.7437582015,-2.118384302,4.4391554595,-13.849301815,-16.343732834999997,6.1221892835
756,3.149874000000068,22.965657235000002,-0.10558682650000001,5.140090950000001,-5.6684060095,0.17817293099999998,9.682243347,-12.082018375,-9.961698055,-3.4127260445000003
757,3.1540405000000646,22.876589775,-0.20756417499999996,5.156547549999999,2.7306233645,-0.019806802499999998,12.995529175,-11.905882355,-10.865534785000001,6.257533073499999
758,3.1582070000000613,22.80980015,-0.1925620735,5.139770500000012,-7.052226066499999,-1.187756419,11.251748562,-9.3569955815,0.5364709525,-2.887134075
759,3.162373500000058,22.743765834999998,-0.32753345399999995,5.134368899999998,5.944366931999999,-0.25269261,10.793661117500001,-9.1155581475,-15.55996084,5.388032913
