,time,Euler_X,Euler_Y,Euler_Z,Acc_X,Acc_Y,Acc_Z,Gyr_X,Gyr_Y,Gyr_Z
0,0.0,18.20238209,20.064080240000003,16.96753695000001,-2.014073342,-0.13097842799999998,12.84392023,-2.576702416,-9.48454237,-0.9177324769999999
1,0.0083329999999932,18.1678524,19.989629745,16.94361115000001,-1.8406159875,0.2381838785,8.698379993,-4.003966093,-9.4366688715,-0.031499206999999974
2,0.0166659999999865,18.154778479999997,19.91975212,16.905799849999994,-1.597003162,0.15091054850000002,9.8877091385,-0.8421640095,-9.4137573225,-1.6423208565
3,0.0249989999999797,18.159603115,19.84509182,16.88619235,-2.6171753410000003,-0.094690166,15.149338245,0.542695165,-9.301425936000001,0.43434697349999996
4,0.033331999999973,18.135681155,19.79378128,16.862945549999992,-2.1510785815,0.10301496099999999,9.097190380499999,-2.7492274045,-6.790591001999999,-0.7832898495
5,0.0416649999999663,18.149310115,19.72078514,16.830253600000006,-0.878275037,0.0570629835,8.884656906,2.13216728,-9.563932895,-1.0357310175
6,0.0499979999999595,18.169441225,19.686081885,16.804519650000003,-2.7441946265,0.017737656500000004,10.544584749,2.628929973,-4.9902935025,-1.6773543355000002
7,0.0583309999999528,18.173264505,19.60644913,16.77631380000001,-2.2005366085,-0.292222649,13.859182834999999,0.777558662,-10.1569929115,-0.28998517999999995
8,0.0666639999999461,18.194838525,19.589167595,16.758399949999998,-1.0572010280000002,-0.235821851,6.7350628375,2.4733361005,-2.733000517,-1.4963641765
9,0.0749969999999393,18.196180345000002,19.502363205,16.70864105000001,-1.664321959,0.221650962,10.489858625,1.3507157305,-11.730911255,-2.32342932
10,0.0833299999999326,18.2347002,19.478639604999998,16.69276425000001,-2.6215440035,-0.5005363375,11.760783195,4.4040989875,-3.3979591129999998,-1.0573363900000001
11,0.0916629999999258,18.2259264,19.40933895,16.66465000000001,-1.3721591535,0.155255446,12.76050472,-0.7293846905000001,-8.9652516825,-0.6442297695000001
12,0.0999959999999191,18.228433605,19.36464977,16.631080600000004,-1.5143380765,-0.41666452200000004,5.1599538325,0.768574423,-6.410346985,-2.1793873015
13,0.1083289999999124,18.256265640000002,19.314870835,16.603904750000012,-2.553770959,0.625825763,12.42656517,3.629499197,-6.707523823,-1.277580619
14,0.1166620000000193,18.246559145,19.259184835,16.586326600000007,-2.566276431,-1.070396304,12.468105314999999,-1.351291776,-7.1061565875,-0.054475128499999914
15,0.1249950000000126,18.25911236,19.214839935,16.568450900000002,-0.90128994,0.4463355095,8.716199875000001,1.4306830765,-5.748244047,-0.4842182399999999
16,0.1333280000000059,18.26373863,19.153546335,16.53660585,-2.6749539374999998,0.16552788,10.1326293935,0.9193652870000001,-8.2535209655,-1.3752283754999999
17,0.1416609999999991,18.288455965,19.119189265,16.5239792,-2.1796671155,-0.29021905,10.0781335845,2.6946943995,-4.4274845124999995,-0.29495435949999993
18,0.1499939999999924,18.297764774999997,19.054424285,16.50930785,-1.5716664195,0.1670016225,13.91967201,0.7947265805,-8.0462265015,0.616387546
19,0.1583269999999856,18.29200268,19.010178565,16.482803349999998,-1.7573360205,-0.4224944265,7.09760499,-0.41506585500000004,-6.042705536,-1.423062928
20,0.1666599999999789,18.32597351,18.966597555,16.46115875000001,-2.3462058304999998,0.492398117,10.817490575,4.016107321,-5.8841283319999995,-0.9357841015
21,0.1749929999999722,18.317778585,18.907207485,16.441177350000004,-1.9843316675000002,-0.70731017,12.062888145,-0.955897592,-7.5370788575,-0.1443811055
22,0.1833259999999654,18.326299665,18.872428895,16.41503145,-1.5621990559999999,-0.4774318785,9.3328998065,1.1204947235,-5.04708004,-1.760863423
23,0.1916589999999587,18.314052580000002,18.821245195,16.374870299999998,-2.0834898945,1.0311681925,11.591376305,-0.6429368255000001,-7.321368456,-2.6177623275
24,0.1999919999999519,18.30851078,18.79606056,16.335441599999996,-2.4475144745,-1.3670856654999999,7.433291912,-0.055896684500000016,-4.4402148724999995,-3.566360034
25,0.2083249999999452,18.28695583,18.748571395,16.292587249999997,-1.8499821425,0.1019704495,15.095274450000002,-1.654826999,-6.994415283,-3.049848676
26,0.2166579999999385,18.209381105,18.731411935,16.22245025000001,-2.092395663,-1.051756412,7.2699894910000005,-7.5270124664999996,-4.617580771,-7.188494684
27,0.2249909999999317,18.129154205,18.69308281,16.149238600000004,-2.8522163625,-0.9077163335,11.9164443015,-7.531836271,-7.0110018255,-6.6887488365
28,0.233323999999925,18.00586414,18.703380584999998,16.083496100000005,-1.9548538925,-1.265272856,11.248660085000001,-13.2016344075,-1.3082785604999998,-7.75463557
29,0.2416569999999183,17.78098011,18.655793189999997,15.974204999999998,-2.0823227165000002,-1.9322672485,13.057325365,-23.491746905,-9.296900511,-10.2874403005
30,0.2499899999999115,17.519132615,18.65940952,15.882690449999998,-1.793220937,-2.944221139,9.1730608945,-28.851002215,-2.8954463675,-10.2980492095
31,0.2583230000000185,17.159786224999998,18.62923527,15.75862124999999,-1.478558637,-1.4753281475,14.96147442,-39.038033485,-7.6979820745000005,-12.616185184999999
32,0.2666560000000118,16.720267295,18.618513110000002,15.627037049999998,-3.107020855,-2.730740428,10.6558132185,-48.6443367,-5.7318780425,-14.195024965
33,0.274989000000005,16.193405155,18.645624159999997,15.501243599999995,-2.929871559,-2.6569793225,14.240345954999999,-59.088432315000006,-0.9583358765000001,-14.825855255
34,0.2833219999999983,15.558470725,18.58393383,15.334381100000002,0.500705406,-2.6014081239999998,6.657561300999999,-70.74246216,-12.4530963915,-16.55956411
35,0.2916549999999915,14.85734129,18.576753615,15.165130599999998,-3.1215407845000005,-2.0317099095,11.430195091,-78.36397171,-5.907553675,-18.466937065
36,0.2999879999999848,14.04739523,18.541708945,14.994857799999991,-1.491979122,-3.0155521634999998,18.860621455,-91.64729690499999,-9.070126774,-18.17693329
37,0.3083209999999781,13.1765337,18.531975745,14.803520200000008,-4.1365902425,-1.124022469,5.0611774920000006,-97.881408695,-6.2564908285,-20.939228055
38,0.3166539999999713,12.238381385,18.52630138,14.63400265,-1.3447072504999997,-1.9092414975,16.130758285,-107.11656189,-5.108145295,-19.04227066
39,0.3249869999999646,11.215902325,18.434978485,14.425018350000002,0.43014383300000003,-2.3403962255,4.144369304,-115.4030571,-15.540257454999999,-21.340540885
40,0.3333199999999578,10.131345272,18.385453225,14.2192383,-3.91685728,-0.9148413835,18.552226065,-123.38713075,-10.4194855665,-22.145140650000002
41,0.3416529999999511,8.99562359,18.345059395,14.0280609,-2.9881722035,-0.975815028,9.83955431,-129.71075820000001,-8.35800886,-21.213911055
42,0.3499859999999444,7.800522566,18.24941921,13.813133199999996,-0.287205763,-1.6911139485,11.76086855,-136.3685303,-15.1763560795,-22.582494735
43,0.3583189999999376,6.528760910000001,18.101940155,13.598503149999999,-0.6733157485000001,-0.9014366420000001,9.983745812,-145.25164795,-20.578399659,-22.8833189
44,0.3666519999999309,5.223204255000001,17.96280861,13.372917149999992,-2.8460645675,-1.031730652,10.431305886,-149.34259795000003,-19.4858896715,-23.85299015
45,0.3749849999999242,3.878153801,17.8418293,13.147918699999991,-3.2286597489999997,-1.033742711,16.25923443,-153.8051834,-16.447532413,-25.24722862
46,0.3833179999999174,2.4706814589999997,17.61205578,12.920249900000002,0.3944160940000001,-0.9237179455,5.964311512,-161.64128875,-29.231706619999997,-24.452494620000003
47,0.3916510000000244,1.0226641895000002,17.38675499,12.679458600000004,-2.1634444,-1.2556393145,13.685042860000001,-165.7973938,-27.7874941815,-27.459672930000004
48,0.3999840000000176,-0.452332199,17.196431160000003,12.441131599999991,-3.800964296,-0.03178107749999998,11.45268965,-169.57021335000002,-23.26353073,-27.269824030000002
49,0.4083170000000109,-1.957171481,16.993291855000002,12.219940199999996,-1.310269475,-0.47485128050000003,10.5196852695,-173.52337645,-23.82767534,-26.438014985
50,0.4166500000000042,-3.50400424,16.640021320000002,11.991348250000001,0.4612134695000001,-0.20222364400000004,10.7800302525,-178.76633455,-41.433885575000005,-28.489309310000003
51,0.4249829999999974,-5.063060403,16.41214943,11.772087100000007,-3.9354495965,-0.9932064415,11.8620922555,-180.36498265,-25.438307764999998,-27.673067095
52,0.4333159999999907,-6.606605768,16.117386815,11.571540849999991,-2.8009060325000004,2.3839706185000002,12.873138905000001,-179.69480135,-33.154748915,-26.624506
53,0.4416489999999839,-8.1791875375,15.828467845,11.3835907,-1.190373123,-0.46526622799999995,11.042578938,-183.1629257,-31.649586675000002,-26.601632119999998
54,0.4499819999999772,-9.71766114,15.509430885,11.205947899999998,-1.2564849855,0.40247917199999994,5.9950084685,-180.07461545,-34.96751213,-26.19059658
55,0.4583149999999705,-11.2292981145,15.138038635000001,11.045906099999996,-1.3281756640000002,1.9830513005000001,16.121379375,-176.9678192,-40.472862245,-27.19683933
56,0.4666479999999637,-12.746506215,14.855898855,10.881538399999997,-3.5711770649999997,1.9494332675,13.155507085,-178.17871095,-29.484099385,-25.805766105
57,0.474980999999957,-14.19151783,14.56044817,10.740753150000003,-3.5320620540000003,0.24585355849999999,6.3052827129999995,-169.7856293,-30.67520142,-24.89668083
58,0.4833139999999503,-15.56472969,14.21881914,10.600044249999996,-0.7667270900000003,4.1051139835,11.5722150815,-161.82790375000002,-35.7727108,-26.254862785
59,0.4916469999999435,-16.9417243,13.893607620000001,10.491729750000005,-2.5334755775,1.5072734505,12.028690338499999,-162.7830429,-34.00884342,-23.840597155
60,0.4999799999999368,-18.25527668,13.59860754,10.384620650000002,-1.7938796540000002,0.6516777575,6.66901207,-155.7526932,-30.24446678,-22.845469475
61,0.5083129999999301,-19.46040344,13.265457155,10.305305500000003,-1.4538860914999998,3.3108333945000004,11.344849827,-143.148407,-34.95587063,-22.355390545
62,0.5166459999999233,-20.606918335000003,12.953037264999999,10.242820699999996,-1.949868247,3.11107409,11.480904580499999,-137.0689697,-32.98563862,-20.02279568
63,0.5249789999999166,-21.679431915000002,12.647049905,10.201118449999996,-3.108891502,2.3334955875,12.5780816085,-128.38179399999999,-32.57423878,-18.48893547
64,0.5333120000000235,-22.65015793,12.345059395,10.181427,-0.8379489185000001,3.6460795399999997,7.2405328755,-117.1859779,-32.962966914999996,-16.087543959999998
65,0.5416450000000168,-23.545091624999998,12.025366785,10.168495199999995,-1.711844381,1.957112849,8.9187698345,-107.963886245,-34.868296625,-16.764840125
66,0.5499780000000101,-24.334694865000003,11.727715015,10.179702750000004,-1.8331755399999998,3.319797397,8.7425708755,-96.266395565,-33.448922155,-13.552137850000001
67,0.5583110000000033,-25.040143965,11.44775963,10.192024199999992,-2.599401772,2.273844123,9.641010286,-85.94968413000001,-31.375977515000002,-12.798443319
68,0.5666439999999966,-25.647849085,11.191304684999999,10.206230149999996,-2.0943347065,2.6506131885,7.791679382,-74.52201843499999,-28.79484463,-11.93604851
69,0.5749769999999899,-26.174842835,10.94442463,10.2290268,-2.1993160245,1.8401480915000001,8.797364712,-64.810914995,-28.09064865,-10.557243822
70,0.5833099999999831,-26.61948967,10.7226491,10.237304649999999,-2.5557424425,3.6850774284999996,10.692703246,-54.838064195,-24.538013460000002,-11.253163336
71,0.5916429999999764,-27.001545905,10.513827325000001,10.264518699999996,-2.8272562025,1.4236824215000001,10.697009564999998,-47.524459840000006,-24.101318355,-8.443889737000001
72,0.5999759999999696,-27.30725193,10.3411216735,10.273887599999995,-1.831150055,2.4767222405,8.562619686,-38.19559002,-19.22648001,-8.791087864
73,0.6083089999999629,-27.56479549,10.165256975,10.269210849999993,-2.6494464875,1.9670374394999999,8.6221117975,-31.960336684999998,-18.864976885,-10.0261859905
74,0.6166419999999562,-27.725409505000002,10.015632629,10.291976950000006,-1.7427591085,1.0309402345,10.076580523,-21.06213188,-17.450531480000002,-6.2780014275
75,0.6249749999999494,-27.853055955000002,9.867522242,10.2829361,-2.7976038455000003,2.5242844819999997,9.6819665415,-16.316421984,-15.619006155000001,-9.060018063000001
76,0.6333079999999427,-27.9129076,9.739473341,10.292152399999992,-1.3410859275,1.7685425879999999,11.830526349500001,-8.677261472,-14.38241196,-6.5540189745
77,0.641640999999936,-27.949173925,9.595371246500001,10.28874965,-2.44209671,0.5873398784999999,10.868234872,-5.5029636475,-15.514892575000001,-8.281161547
78,0.6499739999999292,-27.927817345,9.469532013,10.287178050000009,-1.9715688230000001,1.7029038665,10.8804535845,1.278272152,-13.55056095,-7.569956063999999
79,0.6583069999999225,-27.89486599,9.3370666505,10.295265200000003,-1.6226132065,1.3838723895,10.7223658555,2.544897079,-14.967937945,-6.300078392
80,0.6666399999999157,-27.824895859999998,9.191356182,10.2971115,-1.080793122,-0.3719473925,9.5756371025,7.0370271215,-15.85387278,-8.3076725005
81,0.6749730000000227,-27.709877015,9.062647343,10.292457549999995,-2.54126358,2.0280507205,11.8042378405,12.628154755,-13.85601234,-7.465424776000001
82,0.683306000000016,-27.60354614,8.909779071500001,10.330658,-2.301988363,-0.5288438125,12.329524995,10.715950487,-18.633530620000002,-4.851850271
83,0.6916390000000092,-27.477442745,8.792741298500001,10.327354450000001,-0.676486656,0.5057323945000001,10.449081419,13.901901245,-12.731739045000001,-6.6179141994999995
84,0.6999720000000025,-27.34811401,8.6770997045,10.336570750000007,-4.1087601185,0.4145064765,10.564103601500001,14.006636140000001,-13.1042609215,-5.8316586015
85,0.7083049999999957,-27.210424425,8.5512280465,10.366516099999998,-1.9546277525,-0.877776921,13.09069395,14.674592969999999,-15.508542535,-3.623519063
86,0.716637999999989,-27.096924780000002,8.491662979,10.353080750000004,-1.9016134735,0.0542455215,11.812545777499999,12.51168537,-5.932924388,-5.077766657
87,0.7249709999999823,-27.005894660000003,8.427028656000001,10.337242150000009,-3.7992413044999997,-0.4107494355,10.722873210500001,9.8729057315,-6.515327514,-5.077485084499999
88,0.7333039999999755,-26.919795989999997,8.3638744355,10.343460100000001,-1.868699133,-0.8306338790000001,12.51000595,8.8733503805,-7.393589972,-3.1743985415
89,0.7416369999999688,-26.883216855,8.3489470485,10.307426449999994,-1.6355591885,-1.104415655,13.13761234,3.6863055825,-0.1037376525,-4.4964253905
90,0.7499699999999621,-26.8791523,8.340103149499999,10.275856000000005,-2.7480814455,-0.698490888,10.110349178,-0.3165471554999999,0.44793522350000003,-4.1957783695
91,0.7583029999999553,-26.893825534999998,8.323204517499999,10.2704849,-2.222685635,-0.8238983605,11.73539972,-3.01747942,-1.975126624,-1.33404693
92,0.7666359999999486,-26.944130895,8.3424420355,10.233901999999986,-1.3353157595,-0.8094368574999999,12.13273811,-6.7572664614999995,3.7152171135,-3.164792657
93,0.7749689999999418,-27.02977848,8.388468742,10.19046019999999,-3.609196782,0.345430419,10.601326942,-10.86489415,6.862528322999999,-2.0879376830000003
94,0.7833019999999351,-27.123701095,8.41806221,10.182243350000007,-1.940625727,-0.7432858794999999,9.4895372395,-12.4909262645,3.290642679,0.379186728
95,0.7916349999999284,-27.253099444999997,8.459234714499999,10.134201050000001,-1.592147052,-0.41458112,11.15851879,-16.043518545,6.560012102,-2.7643141745
96,0.7999679999999216,-27.39752579,8.545395374,10.089179950000002,-2.9973443745,0.0209310885,12.824445725,-17.899733065,11.3286170965,-0.350345202
97,0.8083009999999149,-27.553533555,8.6057696345,10.053230299999996,-2.1101070045,-0.476791769,9.5944678795,-19.434410095,7.995691539500001,-0.505349919
98,0.8166340000000218,-27.732517244999997,8.662743091500001,10.007049550000005,-1.311565712,-0.312876612,11.639458659999999,-22.017560959999997,8.287477729999999,-2.0075167415
99,0.8249670000000151,-27.907452585,8.768494129,9.941925049999995,-2.7062121625,0.12643099600000002,11.876919745,-21.18297291,14.40886068,-0.92458475
100,0.8333000000000084,-28.09925175,8.837960243,9.9076843,-2.8983133435,-0.32674734299999997,9.3869535915,-23.76354313,8.9555232525,-0.015630841500000048
101,0.8416330000000016,-28.290887835,8.887289047500001,9.856445300000004,-0.413151592,0.1265157165,10.257754804000001,-23.43589497,7.6552402975,-2.567559153
102,0.8499659999999949,-28.483538625,8.979513168499999,9.801612899999995,-2.7477820514999998,0.140562117,10.554573533500001,-23.474062915,12.516120435000001,-0.7907695770000001
103,0.8582989999999882,-28.6791935,9.024755000999999,9.768600449999994,-2.3373620510000004,-0.5182362275,8.380086422,-24.25103378,6.2048726080000005,-0.8674840924999999
104,0.8666319999999814,-28.852745055,9.044903278,9.733329800000007,-0.296039641,0.8376120035000001,12.479219915,-21.542053225,3.8156901595,-2.824739039
105,0.8749649999999747,-29.0506258,9.093791962000001,9.69039914999999,-3.217843533,0.52193138,11.10392809,-24.323059084999997,7.18975425,-1.6674746274999999
106,0.8832979999999679,-29.199583054999998,9.093913555,9.677436850000007,-1.6395151615,0.1437718905,9.306853293,-19.015707015,0.442082584,-1.6707786915
107,0.8916309999999612,-29.335124970000003,9.0904855725,9.65472410000001,-1.6549230220000002,0.962546736,14.27229595,-17.22359228,0.5780301095,-2.673089385
108,0.8999639999999545,-29.476296425,9.083890438000001,9.644103999999999,-1.815065384,0.42776009449999997,9.477842809,-18.12303734,-0.3889966010000001,-1.807251394
109,0.9082969999999476,-29.550518035,9.0611987115,9.639877349999992,-2.2623041864999998,0.634536564,10.208022596,-10.233529567,-2.527395427,-1.8778569699999998
110,0.916629999999941,-29.632122995,9.0216498375,9.649742149999994,-1.467241347,1.1386149525,12.359881875,-11.363244774,-5.0196223259999995,-1.6397723260000001
111,0.9249629999999344,-29.68135071,9.0040988925,9.645217849999995,-1.4808480739999998,-0.1717124245,8.6743183115,-7.2329224365,-1.956530571,-1.6279128489999999
112,0.9332959999999276,-29.70075798,8.9485235215,9.672065750000002,-1.8627403975,0.980334714,11.687651155000001,-4.219510436,-7.687191249,-0.8587301
113,0.9416289999999208,-29.715185165,8.8860812185,9.692817699999992,-1.836619228,0.3085089105,11.7242293335,-3.539349377,-8.1438162325,-1.671700239
114,0.949961999999914,-29.70481873,8.866885662000001,9.701782250000008,-1.5914980769999998,0.4999079405,9.5327696775,-0.31389603,-2.8466637735,-0.5463644865
115,0.958295000000021,-29.675038335,8.7700505255,9.7463226,-1.9296454189999999,-0.1730921905,10.5925593385,1.3241088985,-13.13070202,-1.2762037515
116,0.9666280000000144,-29.62848854,8.7140493395,9.764968850000002,-1.502882719,1.0117893814999999,14.35284424,3.8505753425,-7.257512331,-1.7523212435
117,0.9749610000000076,-29.59352398,8.67602396,9.777961749999989,-3.302536726,0.27378929,7.576720476,2.52868855,-5.138356208499999,-1.0395025015
118,0.9832940000000008,-29.499176025,8.588399887,9.821487449999992,-0.947032666,-0.56118761,10.343382835,9.1349082015,-12.014307019499999,-1.0811898415
119,0.991626999999994,-29.422624589999998,8.540606021999999,9.820861800000003,-2.5059287845,1.428685188,16.107867719999998,7.754351616,-5.395395994,-2.997800708
120,0.9999599999999872,-29.362016675,8.511592865,9.831451400000006,-3.7597289084999996,-0.8721688095,6.750105142500001,5.6804685594999995,-3.9618819355,-1.006825231
121,1.0082929999999806,-29.23928547,8.460806847,9.846054100000003,-0.7438601109999999,-0.277796209,11.887072565,13.022664070000001,-6.5970759395,-1.633560896
122,1.0166259999999738,-29.17759991,8.4407672885,9.833160400000011,-3.387733936,0.608492978,14.17959213,6.2288060185,-1.65516001,-2.8993650969999996
123,1.024958999999967,-29.1044178,8.447271347000001,9.816757199999998,-3.07259202,-1.567652464,7.178927659999999,7.616636753,1.1924645305000001,-1.46951437
124,1.0332919999999604,-29.008840565,8.438560009,9.813827500000002,-1.2745611669999999,0.16117083299999999,14.653301235,10.11971092,-1.056209683,-1.2015960065
125,1.0416249999999536,-28.985257145,8.4691467285,9.775993350000007,-3.1241523024999998,-0.4249361755,10.833604335,2.0439456705,4.961080431999999,-2.3075736165
126,1.0499579999999469,-28.932360645,8.511750698,9.7431488,-2.326679468,-1.429222137,8.368982079,5.5273221735,6.0452418324999995,-1.3217843249999999
127,1.05829099999994,-28.88383007,8.555794716,9.719627400000007,-2.027387798,-0.023678184999999997,15.003169535000001,4.785546899,5.5427675245,-0.029437154500000007
128,1.0666239999999334,-28.894896510000002,8.632498264,9.662223850000004,-2.804088235,-0.41634926949999995,9.004097461499999,-1.7019061445,11.0285310745,-1.8890756965
129,1.0749569999999269,-28.865398405,8.725095749000001,9.60617825,-2.965077937,-0.7730286120000001,7.4511508939999995,3.1015901265,12.5288977645,-0.647335872
130,1.08328999999992,-28.84767628,8.80377388,9.565193149999999,-1.4998429415,0.18095986549999998,14.32816076,1.4729851185,10.280375481,-0.069420984
131,1.0916229999999132,-28.873579980000002,8.915925503,9.49194335,-2.1392178535,-0.6896946429999999,7.262967348,-3.21727705,15.552238465,-1.2642293869999999
132,1.09995600000002,-28.84950447,9.006340503499999,9.43096924999999,-2.356623262,-0.008879512499999999,10.7737216955,2.625613451,12.65466404,-1.4440796675
133,1.1082890000000134,-28.840148925,9.112741470500001,9.38106535,-1.9810184835,0.037658497500000006,13.78284836,0.6011277735,13.623932365,0.8446745575
134,1.1166220000000069,-28.847199439999997,9.215855122,9.31082155,-1.3808496,-1.4470716415,8.992652417,-0.9095615295,14.511438850000001,-1.638939947
135,1.124955,-28.815553665,9.3043918605,9.256332400000005,-3.055397078,0.7357413469999999,13.281331535,3.382897854,12.00990057,-0.6663479804999999
136,1.1332879999999932,-28.81848335,9.4276742935,9.19893644999999,-1.8134394285000002,-0.646144003,8.891015529499999,-0.6341766415,15.893546105,0.829203315
137,1.1416209999999865,-28.79935646,9.497320651999999,9.151176449999994,-1.087818265,-0.480378941,8.0179696085,1.7680225964999998,9.629608629500002,-1.062862843
138,1.1499539999999795,-28.786332129999998,9.5863771435,9.106712349999995,-1.9709163905,-0.520409517,14.282140255,1.044209212,11.56997728,0.16977762450000003
139,1.158286999999973,-28.79795551,9.664886951500002,9.055679350000005,-2.220571697,-0.985883474,6.6204552655,-1.8435717375,10.731725933,-0.8649927155
140,1.1666199999999662,-28.768317224999997,9.73175478,9.040634150000002,-1.6644845305,-0.26459807150000003,13.87275076,2.4576862900000003,7.584388733,1.9583041074999998
141,1.1749529999999595,-28.76947498,9.813519478,8.992996199999993,-2.089151651,-0.12515842900000002,8.746915101,-0.6471371875,10.8633694665,-0.291445017
142,1.1832859999999528,-28.764016150000003,9.858460426499999,8.9933853,-2.066149056,-1.574356377,10.3915448165,-0.752687186,4.416522264499999,2.2819278240000003
143,1.191618999999946,-28.75090313,9.938772678,8.974639850000003,-0.9718050364999999,0.002645626499999998,8.2761218545,0.47946652800000006,9.048497915,2.5964385495
144,1.1999519999999393,-28.759296415,9.9372873305,9.003616300000004,-1.3106805085,-0.696617961,11.579431055499999,-3.0068292615,-2.093054354,2.5749411579999997
145,1.2082849999999326,-28.756909370000002,9.984195711,9.009216299999991,-1.0847041905,-1.4822351935,10.6400055905,-1.3094444275,4.1513762325,3.1905992775
146,1.2166179999999258,-28.78530979,9.9646825805,9.050643900000011,-1.91180259,-0.06870619949999998,11.647266389999999,-5.663794041,-4.7148442565,2.864158313
147,1.224950999999919,-28.792984965000002,9.9763135905,9.0734329,-1.2614271824999999,-1.384341747,9.398816108999998,-2.8894008995,-0.568053484,2.9822716865000003
148,1.2332839999999123,-28.83222389,9.942735671000001,9.118568400000001,-2.1396265475,-0.7257519065,14.875514509999999,-7.0405602455,-6.4169430735,2.4009377955
149,1.2416170000000193,-28.8609314,9.910904885,9.169670149999988,-1.4827216564999999,0.006359249499999997,6.017051696999999,-5.9937827585,-6.729167223,3.3807333705
150,1.2499500000000126,-28.8917017,9.8839578625,9.203514100000007,-1.6199707985000003,-0.46004418999999996,10.7620449045,-5.7967705725,-5.0855405330000005,1.5467413964999999
151,1.2582830000000058,-28.92365551,9.822191714,9.2656937,-1.7842361925,-1.4872372745,11.31745863,-6.602633476499999,-10.5218565445,2.862288952
152,1.266615999999999,-28.963624,9.800890922499999,9.30447389999999,-2.7020840645,0.5826272514999999,13.520832535,-7.005455016999999,-4.792110921999999,2.325094104
153,1.2749489999999923,-29.024020195,9.75026083,9.360679600000012,-1.9389228825000002,-1.514029086,10.1438016875,-9.8853180405,-9.027862905500001,2.9613012075
154,1.2832819999999856,-29.04360199,9.732292652,9.4023361,-1.2955929039999998,-0.18745237250000002,4.9559615855,-4.614379405999999,-4.617075922,2.799508095
155,1.2916149999999789,-29.108958245,9.671176433500001,9.4502411,-2.177953005,-1.014005482,18.65791416,-10.300883293,-9.656872869,1.4842943995
156,1.299947999999972,-29.16214466,9.632110595499999,9.500953650000014,-1.6438256504999997,-1.1205313875,7.2674972995000005,-8.819853783,-7.3662463449999995,2.540804848
157,1.3082809999999654,-29.229922295,9.589278221,9.549560549999995,-2.7408754825,-0.8398651775000001,12.832007885,-10.5954079605,-7.765239029999999,2.5295088885
158,1.3166139999999589,-29.27881336,9.504768371499999,9.6145401,0.3253754379999998,0.1239637435,4.24656862,-8.562878609,-12.95172453,1.4181512965
159,1.324946999999952,-29.34320736,9.450044155,9.653137199999989,-2.7086429895,-1.743292868,15.53354502,-9.998492242000001,-8.458858968,0.727822155
160,1.3332799999999452,-29.42784119,9.3447728155,9.726913449999998,-0.8357701305,-1.019217998,10.8750550725,-12.990395065,-15.648286699,1.159946799
161,1.3416129999999384,-29.5013361,9.260908603499999,9.77877805,-2.579361558,0.34065259999999997,6.526529312000001,-11.35820055,-12.303689242999999,0.3331319690000001
162,1.3499459999999317,-29.579026225,9.1770801545,9.828010550000002,-1.0216491225,-1.9386894104999999,14.23340225,-11.660295962,-11.9792078715,-0.1560872794999999
163,1.358278999999925,-29.659237865,9.050716399999999,9.90242769999999,-1.7068570255,-0.5517130795,7.485350846999999,-12.563672545,-18.078216075,0.19466102099999993
164,1.3666119999999182,-29.744366645,8.9903440475,9.93679809999999,-2.693510711,-0.2320486605,12.658584593,-12.27598238,-8.6615185765,-0.418671131
165,1.3749449999999117,-29.815862655,8.868410587,10.012290949999993,-0.5723659839999999,-0.7329780275000001,9.9288475505,-11.477258206,-17.6878561995,0.6608160734999999
166,1.3832780000000184,-29.89268112,8.776553630999999,10.062278750000004,-2.780746758,-0.8577049075000001,11.592431547,-11.5775890345,-12.864488246499999,-0.7931250930000001
167,1.3916110000000117,-29.95569706,8.708074093,10.110946650000002,-1.468756422,-0.079460859,12.85620403,-9.9321780205,-10.540736467499999,1.0762664080000002
168,1.399944000000005,-30.000468255,8.5832138065,10.194335899999999,-2.620530605,-0.27190154750000006,4.101125002,-8.30741787,-18.28061962,0.6656317709999999
169,1.4082769999999982,-30.020939825,8.539181232499999,10.21965025,-1.2782704230000002,-0.391280465,17.00145292,-4.418584824,-6.61914134,0.024877667499999978
170,1.4166099999999917,-30.063530919999998,8.42040205,10.297798150000006,-1.928337276,-0.9752879735,10.826157332000001,-7.892541647,-17.346645355,0.610354662
171,1.4249429999999847,-30.061989785,8.3721838,10.328727700000002,-3.6767729525,0.7801173029999999,10.095798970499999,-1.8972024914999999,-7.4055073280000006,0.23502957800000002
172,1.433275999999978,-30.064971925000002,8.315019131,10.378677350000004,-1.5533866884999998,-1.680953681,10.7205114355,-2.6125057935,-9.264640928,1.4805603625
173,1.4416089999999713,-30.04148388,8.215324879,10.435157750000002,-1.594969455,0.1462514695,8.1407289505,0.3104881049999999,-14.2683173715,-0.23592722399999988
174,1.4499419999999643,-30.034790995,8.206287861,10.445076,-3.0398473740000003,-0.5349832475,19.582811355,-0.7643544675,-1.886187911,0.18733596799999985
175,1.4582749999999578,-30.02717209,8.1156311035,10.498107899999994,-2.509435803,-1.561555713,4.8637365710000005,-1.50726974,-13.154423235,0.10885414500000001
176,1.466607999999951,-29.97761345,8.1182045935,10.50120545,-2.1688156425000003,0.061432427,14.51285982,4.4725019935,-0.2678546949999996,-6.437499999956131e-06
177,1.4749409999999443,-29.971465115,8.054672003,10.523880000000005,-2.7702169415,-0.535983667,12.0774498,-1.14137727,-8.5269629935,-1.272156775
178,1.4832739999999376,-29.927983285,8.037075758,10.53100585,-2.140295267,-1.087217629,8.7081294075,3.673581839,-2.58741617,-0.8557846545000001
179,1.4916069999999308,-29.902916910000002,8.056031704,10.507545500000006,-2.0020824375,-0.40666535500000006,16.048015595000003,1.9045977294999998,2.7914454944999996,-1.1119908095
180,1.499939999999924,-29.875012395,8.003952026499999,10.524185199999991,-2.6929909585000003,-0.761447728,6.213383436,1.6585344375000002,-6.7301854185,-1.839947462
181,1.5082729999999174,-29.82982826,8.0452406405,10.486892700000013,-3.218862057,-0.4557204245,17.061663625,4.5366909500000006,5.916376591000001,-1.3270225225
182,1.5166060000000243,-29.81082058,8.0398728845,10.489593500000012,-1.0525412855,-0.540148571,6.664854764999999,0.840255916,-1.0283666849999997,-0.3449790479999999
183,1.5249390000000176,-29.762291910000002,8.0647821425,10.455642699999999,-2.4809569715,-0.7159040569999999,8.734019635,4.8773994445,4.0160765645000005,-2.100854367
184,1.5332720000000108,-29.715173720000003,8.0927152635,10.439895649999997,-2.3607905805,-1.1103637815,17.35343075,4.529020190500001,3.5348236565,-0.19584035849999992
185,1.541605000000004,-29.70112705,8.148934364,10.413558999999992,-3.0298906565,-0.9211191685,8.011018755,0.6148507815,6.8168945335,0.5166709425
186,1.5499379999999974,-29.67765522,8.194737911499999,10.3876724,-2.0595216755,-0.10568153899999999,11.717532160000001,1.8595620395,5.9977470660000005,-0.20900595200000005
187,1.5582709999999906,-29.63237667,8.2863721845,10.348220800000007,-2.0205230565,-1.9313223365,6.896995305999999,4.60668242,11.2901003365,1.3054807975
188,1.566603999999984,-29.63261223,8.3790163995,10.313232450000001,-2.7862866335,-0.42095556850000004,18.873600005,-0.8229022025000001,11.410799027,1.5584022405
189,1.5749369999999772,-29.642318725000003,8.4954624175,10.261367800000002,-1.873065293,-1.503674507,5.4501807685,-1.753973812,14.612644909,1.5317955200000002
190,1.5832699999999704,-29.624222760000002,8.62601614,10.222908000000004,-3.877581954,-0.389223829,14.65716028,1.453576073,15.567337989999999,3.4212561249999998
191,1.5916029999999637,-29.6137619,8.814910412,10.149185149999994,-0.768388808,-1.0556126535,5.269598841500001,1.1005740165,23.46986103,3.5774776935
192,1.599935999999957,-29.60499859,8.959442139,10.092536900000013,-2.982842803,0.314682841,12.299464225,0.7020544115,18.079634665,2.342102766
193,1.6082689999999502,-29.559553145000002,9.189749718,10.01227569999999,-2.6710312365,-1.9615440965,8.867360115,5.487688303,28.1982069,5.302368164
194,1.6166019999999437,-29.500199315000003,9.391456127,9.95208740000001,-1.5510160325,0.320525572,11.1611595155,6.8860325829999995,24.258372305,5.359448909499999
195,1.6249349999999367,-29.42566967,9.64881897,9.857902550000006,-2.96401906,0.00791212899999999,6.1131432055,9.329457759,31.879700659999997,5.3605531455
196,1.63326799999993,-29.302874565000003,9.884773728999999,9.78986359999999,-2.3635642525000002,-1.374541819,13.39338684,14.715149404999998,28.302770615,6.520507336
197,1.6416009999999233,-29.1831398,10.200686453,9.70449825,-2.33213532,-0.43520915549999994,11.2809186,14.68483305,37.54580593,9.5144491215
198,1.6499339999999163,-29.0468483,10.484086515,9.630554199999992,-2.8103576895,-0.8359279405,9.0652804375,16.54161835,33.638757705,8.5740044115
199,1.6582670000000237,-28.882226945,10.823575495,9.545791600000001,-1.9730129834999999,-1.6344549654999998,11.50692892,20.166397095,40.044293405000005,10.753211972999999
200,1.6666000000000167,-28.726156234999998,11.18992281,9.461372400000002,-2.4041803479999997,-0.254465848,9.819282053999999,19.250149725,42.982826235000005,12.159294605
201,1.67493300000001,-28.557377815000002,11.550834655,9.388465850000003,-1.968076259,-1.398658037,8.965444088,20.53459072,41.72821903,12.902763839999999
202,1.6832660000000033,-28.361714365,11.95916605,9.29737854999999,-3.069586396,-2.138504684,11.002882958,24.29315853,47.84155464,13.63769722
203,1.6915989999999963,-28.19826889,12.38000345,9.215949999999992,-1.5454976409999999,-0.005056895500000005,9.7419753075,20.252321244999997,48.634222030000004,15.114759445
204,1.6999319999999898,-27.994335175,12.82976484,9.11112215,-3.781988859,-1.0316026805,4.7710609435,25.829657554999997,53.044540405,14.220698355
205,1.708264999999983,-27.751555439999997,13.29699278,9.026718149999994,-2.9798408149999998,-0.6322479025000001,13.756634715,30.031868935,53.880037310000006,16.966486930000002
206,1.7165979999999763,-27.546082495,13.856677535,8.890678399999999,-3.2992420200000003,-0.11927136800000004,9.3351368905,27.128671645,66.506614685,16.665740014999997
207,1.7249309999999696,-27.2835865,14.38203955,8.7760849,-3.3149455785,-0.3610815555,5.0315067765,33.49239159,61.84950447,16.573875905
208,1.7332639999999628,-26.962207794999998,14.99552679,8.645141600000002,-3.6126830575,-1.098298639,11.903874395,41.190370555,72.11473465,19.570387840000002
209,1.741596999999956,-26.651429175,15.65432072,8.499137899999994,-2.98705709,0.6880334020000001,9.696179390000001,40.571691515,77.991218565,19.8936491
210,1.7499299999999494,-26.308135989999997,16.28432274,8.367424,-1.7787998915000003,-1.115109086,10.616037369,44.15641403,74.11500168,19.69356346
211,1.7582629999999426,-25.89917946,16.99713516,8.221748349999999,-3.278918028,-0.377872959,7.3822352885,52.730459214999996,83.990581515,21.938049315
212,1.766595999999936,-25.49869919,17.67678642,8.10864260000001,-2.0709989964999997,-0.5645130575,11.62744951,50.673469545,78.783821105,23.371939660000002
213,1.7749289999999291,-25.086694719999997,18.385261534999998,7.972618100000005,-0.7680628895,-1.7742884755000001,9.838081834499999,53.2381916,83.36780547999999,21.440574650000002
214,1.7832619999999224,-24.644624710000002,19.09601593,7.85243985000001,-3.9442167285,-0.04121425749999996,7.9238123895,56.13529396,82.63315582499999,23.499051095
215,1.7915949999999157,-24.18730164,19.79519272,7.756942749999993,-1.063284904,-1.060921073,8.858005524,57.48020554,80.73288345,23.941536905
216,1.7999280000000226,-23.707514765,20.52131653,7.648620600000001,-3.0534075499999997,-0.7529711255,8.046210289,60.47669029,84.12573242,24.234251975
217,1.808261000000016,-23.21927738,21.209801675,7.561149599999993,-0.22165831900000005,-1.0275306405,9.877065419,61.13356018,79.57552719,22.955770495000003
218,1.8165940000000087,-22.690518375,21.909546849999998,7.488105750000003,-3.7008696795000002,0.42200989999999994,8.300907132499999,65.06178093,80.043952945,25.33689117
219,1.8249270000000024,-22.118494984999998,22.609799385000002,7.444488550000003,-1.1775208115,-0.5872083305,9.9061112395,69.429588315,79.42993927,26.593540195
220,1.833259999999996,-21.51660442,23.289889334999998,7.410171500000004,-1.6554629205,-0.727630794,10.492719172000001,72.14740753,76.76574707,27.021045685
221,1.841592999999989,-20.87288761,23.96051693,7.410316449999996,-2.243931174,0.8256129919999999,6.7529723645,76.064308165,74.93318939,28.079773905
222,1.8499259999999824,-20.16972923,24.61291504,7.4409256,-0.8023216725,-1.4219692945,12.347840309999999,81.18040466,71.76496315,30.828270915
223,1.8582589999999757,-19.40281582,25.200963975,7.529434250000008,-0.9785219430000001,0.6486540065,5.580554723500001,86.33526993,63.020284655,32.108237265
224,1.8665919999999687,-18.588048935,25.82303143,7.617126499999998,-2.3720699549999997,0.4913143665,11.382153985,91.59537506,67.15503693,33.405475620000004
225,1.874924999999962,-17.702791214999998,26.378199575,7.7702865499999945,-0.114318217,-1.4937285185,7.5114223954999995,96.90909194,58.033042910000006,35.7569294
226,1.8832579999999552,-16.775606635000003,26.863719940000003,7.954490699999994,0.5623514355,1.136321843,12.125516415,99.92552185,49.522253035,35.907430649999995
227,1.8915909999999485,-15.793358325,27.346489910000003,8.16017914999999,-3.3502790925,0.1634950565,7.4575796125,105.37948227999999,49.25482941,36.840490345
228,1.8999239999999415,-14.740347385,27.792850495,8.39765165,-1.0451713505,-1.472784698,10.04876709,111.78241729999999,44.70568657,38.165092465
229,1.908256999999935,-13.654755595,28.145905495,8.667793250000003,0.3276852745,0.021117538500000005,11.375960826499998,113.82376479999999,33.817708015,37.79443741
230,1.9165899999999283,-12.533968925,28.45580578,8.945327750000004,-1.7234596610000001,-0.2943618225,10.002484797000001,117.34251785000001,29.22518921,36.61558914
231,1.9249229999999216,-11.378952982,28.75336075,9.221084599999998,-1.9707918759999998,-1.9693756100000002,10.343352794000001,121.3656311,28.527965549999998,35.89551163
232,1.9332559999999148,-10.190501689000001,28.96042442,9.526107749999994,-1.4753632995000001,-0.435809582,11.570105078000001,123.60015105,18.003105165,35.82305336
233,1.9415890000000215,-8.9941315665,29.13725948,9.827316249999996,-1.625362575,-0.7042856660000001,14.49698591,124.63676835000001,15.294436457,34.55183792
234,1.949922000000015,-7.780258655499999,29.256773950000003,10.129028349999999,-1.4197180195,-0.9337683914999999,7.606508016499999,126.641716,9.2317152005,33.168964384999995
235,1.9582550000000083,-6.5486984255,29.35495949,10.441619849999995,-2.8894861935,-0.9371816215,13.777358055,128.0503273,7.3107235435,33.618066784999996
236,1.9665880000000016,-5.3169687985,29.389925005000002,10.75920864999999,-0.8123944995000001,-1.712656796,14.28067684,127.75425720000001,0.4082145690000001,33.361465455
237,1.9749209999999948,-4.0998413565,29.390012740000003,11.070030200000005,-1.7681866285,-1.3725843430000002,9.598240854,126.38271714999999,-2.980030179,32.03373146
238,1.983253999999988,-2.8811476529999998,29.376368525,11.391662600000004,-2.314986587,-2.1164677144999997,14.366647245,125.9532356,-4.036738649,33.27898407
239,1.9915869999999811,-1.688438877,29.28781891,11.704063399999995,-1.363972366,-2.2634860875,10.474300383500001,123.3987999,-12.290433408,31.985033989999998
240,1.9999199999999744,-0.527374148,29.229395865,12.007247950000007,-1.8773527739999998,-1.4117896555,13.17056036,120.19671245,-7.982955455500001,31.12143898
241,2.008252999999968,0.598199725,29.103060725,12.300872799999993,-0.818445921,-3.7207909819999996,12.367337225,116.53513715,-15.497485160500002,30.641381265
242,2.016585999999961,1.6908182165,28.95442867,12.585967999999994,-3.380790651,-1.8258895275,10.9116268135,113.16458130000001,-17.60738611,29.73525429
243,2.0249189999999544,2.73748976,28.83006096,12.865814200000003,-2.460870866,-2.515255809,14.705519200000001,108.0143166,-14.102145193999998,29.74091816
244,2.033251999999948,3.752018571,28.666769979999998,13.117240899999999,-1.1643644274999998,-2.973858118,9.1337172965,105.886322025,-18.470950125,27.11354351
245,2.041584999999941,4.6863846774999995,28.47813988,13.362251299999997,-3.7334373000000003,-2.3947234155,16.1846714,96.70090102500001,-20.99380398,27.063537595
246,2.049917999999934,5.579393864,28.315094950000002,13.601409900000007,-2.360280663,-3.034838915,11.74579287,92.17021562,-17.640242575000002,26.474051475
247,2.0582509999999274,6.4185242655,28.14562893,13.820678700000002,-1.3338852525,-3.08438313,9.7514572145,86.889785765,-18.098465920000002,24.807497025
248,2.0665839999999207,7.1681811810000005,27.893387795000002,14.002571100000011,-1.3477897049999998,-3.3492201570000004,12.16004133,78.36529541,-28.198766705,22.416196825
249,2.074916999999914,7.8872230055,27.712003709999998,14.198898350000007,-3.2508326765,-3.0057708025,17.50742912,73.93769455,-19.149926184999998,23.126939774999997
250,2.083250000000021,8.5255105495,27.533407214999997,14.374427799999992,-1.172912568,-2.9975652695,10.5046501155,65.487047195,-18.950110435,21.235072135
251,2.091583000000014,9.104272845,27.266788485,14.506042449999995,-2.2725416655,-2.7786061765000003,6.2289247515,60.828266145,-29.769762995,18.37684536
252,2.0999160000000074,9.67169571,27.088462829999997,14.659500100000002,-3.4547691345000002,-3.64460361,15.212964535,58.339471815,-18.824860575,19.201671125
253,2.1082490000000007,10.160364628,26.88099766,14.793434149999996,-0.7588163315,-1.8954268695,13.229644776,49.994358059999996,-22.36025238,18.072944645
254,2.116581999999994,10.5955600745,26.62717533,14.89614865,-3.072759509,-2.219398379,8.073315382,45.33418846,-28.329259874999998,15.893513679999998
255,2.1249149999999872,11.03380585,26.475337025,15.026519799999988,-3.9509072305,-3.5118825434999996,14.356579543,44.237998965,-15.56325865,16.74855614
256,2.1332479999999805,11.411969185,26.26515293,15.126472450000009,-1.9588466885,-1.552133858,14.899401665000001,38.72225857,-23.00522518,15.180743215
257,2.1415809999999738,11.756522655000001,26.1191082,15.237297049999995,-4.8903102875,-1.385675788,10.5209336285,34.11364365,-15.0672578805,14.682306765
258,2.149913999999967,12.083727360000001,25.98504734,15.355689999999996,-1.315568984,-3.7754490375000005,9.963707448000001,31.69455147,-13.447466375000001,15.47573376
259,2.1582469999999603,12.380921364999999,25.813326834999998,15.433471649999987,-2.9022947105,-1.883251071,7.493795394999999,30.22734928,-18.6664924615,12.112014295
260,2.166579999999953,12.635640145,25.723103525,15.545845,-3.0951970665000004,-2.3797404765,20.296650409999998,23.367835045,-8.2705237855,13.809489724999999
261,2.174912999999947,12.865993974999999,25.62362862,15.63472745,-2.668786526,-1.481646836,7.308478117,21.695092199999998,-9.844772098,11.73028994
262,2.18324599999994,13.105824945,25.580945970000002,15.742713949999995,-5.333607435,-2.273988366,11.946392535000001,21.81504631,-2.6825647349999997,12.02287102
263,2.1915789999999333,13.288064,25.511549950000003,15.843605049999994,0.009860456000000073,-2.8572541475,10.341053485,15.326285365,-5.9266057015,12.286283495
264,2.1999119999999266,13.4524107,25.455897335000003,15.934524550000006,-2.6778853835,-1.7241134639999998,6.6623876095,13.648631094999999,-4.531683924999999,10.5921192165
265,2.20824499999992,13.590942859999998,25.416749005,16.033088700000008,-2.2437300679999996,-3.1465228795,15.64369583,10.23154652,-2.3774824149999993,11.262058735
266,2.216577999999913,13.711490635,25.409234050000002,16.1300964,-2.7183870075,-1.2789095045,8.7536797525,8.124261143,1.2757473,9.9750952745
267,2.22491100000002,13.827881815000001,25.428631785,16.24761964999999,-5.240126431,-1.335640699,13.91463852,6.589085578500001,4.985935209,11.530558110000001
268,2.2332440000000133,13.912425514999999,25.42057037,16.330795249999994,0.7524008749999997,-2.904207349,1.0257982315,4.526932955,0.8904466600000003,8.565966128500001
269,2.2415770000000066,13.957342145,25.38900852,16.39797209999999,-3.417248897,-2.6966899635,15.78293848,0.602504492,-2.2267293935,7.6756265164999995
270,2.24991,13.9950285,25.40665817,16.481147750000005,-2.125191569,-1.2371352015000001,11.730714800000001,-1.0660709145000002,3.9022971985000003,7.877863884
271,2.258242999999993,14.03024864,25.420062065,16.55097194999999,-4.3859624865,-0.905113414,11.784180645,-0.70708704,3.088622451,6.6240975854999995
272,2.2665759999999864,14.08143854,25.482423785,16.6373138,-1.245233968,-2.010517776,4.5041987895,0.35628770249999997,9.208184183,6.867958784000001
273,2.27490899999998,14.106842995000001,25.496684074999997,16.685249299999995,-2.6407044525,-1.142736673,12.091642855,-0.7611974480000001,2.6155273465,4.283110261
274,2.283241999999973,14.154905320000001,25.54183388,16.7648315,-2.0333575605,-1.2235213515,9.6825032235,0.3137686249999998,7.0364190335000005,6.6354203225
275,2.291574999999966,14.21427107,25.569025995,16.81530765000001,-2.059381753,-0.682897933,10.874915599,3.2132036090000002,4.191366672000001,4.230844498
276,2.2999079999999594,14.298911575,25.6216917,16.87486265000001,-3.317213416,-1.766789019,9.1085042955,5.730558157,7.395996542,4.304023861499999
277,2.3082409999999527,14.387290955000001,25.665284155000002,16.936042799999996,-2.535389781,-0.83920905,13.89008331,6.1247105600000005,6.396754143500001,4.8363265989999995
278,2.316573999999946,14.468380450000002,25.70881176,16.985534650000005,-2.537274569,-0.9054778105000001,8.3472599985,5.814560413500001,6.0739876055,3.475660086
279,2.324906999999939,14.53895378,25.728545185,17.032112150000003,-2.2889680859999997,-2.1736414435,11.5876717555,4.724366426,3.2481606004999994,3.9866764545
280,2.3332399999999325,14.61761379,25.765044215,17.0773468,-1.1237809065,-1.786305249,5.8593499665,5.755750179,5.1470345275,3.245580554
281,2.3415729999999257,14.663538455,25.757393835000002,17.092994649999994,-3.3389690815,-1.6185039285,16.582362175,3.386490524,-0.7704436779999999,1.571856022
282,2.349905999999919,14.73175764,25.814252855,17.13739774999999,-2.883964777,-2.1596853735000003,7.743592978000001,4.550471902,7.496032594,2.544224173
283,2.3582389999999123,14.77318907,25.823418615,17.151092500000004,-2.7528450490000003,-0.8625481725,13.511877535,2.954371974,1.1272127625000001,0.8447511129999999
284,2.366572000000019,14.83706951,25.873042105000003,17.184814450000005,-2.2313245239999997,-1.711643517,2.3834961800000003,4.5607942345,6.376152338,1.6254795789999998
285,2.3749050000000125,14.89027691,25.89358139,17.195968649999998,-1.5845738800000002,-1.887610495,13.30997038,4.4818253519999995,2.3780130145,0.190883694
286,2.3832380000000057,14.92725563,25.90464306,17.204757700000002,-2.5769649745,-0.8635220455,9.9783735265,2.648806274,1.2188021545,0.23287823800000002
287,2.391570999999999,14.974184515,25.9329586,17.234024050000002,-2.4554710985,-1.8422861395,11.921133515000001,2.7623351215,3.7834464315000003,1.8041769269999999
288,2.3999039999999923,15.02626276,25.915913585,17.23780825,-0.8672484755,-1.577099323,8.377700328500001,4.762019634,-2.175245285000001,0.6562880280000001
289,2.408236999999985,15.06975317,25.946601864999998,17.248153700000003,-3.4990193845,-1.8973810675,12.76095438,3.3365107175000004,3.5299696925000004,-0.27249073999999995
290,2.416569999999979,15.087105274999999,25.9529047,17.27249144999999,-2.6306649445,-1.6208276155,12.987398625,-0.48977649199999984,1.1083083150000004,2.0658522845
291,2.424902999999972,15.1128602,25.945332524999998,17.2683258,-2.4491594435,-0.821224049,4.189939678,1.959604785,-1.314286234999999,-0.6169766485
292,2.4332359999999653,15.13987398,25.950598714999998,17.279701250000002,-2.8810487985,-1.8953704235,13.401710035,1.340566099,0.6278886799999999,0.7287569045
293,2.4415689999999586,15.161896705,25.96651554,17.28785705,-1.508112311,-1.656701505,6.5113220215,0.8895506860000001,1.7549409870000003,-0.03312581749999999
294,2.449901999999952,15.141869065,25.976137165,17.277679449999994,-2.4471720455,-1.747359425,17.484194755,-3.1768246220000003,0.5203211310000002,-1.6743257045000002
295,2.458234999999945,15.160542015,25.96634579,17.277008050000006,-3.5003630515,-1.53500551,3.6701709625000003,0.970299244,-1.4676571935,-0.10131073000000002
296,2.4665679999999384,15.175625799999999,25.972782135000003,17.26220705,-1.520507753,-0.6969680415,18.620220185,1.284874141,0.016053795499999968,-2.0670945645
297,2.474900999999932,15.162008284999999,25.960113524999997,17.238685599999997,-2.7446215599999997,-2.003519833,5.6418044565,-1.6912183835,-2.4384691715,-2.346942902
298,2.483233999999925,15.182872775,25.95042801,17.222236600000002,-2.0219254795,-1.3765453695,7.882434845,2.028814167,-1.8991231895,-1.7986572385
299,2.491566999999918,15.200309755,25.90621853,17.183570849999995,-2.0422199815,-0.651345126,12.82936144,2.8357654215,-6.518679141,-2.9044755694999997
300,2.4998999999999114,15.211143015000001,25.873827935,17.152801499999995,-3.1627840995,-1.8232165575,9.9471209035,1.5599903465,-4.93442583,-2.606390238
301,2.5082330000000184,15.218934059999999,25.856628415,17.13499449999999,-2.8484754565,-1.356324613,11.411514759,0.5797456504999998,-2.8008484850000004,-1.5868534445
302,2.516566000000012,15.249245165,25.815659519999997,17.1004868,-1.7571704985,-0.5559878795,3.6452132465,4.0900691745,-6.036197185000001,-2.724330783
303,2.524899000000005,15.26994276,25.795046805,17.070953349999996,-3.1665191650000004,-1.991287112,21.03583145,2.736625433,-3.5308656669999996,-2.7071688175
304,2.533231999999998,15.28624773,25.782787325,17.056167599999995,-3.2968351845,-1.582275391,5.731307268,1.397890568,-2.1532287585,-1.535663128
305,2.5415649999999914,15.293451784999998,25.758940695,17.021499600000013,-2.6334533694999998,-0.9629807175,16.414074895,1.3756314515,-4.056596696000001,-3.1713879105
306,2.5498979999999847,15.32415533,25.728158954999998,16.991577149999998,-2.732100904,-1.996483207,4.814893842,3.9348078964999997,-4.7253143785,-2.4775112865
307,2.558230999999978,15.333452225,25.738677025,16.9702377,-2.321436137,-1.421365142,15.945385455,0.9118411245,0.29576182399999995,-2.913414359
308,2.566563999999971,15.312286855,25.731689449999998,16.929321299999998,-3.7515077595,-0.911839273,9.0627682205,-1.7011632325000001,-2.2860900165,-4.354086876
309,2.5748969999999645,15.313803195,25.719497685,16.902778650000002,-2.851332903,-2.146697521,10.4905347825,0.2180351614999999,-2.4811959249999997,-2.777416229
310,2.5832299999999577,15.31871176,25.732857705,16.8771057,-2.1491173505,-0.339528933,9.393428328,0.6526508035,0.5071544649999993,-3.3784029485
311,2.591562999999951,15.299637319999999,25.740065575000003,16.841636649999998,-2.999962807,-1.6021569969999998,9.173238277500001,-1.803665042,-0.4887518850000001,-4.340179205
312,2.5998959999999443,15.282052995,25.743373875,16.815528900000004,-3.69420141,-2.7297888995,14.21255493,-2.0155907555,-0.6661672599999999,-3.0950454470000004
313,2.608228999999937,15.27533674,25.746500015000002,16.793426499999995,-0.5431004764999999,-0.55801177,9.967527868,-1.0086439919999999,-0.5769791599999996,-2.802441001
314,2.6165619999999308,15.22646999,25.75409031,16.759887700000007,-4.1443700195,-1.2551187275,13.536674025,-5.379438698,-0.38249015500000016,-4.0154417755
315,2.624894999999924,15.21089697,25.756621359999997,16.739234900000014,-1.78584075,-2.6325100065,5.541156888,-2.1484711765,-0.6018524199999993,-2.6232315600000002
316,2.6332279999999173,15.186311244999999,25.762682915,16.71659084999999,-2.2553867845,-0.296939999,16.083383085,-3.0315732955000003,-0.24627590500000007,-2.834792197
317,2.6415610000000243,15.132075785,25.780711175,16.693557749999997,-2.422441393,-1.983370781,7.655219795500001,-6.657959938,1.1301574715000005,-3.350931585
318,2.649894000000017,15.100842475,25.785717965,16.68018339999999,-3.1944404244999998,-1.8219666485000001,9.1374039655,-4.3249636890000005,-0.10312938700000007,-1.8489637079999999
319,2.6582270000000108,15.078033925,25.811486244999998,16.660903950000005,-1.251091361,-0.5583867730000001,6.58721447,-3.072799325,2.134223463,-3.195299268
320,2.666560000000004,15.030263425,25.822598454999998,16.639724700000002,-3.73687315,-2.0424815415,13.48881912,-5.9087691305,0.384886265,-2.862659633
321,2.6748929999999973,14.988969805,25.844122885,16.635681149999996,-2.5661954585,-1.050464511,10.2555098555,-6.0867245195,2.07383704,-1.465704486
322,2.6832259999999906,14.945026875,25.864001275,16.615058900000008,-2.237373829,-1.324659079,12.568113799999999,-5.471252561,1.4211871624999994,-3.0718511939999997
323,2.691558999999984,14.908316135,25.87797642,16.605781550000003,-2.938946247,-1.679325521,7.16984725,-5.2585901024999995,1.0572978259999999,-1.7633672655000001
324,2.699891999999977,14.883616445,25.89352894,16.595840449999997,-3.045221716,-0.7320506275,13.74277687,-3.7182393075,1.2198338505000006,-1.8127834495
325,2.7082249999999704,14.846429825000001,25.92414856,16.593772849999993,-2.467475697,-1.343992263,13.170118330000001,-5.681749582,3.1884542704999994,-1.519577153
326,2.716557999999964,14.810010434999999,25.926389695,16.583496100000005,-3.490154624,-1.159269214,8.289644001000001,-5.117686033,-0.33173632649999973,-1.4520965815
327,2.724890999999957,14.78850126,25.951902385,16.5701904,-2.18277495,-0.1778229475,7.919770241,-3.2004217505000003,2.2849881649999997,-2.528624654
328,2.73322399999995,14.76407528,25.975692745,16.57026669999999,-3.6080963610000003,-2.2209380865,12.235899925,-4.2294360399999995,2.4560412165,-1.0354683695
329,2.7415569999999434,14.719669815,25.98043251,16.549591050000004,-2.393571675,-0.579681873,10.895770071000001,-5.54959321,-0.327535868,-2.654211044
330,2.7498899999999367,14.70592594,25.999403,16.544250500000004,-2.8934857245,-1.1823325155,9.029747485,-2.6764570475,1.754812002,-1.4467113615
331,2.75822299999993,14.689430715,25.996912005,16.5343857,-2.2780265809999998,-1.4444334505,8.373361111,-2.7613298889999998,-0.8694558144999998,-1.3020867779999998
332,2.766555999999923,14.684265615000001,26.000083925,16.512420649999996,-2.0901750249999997,-1.2123605610000001,14.151780125,-0.7707708215000001,-0.5332183834999995,-2.697550729
333,2.7748889999999165,14.670087815,25.975615505,16.510055550000004,-3.217708707,-0.945920914,12.42728281,-2.8706769944999997,-3.2161044775,0.15403765450000007
334,2.7832220000000234,14.669157985,25.977331165000002,16.495018,-2.063330926,-1.802126229,4.804085374,-0.623424828,-0.5139558315000001,-1.9336312565
335,2.7915550000000167,14.691541675,25.952510835,16.484474200000008,-1.497270167,-0.33952791250000003,11.44254303,1.9404321905,-3.4786376955000002,-0.69246158
336,2.79988800000001,14.68101978,25.931116105,16.459823599999993,-3.768794775,-2.1959518195,10.370345115,-1.264939815,-3.4627566334999997,-2.2319732905
337,2.808221000000003,14.68602276,25.905195235,16.44596865000001,-1.8688433765,-1.3716937005,9.7204258455,0.029014525,-3.6973958610000004,-1.0099372715000001
338,2.8165539999999964,14.707021235,25.920479775,16.442367599999997,-4.103518724,-0.5889543295,5.969820737999999,1.3979481759999999,1.3725069165,-1.169975102
339,2.8248869999999897,14.698020934999999,25.881814005000003,16.39547725,-1.384958219,-1.899055243,11.706154825,0.08361160749999996,-6.087000968,-4.079374731000001
340,2.833219999999983,14.70843363,25.913359645,16.38698579999999,-5.830010176,-1.6032955645,13.666193485,0.38592320700000005,3.1245396435000004,-2.17499423
341,2.841552999999976,14.66314602,25.939832685,16.367576600000007,-2.9647239450000002,-1.516080469,13.286686419999999,-5.699117360500001,2.2266650204999996,-3.186392337
342,2.849885999999969,14.60600948,25.99082279,16.319396949999998,-3.6457234620000003,-1.9516967534999998,7.278850794,-5.622690201,4.3015459105,-6.895954609
343,2.8582189999999628,14.538107870000001,26.071165085,16.278564450000005,-3.4981701375,-2.62095505,13.389815330000001,-7.2624468225,7.913941146000001,-7.015294613
344,2.866551999999956,14.386548995,26.183814045,16.233062750000002,-2.6532430949999997,-2.8587058785,14.08814621,-17.0568509105,11.5596191895,-8.440983772
345,2.8748849999999493,14.18253851,26.308852195,16.151725749999997,-3.4495991465,-2.4163546565000003,8.504558088,-21.42859125,12.088978767,-12.475893259
346,2.8832179999999425,13.934354305,26.45416546,16.0652008,-4.506465435,-2.9377526045,12.022642849,-26.43923998,14.3521926405,-13.610765935
347,2.891550999999936,13.63075733,26.624946594999997,15.966094999999996,-2.851874411,-1.5332650540000001,8.205083132,-32.367733955000006,17.105806706499997,-15.449707506
348,2.899883999999929,13.21694422,26.833643915,15.83076475,-2.3459858895,-4.4684927465,15.269988060000001,-43.63728237,20.68819046,-20.273511885
349,2.9082169999999223,12.735066415,26.94216919,15.67301175,-2.5632805825,-4.3432095055,4.4161913395,-50.487842560000004,8.6496787065,-19.695346354999998
350,2.916549999999916,12.21302366,27.147782325,15.503097499999996,-3.398784399,-1.4236519935,17.53569603,-54.665731429999994,19.877206805,-23.360931395
351,2.9248830000000225,11.601343629999999,27.325876235000003,15.32523350000001,-2.6238539815,-3.7762243745,11.389430047000001,-64.864679335,16.7308318005,-23.45775604
352,2.933216000000016,10.935762405,27.443587305,15.126907349999996,-3.5798889025,-2.198263049,4.5587193965,-70.25371742499999,9.4053500875,-23.715712545000002
353,2.941549000000009,10.247808933,27.67230797,14.940071099999997,-3.2498105765,-2.196852565,15.17699528,-73.47170258,23.033402440000003,-24.910307885
354,2.9498820000000023,9.441612243,27.793475155000003,14.730415350000001,-0.23573809849999994,-2.6911404135000003,11.8477375485,-86.350803375,10.1906170835,-24.81231785
355,2.958214999999996,8.585543871,27.910867695,14.528411899999995,-3.2480382915000003,-1.6323929130000001,8.023932219,-92.69853592,10.263798713,-23.6863575
356,2.966547999999989,7.747318267500001,28.10882664,14.329269400000001,-2.812399149,-1.5416870115,12.532615184500001,-90.66995621000001,20.20898819,-24.630966190000002
357,2.974880999999982,6.840595006499999,28.206409455,14.126564049999999,-2.6310166120000003,-2.430843413,14.97767544,-98.61788179999999,8.5888227215,-23.301548005
358,2.9832139999999754,5.894994736,28.353267665,13.92554475,-3.2423948645,-0.669236451,6.0172879695,-103.35969925,14.84792757,-23.32970524
359,2.9915469999999686,4.9599002599999995,28.50775337,13.713508649999994,-1.609918535,-1.4849532245,10.446431160500001,-101.39390184000001,16.03945875,-24.473952295
360,2.999879999999962,3.99472487,28.558102605000002,13.503959649999999,-2.5416800975,-1.2483404575,7.165989815,-105.12496949999999,3.9840184155,-22.929416655
361,3.008212999999955,3.025062144,28.69686699,13.307006799999996,-3.481760621,-0.3593314289999999,13.218432425,-106.35145564999999,15.028122425,-21.882446289999997
362,3.0165459999999484,2.0583691594999998,28.772316935,13.099739100000008,-1.4243881104999998,-0.44670507299999995,8.636761906,-105.36024855,7.7554464315,-22.873751640000002
363,3.0248789999999417,1.1219043995,28.856298449999997,12.898368849999997,-4.1456027035,-1.399022609,7.1524927604999995,-102.05252838,9.144062040000001,-21.477864265
364,3.033211999999935,0.16753011949999996,28.947470664999997,12.705177299999988,-2.6197836249999997,0.8690316975,21.893854145,-104.63039015000001,10.416175128,-21.08338356
365,3.041544999999928,-0.7679322510000001,29.025707245,12.515289300000006,-2.6024195665,-0.4846162105,1.2640699895,-102.534549695,9.1441739215,-20.06375027
366,3.049877999999921,-1.657907516,29.10836029,12.343177800000007,-2.5829912125,0.560263272,14.820500375,-98.085655215,9.975745202,-18.27717495
367,3.0582109999999147,-2.5292002555,29.21815109,12.158828749999998,-1.381751731,1.0533784924999998,4.6033961775,-95.09999468000001,13.514925004999998,-19.12572384
368,3.0665440000000217,-3.3706322904999997,29.273757930000002,11.999809249999998,-2.9756075145,0.17033845150000002,13.813204290000002,-92.972442625,7.202944994,-16.600870135
369,3.074877000000015,-4.15976429,29.412555695000002,11.849678049999994,-2.411991656,0.9360003545,4.2368286845,-87.19430542,17.302901265000003,-14.95377731
370,3.083210000000008,-4.8894928695,29.465332035,11.718605050000008,-2.4158679845,1.914110422,12.984214785,-81.16549682499999,7.063156365999999,-13.515369895
371,3.091543000000001,-5.58814168,29.5835886,11.580909699999992,-2.5396370885,0.1965206525,4.728618979,-77.02326202500001,15.096363545,-13.406877045000002
372,3.0998759999999947,-6.227885008,29.642071725,11.467735300000001,-1.846334159,1.4573199149999998,13.128091335,-71.37782669,7.8897349834999995,-11.37095499
373,3.108208999999988,-6.825711727,29.71495533,11.346107500000002,-3.122521639,1.272980422,7.2948577404999995,-65.83074188500001,9.8170969495,-11.99973011
374,3.1165419999999813,-7.381102562,29.76010227,11.240608249999994,-2.2361928225,0.4113500565,11.0303695205,-61.681369785,6.4432570935,-10.555521009
375,3.1248749999999745,-7.907857418000001,29.802347185000002,11.123550449999996,-1.8117816745,0.9769308864999999,8.289736747500001,-57.552337645,6.336022017,-11.847441674999999
376,3.133207999999968,-8.413446188,29.80212307,10.998855599999999,-2.3926366565,0.4799858925,9.5742101645,-54.546037675,1.536248565,-13.139266965000001
377,3.141540999999961,-8.9015674595,29.79108429,10.879097000000002,-1.9782745375000002,-1.3045697805,10.711995603999998,-52.753681185,0.2598266599999999,-12.992304325
378,3.1498739999999543,-9.38010931,29.770515445,10.736198400000006,-1.9639631805,0.800840169,8.2604413035,-50.222949979999996,-0.3333764079999999,-15.3623786
379,3.158206999999948,-9.868803499,29.707559585,10.590591399999994,-0.9708796740000001,-1.5686533455,10.183481695000001,-51.293861390000004,-5.2147619735,-16.669994355
380,3.166539999999941,-10.348080159,29.58316326,10.4445877,-2.6694562735000003,-1.1665296404999999,6.885260343500001,-50.17224884,-12.27577066,-17.96087885
381,3.174872999999934,-10.844735145,29.481024745,10.275680550000004,-2.831819206,0.0654289145,15.475843905,-50.92377472,-9.1145138705,-20.0045023
382,3.183205999999928,-11.37788725,29.301301955,10.102233900000002,-0.751352489,-1.8046198489999998,7.475977182499999,-55.100255965,-17.9150223755,-22.36778736
383,3.1915389999999206,-11.91353273,29.07874584,9.926048300000005,-3.206752032,-1.5220064519999998,11.566200255,-55.277910235,-22.748482705,-23.842646600000002
384,3.199871999999914,-12.477728365,28.783426284999997,9.749389649999998,-0.974710062,-0.3520469515,11.184133531499999,-58.788072584999995,-30.948769570000003,-26.145200725000002
385,3.208205000000021,-13.061033250000001,28.458068845,9.581848149999999,-2.5221796035,-1.6641982794999999,10.3899965265,-61.449100495,-34.428322795,-26.613554
386,3.216538000000014,-13.65251112,28.100735665000002,9.4070282,-1.32106483,-0.7033106179999999,12.83441496,-62.372640610000005,-37.69950199,-28.379210469999997
387,3.224871000000008,-14.26310301,27.6455698,9.256843599999996,-0.662265003,-0.366924286,6.788896204,-65.89509964000001,-49.423583985,-29.410358430000002
388,3.2332040000000006,-14.874569895,27.173080445,9.114608750000002,-2.38796103,-2.0362185835,12.94360876,-66.860206605,-51.328821184999995,-29.329559324999998
389,3.241536999999994,-15.49896145,26.64064121,8.9983139,-2.451627433,0.0918995735,13.918541905,-69.593738555,-58.63980484,-29.635894774999997
390,3.249869999999987,-16.13502836,26.084853175,8.89246365000001,-3.366157293,-0.8273016510000001,11.202960015,-72.02228546,-61.34892845,-29.497750285000002
391,3.2582029999999804,-16.767777445,25.55195141,8.796424849999994,-2.758430123,-0.198816344,12.63061047,-71.8762207,-58.59986687,-28.949794769999997
392,3.2665359999999737,-17.398763655,24.954623225,8.724563599999996,-1.978777051,-0.726184279,8.874142169999999,-73.507614135,-66.615169525,-28.56896496
393,3.274868999999967,-18.042037960000002,24.329943655,8.675872799999993,-3.38529253,-0.7644750475,12.52404642,-75.740219115,-69.976085665,-28.741944314999998
394,3.28320199999996,-18.660982134999998,23.725771899999998,8.6423645,-4.318445563,-0.419756286,11.821229935,-74.08128357,-68.077674865,-26.35842228
395,3.291534999999953,-19.270086290000002,23.150815965,8.604148850000001,-3.2150443795,0.1441007105,10.24093437,-72.318279265,-64.031614305,-27.220940589999998
396,3.2998679999999467,-19.870877265,22.515639305,8.610855100000009,-3.7433525325000003,-0.7964978814999999,11.670136452000001,-73.83713531500001,-72.52924347,-24.824052809999998
397,3.30820099999994,-20.467342379999998,21.93218708,8.611991899999992,-4.2071473594999995,0.58344011,10.8691272745,-72.71882248,-65.881067275,-24.83335686
398,3.3165339999999333,-21.061965944999997,21.392282485000003,8.602516199999997,-3.061338067,-1.0986332294999999,13.023475170000001,-72.3810997,-60.690668105,-23.898049355
399,3.3248669999999265,-21.640716555,20.80782509,8.630401599999999,-2.6353068349999997,0.284517232,6.6768987175,-71.743282315,-66.545459745,-23.50930023
400,3.33319999999992,-22.19957447,20.319128035,8.6358185,-4.585708618,0.3044399955,11.380270479,-68.78881836,-55.118040085000004,-21.198925019999997
401,3.341532999999913,-22.73689747,19.822714804999997,8.6655655,-2.1885570285,-0.48550528299999995,9.903729199499999,-66.768218995,-56.415483475,-20.583232879999997
402,3.34986600000002,-23.250818250000002,19.35980606,8.680152849999999,-2.9844669099999996,0.26872679050000003,6.0368404385000005,-63.76261902,-52.2725296,-20.0498271
403,3.3581990000000133,-23.733735085,18.96308327,8.696350100000004,-4.5740439295,1.171229124,13.473617555,-59.697870255,-44.48516464,-18.14109421
404,3.3665320000000065,-24.178226475000002,18.553077695,8.724197349999997,-3.129144043,0.3439612165,7.476852894,-55.765691755000006,-46.56837845,-17.376252175
405,3.374865,-24.575227740000003,18.238620755,8.741920500000006,-4.8430105445,1.069630206,10.412674904,-49.478380200000004,-35.32006835999999,-14.490756035
406,3.383197999999993,-24.944756509999998,17.899240495,8.762733449999999,-2.917613447,1.3414574264999999,9.7125024815,-46.453948975,-38.29365921,-15.222811700000001
407,3.3915309999999863,-25.28158951,17.65242386,8.767517100000006,-5.0435357095,0.6687959429999999,11.7736825925,-41.813323975,-27.194823265000004,-12.752618788500001
408,3.39986399999998,-25.572329519999997,17.361738205,8.80512234999999,-4.324982643,0.9912458660000001,13.315579415,-37.57541466,-33.66472721,-11.42060709
409,3.408196999999973,-25.83710766,17.166469575,8.795722949999998,-3.6910830734999998,1.007941663,5.59468627,-32.703673359999996,-20.82525873,-11.742175104000001
410,3.416529999999966,-26.04758835,16.919119835,8.819618199999994,-3.7410830854999997,0.16979715200000003,13.39435005,-27.43067074,-28.20566845,-10.844122890000001
411,3.42486299999996,-26.240260125,16.717118265,8.840743999999987,-3.4963761564999998,0.1112276015,10.618789198,-25.133283615,-23.030340195,-9.0702295305
412,3.4331959999999526,-26.399292945,16.536925314999998,8.830604550000004,-3.1869702935,0.5194625334999999,10.662638662500001,-20.077236175,-19.181658745,-10.95489788
413,3.441528999999946,-26.523148534999997,16.310009955,8.85913085,-2.1488635245,0.288780602,8.675120114999999,-17.108083245,-26.05012417,-9.7294607185
414,3.449861999999939,-26.60764599,16.16764498,8.842918400000002,-4.2679491039999995,0.178230036,8.129001379,-10.9585187435,-14.765655039999999,-9.6659965495
415,3.4581949999999324,-26.667228700000003,15.970404625,8.871726999999993,-2.134596765,0.43118979799999996,14.86549568,-9.3881864555,-22.875242235,-8.102607487
416,3.4665279999999257,-26.720664025,15.839079380000001,8.852630650000009,-3.7289140224999997,-0.612104416,6.38140893,-7.1530622255,-13.4056911495,-9.439669609
417,3.474860999999919,-26.73005581,15.69682121,8.850013750000002,-3.881037116,0.6505423339999999,11.1390686,-2.3383881449999997,-15.355287075,-8.375663994
418,3.483193999999912,-26.716183665000003,15.586253645,8.853683500000002,-3.7741804119999998,-0.379772268,10.6105456335,0.18323719500000002,-12.354157926500001,-5.9895820615
419,3.491527000000019,-26.697289465,15.495442390000001,8.845527649999994,-4.5218536855,-0.187260002,11.1073381895,1.2240722775,-9.555698395,-6.1635408405000005
420,3.4998600000000124,-26.65140057,15.414117815000001,8.835861199999997,-2.317547083,-0.35525711249999997,10.4375262275,4.4614748655,-8.52544284,-5.764330864
421,3.5081930000000057,-26.607831005,15.367361545000001,8.819656400000014,-4.3640211825,0.41075596249999996,10.3852844255,4.433734417,-4.4250386955,-4.652813196
422,3.516525999999999,-26.52635193,15.294555185,8.830383299999994,-3.44967556,-0.9510444105,10.5448603635,8.0853266695,-8.6793978225,-3.1584151984999997
423,3.524858999999992,-26.453137400000003,15.29240179,8.798019400000001,-2.2941935659999997,-0.3301880955,9.004428388500001,8.485433102,1.1682845349999997,-3.9279944895
424,3.533191999999985,-26.37563324,15.242818355,8.779708900000003,-3.2060433625,-1.0448052285,9.3414440165,8.5268642905,-4.7039523125,-4.8878238199999995
425,3.5415249999999787,-26.28206539,15.237614155,8.764785750000001,-3.567068577,-0.44278918199999995,12.021411895,10.368630887,-0.07529950149999998,-2.313477874
426,3.549857999999972,-26.210021975,15.254622935,8.727798449999995,-3.6748780009999997,-1.642273903,5.585508347,8.45925498,3.41569674,-3.279890418
427,3.558190999999965,-26.119474410000002,15.252839564999999,8.69241335000001,-2.6865112780000002,0.0560129885,12.37709427,10.664820195,1.3530008795000001,-4.289513588
428,3.5665239999999585,-26.06875229,15.307873725,8.638183600000005,-5.2069666385,-1.148753434,10.585325717500002,6.4460787775,8.3785841465,-3.0855168099999997
429,3.574856999999952,-25.995001795,15.342999935,8.606025700000004,-3.3398489954999997,-0.1752967385,9.792932989,8.5732507705,5.187741458500001,-2.0635213255
430,3.583189999999945,-25.940850255,15.41504574,8.538208050000009,-3.1034107210000004,-1.0095745925,10.916987420000002,7.298879862,10.8954014785,-3.6201246975
431,3.5915229999999383,-25.897221565000002,15.478582379999999,8.479599000000007,-4.31583643,-1.579228401,7.051782608,5.810872078,9.5857455715,-3.307669282
432,3.599855999999932,-25.84099579,15.53989744,8.435928349999998,-3.021142602,-1.1866787075,16.370094299999998,6.789002657,8.507666110999999,-1.671316177
433,3.608188999999925,-25.824165344999997,15.641512395,8.3599167,-3.070075512,-1.6509150264999999,6.407548666,3.18095541,14.577139375000002,-3.162987113
434,3.616521999999918,-25.797539715,15.670523645,8.310958900000003,-1.927840357,-1.2891215085,10.403173921499999,3.4195070865,5.277314067,-3.893773913
435,3.6248549999999113,-25.780787465,15.77465057,8.24044035,-3.2593456505000002,-1.3853134515,10.769966127,2.9977882355,14.538834575,-2.41246444
436,3.6331880000000174,-25.78793812,15.800107955,8.204093900000004,-2.7399246095,-1.8183566930000001,10.877233026999999,-1.033540845,4.260730264499999,-2.7386486530000003
437,3.641521000000012,-25.79658699,15.883271215,8.128898649999996,-1.6496872009999999,-1.5140827300000002,5.2090206145,0.14397108550000004,12.551246641,-4.0786447525
438,3.649854000000005,-25.81814861,15.900041105,8.091567999999995,-3.193905115,-1.438710034,10.559025285,-2.719815999,3.3728506545,-3.287843704
439,3.658186999999998,-25.8433218,15.944614885,8.046546899999996,-2.5973543975,-1.2056071460000002,8.822846413,-2.8321794865000003,6.8493757255,-2.932420492
440,3.6665199999999913,-25.891749385,15.966898915,8.010917649999996,-2.361951172,-1.657796085,10.068349838,-5.9947429895,3.8884778035000003,-2.8297072350000003
441,3.6748529999999846,-25.93982887,15.958286285,7.985260000000011,-1.3977626710000002,-0.9643426685,6.933848381,-6.225540161,0.12396669399999993,-3.6735298635
442,3.683185999999978,-25.98591328,15.95095825,7.957481400000006,-4.3388892415,-1.2078906295,13.324460505000001,-5.971472502,0.29806661600000073,-3.5498388409999997
443,3.691518999999971,-26.063079835,15.94303608,7.952644300000003,-2.5952693225,-1.71635139,11.590726855,-10.391490935,-0.826283276,-1.504080847
444,3.699851999999965,-26.123772625,15.907379155,7.939445500000005,-2.6555142995,-0.0891625025,9.455677986000001,-8.2002711305,-3.4880006335000004,-3.533240795
445,3.7081849999999577,-26.208265304999998,15.867606160000001,7.93232725,-2.7161033155,-1.4972050785,9.332728386,-11.202912805,-4.1402464805,-3.435163975
446,3.716517999999951,-26.28686142,15.830212115,7.932907100000008,-4.200141907,-1.4882597624999998,11.340922355,-10.806441785,-4.372318806,-2.231601983
447,3.724850999999944,-26.384410860000003,15.766951084999999,7.943962099999993,-1.4335699675,-0.3007053065,9.3213164825,-13.371221545000001,-7.5925475350000005,-2.8083835245
448,3.7331839999999374,-26.476837160000002,15.703234675000001,7.944862400000005,-3.4905329944999997,-1.9273999929999999,6.499253749499999,-12.474301335,-7.2053756135,-3.619343162
449,3.7415169999999303,-26.55916023,15.629718305,7.960815449999998,-1.9488599894999998,-1.034171939,11.470815185,-11.713250160000001,-8.9604110725,-2.82094717
450,3.749849999999924,-26.6633749,15.554347995,7.9696883999999955,-3.8141121865,-0.776828423,10.6579775795,-14.148307800000001,-8.863398433,-3.444731116
451,3.758182999999917,-26.752411845,15.45811939,8.006744400000002,-1.297424972,-1.7080150845,11.3534393285,-13.182317255000001,-12.4657983765,-1.9192877415
452,3.766516000000024,-26.852454185,15.381168365,8.0085907,-3.174701691,-0.798665106,8.0763382915,-13.42555189,-8.663659932,-4.2868123055
453,3.7748490000000174,-26.936678885,15.261456015,8.05134584999999,-2.1843922730000003,-1.099019051,12.147659780000001,-12.778126714999999,-15.280894279999998,-2.6187490225
454,3.7831820000000103,-27.037243845,15.194224835,8.066337599999997,-3.2855480315000003,-1.212683976,7.083589314999999,-13.90235949,-8.302305462,-2.4330199955
455,3.791515000000004,-27.114486695,15.064854145,8.113677949999996,-2.3772964475,-0.7017999925,13.0996317855,-12.068125725,-16.554127695,-2.6856409904999996
456,3.799847999999997,-27.200016974999997,14.995110985,8.126152050000002,-3.6064457890000003,-1.0755863190000001,7.4168715474999996,-12.020173549999999,-8.4334890845,-2.8701139685
457,3.8081809999999914,-27.27329636,14.87556553,8.17768095000001,-3.798155308,-0.8128581639999999,10.9204556955,-11.711753845,-15.730181214999998,-1.7459756695000002
458,3.816513999999984,-27.341231345,14.821154595,8.195076,-3.1606103185,-0.995735586,9.074974537500001,-10.066882611,-7.056288003500001,-1.5681164865000001
459,3.824846999999977,-27.404200555,14.717466355,8.243850699999996,-2.719467938,-1.44119215,12.3500261315,-10.377161741,-13.9011693,-1.1495736239999998
460,3.8331799999999694,-27.470332145,14.66883373,8.261253400000001,-3.090244293,-0.8798077105,7.2194776535,-9.8472151755,-6.4428524970000005,-1.2606302205
461,3.841512999999964,-27.52366638,14.580280305,8.298522950000006,-2.7465771439999997,-1.6180443764999999,9.175624847,-8.8772416115,-11.711354735,-1.4520007375000001
462,3.849845999999957,-27.55965519,14.552083495,8.321937599999998,-3.3967392445,-0.18858912600000002,9.875797985,-6.409360647,-4.595143069500001,0.4624716045
463,3.85817899999995,-27.60682583,14.466492655,8.35203555000001,-3.3145719765,-1.6301193239999998,11.341030597,-7.9015438555,-10.989097118,-2.0890331865
464,3.8665119999999433,-27.642332080000003,14.418865205,8.362518300000005,-2.8421316145,-0.30450966949999997,9.4435360435,-5.9609835145000005,-5.9693854470000005,-1.9564983885
465,3.8748449999999366,-27.680752755,14.370979785,8.375808699999993,-5.384794712,-1.0316926245,9.825797319,-6.3795976635,-6.136198044,-1.6033232215000002
466,3.88317799999993,-27.69382763,14.30990505,8.396049500000004,-1.969837099,-1.0923966765,13.85116005,-3.553501368,-7.916195867999999,-1.703897476
467,3.891510999999923,-27.735943795,14.265271665,8.387008649999999,-4.7633920905,-0.934691146,10.75230026,-6.1524763105,-4.567005515,-3.7545096875
468,3.899843999999917,-27.75853157,14.202037335,8.41086575,-2.5757420435,-1.1720130145,10.2770977015,-4.796624899,-8.3366906655,-1.4514691235
469,3.9081770000000233,-27.78644371,14.200855255,8.390418999999994,-2.6321147535,-1.0631092789999999,10.398380281,-4.1183588505,0.6650415435000001,-2.5365778205
470,3.9165100000000166,-27.820010185,14.118300435,8.423210150000003,-2.8128413854999996,-1.2524882255,13.808628559999999,-6.367136240000001,-10.86384392,-1.5972782369999998
471,3.92484300000001,-27.849196435,14.13681793,8.396003699999994,-2.6901551485,-1.3470237850000002,6.4526700975,-4.090670347,3.1078261585,-2.115197897
472,3.933176000000003,-27.87918663,14.08361721,8.423149100000003,-2.9277271139999996,-1.1649262305,10.5424160945,-5.7628445625,-7.436171291,-0.5058490634999999
473,3.941508999999997,-27.8892498,14.075937745000001,8.415618899999998,-2.1934688685,-1.4893426895,7.458192825499999,-2.376911819,-0.7447662355,-1.5711899995
474,3.9498419999999896,-27.909013745,14.059024335,8.432968149999994,-4.6069891455,-0.812944919,13.590711115,-4.248505354,-3.0470508334999997,0.5219606164999999
475,3.958174999999983,-27.944782255,14.043628215,8.432785049999993,-2.1695493905,-1.3956506255,8.0100185885,-5.6840803625,-1.9804860355000002,-1.2448197605
476,3.966507999999976,-27.943191525,14.042147635,8.438674899999995,-4.520254492499999,0.302963585,7.48143816,-1.3547496945,-0.7858383059999999,0.18791234499999998
477,3.9748409999999694,-27.966176035,14.021511555,8.44505310000001,-3.1906691195,-1.459392309,14.150528905,-4.325565457,-2.8742560144999993,-0.9321854115000001
478,3.9831739999999622,-27.98009872,14.033552645,8.442031850000006,-3.342739105,-1.784810841,9.157273769,-2.957266271,1.1388537884999999,0.04932653899999995
479,3.991506999999956,-28.009010314999998,14.02052927,8.44091795,-3.4451860190000003,-0.753349811,9.4733519555,-4.8334195609999995,-1.6870620250000001,-1.221652031
480,3.999839999999949,-28.020045285000002,14.031170845,8.424255399999993,-3.123517394,-1.802003086,9.4633254985,-2.215593159,1.739098072,-1.4351340535000001
481,4.008172999999943,-28.029981615,14.011572365,8.441970850000004,-2.395812273,-1.142757952,13.109342094999999,-3.092393577,-3.39284873,0.33655202400000017
482,4.016505999999936,-28.061980245,14.04043484,8.419998199999995,-3.1835051180000002,-2.123077214,6.022767782500001,-4.579645872,3.963418603,-0.9765490294999999
483,4.024838999999929,-28.047639850000003,14.031881810000002,8.429573050000002,-1.7532637715,-1.1556892395,9.742359159500001,0.04096353050000001,-1.8043947815,0.20324266000000002
484,4.033171999999922,-28.070425035,14.052651404999999,8.437225350000006,-3.8536794184999996,-0.977264583,12.493713379999999,-4.338039756000001,1.4872010125,1.5963369605000002
485,4.041504999999916,-28.066521645,14.088274005,8.445442200000002,-3.1181423665,-1.4344859125,5.40439868,-1.150988549,2.995982051,2.4901263714999997
486,4.049838000000023,-28.057626720000002,14.138738629999999,8.462097150000005,-2.9342249635,-0.5727287085,10.3370165815,-0.8025837615,4.1484243425,4.166546285000001
487,4.058171000000016,-28.047543525000002,14.23072672,8.467994700000006,-4.553861379500001,-1.4972749950000002,8.768729687,-0.35335463250000004,9.080657838499999,5.4142603875
488,4.066504000000009,-27.99653244,14.346538065,8.486137400000004,-4.337247491,-0.08780726800000005,11.828929424,4.197509348500001,10.997170386,7.947550177
489,4.074837000000002,-27.981824875,14.512494085,8.482421899999991,-3.3917469385,-0.88881284,9.903792144,0.484359205,17.423615455,8.603798389000001
490,4.083169999999996,-27.920431135,14.74268055,8.462738049999999,-4.3864797355,-0.662201643,5.9827070235,6.576294899,25.191242695,10.4661281125
491,4.091502999999989,-27.806755065,15.02229404,8.456848149999999,-3.927343726,0.8374720815000001,12.0155725475,12.451789617,29.65255356,14.63544035
492,4.099835999999982,-27.71873093,15.33628321,8.424667400000004,-3.4855337145,-0.40120998750000003,9.4280109415,10.181177496,34.79918194,13.807644844999999
493,4.108168999999975,-27.578686715,15.75613737,8.380310050000006,-3.6713133454999998,-0.549443096,7.961571931,16.898527625,46.771240235,18.238962175
494,4.116501999999969,-27.384944915,16.18351507,8.345863300000005,-3.6787064075,0.9136172084999999,7.308408499,23.00831413,47.028991695,19.67974567
495,4.124834999999962,-27.138619425,16.68461323,8.291862499999993,-5.058801651,0.67893843,9.8059535025,30.081029895,56.079654695,21.363636015
496,4.133167999999955,-26.849932674999998,17.217298505000002,8.257911700000008,-3.7375973460000003,0.8832123430000001,10.1496448515,34.40556717,58.436561585,25.172034265
497,4.141500999999948,-26.481663705000003,17.78892136,8.201255800000013,-4.462356329,1.207326353,5.318607092000001,44.969263075,64.03478241,24.21493721
498,4.149833999999942,-26.005190849999998,18.36955452,8.17697145000001,-2.7003546359999997,1.321950138,11.49957991,56.626174925,63.45948982,27.991889955
499,4.158166999999935,-25.425434115,18.922286035,8.181587199999996,-3.860314846,2.566846907,6.9803938865,68.11327362,59.358001709999996,28.55404377
500,4.166499999999928,-24.752067565,19.52760029,8.165550249999995,-3.6825751065,2.7624917030000002,9.0402505405,79.995508195,66.278892515,28.836068155
501,4.174832999999921,-23.93736267,20.07266331,8.229583749999989,-0.6918483225,0.723776359,8.117062805,93.865844745,56.5249424,32.940476415
502,4.183165999999915,-23.00300884,20.5765686,8.30418395000001,-1.314462543,3.0453618765,7.2913372515,107.41848755000001,51.68170166,31.838381769999998
503,4.191499000000022,-21.971642494999998,21.089277265,8.3912811,-2.1565178335,1.528030336,9.2612743375,118.740810395,53.0564785,32.05686951
504,4.199832000000015,-20.800506595,21.555207250000002,8.54388424999999,-1.900355637,1.331756622,5.1352081300000005,132.2623787,45.399366375,36.536109925000005
505,4.208165000000008,-19.50161266,21.991728780000003,8.71530915000001,-1.7956000565,2.3443638085,6.305046320000001,147.00656125,42.509437565,35.26763725
506,4.216498000000001,-18.09906578,22.339710235,8.9350357,-1.54640007,2.2131870985,12.80417919,156.7435303,31.276443479999998,36.942813875
507,4.224830999999995,-16.60820341,22.65400314,9.197929349999995,-2.2680793405,0.08774285,9.297176361,165.61746979999998,27.195158005000003,38.52909279
508,4.233163999999988,-15.019148825,22.918227195,9.474128749999991,-2.407628298,1.481701523,9.684184074000001,176.2561035,21.801982879999997,38.596767424999996
509,4.241496999999981,-13.361643309999998,23.112968445,9.796272250000001,-2.61790514,0.8972415925,9.693616389999999,182.56711575000003,13.8055214885,39.788253784999995
510,4.249829999999975,-11.626155853,23.25023174,10.128532400000012,-1.992768556,0.17658107,10.155309198000001,190.98249055000002,7.6905624865,39.722713475
511,4.258162999999968,-9.8407034885,23.286628725,10.5093155,-2.045198321,0.7164268644999999,13.909416675,194.97769929999998,-3.6742136474999993,41.666311265
512,4.266495999999961,-8.043477297999999,23.26702881,10.876747100000003,-1.4449959995000001,-0.9150913430000001,11.081463339999999,196.86933134999998,-9.0625438115,39.750148775
513,4.274828999999954,-6.2218022345,23.22991085,11.26099395,-3.665605068,-0.8667365685,12.556922915000001,199.14543155,-9.861840727,40.978034975
514,4.283161999999948,-4.3991720675,23.103146555000002,11.6465149,-1.4525190815,-0.91307494,11.970407009999999,199.1440048,-19.588150975,41.05361557
515,4.291494999999941,-2.5853525100000003,22.86900997,12.018989599999998,-1.596145511,-1.8737042545,9.9551081655,198.8270645,-30.8461256,39.239297865
516,4.299827999999934,-0.7945375444999998,22.63302612,12.392234799999997,-2.2631131115,-2.2616710665,14.515527245,196.19657135,-30.01760769,40.47041893
517,4.308160999999927,0.9616070985,22.320935249999998,12.744338999999997,-1.8676398840000001,-1.0551091285,13.130939485,193.20611574999998,-37.71334171,39.08831406
518,4.316493999999921,2.690848384,21.91166878,13.079505900000001,-0.9737903475,-2.6847738024999996,9.8959259965,190.97756959999998,-48.347589490000004,38.748455045
519,4.324826999999914,4.379194796,21.50406265,13.402091949999999,-2.4027422965,-1.9937825200000001,16.17022562,186.8992767,-46.929063799999994,38.643217085
520,4.333160000000021,5.9843597415,20.989363670000003,13.6884613,-1.3955104945,-2.4386587145,14.81495619,178.7637558,-59.06801033000001,37.622278215
521,4.341493000000014,7.5670619015,20.474887850000002,13.959953299999995,-2.866547465,-2.4272080065,8.9120819555,176.9915085,-58.14363098,37.00650215
522,4.349826000000007,9.074713709000001,19.89691925,14.204139749999996,-2.629202455,-2.462771416,15.39998388,169.39499665,-65.08051872,37.333259585
523,4.358159000000001,10.5193157185,19.29105568,14.397560150000004,-1.9169757365,-2.5823965070000003,13.086684224999999,164.15135955,-68.445440295,33.33299732
524,4.366491999999994,11.876482964000001,18.69429302,14.573837299999994,-4.158291787,-2.9483770135,19.141955375,154.5753937,-66.766082765,33.30195999
525,4.374824999999987,13.127182959999999,18.037108420000003,14.694564849999992,-3.3641367405,-3.141368151,8.8975400945,144.08385464999998,-74.60252762,30.056904795
526,4.38315799999998,14.33521271,17.409975055,14.784896849999996,-3.687824011,-4.0302853585000005,16.28373146,140.26861574999998,-71.065990445,27.488004685
527,4.391490999999974,15.423840045,16.77265167,14.833038299999998,-4.080440283,-3.2236014605000003,18.586537364999998,127.49021915,-73.10812759000001,24.675730705
528,4.399823999999967,16.394490715,16.14876747,14.861717249999998,-3.06892246,-4.0433850289999995,11.698569776500001,114.1365471,-71.44366646,23.10679245
529,4.40815699999996,17.272206305,15.58851433,14.860199000000009,-4.028829247,-5.7794234755,14.236008645,103.97107314499999,-64.955545425,18.648881435
530,4.416489999999953,18.015117645,14.983322144999999,14.832321149999999,-1.9450063709999998,-4.1493054625,12.594653130000001,88.67893221,-70.44107056,18.458758355
531,4.424822999999947,18.64325333,14.480406285,14.812660249999993,-4.7618543505,-4.240698576,14.300354955,74.5956192,-58.50461197,16.1044139845
532,4.43315599999994,19.18644047,14.028778075,14.812866249999999,-5.086460665,-4.5147781375000005,14.706265925,63.825355529999996,-51.436820985,17.2125682845
533,4.441488999999933,19.60215187,13.57794905,14.794769299999999,-1.454524517,-4.17733562,10.481961726,49.03496647,-52.189039230000006,15.326958176999998
534,4.4498219999999264,19.932214735,13.136892795000001,14.775085450000006,-4.0238885579999994,-3.954686165,11.859998225,38.7934494,-50.78745842,15.4422805285
535,4.45815499999992,20.191087725,12.77902603,14.793266299999999,-5.0277283195,-3.5190392729999997,16.52484322,29.216095924999998,-40.047387125,16.198794366
536,4.466487999999913,20.33592701,12.46812296,14.817932100000007,-3.1743054985,-3.046211481,12.314854619999998,15.370973704,-34.23739052,15.322742701
537,4.47482100000002,20.41229725,12.086211205000001,14.807372999999998,-1.2476282120000002,-3.99477613,2.9238200185,8.082409619,-43.79821491,14.3278512975
538,4.483154000000013,20.448515895,11.845278265000001,14.85160830000001,-7.506918669,-1.564422816,20.41300726,1.8547759099999999,-25.548921585000002,14.524743793999999
539,4.4914870000000064,20.376272200000002,11.557899955,14.883712799999998,0.8489242795,-3.811885476,11.1195154215,-10.7729222795,-31.36954308,15.234688760000001
540,4.49982,20.27021122,11.27839851,14.890998849999988,-4.4887208935,-1.9948274495,6.0393407345,-14.290237425499999,-31.449403765,12.0549829025
541,4.508152999999993,20.157827374999997,11.102972985000001,14.976180999999997,-4.820526481,-3.202006936,17.061732295,-16.80578041,-16.62836266,16.330098149999998
542,4.516485999999986,19.963866234999998,10.857944485,15.00787355,0.36718505649999994,-0.5437918975,6.1939734054999995,-25.35178947,-26.647527695,13.2646970755
543,4.52481899999998,19.759117125,10.606016635,15.04782865,-3.5940933225,-1.8176738024999999,11.532168389999999,-26.81117821,-27.163669585,14.334350109999999
544,4.533151999999973,19.579080580000003,10.463366985,15.14109040000001,-4.9332925085,-0.26413179200000003,17.84252453,-25.00337219,-12.735268595,15.77035427
545,4.541484999999966,19.35858631,10.232006072499999,15.180900550000004,0.5615605114999999,-1.790820718,3.0882847455,-28.647869110000002,-24.938269615,13.339809895
546,4.549817999999959,19.13916683,10.014373304,15.226898199999994,-1.9884916545000002,-0.9717216645,8.6562457085,-28.65077591,-23.1854229,13.382866385
547,4.5581509999999525,18.970235825000003,9.860202312,15.281387350000003,-5.796993971,-0.423686206,16.278870585,-22.716245655,-15.719840529999999,11.794212102
548,4.566483999999946,18.83492661,9.698717596,15.351364149999995,-2.2048120499999997,0.789652944,7.860325336500001,-19.014653685,-15.97234488,13.737079145
549,4.574816999999939,18.670024875,9.5051112175,15.370712299999994,-0.5261063575,-2.2921834585000003,6.378740549,-21.49119663,-21.60457611,9.2981693765
550,4.583149999999932,18.546351435,9.301759243,15.395050050000009,-2.66198203,0.5459507555,11.989677905,-16.657628535,-22.523907665,10.175723552000001
551,4.591482999999926,18.495128635,9.151389599,15.430572499999997,-5.580473423,0.858645288,10.3473827825,-8.1374282835,-16.121617795,9.399786951
552,4.599815999999919,18.449792860000002,9.033159256000001,15.473426800000013,-2.468100429,-0.577357009,9.523777007500001,-7.5977106705,-12.167573212499999,8.9255514145
553,4.608148999999912,18.42164612,8.810599327,15.469039899999999,0.2929277419999998,-2.216671884,6.9467001555,-4.611800372499999,-25.836894035,7.65061903
554,4.616482000000019,18.46654701,8.632217884,15.474952700000003,-4.5258980840000005,2.5603569745,7.6854141965,3.9442278125,-20.413534164999998,7.023734331
555,4.624815000000012,18.55906963,8.507911682,15.515182500000009,-3.2984244824999998,-1.6972023245,13.100207805,9.054341795,-12.933966874,8.9922013275
556,4.633148000000006,18.668193815000002,8.341169119,15.519645650000001,-1.8868365285,1.6872090700000002,10.847241880499999,11.7066986575,-19.160955905,6.493826747
557,4.641480999999999,18.830262185000002,8.1662096975,15.5456772,-2.5548828840000004,-1.0873782935,7.2440609935,17.634441375,-19.135383605,9.332107783000001
558,4.649813999999992,18.999501225,7.998857975,15.545783999999998,-0.5876605510000001,0.3956079785,8.408596516,19.041291715,-19.438991545,6.1678798175
559,4.658146999999985,19.18544674,7.8021740914999995,15.54597475,-3.784662217,-0.7779619845,15.66353655,20.94761276,-22.50737953,7.4752123365
560,4.666479999999979,19.406038285,7.663767576,15.563812249999998,-4.0706717370000005,0.4445643425,11.751351357,24.92743492,-15.470718863,7.069890023999999
561,4.674812999999972,19.613336565,7.5015039445,15.552780150000004,0.10513424849999975,-2.1765041355,4.608778119,23.677180290000003,-18.981716155,4.9729783560000005
562,4.683145999999965,19.831928255,7.278631687000001,15.5148468,-0.909947276,-0.5770904125,8.3105130195,25.578857425000002,-27.214777945,4.385390282
563,4.691478999999958,20.069399835,7.1204369065,15.486762999999996,-5.490681648,-1.2092192765,19.38090992,27.54136562,-19.158867835,3.040971281499999
564,4.699811999999952,20.29091644,6.9848217965,15.47513579999999,-2.2717186209999998,-0.713149041,9.006051064,25.52245903,-16.265119075,3.9623680100000005
565,4.708144999999945,20.47650337,6.7999198435,15.423347449999994,0.33649539949999996,-1.1915331485,5.5557579995,21.62822151,-23.12146664,1.591969015
566,4.716477999999938,20.656785965,6.5924987795,15.357940650000003,-2.9324445875,-1.261482358,13.81366491,21.327500345,-26.546162605,1.1062631649999997
567,4.724810999999932,20.82773781,6.443429232,15.324615499999993,-4.9221413135,-0.8403269795,18.29425001,19.57757759,-18.31554985,2.25648069
568,4.733143999999925,20.96014786,6.3233406545,15.29441835,-1.503567189,-1.816085845,5.45983994,15.06984949,-15.240644930000002,1.4194474249999995
569,4.741476999999918,21.08171177,6.1115300655,15.227195749999993,0.626479924,-1.7866739035,4.044419229,14.05679846,-26.760243414999998,1.2804102899999998
570,4.749809999999911,21.21116829,5.963686466,15.183372500000004,-4.531363487,-0.2859753370000001,16.749144555,14.870880125,-18.915472985,1.1496295949999995
571,4.758143000000018,21.31899071,5.8396196365,15.155387849999997,-3.9350090025,0.054808043,17.44290161,11.8920283325,-15.26888418,1.9682440749999994
572,4.766476000000012,21.389982224999997,5.694319725,15.126182549999996,-0.5056583880000001,-1.993150532,3.971745193,7.655433414,-17.98336649,2.7094068499999997
573,4.774809000000005,21.43853378,5.5468471049999994,15.068466200000003,-1.03796917,-0.013150513500000072,8.1534042345,5.1224774125,-19.210927965,-0.2923035599999997
574,4.783141999999998,21.4923687,5.4468638899999995,15.06343840000001,-4.4368925095,-1.8739567400000001,17.264815804999998,5.285115004,-11.825930359,3.4284744245
575,4.791474999999991,21.555607795,5.3582737445,15.031471249999996,-2.5311208965,0.5834267585,10.8464667785,6.587175607500001,-11.538958551499999,0.02003765150000003
576,4.7998079999999845,21.606080055,5.221329451000001,15.011581449999994,-0.16589939600000003,-1.88123256,3.4306270184999996,5.024311304,-16.54768658,3.4602864385
577,4.808140999999978,21.652676579999998,5.1409881115000005,14.982009900000008,-3.4631923435000003,-0.6138875335,12.954239847,4.576175928,-10.548686504500001,-0.06109666849999984
578,4.816473999999971,21.693774225,5.1024367805,15.006782549999997,-2.6264243125,-0.5194522444999999,17.79554844,3.3825394324999998,-3.5665583610000002,4.0616238115
579,4.824806999999964,21.696980475,4.9744217395,14.965766950000003,-0.28005415200000006,0.17362953750000001,8.938197968,-0.4589502810000001,-16.415297510000002,0.8491698894999999
580,4.833139999999958,21.71639347,4.8616991039999995,14.954681399999998,-3.0285423995,-1.289068937,5.932668867,1.1474733945,-13.394865035999999,3.380721092
581,4.841472999999951,21.73473358,4.8236505985,14.948310849999999,-3.0622499585000003,0.02068895100000001,14.000092028000001,1.021751918,-4.880812285,0.7255808114999999
582,4.849805999999944,21.711515425,4.7257678505000005,14.935272249999997,-0.09936046600000004,-2.116568804,12.052494051,-3.9648921489999998,-11.8118538855,2.511066139
583,4.858138999999937,21.696188925,4.5720050335,14.881019600000002,-2.394220136,-0.708604902,8.497482776,-2.5531003025,-19.90757036,0.5148648025
584,4.866471999999931,21.724863055,4.5025807615,14.866951,-2.979326189,0.5726983175,7.1504771730000005,2.2609177825,-8.6757353545,1.1262641545
585,4.874804999999924,21.74654579,4.420847654499999,14.848724350000012,-3.067493498,-2.0974357130000003,14.21482229,1.533300549,-10.280148268,1.341935873
586,4.883137999999917,21.725136759999998,4.3240220545,14.816436749999994,0.40880858899999994,-0.6979068515,11.271869662,-3.5895801785,-12.5480874795,0.27961105099999994
587,4.891471000000024,21.71470642,4.186229706,14.771339400000002,-2.934190858,0.45226350449999997,9.8971028335,-2.0848533509999996,-17.710113999999997,0.8626297415
588,4.899804000000017,21.735323905,4.105557561,14.748649599999993,-3.8522895875,0.6425932275,11.2900142695,1.3797690864999999,-10.339521764,0.647604749
589,4.908137000000011,21.75012684,4.0381467345,14.733314499999992,-2.823066175,-1.6810272335,12.76505804,0.6544504764999999,-8.5320000655,1.0309346915
590,4.916470000000004,21.705705639999998,3.94067812,14.697586049999998,0.33911538100000005,-0.21433937550000004,8.198174,-6.3244125845,-12.803770305499999,-0.09199970949999997
591,4.924802999999997,21.68547821,3.8378425835,14.653198250000003,-3.0285414455,-1.1810739335,7.659915208999999,-3.318914294,-13.761726139999999,-0.635854006
592,4.93313599999999,21.72125244,3.7673823835,14.642509500000003,-4.4371908305,1.257737219,13.238730905,3.095122337,-8.684400082,1.504080996
593,4.941468999999984,21.734478000000003,3.7376384734999997,14.629745499999999,-3.205185175,-1.051393874,12.8937559125,0.43087637449999994,-4.208361388499999,-0.35963034650000003
594,4.949801999999977,21.71128273,3.6629912855000004,14.616638199999997,0.7318645715000001,-1.4522527455,6.3923726085000006,-3.9731791015,-9.256509779,1.4060042205
595,4.95813499999997,21.711642265000002,3.600906134,14.582023649999996,-1.7546682354999998,-1.1337019355,7.663787364,-0.9379293584999999,-8.792357325500001,-1.3527646215
596,4.966467999999964,21.74185085,3.5504500865,14.582695049999998,-3.8352494315,2.0280296205,15.633127215,2.3514770124999997,-5.947505059,1.9155864715
597,4.974800999999957,21.748439785000002,3.5415936709999998,14.575332650000007,-3.8882520795,-1.2249898985,16.058017735,-0.386762142,-1.6659436229999995,-0.6919045745000001
598,4.98313399999995,21.734360695,3.4899207355,14.569564800000009,0.6087319849999999,-1.1623965205,5.0190270245,-2.9229046405,-6.362544654000001,1.247541368
599,4.991466999999943,21.726673130000002,3.4228907824999997,14.528236400000011,-1.325595379,-0.6518802195,4.197151065,-1.8562894460000001,-9.6584889905,-1.897028923
600,4.9997999999999365,21.733655929999998,3.393260956,14.524612450000006,-3.9388188050000004,0.5895593465,16.0643672955,-0.407560885,-3.8058725595000005,0.524368182
601,5.00813299999993,21.71765423,3.4043916465,14.520675650000001,-3.462189734,-1.7178642155,15.821653845,-3.1228230000000003,0.7109036445000001,-1.213064462
602,5.016465999999923,21.7024107,3.345924735,14.504158050000001,-1.1004922390000003,1.7171003225,3.6646232010000004,-2.985890269,-7.59799734,0.349128429
603,5.024798999999916,21.71168423,3.2994996305,14.476531949999995,-1.616151333,-1.631703496,4.8011296990000005,0.06140375149999999,-6.745150747,-1.3011775615
604,5.033132000000023,21.70546913,3.2677223680000003,14.45796965000001,-2.7588114740000003,-0.133986913,17.1200881,-1.8432968410000001,-4.733575463499999,-1.004763037
605,5.0414650000000165,21.690324785,3.270413995,14.466491699999992,-3.1546221975,-1.5632581710000002,13.9892869,-3.1525620219999997,0.35754275349999987,0.5174139739999999
606,5.04979800000001,21.701370240000003,3.2504677775,14.450447099999991,-1.0332159994999999,2.1489244995,4.1274078485,0.21870094500000004,-3.326848388,-1.2926667925
607,5.058131000000003,21.72697258,3.1937345265,14.431610149999997,-1.5857310295000002,-2.996352315,9.8827023515,1.8787660005,-7.4428694244999996,0.10805892949999985
608,5.066463999999996,21.73363018,3.1757991315,14.415924100000012,-2.8186517955,1.0233591499999999,18.731114390000002,-0.24354660500000003,-3.13349244,-1.2992372490000004
609,5.07479699999999,21.73312855,3.180752635,14.432212849999999,-3.0291019675,-1.419993788,11.46069479,-1.5096648634999998,1.0265738965000002,1.3048090950000004
610,5.083129999999983,21.760198595,3.204074383,14.426719649999995,-1.0937764645000003,0.6491500139999999,4.236608267,2.1637375355,1.8723690514999998,-2.0510797500000004
611,5.091462999999976,21.775260925,3.1798224445,14.419799799999993,-0.8301205635,-1.719292641,11.488527295,0.46307328349999993,-3.2255892829999997,-8.106499999982475e-05
612,5.099795999999969,21.76220703,3.1610436440000003,14.392623900000004,-1.283959389,0.413158834,15.2991066,-2.436875105,-3.820658743,-2.538187504999999
613,5.108128999999963,21.761795995,3.1842923165,14.400962800000002,-4.679376006,0.13095468249999997,12.475089075,-1.5173298714999999,2.7704310414999997,-0.3994245500000009
614,5.116461999999956,21.786314009999998,3.1961764099999996,14.399047850000002,-1.5447448495000002,1.1129247545,7.8839426040000005,1.908901334,0.7172694204999999,-1.0867299999999993
615,5.124794999999949,21.793203355,3.199832082,14.394103999999999,-0.9559546704999999,-1.4460422395,9.428461549000001,-0.6039519904999999,0.02011352799999999,-1.0616664900000004
616,5.133127999999942,21.776910785,3.1792272329999998,14.3809586,0.02725434299999996,-1.444683969,10.724993705,-2.9001214505,-3.410984397,-0.8683166499999988
617,5.141460999999936,21.789377215000002,3.195891142,14.378837599999997,-4.3060816525,1.7946111560000002,9.523947476,0.07301980249999995,1.5799248815,-1.319306375
618,5.149793999999929,21.846923825,3.2209168669999997,14.408546450000003,-2.6663128735,-1.0138647930000002,11.624499795,5.6523969175,3.6007344725,1.868015765
619,5.158126999999922,21.8713913,3.2595959905000003,14.404380799999998,-2.5671308044999996,0.9585489035,11.845085622500001,1.5590875445,3.890840888,-2.5630331
620,5.166459999999916,21.86627674,3.2305791380000004,14.413116450000004,1.135490656,-3.342816353,7.092186571999999,-1.7626823185,-3.308271408,1.9726486199999993
621,5.174793000000022,21.88215065,3.225422144,14.3823395,-3.613411545,2.43398127,8.890850067,0.796404183,-2.2375316324999996,-3.5074530815000005
622,5.183126000000016,21.904968265,3.2381823064999997,14.406677250000001,-2.6740646339999996,-1.6799950000000001,15.43010378,1.420764148,2.110132813,1.8642491099999998
623,5.191459000000009,21.88792896,3.2438681125000004,14.386108399999998,-1.7955615539999998,1.3918922489999999,12.892768385,-3.1680450364999997,-0.6339331865,-2.8780154584999997
624,5.199792000000002,21.85484791,3.1941788195000003,14.372894250000002,0.03065490699999973,-3.0457166434999996,4.808174789,-5.107337654,-6.470066309,0.43784332299999995
625,5.208124999999996,21.842617035,3.1385023595000003,14.330375649999993,-1.8472135079999998,1.504305154,10.566768409,-2.385044366,-8.4935913085,-2.5578958985
626,5.216457999999989,21.82612991,3.1399525405000004,14.331520099999992,-4.5047497755,-1.3827584085,17.899511335,-3.258847952,-0.10056781749999999,-0.27063322099999976
627,5.224790999999982,21.795167925,3.1209704875,14.316375749999992,-1.0702686309999998,0.7753299865000001,8.7464287275,-4.7814737555,-3.212460816,-1.1444630624999999
628,5.233123999999975,21.773944855,3.0954386,14.291885350000001,-2.3743500710000003,-0.9924106745,5.117446542,-3.7158064840000002,-4.217468617,-1.9764919305
629,5.2414569999999685,21.754591945,3.0489686725,14.269172650000002,-0.37954878800000014,0.39688178900000004,11.398047448,-3.3225637675,-6.616119862500001,-0.7350840569999999
630,5.249789999999962,21.72353649,3.023355007,14.240852349999997,-3.626886755,-0.6748588455,15.797764775000001,-4.8615949155000004,-4.395684718999999,-2.3771481495000004
631,5.258122999999955,21.698049545,3.005745769,14.239906300000001,-2.921355367,1.035378337,11.55406618,-4.1966750625,-2.4367018935000004,0.4023416045000001
632,5.266455999999948,21.68721199,2.9956581595,14.22711185,-2.998162508,0.084794376,8.988931417,-2.5487321615000003,-1.9779248235,-1.3771941660000002
633,5.2747889999999416,21.68076229,2.983202219,14.233558650000006,-0.278441377,-0.5019882845,9.394850253000001,-1.990981519,-1.5248153805,0.9443514350000002
634,5.283121999999935,21.649415015000002,2.9467684035,14.209953299999995,-1.4465087205,-0.695019543,11.927672865,-4.933647633,-5.399173827,-1.3901677135
635,5.291454999999928,21.63103962,2.954795003,14.215438849999998,-2.8305553795,-0.126493942,13.99089527,-3.4032354355,0.7176275845,-0.0518112180000001
636,5.299787999999921,21.618299485,2.9645694495,14.223701450000007,-2.915851414,0.7017281355,10.630882264,-2.8577289585,1.1548497675,0.17896080050000007
637,5.308120999999915,21.603034970000003,3.009869695,14.239273049999994,-3.4064348935,-1.3007525800000002,8.296436784499999,-3.1155236960000003,5.3160559535,-0.6314363480000003
638,5.3164540000000216,21.57415581,3.03210485,14.248115549999994,-0.552962929,-0.657438785,8.2700743675,-4.82280159,2.569607377,-0.3408806324999998
639,5.324787000000015,21.517886165,3.0479475259999997,14.241401699999997,-2.2756860555,0.20866015600000004,11.170922279500001,-7.8828334799999995,1.040008783,-1.8149285305000005
640,5.333120000000008,21.46908665,3.076292753,14.247497550000006,-2.9929527045,-0.1582162345,10.6263299,-7.1833329185,3.1300341635,-0.8718771935000005
641,5.341453000000001,21.431632995,3.1499279735,14.262207000000004,-4.5260572435,-0.19335249049999997,13.49974918,-5.7615776064999995,8.4414038665,-1.9528372269999998
642,5.349785999999995,21.367899895,3.2378319505,14.291961700000002,-1.9730369410000002,1.200661063,11.954345229000001,-9.175084591000001,10.825767995,-0.8662295339999999
643,5.358118999999988,21.3014698,3.3134645225000003,14.314552300000003,-1.2725813095,-1.4966372845000002,7.4563560465,-9.332561016,9.023577602500001,-1.1771607399999997
644,5.366451999999981,21.236829755000002,3.4206519125000003,14.3367157,-1.215813786,-0.42958661899999995,7.9625923635,-9.2386977695,12.64104891,-2.53841567
645,5.374784999999974,21.171415330000002,3.5130887029999998,14.373001099999996,-2.139864385,-0.614371121,12.827165128,-9.2840356835,11.508427619999999,-0.28068733199999985
646,5.383117999999968,21.110738755,3.657111168,14.403961199999998,-4.6292301415,1.4476397035,13.98969936,-8.7644891715,17.11123562,-3.097274363
647,5.391450999999961,21.042476655,3.800416231,14.451568600000002,-2.2160796225,-1.273200691,10.032227276,-9.7557489895,17.707177164999997,-1.1816681624999998
648,5.399783999999954,20.936698915,3.9363515375,14.458625799999993,-1.763095021,0.4883867055,9.086347223999999,-13.961314680000001,15.15438795,-5.399932027
649,5.408116999999947,20.803421975,4.048972964,14.46868895,-0.9366796019999999,-1.995134711,8.9497041695,-17.31835413,12.693061830000001,-4.012612343
650,5.416449999999941,20.643767355,4.1797583105000005,14.445938099999992,-2.3858552575000003,-0.3759941459999999,13.518295765000001,-20.10356283,13.322304725,-8.417100309
651,5.424782999999934,20.437989235,4.3719438315,14.434211699999992,-4.3478165865,-2.0308879015,15.22352076,-25.852095605000002,20.744401935,-9.737556457
652,5.433115999999927,20.166950225,4.567524791,14.40107725,-3.5627306100000005,-1.4493682239999999,11.0903444295,-33.30701542,20.245539665000003,-12.182454227000001
653,5.4414489999999205,19.79243755,4.7733237745,14.342994699999991,-0.681184888,-4.1429525609999995,7.341889024,-45.670170785,20.47406197,-15.299386025
654,5.449781999999914,19.33642578,5.0217978955,14.266021749999993,-5.299997568,-2.012597978,13.3875646585,-55.02319336,24.68153763,-18.945277216
655,5.458115000000021,18.784068105000003,5.356894493,14.227058400000004,-4.8585059645,-2.7724048495,18.48293877,-67.30003357,36.081724165,-17.817614074999998
656,5.466448000000014,18.089472775,5.7015964985,14.142829899999995,-0.530161053,-4.0160458085,7.237524510999999,-83.397766105,35.792367935,-22.919865135
657,5.474781000000007,17.286984445,6.0371408465,14.065055849999993,-2.9614212515,-2.9210315944999996,9.337573528,-96.80535509,35.069892885,-21.36377859
658,5.4831140000000005,16.404687405,6.548623085,14.031318650000003,-7.574935676500001,-2.266636014,18.49032879,-106.4652481,57.38813591,-21.799850465
659,5.491446999999994,15.364562034999999,7.033243656,13.971565249999998,0.3673948049999999,-3.0692030194999997,9.89100075,-125.41676710000002,53.462680815,-23.08973074
660,5.499779999999987,14.21182203,7.4850606915,13.910552999999993,-3.112330161,-2.0985072255,4.9605793185,-138.44591144999998,50.402896885000004,-21.03322077
661,5.50811299999998,13.01622295,8.1525382995,13.8612976,-6.5512120725,-2.051272452,16.4983507405,-144.16740415,75.92216301,-24.554873465
662,5.5164459999999735,11.69040823,8.681601045499999,13.798286449999992,1.722427964,-2.7644885775,13.03423548,-158.9131622,60.317379,-21.437909124999997
663,5.524778999999967,10.239894865,9.283538816,13.716262850000007,-6.694473567,-0.9737644344999999,10.7107200625,-173.9410782,68.55277443,-23.31248188
664,5.53311199999996,8.723537921,9.983237267,13.646835299999992,-0.6911215779999997,-2.316221118,16.25966263,-181.52275085000002,81.356342315,-22.591826435
665,5.541444999999953,7.1494338515,10.528910637,13.524208099999996,-1.6177470685000004,0.7671399484999999,-3.0659867524999997,-187.56407165,62.383703229999995,-23.969795225
666,5.549777999999947,5.5537594555,11.2194247235,13.402313249999992,-4.980602682,-2.1529893575,24.0058136,-189.81179045,80.629051205,-23.23908615
667,5.55811099999994,3.8167815805,11.787662985,13.248123199999995,1.596838802,1.4864459335000002,15.0050542365,-205.94701385000002,66.09748268,-25.07285976
668,5.566443999999933,2.072304975,12.33566046,13.072052,-4.3979599475,-0.8006726504999999,-2.0205910204999995,-206.0778732,64.393865585,-23.856643675
669,5.574776999999926,0.363605559,13.004567625,12.88526920000001,-2.0705351905000002,0.04795247300000005,20.3139507785,-201.2612305,79.453123095,-24.87084103
670,5.58310999999992,-1.4315512474999998,13.41760254,12.658142099999992,2.156367421,0.8632019609999999,4.476145804,-210.5279999,49.564657215,-26.051261905
671,5.591442999999913,-3.215069771,13.9328022,12.420867950000002,-5.272978306000001,1.0983059255,16.390520095,-208.41426845,62.625991825,-25.99912548
672,5.59977600000002,-4.9393930435,14.462862014999999,12.171585100000001,-0.6047213074999997,1.460126996,8.3579866885,-201.003746,65.1552372,-24.770780565
673,5.608109000000013,-6.6634919644999995,14.76292896,11.916870099999997,0.54751277,1.621605545,4.7870999575,-200.30189515,38.56647682,-26.67565918
674,5.616442000000006,-8.350929739,15.11138296,11.65888215000001,-3.320731759,1.2287414895,20.224308015,-196.0182495,44.829251285,-24.43778229
675,5.624775,-10.022041321,15.483056545,11.396575949999999,-0.9262073040000001,3.8751254079999997,6.450588762,-193.35272214999998,48.69017792,-24.26618862
676,5.633107999999993,-11.616268633,15.721032619999999,11.1442871,-0.8626016974999999,0.628917217,3.3494811054999998,-184.6600494,32.892881395,-23.20239925
677,5.641440999999986,-13.113961695,15.85552692,10.931427,0.7826408109999999,2.240360558,13.919878959999998,-173.8871689,20.874510766,-21.862233160000002
678,5.649773999999979,-14.60405922,15.978199005,10.721267699999999,-2.0405821499999997,4.1684225795,15.047934054999999,-173.4144058,19.4077542185,-20.317702295
679,5.658106999999973,-15.979198455,16.090023995000003,10.542228699999995,-2.063147485,2.4857507945,6.897585392,-160.21533205,18.222142337500003,-17.705240250000003
680,5.666439999999966,-17.231114384999998,16.104942325000003,10.392387400000004,-0.322717488,2.588372946,7.0795133135,-146.71658324999999,5.934244871000001,-16.077889444500002
681,5.674772999999959,-18.407945635,16.046427725,10.289032000000006,-0.21248656500000007,4.881397486,10.8024048795,-138.9228363,-3.1990246785,-14.640262605
682,5.6831059999999525,-19.486624714999998,15.97592783,10.20296479999999,-1.75534153,2.9388947485,9.754639269,-128.03723904999998,-5.481967926,-12.065861941
683,5.691438999999946,-20.44961071,15.832988740000001,10.162712100000007,-1.1001414354999999,2.8519610165,7.377448558499999,-115.4106865,-14.7017689935,-11.158921717999998
684,5.699771999999939,-21.299164775,15.669017315000001,10.135299700000004,-1.540834427,3.516540408,7.275346279500001,-102.31238174,-17.703276159999998,-10.3475155825
685,5.708104999999932,-22.045915604999998,15.477012635,10.145309450000013,-1.4028790740000001,3.110213995,15.082521915000001,-91.11525347,-22.007966994999997,-8.2779793755
686,5.7164379999999255,-22.735091205,15.237770555,10.16552734999999,-2.4564765395,3.606416583,9.263231753,-84.59477236000001,-27.837266919999998,-9.148086307
687,5.724770999999919,-23.30849552,15.02804947,10.191345249999998,-2.629653573,2.1461330055,11.170554162,-70.90347862,-24.62143707,-7.5327978135
688,5.733103999999912,-23.790039059999998,14.78001976,10.233787549999988,-1.4297999739999998,2.945876718,6.1256875995,-60.360347749999995,-29.62165165,-7.7344593985
689,5.741437000000019,-24.194448469999998,14.55299044,10.2724075,-3.880010605,3.2192440035,12.700232504999999,-51.046880720000004,-27.057472230000002,-7.2875790595000005
690,5.749770000000012,-24.545544624999998,14.330101965,10.32450870000001,-3.2040996550000003,1.4764190915,13.18045521,-44.949430465,-27.21780682,-5.862514019000001
691,5.7581030000000055,-24.82163525,14.130022050000001,10.358879099999996,-3.8114510775,2.16823554,7.629871607,-35.488598825000004,-23.81736231,-6.771403313
692,5.766435999999999,-25.029349330000002,13.95091391,10.39234925000001,-4.075167178999999,3.145183384,14.614117625,-27.190619464999997,-21.47827625,-5.86027503
693,5.774768999999992,-25.179984095000002,13.769199845,10.438331599999998,-3.8456929925,1.4498955009999999,10.87290573,-20.789850235499998,-22.44130087,-4.6149590015
694,5.783101999999985,-25.3113327,13.632814405000001,10.454902649999994,-3.5933406355,2.4144906995,13.684081554999999,-17.546302317,-15.967669964999999,-5.5895296335
695,5.791434999999979,-25.38024616,13.5052557,10.484214800000004,-2.7880609035,1.5892266335,9.4158179745,-10.4906863,-15.76212406,-3.5620193479999998
696,5.799767999999972,-25.409705165,13.420132635,10.490470899999991,-3.2933653595,0.7160587905000001,9.437179328000001,-5.039827345000001,-9.882115125,-4.119487047
697,5.808100999999965,-25.401037215000002,13.35076523,10.48901364999999,-2.5385851859999997,1.2320554255,12.104158876,-0.2882819175,-7.862904787,-3.915161848
698,5.816433999999958,-25.370742794999998,13.314982415,10.495079050000001,-2.6607264280000003,1.9562548400000002,8.876480815499999,2.1395248175,-4.524377347,-1.6075368225
699,5.824766999999952,-25.32444477,13.297578815,10.46923065,-3.6962513925,-0.155945955,8.7816779605,4.907456636,-1.0001270175,-3.8757921455
700,5.833099999999945,-25.223688125000002,13.295346259999999,10.443717950000007,-2.341900587,0.6948444840000001,12.919086459999999,11.46279478,0.676722169,-3.1969900129999997
701,5.841432999999938,-25.163588525,13.316018580000001,10.419265749999994,-3.6773499249999997,0.8669030664999999,12.292860985,6.5118176935,3.0342755315,-1.7245042325
702,5.849765999999931,-25.091547965,13.33538437,10.361877400000012,-2.1993150115,-0.2349080775,6.266423940999999,8.898963451,4.5893803835,-5.4519524575
703,5.858098999999925,-24.975469590000003,13.37555599,10.30252075,-3.7040921445,0.168891013,11.5067839605,14.217389579999999,6.912463665000001,-4.5271122455
704,5.866431999999918,-24.911919595,13.40865898,10.259582499999993,-2.711935818,0.07359588150000002,15.212178705,7.4839298725,5.3570640085,-3.2301733495000002
705,5.874764999999911,-24.86085415,13.462177754999999,10.169685349999995,-2.712622702,-0.5380111465,6.0723793505,7.2588576095,9.828196289000001,-7.050434351
706,5.883098000000018,-24.774759295,13.51783562,10.091644299999999,-3.8208721875,0.1487655115,11.731622695,11.1788353925,9.529726268,-5.8288018704999995
707,5.891431000000011,-24.745963095,13.573794365000001,10.022697449999995,-2.247178495,-0.444658283,14.240583895,4.0202056765,9.062291622,-4.723406315
708,5.899764000000005,-24.742936135,13.651964665000001,9.917716949999999,-3.8259654044999998,-0.4441298995,8.054376602,1.9879277345,13.295929435,-7.5667796135
709,5.908096999999998,-24.719426155,13.70059824,9.830917349999993,-2.819014132,-0.8889155985,11.937700745,3.9194332359999997,9.156270506,-7.009643793
710,5.916429999999991,-24.735511780000003,13.785665510000001,9.745094299999991,-2.470099211,0.2799060235,12.1019516,-0.826078385,13.110892295,-5.177918673
711,5.9247629999999845,-24.778538705,13.84906626,9.641204799999997,-3.0140503645,-0.8001058995000001,9.5966258065,-3.5489624145,11.601983069500001,-8.080140590500001
712,5.933095999999978,-24.81271648,13.882208349999999,9.568702699999989,-2.218704939,-0.8583846475,12.255091665,-3.362592101,6.814424514500001,-6.343506812999999
713,5.941428999999971,-24.86955452,13.979296205,9.464271550000007,-2.2896755339999997,0.2496078905,8.903596877999998,-5.1599122285,15.31826496,-6.4525864120000005
714,5.949761999999964,-24.948191639999997,13.983743665,9.406028750000004,-3.115213752,-0.5637108685,11.35011625,-9.0939655325,3.0072717665,-6.2547028065
715,5.9580949999999575,-25.03086758,14.034414765000001,9.320503250000002,-1.4018422065,-1.4980373975,9.887752531,-8.8039605615,9.342512608,-6.753194571
716,5.966427999999951,-25.12496948,14.072296145,9.251091000000002,-3.0943002104999997,0.447941877,7.9597816465,-10.614118100999999,7.206809403,-5.7142163515
717,5.974760999999944,-25.23740101,14.050048825000001,9.208732600000005,-1.655201644,-0.976722032,10.5760045045,-13.613248825,-0.6693447825,-5.9513401985000005
718,5.983093999999937,-25.34336853,14.07659292,9.142707849999994,-2.6501010655000004,-0.3255065235,9.1354789735,-12.136013985,5.8279950915,-5.9148660895
719,5.991426999999931,-25.48010826,14.04807377,9.107299799999993,-2.5944873095,0.21253805599999998,11.971096039999999,-16.73268509,-1.6687807735,-5.547097445
720,5.999759999999924,-25.60731697,14.015716555000001,9.07437895000001,-1.5722272395,-0.9817610385,9.282482147500001,-15.65534687,-2.1865662335,-5.462633729
721,6.008092999999917,-25.730816845,13.98436642,9.045745850000003,-3.325055361,0.3764703425,12.333156110000001,-15.345248699999999,-2.290540755,-4.984159708
722,6.016426000000024,-25.892616269999998,13.924527645,9.033622749999992,-2.1105402709999996,-0.7735844555,12.7562871,-20.41195488,-6.185303211,-4.726161003
723,6.024759000000017,-26.022962569999997,13.88663149,9.008857699999993,-2.195601106,-0.4030728635,6.8898317815,-16.290516855,-3.173373938,-4.934494018500001
724,6.033092000000011,-26.163442615,13.80892038,9.014595,-3.352916479,0.24090869,14.841366765,-18.372072215000003,-9.005712269,-3.839613199
725,6.041425000000004,-26.3223238,13.75509882,9.003555300000002,-1.968246698,-0.856205642,10.31073904,-20.1237936,-5.5797302725,-4.3453418015
726,6.049757999999997,-26.462812425,13.720701694999999,8.990646349999992,-4.1018260715,0.437786926,7.070708513,-17.847390175,-3.3642131089999996,-3.5326265695
727,6.05809099999999,-26.59665966,13.635820385,9.009864800000003,-1.4452610765,-0.632355187,13.190241335,-17.97792053,-10.4675168995,-2.8751478195
728,6.066423999999984,-26.747286799999998,13.625716685,8.983345,-4.089787483,0.5066239015,10.894205094,-18.688085559999998,-0.034380793500000006,-3.6623243094999998
729,6.074756999999977,-26.894025805,13.583331585,8.98638154999999,-2.894032955,-0.386752784,8.8012485505,-19.064388275,-5.0472995045,-2.3107761745
730,6.08308999999997,-27.011874195,13.54704142,8.988449100000011,-2.203315318,0.382346928,10.8433599485,-15.567989350000001,-4.3347103595,-2.1161715985000003
731,6.091422999999963,-27.151938434999998,13.543377875000001,8.970108049999993,-3.8066083190000004,-0.3426847905,9.6078205115,-17.66851139,0.22119805200000003,-2.404473245
732,6.099755999999957,-27.26544857,13.517083645,8.961250300000003,-2.839358151,0.43577159899999995,12.19500017,-14.746706485,-2.6828100385,-2.7253938315
733,6.10808899999995,-27.386960025,13.52063322,8.961448650000008,-3.0689171555,-0.179310456,10.108813285,-15.956890105,0.026645273000000025,-0.11037790749999998
734,6.116421999999943,-27.48450184,13.52974653,8.940978999999999,-2.6326357725,0.0736679435,7.9563479425,-12.505472185,1.7198489309999998,-1.9816391555
735,6.124754999999936,-27.570741650000002,13.53449249,8.92894745000001,-3.4134739635,0.7352574765,13.777915955000001,-11.386130810000001,0.8110043849999999,-1.2985199689999998
736,6.13308799999993,-27.668105125,13.562542915,8.922943099999998,-2.673760176,-0.46571634349999996,9.938070296500001,-12.892032145,2.9525151254999997,0.5753923655
737,6.141420999999923,-27.727926255,13.612194535,8.902862549999995,-4.052458167,0.516915083,8.076282500000001,-7.987324953,6.0304235219999995,0.35995030399999983
738,6.149753999999916,-27.78453064,13.620161055,8.892478949999997,-1.569342986,-0.2196011095,12.905864235,-7.8748669620000005,1.048403412,-0.9831061365000002
739,6.158087000000023,-27.837334635,13.693779945,8.862350450000008,-4.214601517,0.5228302475,9.2130129355,-6.869724989,9.0990991595,0.7165136335
740,6.166420000000016,-27.864227295,13.731521610000001,8.857429499999995,-3.5512421135,0.100028284,11.12851286,-4.464343488,3.909936428,1.2439618110000001
741,6.17475300000001,-27.889317515000002,13.784633634999999,8.822494500000005,-1.6359019579999998,0.33976227049999996,11.239233019,-3.3965501785,7.1968443395,-0.9460813404999999
742,6.183086000000003,-27.90777588,13.846612455,8.794723500000003,-4.379098773,-0.134244494,9.0813133725,-2.7963575125,7.729991912499999,0.2599655390000001
743,6.191418999999996,-27.89581108,13.888210295,8.779342650000004,-2.772577405,0.6100578605,13.092944145,0.489526421,4.896288633499999,0.443119794
744,6.1997519999999895,-27.90191555,13.96766901,8.740974449999996,-2.8262200355,-1.0384334625,8.304094315,-1.0014973280000001,10.170874596,0.14718577250000003
745,6.208084999999983,-27.86405182,14.01721573,8.718429599999993,-2.986327529,1.285978585,10.957762240000001,3.8113600015,6.1337513925,0.15056675649999995
746,6.216417999999976,-27.847641945,14.07437849,8.696891749999992,-3.1799104215,-0.643752858,12.585669995,1.216573924,6.889935255000001,0.616291352
747,6.224750999999969,-27.80352688,14.1589632,8.664886500000009,-2.832964778,0.148774501,8.2296681405,4.83945179,10.3639812485,1.1397375315
748,6.2330839999999625,-27.762165070000002,14.203701970000001,8.65090945,-3.129946351,-0.271324549,11.61156273,3.9941172600000003,5.161793351,0.6887667175000001
749,6.241416999999956,-27.709944725,14.307782175,8.614906300000001,-2.679853797,-0.46165768799999995,9.661684990000001,5.941517115,12.6587739,1.776539549
750,6.249749999999949,-27.6601181,14.342464445000001,8.610771200000002,-2.873241186,-0.3796954155,13.008311745,4.7196024654999995,3.5573436025000005,1.1596078424999998
751,6.258082999999942,-27.61849308,14.450787065,8.570564299999987,-2.7211421725,0.06962615249999998,9.861653804,4.802823544000001,13.33597708,1.540389314
752,6.266415999999936,-27.568749429999997,14.50716257,8.558540350000001,-2.948807955,-1.255022138,7.2335803510000005,4.9458150865,6.2924070375,1.576518014
753,6.274748999999929,-27.507784845,14.586569310000002,8.541336049999998,-1.827690959,-0.3913492485,12.279169079999999,6.442596197,9.030314328,2.2528880234999997
754,6.283081999999922,-27.47622013,14.65821123,8.518440249999998,-3.4157608745,-0.9430245755,11.4316020025,3.1000654695,8.505080403,1.31371589
755,6.291414999999915,-27.432714465,14.7151885,8.503768900000011,-2.0651705265,-0.36180539450000004,8.8704109185,4.274721861,6.505409596000001,1.2458126545000001
756,6.299748000000022,-27.390468595,14.814846995,8.474952700000003,-3.7664362195,-0.404681146,7.4190655969999995,4.5694135424999995,11.8096611495,2.2249936459999997
757,6.308081000000016,-27.34793377,14.84516764,8.471466050000004,-1.210092515,-0.31939693700000005,13.686546805,3.8179682489999998,3.0664532180000004,0.9237261415
758,6.316414000000009,-27.329717635,14.95181084,8.426910400000011,-4.497574687,-1.1674072444999999,9.1730072485,2.1772232505,13.4019222265,0.9616098105
