,time,Euler_X,Euler_Y,Euler_Z,Acc_X,Acc_Y,Acc_Z,Gyr_X,Gyr_Y,Gyr_Z
0,0.0,-2.5132918354999996,3.1250269415,-156.0124359,-1.8083930609999999,0.869036913,7.854231119,2.7838130595,4.4725532535,2.0256764295
1,0.0083329999999932,-2.4693922995,3.138625622,-155.9790344,0.8547450299999999,0.750195071,5.833872556499999,4.860986799,0.6818894150000001,3.8292194605
2,0.0166659999999865,-2.4066802265,3.2005290984999997,-155.97686,-2.3100411295,0.254228968,5.651570797,7.3281122419999996,6.644710779,0.3371472955
3,0.0249990000000366,-2.3215867279999998,3.2463771105,-155.95023344999998,0.765039187,0.526882559,5.8402636055,9.858273985499999,4.591973543,3.1747761965
4,0.0333320000000298,-2.211657047,3.3076871635,-155.9559174,-1.39896965,0.777922362,5.5647864345,13.040086271,6.6145112515,-0.71828717
5,0.0416650000000231,-2.0737532375,3.373197794,-155.9591141,-0.09762579199999999,0.858991638,4.641426444,16.40667105,7.0937042235,-0.3287334445000001
6,0.0499980000000164,-1.9508594275000002,3.419185519,-155.952652,-0.5934477444999999,0.24809720349999997,6.0975594520000005,14.502778055,4.7260131835,0.620402694
7,0.0583310000000096,-1.795831859,3.4715591664999996,-155.98071290000001,-0.056650698,1.028603926,9.2450022695,18.62856674,5.616505265000001,-3.3907173870000005
8,0.0666640000000029,-1.633315265,3.5072555545,-155.9561386,-0.19311709700000002,0.150449656,7.5488579275,19.13004398,3.430547178,2.7087000605
9,0.0749969999999962,-1.477899313,3.5266354085,-155.98094175,-0.44033274049999993,-0.0982510895,6.7619941235,18.64522934,1.6318063514999999,-3.1462676524999997
10,0.0833299999999894,-1.2962049845,3.526280403,-155.9587555,0.1583433005,0.360286273,7.2953801154999995,21.45583248,-0.8726904990000001,2.3294810655
11,0.0916630000000395,-1.1286236645,3.5154682399999997,-155.97291565,0.16024106749999997,0.200640829,6.6889528039999995,20.029070855,-2.034802437,-1.9554426669999998
12,0.0999960000000328,-0.9346099795,3.4763743875,-155.9574509,-0.27659880000000003,-0.017714589500000016,9.492798805,22.979304315,-5.48889637,1.4388227465
13,0.1083290000000261,-0.763217568,3.418231487,-155.9664612,0.04696869850000002,0.135944262,8.054250717,20.44973946,-7.7356874950000005,-1.4208797215
14,0.1166620000000193,-0.619281828,3.353029728,-155.9537277,-0.6619230655,-0.03881824000000002,8.592597248,16.993352889999997,-8.607556820000001,1.0948743969999999
15,0.1249950000000126,-0.4339609445,3.260707617,-155.9599991,-0.08213195200000001,-0.116471201,9.1280214805,22.09886551,-11.844893453000001,-1.0894187990000002
16,0.1333280000000059,-0.2694665495,3.183321595,-155.95157625000002,-1.2434322835,-0.3467866705,8.955573795,19.494010924999998,-10.0580930715,0.615273317
17,0.1416609999999991,-0.1339537465,3.079054475,-155.95460515000002,0.36236619550000004,-0.5245566964999999,8.6219872245,16.09873724,-13.28590965,-0.6482005120000001
18,0.1499939999999924,-0.0282248715,2.97007823,-155.94960025,-1.4195321945,-0.1762907025,8.083955762999999,12.465049745,-13.844108103,0.2688982785
19,0.1583269999999856,0.10778637199999999,2.882586479,-155.948349,-0.29833793649999996,0.03580403300000001,10.1206874825,16.13129282,-11.273525716,-0.085846126
20,0.1666600000000357,0.22577245499999998,2.7667734625,-155.9484711,-1.854212165,-0.40264944,9.120511531,13.969260215,-14.663725374999999,-0.28828834
21,0.174993000000029,0.2996654955,2.701663494,-155.94109344999998,0.1204384675,-0.7155944704999999,9.35900426,8.640387058,-8.583087204,0.678764515
22,0.1833260000000223,0.366339892,2.5883350375000003,-155.9438782,-1.7776944635,0.38106881849999996,9.1551876055,7.824143648,-14.36900425,-0.5637758075
23,0.1916590000000155,0.455715984,2.5344914195,-155.93040465,-0.20102956899999996,-0.122640988,9.463420869,10.470414640000001,-7.2239511015,1.419765234
24,0.1999920000000088,0.526667744,2.4568549395000003,-155.93337250000002,-1.735166788,-0.2865638585,7.496991694,8.337792635,-10.0875017665,-0.5846321885
25,0.2083250000000021,0.564346105,2.3965377805,-155.91825864999998,-0.11085043850000001,-0.04956445100000001,10.7870850585,4.2620232105,-7.99443984,1.6405212875
26,0.2166579999999953,0.622718215,2.3671588894999998,-155.92617795,-2.5441190005,0.327670943,8.1204261785,6.8567450045000005,-4.3050425054999995,-1.257396534
27,0.2249909999999886,0.701133758,2.3273807765,-155.91329195,-0.1534329205,0.016850627999999993,10.546133515000001,9.166081427,-5.528756737499999,1.360666782
28,0.2333240000000387,0.7460449634999999,2.3360025885,-155.9248581,-1.167753696,-0.18214317800000002,7.945132973,5.251840353,0.2459540965,-1.7154109475
29,0.2416570000000319,0.7740673124999999,2.3013186455000003,-155.9144745,-0.8472798909999999,-0.23532544099999997,10.2203707675,3.1301621495,-4.919508457,1.058610797
30,0.2499900000000252,0.838915229,2.3407311440000003,-155.92443845,-1.387052879,0.7540840805,8.292075157500001,7.6409893035000005,3.940577507,-1.5798926949999998
31,0.2583230000000185,0.9092475175000001,2.338729501,-155.9155121,-0.6976913365,-0.1786729545,8.4287118905,8.213927986,-0.997277379,0.8355171379999999
32,0.2666560000000118,0.9529022574999999,2.3751589060000002,-155.92230224999997,-0.9127697050000001,-0.20086206500000003,10.863835574500001,5.076581239999999,3.583732605,-1.198983237
33,0.274989000000005,0.9944055675,2.421988845,-155.91821290000001,-1.8151518705,0.361794852,7.8020937425,4.781492828999999,4.8538529875,0.1546587645
34,0.2833219999999983,1.074123144,2.4640163184999997,-155.92354584999998,-0.2374607025,-0.13483205450000002,10.939054013,9.405362606499999,4.2574385405,-1.039317042
35,0.2916549999999915,1.118739605,2.5460430384999997,-155.92520145,-1.4076627045,-0.503295295,7.184328796,5.1812217235,9.064032554499999,-0.6264857505
36,0.2999879999999848,1.1394866705,2.584635973,-155.92966465,-0.22995053000000001,-0.338418642,11.0296277985,2.3173711895,3.844158769,-0.958202988
37,0.3083210000000349,1.167008698,2.691785216,-155.93675995,-1.8049682974999999,0.321258344,6.8548364645,3.1641334295,12.065426825,-1.3497742415
38,0.3166540000000282,1.223083615,2.736900449,-155.93304445,-0.0857589695,0.011599123500000003,11.224739075,6.5150382515,4.644623041,-0.010617107000000015
39,0.3249870000000214,1.2350753545000002,2.8605697155,-155.93934635,-1.3082874715,-0.37840674550000003,8.185198425500001,1.289465636,14.04641867,-1.3152334095
40,0.3333200000000147,1.244546175,2.907594204,-155.9290848,-0.6050960125,0.28801012049999997,11.024735925000002,0.882243931,4.889956236,0.7595454675
41,0.341653000000008,1.2742080690000002,3.0379116535,-155.9299469,-1.1968416865,0.23095042249999997,8.5657162655,3.385991454,14.85998058,-0.6874158235000001
42,0.3499860000000012,1.3110064270000001,3.1009577515,-155.9159775,-0.418302037,-0.24700398950000002,10.068193912,4.137231171,6.822807312,1.1545041205
43,0.3583189999999945,1.296307385,3.2315412759999997,-155.91732025,-0.7001336215,-0.282445386,8.627671478,-1.941309452,14.887988570000001,-0.7566638514999999
44,0.3666519999999877,1.302877784,3.31507659,-155.90290069999998,-1.5770450235,0.257693544,9.5028710365,0.5014883875,9.283745528,1.1592043044999998
45,0.3749850000000378,1.3217339515,3.472796202,-155.8998642,-1.367411852,0.404387042,9.499046088,2.0608257055,18.157171245,-0.309727393
46,0.3833180000000311,1.3367698785000002,3.594116807,-155.88715359999998,-0.8357309255,-0.4534113035,10.3035559655,1.523093149,13.8109169,0.8425419625
47,0.3916510000000244,1.3080002665000001,3.764152527,-155.880661,-0.6448371705,-0.24266782400000003,10.5494577865,-3.69337523,19.642149925,0.06918409450000002
48,0.3999840000000176,1.300031781,3.9228529930000002,-155.87124635,-1.863490224,0.0778106375,8.850108148,-1.2121810465,18.28475666,0.32773418
49,0.4083170000000109,1.2928776145,4.1253048185,-155.8646774,-0.6325522665000001,0.07135456550000001,10.56917715,-1.090372801,23.535009379999998,-0.0026959180000000194
50,0.4166500000000042,1.2704793214999999,4.3224754335,-155.8628311,-1.4323431255,-0.7187252040000001,8.919557095,-2.8869171735,22.88025761,-0.650473744
51,0.4249829999999974,1.209658444,4.546053648,-155.86154175000001,-0.6777989865,-0.136359265,11.0046958925,-7.4976055625,26.051572800000002,-0.663415462
52,0.4333159999999907,1.1674612165,4.782382488,-155.86537935,-2.059099138,-0.2421444805,8.286193608,-5.205564976,27.565012935,-1.3881324529999999
53,0.4416490000000408,1.120165825,5.035929441,-155.8651657,-0.411086198,0.058121877,11.4223647135,-5.857012987,29.64827442,-0.8208408505
54,0.4499820000000341,1.0570077,5.3009791375,-155.87390134999998,-1.447615564,-0.5178942009999999,8.9578237545,-7.6680836674999995,30.99956322,-2.0021449925
55,0.4583150000000273,0.964831412,5.572588921,-155.87549589999998,-0.509689767,-0.3650234605,12.01232433,-11.23197508,31.80975342,-0.9996156540000001
56,0.4666480000000206,0.8902021944999999,5.8608677385,-155.883461,-1.8958138825,-0.039164227499999996,8.3476560095,-9.0378828045,33.793489455,-1.868054271
57,0.4749810000000138,0.792597115,6.1519601344999995,-155.88868715,-0.18957574649999998,-0.330025904,11.80692625,-11.824638839999999,34.14613533,-1.3748648465
58,0.4833140000000071,0.6951679885,6.444937229500001,-155.89891815,-0.9106975795000001,-0.15941670000000002,8.290997029,-11.73492527,34.357622145,-2.0467140675
59,0.4916470000000004,0.569265753,6.7355611325,-155.9057312,0.15173161000000002,-0.087105457,12.658105375,-15.20702839,34.088441849999995,-1.435698658
60,0.4999799999999936,0.4682155695,7.0204091075,-155.91291045,-1.95484972,0.04955323049999999,7.909792900499999,-12.203128815,33.39351368,-1.51197803
61,0.5083129999999869,0.341430709,7.3079662325,-155.9203186,0.296513766,-0.484710764,11.53158045,-15.283065800000001,33.728115079999995,-1.3614174125
62,0.516646000000037,0.230236046,7.5588316915,-155.9311142,-1.4240723845,0.523191497,8.2424297335,-13.361697675000002,29.31999493,-1.6963105795
63,0.5249790000000303,0.102412414,7.8542554375,-155.9429703,0.940670252,-0.22202018299999998,11.33359766,-15.33367729,34.673290249999994,-1.7453110215
64,0.5333120000000235,0.0044254214999999986,8.0449450015,-155.95172885,-1.3856603950000002,0.724788114,10.551450731,-11.808292387,22.10372162,-1.32331565
65,0.5416450000000168,-0.10175042399999999,8.3271303175,-155.9636383,-0.19641306950000004,-0.1130719725,10.0315303815,-12.71738529,33.091788290000004,-1.6292655465
66,0.5499780000000101,-0.20440587400000002,8.4737441535,-155.97618865,-0.24151362850000002,0.4445631505,10.408372404,-12.2693076115,16.824417115,-1.7938104865
67,0.5583110000000033,-0.296918079,8.7252497675,-155.98911285,-0.7670746740000001,0.326492399,9.3457093245,-11.052623270000002,29.41287327,-1.6486040355
68,0.5666439999999966,-0.3624375165,8.8612737655,-156.00608825,-0.0071612075000000025,0.9761945605,12.047299859999999,-7.7464320650000005,15.560593605000001,-2.1594279405
69,0.5749769999999899,-0.42717918749999995,9.064305782,-156.01743315,-0.5522810815,0.20138236850000002,8.221078873,-7.742694615,23.602152824999997,-1.4237359765000002
70,0.58331000000004,-0.46768936549999995,9.1658711435,-156.0306549,-0.3302815345,1.0681389270000001,10.79831886,-4.800301907,11.4248681045,-1.7164936665
71,0.5916430000000332,-0.47880920800000004,9.3480701445,-156.03913119999999,-0.637443319,0.8960538505,9.113097668,-1.355307579,21.098158835,-1.0643487275
72,0.5999760000000265,-0.44203068300000004,9.438230991000001,-156.04600525,-0.487893648,1.2054792939999999,11.57845354,4.368611814,10.055708885,-1.0844235275
73,0.6083090000000198,-0.3873012215,9.590156555,-156.0509491,-1.0674604775,0.562259853,9.8802328105,6.4839568715,17.46126127,-0.6911810334999999
74,0.616642000000013,-0.313912034,9.661841872,-156.05423735,0.582133472,0.7946811615,10.5452106,8.678149701499999,7.836657285499999,-0.579823047
75,0.6249750000000063,-0.21342669399999997,9.776644229,-156.0597382,-0.5803152025,0.7931918499999999,8.8064413065,11.9802866005,13.011835575,-0.8275128455
76,0.6333079999999995,-0.063504929,9.834270956000001,-156.0509262,-0.7578027995000001,0.8740649220000001,11.189109326,17.613358975,6.1424291715,0.821884386
77,0.6416409999999928,0.087348646,9.946093558000001,-156.04927825,-0.5828893930000001,-0.089853436,9.6047892575,17.88543558,12.64588785,-0.049614778000000005
78,0.6499739999999861,0.24217729300000002,9.960691926500001,-156.03601075,-0.14668506400000003,0.4183389655,10.69829464,18.111466885,0.9914499525,1.3246981500000001
79,0.6583070000000362,0.4126000555,10.058631897,-156.03093719999998,-1.2568396625,0.40058626799999997,7.893451214000001,20.161759375000003,10.983586314,0.2970804275
80,0.6666400000000294,0.6025548279999999,10.075349333,-156.0165939,0.4263845235,0.4351525305,12.135936260000001,22.31429005,1.258415222,1.3229053315
81,0.6749730000000227,0.8026601375,10.1442775745,-156.00741575,-1.6395252345,-0.361060537,9.3069958685,23.63347721,7.5189918255,0.7541922925
82,0.683306000000016,0.9780126215,10.173755643500002,-155.9953613,-0.2211818875,-0.1188573,11.546664238,20.60048008,2.787002683,1.1222560555
83,0.6916390000000092,1.1496651770000001,10.205997468,-155.99291995,-0.8027435245,-0.7005182205,8.696952107,20.369324685,3.0981901885000003,-0.019851088500000003
84,0.6999720000000025,1.3215287925,10.2315177895,-155.9878082,-0.038463040999999976,-0.15944460049999998,12.314405915,20.322745325,2.314061165,0.2952618
85,0.7083049999999957,1.476424992,10.233608245,-155.98955535,-0.540419191,-0.4921138435,10.140999317999999,18.44224739,-0.5278713700000002,-0.4456942235
86,0.716637999999989,1.5796266795,10.234025002500001,-155.98410795,-0.6336361915,-1.478840113,10.9569406515,12.075878145,-0.6904701890000001,0.399037853
87,0.7249710000000391,1.6759927275000002,10.210784436,-155.98615265,-1.2066172659999999,-0.2563752715,8.834908962,11.422561646,-3.5573118924999996,-0.4022140205
88,0.7333040000000324,1.7502599355,10.2223987555,-155.9848938,-1.17576009,-0.909738749,10.673588275,8.698076248,0.6295337974999999,-0.1359987555
89,0.7416370000000256,1.817438543,10.1908864985,-155.977211,-0.3836911435,-0.5117240249999999,12.812649255,7.7106602195,-4.5246835945,0.7841540875
90,0.7499700000000189,1.838297665,10.208233354499999,-155.970871,-2.1182544825,-1.4875943065000001,8.779216527500001,2.175756395,1.3481348155000001,0.43833640949999997
91,0.7583030000000122,1.8215618135,10.1876978885,-155.95570375,-0.470017508,-0.651310876,11.4743165985,-2.5142038295,-3.1785220499999998,1.6297635435
92,0.7666360000000054,1.8084207774999999,10.2169418325,-155.94837189999998,-2.2671694755,-0.6110392585,8.615991116,-1.9176160395,2.7808156015,0.512694508
93,0.7749689999999987,1.7794392705000002,10.2573142035,-155.93319705,-0.26051905750000004,-0.198995538,14.042830465000002,-3.9839423895,4.1363987025,1.402155459
94,0.783301999999992,1.724070609,10.281042101,-155.9261932,-1.9431375265,-0.690201342,9.348098755999999,-6.9827668665000004,2.105323553,0.49477097000000003
95,0.7916349999999852,1.629670501,10.369032862,-155.91434475,-0.73090826,-0.6533413530000001,9.8101730325,-11.763667585,9.8223512185,0.8573533594999999
96,0.7999680000000353,1.5526372195,10.399268625000001,-155.9155655,-1.8558916449999998,0.4392986465,8.6226775635,-9.397076844499999,2.8730403185,-0.485684365
97,0.8083010000000286,1.4831205010000001,10.527055265,-155.9122391,-0.6890538635,0.126099072,11.630547045,-8.59312439,14.56659651,-0.25137816350000003
98,0.8166340000000218,1.4130465385000002,10.551245215,-155.91874695,-1.098016292,-0.408151388,11.187769412,-8.4573149685,2.1296703815,-1.0864343345
99,0.8249670000000151,1.3160633444999998,10.686948775000001,-155.9193497,-0.7325133235000001,-0.0977981535,9.167219638999999,-11.805111884999999,15.518115044999998,-0.6975463035
100,0.8333000000000084,1.2325701115,10.709734919999999,-155.9241943,-0.8446966705,0.140748195,9.3994379025,-10.096881868,1.957997143,-0.8735798895
101,0.8416330000000016,1.1594612595,10.84776974,-155.9228439,-0.823931277,0.1321331635,10.204578877500001,-8.986749649,15.789636135,-0.430517748
102,0.8499659999999949,1.0906675755,10.8611331,-155.9240265,-0.5949943515,-0.3305967975,10.0232295985,-8.420955895,0.8493745175,-0.41105732349999996
103,0.8582989999999882,0.992474824,10.98367977,-155.92206570000002,-1.0915347340000001,-0.1206142805,8.753649118,-12.008436199999998,13.934511185,-0.274827987
104,0.8666320000000383,0.9027863144999999,10.998755930000002,-155.9234695,-0.7488903105,-0.017278753500000008,9.898474932,-10.9124913225,1.0599299595,-0.4349489165
105,0.8749650000000315,0.8202641605000001,11.121385575,-155.92675020000001,-1.3271161915,0.21409741000000002,9.475551605,-10.003801344500001,13.951071265,-0.8503222764999999
106,0.8832980000000248,0.740196794,11.133877755,-155.9297104,-0.11772127449999999,-0.234927088,10.6649103175,-9.731943129,0.730127409,-0.6109635904999999
107,0.891631000000018,0.6278310865,11.24042082,-155.934845,-1.351719767,-0.4860504795,9.7388060105,-13.547276974999999,12.003647325,-0.999153942
108,0.8999640000000113,0.509882331,11.239692685,-155.93343355000002,-0.242313363,-0.1512459945,10.0321016335,-14.371197225,-0.8319123979999998,-0.081683803
109,0.9082970000000046,0.379085176,11.330476285,-155.93866730000002,-1.3256885409999999,-0.3287325655,9.0202274335,-15.755313874999999,10.115722657,-0.941496253
110,0.9166299999999978,0.256100282,11.319591045,-155.9321823,0.020859300999999997,-0.2687564715,10.265222551499999,-15.101945399999998,-2.0479671660000003,0.5330323875
111,0.9249629999999912,0.09791669249999999,11.407695295,-155.93377685000002,-2.0416938665,-0.3746938485,8.9445402615,-19.12547016,9.817177771,-0.46353454899999996
112,0.9332959999999844,-0.068440426,11.40567684,-155.9215088,-0.24995232350000002,-0.1422386765,10.70528078,-20.43841839,-1.0020740255,1.2001745700000002
113,0.9416290000000344,-0.23403162849999998,11.47685766,-155.92216495000002,-1.2399671675000001,0.2104293405,9.8445110325,-20.03894043,7.7678596975000005,-0.2982074395
114,0.9499620000000276,-0.37411740400000004,11.475611685,-155.91095735,-0.18652527049999998,0.460122317,10.7831392285,-17.264850615,-0.8983875045,1.0792751015
115,0.958295000000021,-0.5296968664999999,11.528556345,-155.9114075,-1.11335063,0.0754500925,9.98766923,-18.84169149,5.579365492,-0.244327828
116,0.9666280000000144,-0.667434901,11.53341055,-155.89559935,-0.8053605260000001,0.9936499,9.428740025,-17.09067392,-0.17572632450000003,1.6195691825
117,0.9749610000000076,-0.7922308445,11.57269192,-155.89540865,-0.32174655799999996,0.5313059835,10.380769492999999,-15.16308546,3.9598009585,-0.154108087
118,0.9832940000000008,-0.8768815400000001,11.56326914,-155.88018035,-1.0733582525,0.6628870515,10.422733785,-10.709550859,-1.913741946,1.5283696655
119,0.991626999999994,-0.970010102,11.60688019,-155.88033295,-0.808352545,0.2326610535,9.658729315,-11.3526215555,4.458817482,-0.17130803300000003
120,0.9999599999999872,-1.046054751,11.575776099999999,-155.8696594,-0.451575689,0.7155881525000001,9.010848999,-9.5679113865,-4.4887218475,0.9465677735
121,1.0082930000000374,-1.1054469349999998,11.619414330000001,-155.86852265,-1.044575185,0.55527932,9.3426609015,-7.339830875500001,4.4592274425,-0.009861506499999992
122,1.016626000000031,-1.131046474,11.595625875,-155.8560181,-0.9291887285,0.7981327174999999,10.7295966145,-3.56262625,-3.617786765,1.1730360095
123,1.024959000000024,-1.153381944,11.62009239,-155.854805,-1.2908561825,0.1767856965,10.738548757499998,-2.8889084455,2.182218015,-0.04004779450000001
124,1.0332920000000172,-1.1697291134999999,11.611442570000001,-155.8425064,-0.20657719700000002,0.10460019100000001,9.185100795,-2.444129765,-1.8220172525,1.184325367
125,1.0416250000000105,-1.186578989,11.595942495,-155.84019469999998,-0.207972534,0.366112319,10.8549346935,-2.2637925745,-2.6387913825,-0.009073883500000046
126,1.0499580000000035,-1.167920947,11.597888945,-155.8271408,-1.7255160809999999,0.789202213,8.51538229,1.735338658,-0.5292157234999999,1.2972649335000002
127,1.058290999999997,-1.1488780379999999,11.584925655,-155.82138824999998,-0.3201806395,-0.15239679199999998,11.28856802,1.9655593375000002,-2.3430042859999998,0.4049418045
128,1.0666239999999902,-1.120503485,11.574949265,-155.81087495000003,-1.4428490105,0.8004562855,8.445951462,2.9671019915,-1.950114429,0.970017463
129,1.0749570000000404,-1.093892813,11.561586380000001,-155.80277255,0.473691039,0.1957152375,11.66814947,2.8099391160000002,-2.370130122,0.6787003205
130,1.0832900000000336,-1.0360825955,11.530043605,-155.79278564999998,-1.707502544,0.5632947700000001,8.551850794,6.5078287125,-4.559366345,0.863500774
131,1.0916230000000269,-0.975485772,11.512136935000001,-155.7780228,-0.4104394935,0.582184464,10.8349881155,6.737421751,-2.953161597,1.457981646
132,1.09995600000002,-0.9085515145,11.483190535,-155.77116395000002,-0.8305792810000001,-0.032269187000000005,8.656167984,7.680832388000001,-4.2111408710000005,0.5105813665
133,1.1082890000000134,-0.8287850915,11.438638685,-155.7540741,-0.8939864635,0.6125700475,11.930283545,8.980896233,-6.150010109,1.6890475155
134,1.1166220000000069,-0.7325719294999999,11.43342352,-155.75487514999998,-1.050980091,0.33267711099999997,8.251497507,11.376377581,-1.3491851389999998,-0.34490853299999996
135,1.124955,-0.6446561215,11.359877585,-155.7352219,-0.5536678134999999,0.08173040300000001,11.501066210000001,9.9002673615,-9.5989549145,1.9664243460000002
136,1.1332879999999932,-0.5583169459999999,11.36544895,-155.73286435,-1.258273661,-0.028702526999999978,7.5436570645,10.1139807715,-0.0837329455,0.042314708000000006
137,1.1416209999999865,-0.458288193,11.285415650000001,-155.71206665,-0.2056113225,0.4972042575,12.99436903,11.3288645725,-10.399464605,2.117714822
138,1.1499540000000366,-0.34696295850000003,11.29891014,-155.7026749,-2.020258844,-0.314928137,7.889715671499999,12.948464395,0.8898512125,0.8799707000000001
139,1.1582870000000298,-0.2460634785,11.23316097,-155.67834475,0.6666263195,-0.07444165649999998,11.531052589,11.3534536375,-8.6782011985,2.578310251
140,1.166620000000023,-0.167541303,11.219890119999999,-155.66482545000002,-1.6852615475,0.016764797499999998,7.4885098935,8.9139654635,-2.3168461619999996,1.3453173635
141,1.1749530000000163,-0.06895058,11.1606369,-155.63359830000002,-0.1646805145,0.2141764685,11.399481300000001,10.916450025,-7.86273241,3.4178295135
142,1.1832860000000096,0.028939836,11.139227394999999,-155.62074280000002,-1.9368904235,-0.34372793150000003,9.087894438500001,11.26449537,-3.3176522255,1.2719197869999999
143,1.1916190000000029,0.1293500065,11.104078770000001,-155.5937424,-0.501580946,0.364710219,9.915884497499999,11.246566295000001,-4.9885463715,2.9439531565
144,1.199951999999996,0.1921920665,11.079291824999999,-155.58654785,-0.8374132365,-0.4665932655,9.3003554345,7.1823537349999995,-3.6885074375,0.61093159
145,1.2082849999999894,0.283532381,11.05787325,-155.5652008,-1.3120017055000002,0.479019271,9.807489872,10.288015845,-3.33350718,2.2836309674999997
146,1.2166180000000395,0.362345621,11.04425573,-155.5608139,-1.232515365,-0.055244550499999996,10.9726409915,9.1696724895,-2.3489855530000003,0.28196156
147,1.2249510000000328,0.448075011,11.032340999999999,-155.54634095,-0.9372950489999999,-0.023719653499999965,9.543813945,9.7759366035,-2.160580158,1.4758730975
148,1.233284000000026,0.500109315,11.01370287,-155.54879,-0.13268342249999998,-0.5948875695,10.897999765,6.1097698215000005,-2.984974027,-0.514890909
149,1.2416170000000193,0.5709825454999999,11.006296635,-155.5414276,-1.691118777,0.5326827765,8.5684735755,8.154311657000001,-1.6541482209999998,0.6339716315
150,1.2499500000000126,0.6212514339999999,11.001761915,-155.54475405,-0.6993640515,-0.41115654999999995,10.944183348,5.921056986,-1.2617764175,-0.6279329755
151,1.2582830000000058,0.6834055784999999,11.00781155,-155.5414581,-1.4389739935,0.21965296550000002,8.688183547000001,7.2047014235,-0.044415146000000016,0.139443934
152,1.266615999999999,0.7129476665,10.995516779999999,-155.54445650000002,0.268553853,-0.413165271,11.46022749,3.418380082,-2.1915732625000004,-0.5782669335
153,1.2749489999999923,0.7586597505,10.997231485,-155.54489135,-1.875305295,0.250293866,8.1360387805,5.3103499415,-0.5349405110000001,-0.2947494085
154,1.2832819999999856,0.789343506,10.99246359,-155.54405974999997,-0.6107589044999999,-0.2044043465,10.50564432,3.4772926565000004,-1.3151821714999998,-0.13585794
155,1.2916150000000357,0.8364441395,11.01368332,-155.54701235,-1.5138124825000001,0.661753058,8.190230608,5.5410826205,1.767119765,-0.6256853115000001
156,1.299948000000029,0.8644813895000001,11.001668930000001,-155.5441742,0.268083565,-0.25601507,12.209417344999999,3.1041570605000004,-2.1462744175,0.11078152050000001
157,1.3082810000000222,0.9094665645,11.021974085,-155.549057,-1.945410907,0.024054497499999994,8.600656986,5.32849741,1.653072417,-0.8539978865
158,1.3166140000000155,0.9351816475,11.00476503,-155.540863,-0.3187866815,0.203418821,11.345844745,2.7089167235,-2.7582113745,0.756855756
159,1.3249470000000088,0.976067543,11.03756142,-155.54943085,-1.505965531,-0.0172505305,7.487425566000001,4.9216278795,3.1793221235,-1.3189345595000002
160,1.333280000000002,1.0050058365,11.01430607,-155.5413208,0.4459978455,-0.16866868,12.175892829999999,3.095691562,-3.5159060955,0.7631696985
161,1.3416129999999953,1.0392974615,11.05210066,-155.54870605000002,-2.240940332,0.1911286265,7.8819584845,4.0993855,3.745088935,-1.1925667525
162,1.3499459999999883,1.0545175075,11.02546692,-155.54186249999998,-0.12065976449999999,-0.489678338,11.55370474,1.482936323,-3.8862493034999996,0.6211900575
163,1.3582790000000386,1.082413554,11.068389895,-155.54831695000001,-1.6228067875,0.21155264999999998,7.347397566,3.3150007725,4.3618930575,-1.097960651
164,1.366612000000032,1.102888107,11.034683704999999,-155.54071045,0.24502800400000002,0.27428423599999996,11.8312974,2.086612761,-4.730494738,0.7322982475
165,1.3749450000000252,1.1280791165,11.078173164999999,-155.5453796,-1.9802085164999998,-0.5148738475,7.5103383065,2.9469108585,4.4702408315,-0.8927393255
166,1.3832780000000184,1.137527406,11.041706085,-155.5354538,-0.432966024,0.3132840995,12.381076815,0.7207335235,-5.0929746625,1.011230871
167,1.3916110000000117,1.1514345405,11.083468915000001,-155.54049685,-1.2444209455,-0.37759767499999997,7.627867698499999,1.6035730240000001,4.2252026795,-0.934900433
168,1.399944000000005,1.151877105,11.031062125,-155.53500365000002,-0.12168826149999998,-0.4963825195,11.86902714,-0.26432609549999997,-6.9772217275,0.5291580705000001
169,1.4082769999999982,1.139397204,11.072131635,-155.5369339,-1.488887161,-0.1348465385,7.9575545775,-1.6372683795,4.149345875,-0.567118421
170,1.4166099999999917,1.1058833595,11.025629995,-155.53938295,-0.8186744749999999,-0.2965182435,11.11245489,-4.148347139,-6.2847161295,-0.41894650450000004
171,1.4249429999999847,1.0717166365,11.073231695,-155.53807834999998,-1.069187105,-0.4317017945,8.882070302999999,-4.3117530345,4.9784402844999995,-0.1977995185
172,1.4332760000000349,1.0219047665,11.027386665,-155.54418945,-0.7445216625000001,-0.16880048949999998,10.8560409555,-6.029046773999999,-6.2527616025,-0.8604141694999999
173,1.441609000000028,0.953080028,11.081444739999998,-155.54559325,-1.5527110695,-0.4874220345,8.190854547,-8.407738924,5.7101886275,-0.5159411615
174,1.4499420000000214,0.8774448930000001,11.06718159,-155.55158235,-1.1969326735,0.191379111,10.218702315,-9.1208386405,-2.4205645325,-0.9175723645
175,1.4582750000000146,0.805265307,11.137506965,-155.5537567,-0.7998114825,0.04499012950000001,9.8266520485,-8.795871258,7.6613140105,-0.6221378150000001
176,1.466608000000008,0.7333489360000001,11.133032320000002,-155.55736539999998,-1.3688755035,-0.1650242025,10.62097168,-8.7372534255,-1.2426554410000001,-0.6616414039999999
177,1.4749410000000012,0.647845,11.19879818,-155.55794525,-0.7312122584999999,0.2479168645,9.459713459,-10.42924118,7.158225775,-0.40076681999999997
178,1.4832739999999944,0.5704403069999999,11.217999935,-155.56457519999998,-1.333031893,0.2129649555,8.8056871875,-9.3161859505,1.5601884760000002,-1.0426209865
179,1.4916069999999877,0.5151937605,11.273714065,-155.56459045,0.228583276,0.9018708465,10.9612441085,-6.813918352,5.9109652045,-0.30755654
180,1.4999400000000378,0.475748792,11.297531605,-155.57634735,-1.5510228875,0.370739199,9.647880556499999,-4.6442911625,2.1503539085,-1.652854621
181,1.508273000000031,0.4278574435,11.324035165,-155.57982635,0.17162031700000002,0.31143283850000003,10.2626512075,-5.8437918425,2.4045042995,-0.6739745475
182,1.5166060000000243,0.38522993,11.335901735,-155.59722905,-1.224605173,0.341502987,8.2791330835,-4.889251768499999,0.7165966779999999,-2.2999854085
183,1.5249390000000176,0.388041794,11.326859475,-155.6026535,-0.04382580850000001,1.102494657,9.6968941675,0.2795028689999999,-1.821620822,-0.874591753
184,1.5332720000000108,0.4033034445,11.326244355,-155.6239395,-0.9281416835,0.085015645,9.7242479335,2.1439625025,-0.8265009525,-2.7447381015000003
185,1.541605000000004,0.423207581,11.28274298,-155.62512205000002,-0.666859031,0.6315436515,9.9797318,2.2341760995,-5.9944808485,-0.3449020685
186,1.5499379999999974,0.4453389045,11.26539755,-155.6404495,-0.72024551,0.42455859500000004,9.671380043500001,2.8237837705,-2.7851957680000003,-2.0289611814999997
187,1.5582709999999906,0.5045130995,11.193753245,-155.640007,-0.9293928444999999,0.4676653145,9.965954304,6.9087939265,-9.370808603,-0.11708907399999999
188,1.5666040000000407,0.565545142,11.17641497,-155.6487808,-0.6348665354999999,0.136899121,10.088865758,7.338382721,-2.779740542,-1.2554882765
189,1.574937000000034,0.612382859,11.096873760000001,-155.64907835,-1.2264611425,0.30063139650000004,8.9966352005,5.443864584,-10.2751955995,-0.1780125505
190,1.5832700000000273,0.6615207489999999,11.076500415,-155.6488876,-0.4756864755,0.1957035285,10.0640864365,5.701812267499999,-3.177094102,-0.194168657
191,1.5916030000000203,0.738699287,10.995331765,-155.65372465000002,-1.231616259,0.47649765,9.490813015,9.19284177,-10.5201449375,-0.688593965
192,1.5999360000000138,0.827911228,10.965660095,-155.65038295,-0.9954865485,0.545129642,10.1134936785,10.440587043,-4.2416727545,0.1995541005
193,1.608269000000007,0.9080314635,10.894341945,-155.66117094999998,-0.586781949,0.08764226000000001,8.6595008375,9.678603171,-9.3511886595,-1.384276688
194,1.6166020000000003,1.0090334415,10.84488487,-155.64778139999999,-0.7755074799999999,0.894583702,10.283375739,11.623377322500001,-6.592010975,1.4346473364999999
195,1.6249349999999936,1.1280912755,10.777079585,-155.65876005,-1.270817637,0.207894371,9.4923315035,14.350731849999999,-8.886739732999999,-1.37880832
196,1.6332679999999868,1.263021469,10.7085228,-155.64318085,-0.458587766,0.25732896850000003,10.567656517500001,15.658530715000001,-8.919179439499999,1.764609933
197,1.641601000000037,1.3716260789999999,10.649232860000001,-155.65475465,-0.9071344735,-0.378704496,9.014072894,13.106850625,-7.91787982,-1.446339965
198,1.6499340000000302,1.4971972705,10.580472945,-155.63922885,-1.1171718835,0.5881827175000001,10.3660893445,14.53402519,-8.885829448500001,1.7937332395
199,1.6582670000000237,1.6141726969999999,10.538410665,-155.64929965,-1.6845990419999999,-0.516018242,8.868597983,14.078295709999999,-5.8521804809999995,-1.2902083395
200,1.6666000000000167,1.7379848955,10.47264242,-155.63890835,-0.6519339365,-0.339068189,10.768752335,14.445349215,-8.537117720000001,1.210317731
201,1.67493300000001,1.809544504,10.45940018,-155.647583,-1.2258071895,-0.771283716,7.8754467965,8.588998318,-2.345572412,-1.2206400335
202,1.6832660000000033,1.8913729190000002,10.409008505,-155.6411133,-1.5976111590000002,-0.019158022,11.3785686485,9.490415095,-6.7476809025,0.7145796120000001
203,1.6915989999999963,1.947078109,10.43186283,-155.6472244,-1.5546393395,-0.6268455390000001,9.160902023,6.640010834,1.9426287715,-1.053110201
204,1.6999319999999898,1.99333179,10.379089834999998,-155.6424332,-0.7963427750000001,-0.6743205565,11.0123696305,5.26108098,-6.990848303,0.5377900525
205,1.70826500000004,1.9888433815,10.409413335,-155.65291595,-0.53728497,-0.662887633,8.815393688,-0.496327102,2.8190579415,-1.6026507615
206,1.7165980000000332,1.986895263,10.35332918,-155.65534209999998,-1.2497678995000001,0.041428238000000006,11.130909922,-0.365092516,-7.416007042,-0.29656164349999997
207,1.7249310000000264,1.982836366,10.38623524,-155.6609955,-0.9041267335000001,-0.011500831500000003,10.0392413145,-0.5470688195,3.1995189785,-1.0462711455
208,1.7332640000000197,1.9516726135,10.331867695,-155.67012025,-1.4599662425000002,-0.48693651,9.61852455,-3.727722883,-7.285476446500001,-1.0934396684999999
209,1.741597000000013,1.8997831939999998,10.366359235000001,-155.67455295,-0.8933352830000001,-0.09178666399999999,9.095914125,-6.315401077,3.344943583,-0.9002058804999999
210,1.7499300000000062,1.856409848,10.336739065,-155.6841278,-2.088106394,0.156706471,9.2952759255,-5.1844562295,-4.26754272,-1.255193591
211,1.7582629999999997,1.82638216,10.376868725,-155.6854248,-0.4939117345,-0.276797496,11.07061148,-3.757563472,4.034453392,-0.551135138
212,1.7665959999999927,1.7616607545,10.36527967,-155.69512939999998,-1.9066188335,-0.2639952935,8.754429935,-7.742267608500001,-2.1038188934999997,-1.3434218169999999
213,1.774928999999986,1.6794707180000001,10.395041945,-155.69562535,-0.199021597,-0.137287531,10.80708742,-10.037394045,2.8419058325,-0.405614272
214,1.783262000000036,1.618075192,10.427719595,-155.69945525,-2.233835518,0.21836297999999998,8.926055429,-7.47033453,3.1801035405,-0.804972142
215,1.7915950000000294,1.558068931,10.453334810000001,-155.69046780000002,-0.013031676499999999,-0.0961234715,12.346725945,-7.5823841094999995,2.3275083304999997,0.7328040600000001
216,1.7999280000000226,1.4625894425000001,10.502907754999999,-155.690567,-1.8404658440000001,-0.975348264,7.213806851,-11.640089035,5.269648552,-0.409847006
217,1.808261000000016,1.3494365815,10.49662447,-155.67805479999998,0.204804957,0.1605340765,11.0776991825,-14.037402629999999,-1.491805017,1.2535542845
218,1.8165940000000087,1.2772200105,10.562026979999999,-155.6759796,-2.1315413115000004,0.4067347345,7.524351716,-8.892347336,7.175912142,-0.17846722599999998
219,1.8249270000000024,1.204636037,10.55262995,-155.6610336,-0.47141239050000006,-0.37518975499999996,12.1111602805,-9.221144198000001,-1.812200785,1.5446729060000002
220,1.833259999999996,1.0926957725,10.613718030000001,-155.6586838,-0.958732307,-0.24059813400000002,8.017472388,-13.66889143,6.6086337565,-0.1141306505
221,1.841592999999989,0.9938458205,10.585491654999998,-155.64557645000002,-0.8484592735,0.6249582355,10.341397524,-12.335145475500001,-4.13133955,1.366397977
222,1.849926000000039,0.9403666255,10.648295404999999,-155.63858795,-0.9585313795,0.610863656,9.7548472885,-6.7554283145,6.8740091324999995,0.456836276
223,1.8582590000000323,0.8906327785,10.636245725,-155.62371059999998,-1.1972810925,0.2336835115,9.733242989499999,-6.480830909,-2.191765308,1.535861611
224,1.8665920000000256,0.8127462565,10.670639515000001,-155.6105652,-0.3707822615,-0.062181565,10.2879107015,-9.823809623999999,3.4762940405,1.2457165125
225,1.8749250000000188,0.7635083795,10.67341137,-155.5952835,-1.7757138604999998,0.6636140195,7.419383525000001,-6.430229664,-0.364612259,1.556468308
226,1.883258000000012,0.7588909865,10.69552088,-155.5784683,-0.5727126895,0.4221862555,11.11397123,-1.1115041970000001,1.955038369,1.708142877
227,1.8915910000000051,0.7259511350000001,10.72799921,-155.5594559,-1.582282126,-0.3725290895,7.141936601,-4.5613126755,3.1526578665000002,1.9506458045
228,1.8999239999999984,0.6723352965,10.716473579999999,-155.54538730000002,0.02036626649999998,-0.16758251949999997,12.181470869999998,-6.9313209055,-2.0341546535,1.4332638385
229,1.908256999999992,0.6458657385,10.749649045,-155.52713775,-1.5892162915,0.34208402800000004,7.392019153,-3.7636084555,3.233355582,1.8623918295
230,1.9165899999999847,0.6324328485,10.72365427,-155.519371,0.30879388750000003,-0.10806280400000001,11.807515147,-1.9648297725,-3.778938413,0.7092901465
231,1.9249230000000352,0.581451535,10.753803255,-155.50633240000002,-1.392377317,-0.11406305450000001,7.832170964,-6.589281559,2.9137923715000005,1.25628227
232,1.9332560000000285,0.5261863025,10.696272369999999,-155.5003662,-0.12668897199999998,0.0073157845000000055,11.9010066965,-6.95067358,-7.619896173000001,0.5239456445
233,1.9415890000000215,0.5015393495,10.707039835,-155.49057004999997,-1.4156190155000001,0.29852502049999996,7.6072196975,-3.3547024725,0.5297408104999999,0.9013968855
234,1.949922000000015,0.475233868,10.62725401,-155.4890213,0.13422994299999996,-0.11840935050000001,11.114561317,-3.3724668325,-10.238990307,0.026894956999999997
235,1.9582550000000083,0.42087811249999996,10.632947445,-155.48623655,-1.446800053,-0.14417944849999997,7.188581942000001,-6.764214516,-0.08696033050000002,0.08163258399999998
236,1.9665880000000016,0.374207512,10.53907251,-155.4882278,-0.4132971165,0.408663401,11.848860742,-5.7391456365,-11.9339098905,-0.3997038005
237,1.9749209999999948,0.3626553565,10.530498505,-155.49024965,-1.181082547,0.26304488249999997,8.8927617055,-1.5194683969999998,-1.7466731075000002,-0.4757459905
238,1.983253999999988,0.342120811,10.409904955,-155.49237060000002,-0.010759151999999994,0.14446774099999998,11.999593257,-2.6026883124999998,-15.19396353,-0.4019834545
239,1.9915870000000384,0.298989035,10.383961674999998,-155.49996950000002,-1.282407761,0.12343232700000001,8.2092998045,-5.1940106155,-3.8913726805,-1.119143665
240,1.9999200000000317,0.2869047445,10.248582840000001,-155.5027008,-0.780502975,0.49227592350000005,11.2089428895,-1.5734829899999998,-16.91084862,-0.48270671049999997
241,2.0082530000000247,0.309984237,10.2251472495,-155.51158145,-1.4883042275,0.5555674134999999,9.3161854745,2.778971851,-3.5902770754999995,-1.274852574
242,2.016586000000018,0.3248428105,10.1080026605,-155.51486205,-0.8973138629999999,-0.036948504,11.226140259000001,1.6708105805,-14.72265625,-0.5506677475
243,2.0249190000000112,0.330229357,10.095215795,-155.51961515,-1.46353814,0.6510291395000001,9.3578825005,0.560977459,-2.2547506095000003,-0.7939707485
244,2.0332520000000045,0.3693661245,10.0183968555,-155.52214049999998,-1.979442477,0.1589193015,9.8556029815,4.5666915475,-9.939060209,-0.48277072600000004
245,2.0415849999999978,0.441806406,10.008574485,-155.52223205,-1.001042597,0.565687448,10.8253250105,8.514332055,-1.9522976875,-0.2422210125
246,2.049917999999991,0.5005553515,9.9785881055,-155.52713775,-1.572644353,-0.010768644500000008,8.445281149,6.969627855000001,-4.264879018,-0.794534385
247,2.0582509999999843,0.5769242045,9.9796376215,-155.5298386,-1.4040529135,0.603678167,10.81009531,9.035888911,-0.6501917545,-0.5634043365
248,2.0665840000000344,0.6821826995,10.024265767500001,-155.53760525,-2.4050261375,0.8909555375,7.572692872,12.614891051,4.681943416499999,-1.2209219935
249,2.074917000000028,0.820354849,10.040767671000001,-155.5441437,-0.725440353,0.005604237499999998,11.801448823000001,16.539211270000003,1.251979366,-1.039163336
250,2.083250000000021,0.9309514759999999,10.127464771500001,-155.5562592,-1.516231954,-0.0709421335,8.338012457,13.341542725,9.663157701,-1.8351259825
251,2.091583000000014,1.0443246665,10.1451616275,-155.56788640000002,-0.882298738,0.181882066,10.779782773,13.665791989999999,1.3266062735,-1.6508696675
252,2.0999160000000074,1.200568497,10.260686875000001,-155.57909395000001,-1.17661038,0.2036470545,8.268314598,18.80480671,13.17327261,-1.840569377
253,2.1082490000000007,1.343022406,10.298305512999999,-155.58218385,-0.9690029920000001,-0.450039089,9.6658480165,16.97245264,3.733154178,-0.7097577825
254,2.116581999999994,1.458611846,10.392165185,-155.58877565,-0.500589564,-0.7814902365,8.65336108,13.826714039999999,10.58072376,-1.2939352985
255,2.1249149999999872,1.56958431,10.415804385,-155.58212279999998,-0.557941586,0.08797119550000002,8.866303207,12.989563465,2.1418239475,0.47242263
256,2.1332480000000373,1.6917914155,10.486795425,-155.5790253,-0.6140827835,-1.013546616,8.793632029000001,14.408106325,7.809339523,-0.119413614
257,2.1415810000000306,1.7852085830000002,10.493494035000001,-155.5663986,-0.7180220635,-0.258137155,10.930600643,10.750646591999999,0.07562601550000014,1.223995388
258,2.149914000000024,1.8264184595000001,10.554935935,-155.5611343,-1.4299694299999999,-1.4445759655,7.9441571235,4.6506040095,6.7297501565,0.14541206499999998
259,2.158247000000017,1.873214662,10.54438734,-155.54853055,0.411744088,-0.3651979195,11.870378969499999,5.1552174090000005,-1.9910265805000003,1.2854697705
260,2.1665800000000104,1.899470806,10.59434557,-155.53542325,-2.0069893,-0.9286384285,7.3031563755,2.676156223,5.3846051695,1.1063365195000001
261,2.174913000000004,1.8763225675,10.579351425,-155.5251236,-0.07228446,-0.8456466495,12.990888120000001,-3.1805259584999996,-2.471882582,1.0359100255
262,2.183245999999997,1.8316546675,10.619681360000001,-155.50868989999998,-2.139849722,-0.5929010809999999,6.094977140499999,-5.902716874999999,4.1855903265,1.5371165875
263,2.19157899999999,1.7775322199999999,10.631002425,-155.50725555,0.32629189249999996,-0.844947815,12.128999232,-6.709924459,0.5900239945000001,-0.105300123
264,2.1999120000000403,1.71940434,10.652113915000001,-155.49077605,-2.0421572329999997,-0.24757675099999998,8.568689346500001,-7.518605709,1.9346181155,1.6134344935
265,2.208245000000033,1.602733791,10.686547755,-155.49294279999998,-0.9418878555000001,-1.275222212,10.683600186,-14.13191986,3.351296544,-0.6128719415
266,2.216578000000027,1.472954214,10.65429926,-155.4822159,-0.05716502650000002,-0.2659549565,10.6234636295,-15.986098290000001,-4.488236576499999,1.119233489
267,2.22491100000002,1.337428391,10.6823349,-155.48828885,-0.6411196290000001,-0.7511756565000001,7.722931861999999,-16.3065815,2.633214235,-1.039035112
268,2.2332440000000133,1.1670199934999999,10.626893525,-155.4787216,0.42969876500000004,-0.5008320215,12.8090395925,-20.84439373,-7.3431363105,1.0323630275
269,2.2415770000000066,0.9675406815,10.59700823,-155.4787216,-1.331703186,-0.636783987,8.2444729805,-24.122673985,-4.359303000000001,-0.2105747295
270,2.24991,0.7445455194999999,10.515690805,-155.47099305,1.0045556875000001,-0.460398801,12.488757135,-27.10071564,-10.39283562,0.8203796405
271,2.258242999999993,0.5159027505,10.385144709999999,-155.4749069,-1.05286631,-0.405909866,7.689236164,-27.53216839,-16.4385447485,-0.5624251665
272,2.2665759999999864,0.24800403050000003,10.294735435,-155.47774505,0.10057252649999998,0.0007633565000000064,11.3642902365,-32.257719995,-11.4964294425,-0.48755459500000004
273,2.2749090000000365,-0.008112713500000007,10.1019959465,-155.49819945000002,-1.370572865,0.5273029770000001,9.9870898715,-30.47251034,-23.83769798,-2.6293370725
274,2.2832420000000297,-0.245934598,10.011250019,-155.51615905,-1.226763695,0.602496892,9.634526250499999,-28.33716011,-11.587728975,-2.382183224
275,2.291575000000023,-0.49359255999999996,9.8121299745,-155.5533905,-1.3674453495,0.497279927,9.883560183,-29.13193512,-24.63510609,-4.7853918075
276,2.2999080000000163,-0.735836044,9.717579841500001,-155.5842667,-1.3181921545,1.3561240435,11.003063205,-28.613656045,-11.95087528,-4.0003511905
277,2.308241000000009,-0.931291908,9.581446171,-155.62821965,-2.535673261,1.3110431435,10.632476093,-22.75317383,-17.03075695,-5.6644959450000005
278,2.316574000000003,-1.073752105,9.4897146225,-155.66817475,-1.0741538705,1.545187205,10.7365989665,-16.473285677,-11.56774664,-5.150877714
279,2.324906999999996,-1.230426788,9.4026679995,-155.70519255,-1.446437538,0.6274887625000001,10.4255673885,-18.258354185,-11.069203615500001,-4.8159718510000005
280,2.3332399999999893,-1.3274824619999999,9.3534359935,-155.74392699999999,-2.6759743695,2.154663205,10.115755085,-11.0745794795,-6.5170638585,-4.946231365
281,2.3415730000000394,-1.3692901135,9.293783665,-155.76837925,-1.0002734659999999,1.2194732725,9.2975034725,-4.724251509,-7.8608493804999995,-3.3062791825
282,2.3499060000000327,-1.369135261,9.299571991,-155.7984924,-1.0962162315,1.28821671,9.038624049500001,0.4223911760000001,0.13104236149999982,-3.7816405294999997
283,2.358239000000026,-1.349261284,9.267362595,-155.82009119999998,-1.6276342270000002,1.068081051,12.170664308500001,2.6144713160000004,-4.5775783059999995,-2.889536023
284,2.366572000000019,-1.2815656065,9.284375191,-155.8493652,-1.0653760134999999,1.7524316905,8.3071751595,8.5119386935,1.4724728165,-3.6560676095
285,2.3749050000000125,-1.19178015,9.272835732,-155.86031344999998,-0.5702976885,0.7688574495,9.502835035,10.800328257,-2.064290311,-1.5644857884999999
286,2.3832380000000057,-1.0554073750000001,9.287455082000001,-155.8915787,-1.4973405005,1.20015502,11.502444265000001,16.782290455000002,1.11596141,-3.9091237784999997
287,2.391570999999999,-0.9047266545,9.2786026,-155.89740755,-1.087408513,0.524340376,9.3384299295,18.011533735,-1.8239322305,-0.954047233
288,2.3999039999999923,-0.736355394,9.2881584165,-155.91721339999998,-0.5408731605,0.955125928,7.631866931999999,20.396770475,0.5361185074999999,-2.5593814249999998
289,2.408236999999985,-0.5518287425,9.310397148,-155.92607880000003,-1.7604946495,0.7637883725,8.866980552,22.137785915,1.9052710085,-1.265990615
290,2.416570000000036,-0.3173650725,9.320134162999999,-155.94218445,-0.8606480955,0.8966192305,11.72379303,28.264183995,0.5357608795,-2.14585346
291,2.424903000000029,-0.109980997,9.3468565945,-155.9477005,-1.3214565735000001,0.442581326,8.579509973499999,24.804127695,2.5039076805,-0.8680604025
292,2.433236000000022,0.10198571149999999,9.365869522,-155.96983335,-1.2591546625,-0.38630770150000004,10.1053295135,25.683056829999998,1.5698270795,-2.8600039485
293,2.4415690000000154,0.3203835715,9.403679370999999,-155.97589875,-0.968725681,0.733082056,9.430660965000001,26.150054930000003,3.760146409,-0.9872307929999999
294,2.4499020000000087,0.5169125345000001,9.408948898,-155.98332975,-1.1443991064999999,-0.582339257,9.7878274905,23.52565575,-0.013588547500000159,-1.1215069294999997
295,2.458235000000002,0.6934401985,9.465911864999999,-155.9917297,-1.5542568565000001,-0.10344839099999997,8.105994463,21.16852951,6.051360130000001,-1.3014277815000002
296,2.466567999999995,0.8391269745000001,9.483546734,-155.9870682,-0.6995799619999999,-0.6242576465,8.4916882495,17.202144625000003,1.4776851535,0.2782282605
297,2.4749009999999885,0.985732079,9.492874621999999,-155.99241634999998,-0.9108174444999999,0.0745084805,11.503111364999999,17.51041412,0.40187478050000003,-0.8917022050000001
298,2.4832340000000386,1.1036103365,9.549161433999998,-155.9874115,-1.512339115,-0.24447971550000003,8.317574978,13.86048508,6.0542520285000005,0.2291001525
299,2.491567000000032,1.1990460755,9.5386242865,-155.99730685,-0.548995577,-0.585908655,10.448545693,11.474686145,-2.0617220995,-1.384033352
300,2.499900000000025,1.277153432,9.5363850595,-155.9880905,0.4318911285,-0.052876186000000006,9.8880066895,8.997789383,-0.8898136615000001,0.855425973
301,2.5082330000000184,1.3268533345,9.517498493000002,-156.0027542,-1.51784265,-0.41932996549999996,8.243453026000001,6.0709643365,-3.0775696040000002,-1.926517129
302,2.516566000000012,1.380974948,9.492496967,-155.99205015,-0.15246035900000002,-0.27902416150000003,10.3241348245,6.100177765000001,-3.613983154,1.096718401
303,2.524899000000005,1.385886729,9.431903362,-156.00834655,-1.36244452,-0.314676382,8.425727129,0.730377257,-8.022103546,-1.9965082405
304,2.533231999999998,1.3936104775,9.3833179475,-156.01683805,0.1420304475,-0.08559428149999998,9.850089311,0.9153439405,-6.561118722,-1.107790232
305,2.5415649999999914,1.394078612,9.3409748075,-156.0514984,-1.9897738695,-0.2027619185,9.7993674255,0.559222773,-5.949335336500001,-4.214572549
306,2.5498979999999847,1.3669419885,9.2536540035,-156.0862961,-1.1362125275000001,-0.05616043499999998,11.119444369,-2.761131674,-11.2155094135,-4.111489176999999
307,2.558231000000035,1.3385104540000001,9.2400074005,-156.14942935,-1.443108022,0.3184246865,7.8569762685,-2.3700786235,-2.5841498375,-7.6781044005
308,2.566564000000028,1.3108491894999998,9.1881170275,-156.20755765,-0.9897679385,0.1939316545,10.102318766,-2.382860601,-7.0241096625,-6.971612215
309,2.5748970000000213,1.2830330724999999,9.1588330265,-156.28495025,-1.7289746400000001,0.328500405,11.872784615,-2.037651166,-4.4264667035,-9.338023185499999
310,2.5832300000000146,1.2389450069999999,9.1664533615,-156.3682785,-2.5819612745,0.795470566,7.688694954,-3.8704332115,-0.00800445700000002,-10.128286361499999
311,2.591563000000008,1.2193934915,9.1575565335,-156.4578476,0.1453646425,0.1564361305,9.8893153685,-0.813290447,-2.0666333285,-10.822366713000001
312,2.599896000000001,1.2107802035000002,9.173446655500001,-156.56407165000002,-2.7269990445,0.711777955,9.332720039,0.8129317760000001,0.9972711875,-12.86564207
313,2.6082289999999944,1.197531581,9.1864819525,-156.6710205,-0.9244823604999999,0.8339371385,8.974333763,0.282051563,0.5259372295,-12.939807895
314,2.616561999999988,1.212871492,9.248286247,-156.7878189,-1.4449863059999999,1.048227102,9.167753694,3.9057043790000003,6.4827661515,-14.228255274999999
315,2.6248950000000377,1.251483917,9.269773483000002,-156.9014816,-1.5569212735,0.085242048,10.98115158,6.6398712375,1.5824540855,-13.759073260000001
316,2.633228000000031,1.2971685530000001,9.3163771625,-157.0329361,-0.7727564575,0.77441673,9.367324591,7.849196314,4.535763144000001,-15.92721033
317,2.6415610000000243,1.3274195195,9.3776717185,-157.1514282,-1.3745721579999999,0.37370164699999997,7.6273591515,5.760584474,6.2598834035,-14.43615389
318,2.649894000000017,1.4047629234999999,9.419051647,-157.2912445,-1.2143286464999998,0.449094564,10.7461309425,11.8313288665,3.9267218115,-16.906715395
319,2.6582270000000108,1.4882131219999999,9.4973831175,-157.4176712,-0.9155183735,0.9466891885000001,7.9952032545,12.3283596025,8.2466404435,-15.438658239999999
320,2.666560000000004,1.5449303985,9.552111149,-157.5627594,-1.2173470405,-0.33627836450000004,9.1517271995,9.497524737500001,5.4682633875,-17.5781517
321,2.6748929999999973,1.6419424415,9.631034849,-157.70029449999998,-1.2293895780000001,0.9297676535,10.5790658005,14.211725235,8.3092033865,-16.774456025
322,2.6832259999999906,1.7384816404999999,9.681001662,22.148986800000003,-1.095363319,0.288786635,7.576496601,14.43147087,4.758685708,-18.2416029
323,2.6915590000000407,1.829491794,9.755493165499999,22.003768899999997,-0.4304739015,-0.39698433499999997,9.6907603725,13.681305405,7.6269938945,-17.686797140000003
324,2.699892000000034,1.925820589,9.8162817935,21.851364149999995,-1.9226890205,1.016141802,9.741918562999999,14.47387505,6.059287071,-18.49613094
325,2.708225000000027,2.0294046405,9.868248464,21.703430150000003,-0.3905516565,-0.320272416,10.570119142,15.284526825,4.855494857,-17.934833525000002
326,2.7165580000000205,2.120814204,9.9482569675,21.55545045000001,-1.1049879195,-0.451353863,7.2567834835000005,13.8298831,8.321372032,-18.075520519999998
327,2.7248910000000137,2.1802501679999997,9.951325896,21.40278624999999,-0.4507787825,0.07549265,10.95055485,10.109744071,-1.0141960385000002,-18.288808825
328,2.733224000000007,2.24839139,10.024031641,21.257705700000002,-1.040070325,-0.3262902405,9.5126674165,11.0093231185,7.347612619,-17.715208055
329,2.741557,2.3072093725,10.03118992,21.1090698,-1.262661457,-0.2715898305,9.051081898,9.9800772685,-0.6116809695,-17.82542515
330,2.749889999999993,2.32390511,10.050799845,20.9691086,0.2192143855,-0.3800693305,11.0611286175,4.7337043285,1.041737795,-16.86891222
331,2.7582229999999868,2.329321146,10.0519132625,20.8284149,-1.929064989,-0.52335608,7.7043077945,3.4112147095000003,-1.3141065835,-16.859843255
332,2.766556000000037,2.3576889039999998,10.029224397,20.702720650000003,-0.0646936595,0.5262282269999999,11.199914455,5.835955143,-3.9679851535,-14.97893333
333,2.77488900000003,2.3532885315,10.0367121675,20.575988750000008,-1.4087828995,-0.303705741,7.689684628,1.9297702905,-0.42256447649999995,-15.2469697
334,2.7832220000000234,2.346870065,9.993243219,20.467155449999993,-1.1887024044999999,-0.082968019,11.811581135,1.308881037,-6.4477119445,-12.88348055
335,2.7915550000000167,2.3296310900000003,9.994462967,20.348983750000002,-1.1255254744999998,0.2449605205,8.776727677,0.2110293475,-1.1963900325,-14.204564094999999
336,2.79988800000001,2.3342466355,9.958262921,20.243255599999998,-0.7211087275,-0.230032295,10.059958457,2.56079033,-5.485679746000001,-12.551022530000001
337,2.808221000000003,2.306564808,9.9288859345,20.134666449999997,-0.563099159,0.1991313735,10.335301399,-1.262385254,-4.8173274995,-12.924221515
338,2.8165539999999964,2.2788895365000004,9.9145407675,20.034591699999993,-2.092924714,0.07000558150000001,9.7749466905,-1.447953552,-2.830930352,-11.99880457
339,2.8248869999999897,2.276834488,9.8968186355,19.938941999999997,-1.395856857,0.5574822424999999,9.259371281,1.54132387,-3.2779242995,-11.457087515
340,2.83322000000004,2.2625561955,9.872657297,19.85515595000001,-0.2732302695,-0.3270029895,11.090661525000002,-0.1827959415,-3.9974919555,-10.0280303955
341,2.841553000000033,2.2467522625,9.884389877,19.773765549999993,-1.8767045735,0.1872936785,8.233029125,-0.41201776250000005,0.254438996,-9.9086170185
342,2.8498860000000263,2.245309353,9.848928930500001,19.699073800000008,-1.115438044,0.350148693,10.282042024999999,1.1727093460000002,-5.233366012499999,-8.904808521500001
343,2.85821900000002,2.2518231865000002,9.869147776,19.633682249999993,-0.500854701,0.396235302,8.469087839,1.9416552485,1.3476932645000002,-8.063662767
344,2.866552000000013,2.266834736,9.8469953535,19.562461850000005,-1.7171635625,-0.0459669385,11.42828798,3.0678747294999997,-3.625522733,-8.554611921
345,2.874885000000006,2.2712819575000003,9.844252587,19.50143435000001,-0.8795065879999999,0.4600221065,9.672106981999999,1.5979761780000001,-1.3169113099999998,-7.440852642
346,2.8832179999999994,2.2501221895,9.8412303935,19.4358826,-1.1393947305,-0.536552355,8.538534877,-1.381779075,-1.373864174,-7.972155094
347,2.8915509999999927,2.2703624959999997,9.832112312,19.3810577,-0.6962917595,0.4397328495,10.99495554,3.3673433065000005,-2.1222993135,-6.6771633625
348,2.899883999999986,2.261373401,9.813252451,19.314552300000003,-1.204435438,-0.06596337999999999,9.0883607855,0.09123784300000015,-3.2060892284999998,-8.017313957
349,2.908217000000036,2.2456302645,9.8038821225,19.26426699999999,-0.42635726900000004,-0.462542012,9.5200138115,-1.043478936,-2.129266441,-6.1358706949999995
350,2.9165500000000293,2.2255262135000002,9.76655054,19.198234549999995,-1.9681055545000001,0.6116064935000001,9.352966785500001,-1.2584658859999998,-5.415483713,-7.873759031500001
351,2.9248830000000225,2.221122384,9.7596368785,19.143180849999993,-0.427567229,0.146881312,9.959258556,0.4079066815,-1.7827699185,-6.7191581725
352,2.933216000000016,2.2078820465,9.7578754415,19.0798111,-1.9189122315000002,-0.360930525,8.8308165065,-0.48755409050000004,-1.204650134,-7.719650745
353,2.941549000000009,2.1739467384999998,9.706786155,19.0225983,-0.1929233895,0.0853172095,12.16142273,-3.096345007,-7.1587760425,-6.7735252379999995
354,2.9498820000000023,2.1388103960000002,9.7227101305,18.95745085,-2.018141747,0.07407430899999999,8.3854742075,-3.0864322184999997,0.987748928,-8.0197212695
355,2.958214999999996,2.128915906,9.680779459,18.898452750000004,-0.313610822,-0.24396126750000002,10.462440492999999,-0.176481962,-6.059950352,-7.01817894
356,2.966547999999989,2.086706102,9.681447981,18.839149449999994,-1.566537887,0.19489903,9.949247119999999,-4.064267993,-0.8120610715000001,-7.2638061045
357,2.974881000000039,2.024886012,9.6725988385,18.780075049999994,-1.7420811055,-0.477093294,8.6589128975,-6.411672115,-2.013118893,-7.191523552
358,2.983214000000032,2.003120482,9.669133662499998,18.72283935,-0.9672839495000001,0.3451161235,10.215860844,-1.6423336265,-1.3551021515,-6.990555047999999
359,2.991547000000025,1.9475243684999999,9.650657654,18.67127995,-0.299307689,-0.2135413625,8.5715680115,-5.823429345999999,-3.2014530895,-6.2620089055
360,2.9998800000000188,1.89612478,9.6694021225,18.611984250000006,-2.007966816,0.1590336785,10.282315255499999,-5.166372776,1.37971089,-7.326716423
361,3.008213000000012,1.8477699754999999,9.661324502500001,18.565322900000012,-1.4065492155000001,0.46596813200000003,9.5168266285,-5.0395048854999995,-1.9186022875,-5.7260947225
362,3.0165460000000053,1.800495863,9.678006174,18.515411350000008,-0.38191232799999997,-0.21617488750000002,10.913492204499999,-4.8635092975,1.178241998,-6.2150568965
363,3.0248789999999985,1.7544664145,9.694130419499999,18.465934749999988,-1.9466025235,-0.14323949799999997,9.0349328525,-4.712762833,1.0510289670000001,-6.150772094500001
364,3.033211999999992,1.7007092235,9.678737638,18.42019655,-0.4204967645,0.19158527250000001,10.233868121499999,-5.7136596445,-2.7108893395,-5.5949883465
365,3.041544999999985,1.643881798,9.711005212500002,18.37457275,-0.87380936,0.5055414810000001,8.00240922,-6.0803525445,2.9398164749999998,-5.749058008
366,3.049878000000035,1.617658734,9.705636023,18.336303700000002,-1.331041485,0.1205327215,11.33028603,-2.570471894,-1.4058052745,-4.74769485
367,3.0582110000000284,1.5801664595,9.7244162575,18.3009567,-1.497243166,0.6971373555,9.1114900095,-3.9706865550000003,1.362037089,-4.487466693
368,3.0665440000000217,1.51864928,9.734574793,18.27804565000001,-0.44185496500000004,-0.537764892,8.4270415315,-7.1137719155,0.5129699560000001,-2.9881634715
369,3.074877000000015,1.5076078769999999,9.748219967,18.260665899999992,-1.6170163750000002,0.8687239885,9.9980745305,-1.1675988435,0.8797400895,-2.340942353
370,3.083210000000008,1.4913314585,9.749095441000001,18.252357450000005,-0.4255385995,0.2269335725,9.0180618745,-1.9736664595,-0.623245537,-1.229143888
371,3.091543000000001,1.4673886294999998,9.782302856000001,18.246124249999994,-1.392028838,-0.049088195,9.9569756975,-2.9284050465,3.1920140985,-1.0794286725
372,3.0998759999999947,1.4412198665,9.766253468999999,18.23514555,-1.4091717005,0.41355493649999997,10.274252894,-3.1028829215,-2.586698234,-1.496697307
373,3.108208999999988,1.4417777655,9.770760536000001,18.22023010000001,-0.014306396499999985,0.3504298655,9.1573021425,0.1915688514999998,-0.2742003205000001,-2.0194199685000003
374,3.116542000000038,1.4257411960000002,9.7697110155,18.20505519999999,-0.7991767675,0.070821248,8.572763919,-1.8051053585,-0.7992537205,-2.033507526
375,3.124875000000032,1.4148305055,9.736459733,18.189445500000005,-1.1117913725,0.08933051649999998,12.2140378935,-1.183249712,-4.7350666525000005,-1.9919230345
376,3.1332080000000246,1.396500707,9.725549696,18.172370900000004,-1.5872684719999999,0.593749717,8.37944174,-2.0362934249999998,-2.0583850145,-2.234515369
377,3.141541000000018,1.4021357895,9.704853537,18.16236875,-0.021080061499999997,-0.236472884,9.328280451,0.695042104,-3.284301877,-1.3601477745000001
378,3.149874000000011,1.402397871,9.665693283,18.152275099999997,-1.9315000175,0.13395586199999998,9.7671201245,0.03632068650000009,-5.3564424514999995,-1.3227704464999999
379,3.1582070000000044,1.389844358,9.6390519145,18.144622850000005,-0.56401895,0.2727770655,10.067584037,-1.534907326,-3.9895516630000003,-1.069349408
380,3.1665399999999977,1.398816943,9.633565426,18.143943799999988,-1.9386553765,0.20817286550000003,9.358060839,0.9015634505,-1.2868977265000001,-0.3034646215
381,3.174872999999991,1.4175531865000002,9.5738215445,18.144348150000013,-0.40653403600000004,0.04834155000000001,11.681855200000001,2.0496641395,-7.86670208,-0.021554321000000043
382,3.183205999999984,1.413422048,9.585483074,18.14344785,-1.4705116155,0.169500686,7.7489066125,-0.6648751344999999,0.6966944935000001,-0.38673011999999996
383,3.1915390000000343,1.4218633774999998,9.5433444975,18.145820600000008,-0.817213714,0.125218183,10.174813745000002,0.7866899965,-5.8189845085,0.16986083950000003
384,3.199872000000028,1.447670937,9.5088748935,18.150657699999996,-0.224849567,0.862558603,10.96803522,2.8087547425,-4.747477490500001,0.4231472275
385,3.208205000000021,1.465700269,9.476966381,18.15110779999999,-1.608540058,-0.2155060545,9.0271372795,1.9722640809999998,-4.59869647,-0.0913083555
386,3.216538000000014,1.498868704,9.438246249999999,18.153381350000004,-0.4921103715,0.419094935,9.662742377,3.7488096955000003,-5.262034774,0.14731386300000004
387,3.224871000000008,1.508603811,9.372774601,18.150077800000005,-1.5567557815000002,0.12318538100000001,8.7617661955,1.0489289759999998,-8.5612196905,-0.43229793250000004
388,3.2332040000000006,1.5544776915,9.344909191,18.1433258,-0.1413018775,0.0928407165,9.8821878425,5.454686165,-4.0622450115,-0.9517033845
389,3.241536999999994,1.5969340205,9.290920734,18.13700105000001,-1.998178184,0.353511959,9.413363933,5.0355608465,-7.269083022999999,-0.808724746
390,3.249869999999987,1.621984303,9.211580753500002,18.126327500000002,-0.253060952,-0.31335171700000003,10.7416839585,3.021436274,-10.177221777,-1.243859351
391,3.2582030000000373,1.6535617710000001,9.1981606485,18.117095949999992,-2.3500734569999997,0.29465810750000004,7.931715489,3.786981106,-2.4121500255,-1.2881206275000001
392,3.2665360000000305,1.7062972785000001,9.1367816925,18.10961915,-0.43805576850000005,0.10786881300000001,10.488435267,6.2802461385,-8.0129081025,-0.9074291585
393,3.274869000000024,1.7465492485,9.085698128,18.10549925000001,-0.582848862,0.02906047149999999,10.8507347085,4.7173171045,-6.839994193500001,-0.5510260459999999
394,3.283202000000017,1.755706191,9.065036774,18.103271500000005,-2.45380342,-0.130148232,7.7931561469999995,0.9563906784999999,-3.185149312,-0.42949307700000006
395,3.2915350000000103,1.8039169315,9.0172863005,18.103622450000003,-0.343991548,0.17688248699999998,10.928637025,5.5964739325,-6.4970452795,-0.015342891499999983
396,3.299868000000004,1.8489788175,8.999532222500001,18.1105881,-2.2398070095,0.022122543,9.254677771499999,5.081998587,-2.727512479,0.6475663035
397,3.308200999999997,1.8597327475,8.997936249,18.10504915,-1.365143746,-0.1351302265,8.111132145,1.217047684,-0.9838748725,-0.8895440600000001
398,3.31653399999999,1.908508718,8.99105978,18.113662750000003,-1.0134542290000002,-0.174099542,11.055855271999999,5.507130384,-1.4146678149999998,0.804575097
399,3.32486700000004,1.9400731325000002,8.982141495,18.109298750000008,-0.9098329544999999,0.34945821,8.6459333875,3.6782488225,-1.7846270199999998,-0.7234612405
400,3.333200000000033,1.954277098,8.9861063955,18.106163050000006,-1.6917859910000002,-0.350993946,8.977875232999999,1.582236141,-0.234338239,-0.630596854
401,3.3415330000000267,1.9880921839999999,9.0139861105,18.105438199999995,-0.692619089,0.3248882445,11.171991825,3.8944460155,2.569306731,-0.4401038734999999
402,3.34986600000002,1.989560425,9.000615597,18.1080551,-1.2309312225000002,-0.408066675,9.179623127,-0.06938886649999998,-2.2181928605,0.11616057150000003
403,3.3581990000000133,1.9843224885000001,9.004109859500002,18.10139464999999,-0.4979657085,-0.9171019790000001,9.309305666,-0.6842972039999999,-0.38056349749999985,-1.04871732
404,3.3665320000000065,1.981415927,9.009557247,18.110466000000002,-1.286624372,0.329283312,8.859880211,-0.70332855,0.06886369000000003,0.8106328844999999
405,3.374865,1.9487402435,8.9635224345,18.108482350000003,-0.2802414635,-0.4477525095,9.993488786499999,-4.074616313,-6.228056669500001,-0.29444834549999993
406,3.383197999999993,1.9279987815,8.986214161,18.117652899999996,-1.6388815345,-0.07510742549999999,10.140446662999999,-2.8442367610000003,2.060703777,0.7485825125000001
407,3.3915309999999863,1.8814169760000001,8.954818725500001,18.11415860000001,-1.8900537494999998,-0.1686877165,9.673089983,-5.699737905999999,-4.5474812985,-0.5239903925
408,3.3998640000000364,1.8234511015,8.920197487,18.120956399999997,0.7663285435,-0.5248925090000001,10.2643589955,-7.269736767,-4.750256419,0.6885555385000001
409,3.4081970000000297,1.7696436050000002,8.9192399975,18.1114197,-2.0251441000000003,1.0162267685,9.1446852685,-6.463412285,-0.9220804275,-1.3676528335
410,3.416530000000023,1.719557583,8.8724656105,18.110618599999995,-0.670920491,-0.39012616850000004,10.768196583,-6.172730446,-6.2313611505,-0.1648020149999999
411,3.424863000000016,1.6709889175,8.813646793,18.10349275,-0.4250393215,0.560698688,10.721395014999999,-5.8804585935,-7.7772835175,-0.8942378165
412,3.433196000000009,1.6058241725000002,8.7771201135,18.094818149999995,-0.777755827,-0.2819691135,7.834396362,-7.8454039095,-5.1080489154999995,-1.14834398
413,3.4415290000000027,1.5641388295,8.6732563975,18.07896425,-1.4486818315,-0.01838393499999999,10.027195931000001,-4.892044306,-13.280349255,-1.7697710395000001
414,3.449861999999996,1.5235097405,8.592795372000001,18.078201300000003,0.3524419885,0.4418040365,10.766777036499999,-5.0492135285,-10.2770280845,-0.09009811299999998
415,3.458194999999989,1.4689329265,8.5326929095,18.064094549999993,-2.9944288735000004,0.456543088,7.631541729,-6.4840457439999994,-8.027457476,-1.7201434375
416,3.46652800000004,1.4316417575,8.4549360275,18.063987749999995,-0.89432773,-0.1522836825,11.88948345,-4.6539530749999996,-9.945881367,-0.0063202380000000336
417,3.4748610000000326,1.4098165035,8.41822052,18.060363749999993,-2.6267608405000002,0.2970840785,11.4466071135,-2.742529392,-5.1125695705,-0.5606764985
418,3.483194000000026,1.377176344,8.417705536,18.055503849999994,-0.8631621300000001,0.987575971,5.8937659265,-4.012035668,-0.7715266940000001,-0.8066498785
419,3.491527000000019,1.3642982245000002,8.423690319,18.05651094999999,-2.3858293895,-0.2656889225,10.0013303735,-1.7462631465,-0.051093936000000006,-0.1310936585
420,3.4998600000000124,1.3737787605,8.474045753,18.052780150000004,-1.879100382,0.771301106,13.163108825,1.0198244455,5.409176111,-0.8244582115
421,3.5081930000000057,1.3770610689999998,8.5558309555,18.054351799999992,-2.9951952695,0.2240252795,6.713308334500001,0.18119549750000008,9.04484248,-0.2814812365
422,3.516525999999999,1.3948706985000001,8.6359066965,18.05080414999999,-0.30834415549999994,0.413069636,6.9637606145,2.016455412,8.973108768500001,-0.894903749
423,3.524858999999992,1.435806453,8.787448406,18.05348205,-2.715480566,0.23948201549999998,9.873506548,4.6793699265,17.491011139999998,-0.372206941
424,3.533191999999985,1.4764918085,8.915299892,18.055572499999997,-0.405442439,0.2657698095,10.860844137,4.6530512575,14.6452312465,-0.3795516495
425,3.541525000000036,1.5199013945000002,9.062206268,18.060920699999997,-2.8596149685,-0.0629342495,8.906907558499999,4.9235248565,16.867099760000002,-0.070503235
426,3.549858000000029,1.5676895975,9.2503213885,18.06668090000001,0.051545693,-0.177387051,7.549964427999999,5.4423168895,21.960496905,-0.1703731495
427,3.558191000000022,1.610357344,9.407690048,18.082199099999997,-1.7365092635000001,-0.179106709,7.779839753999999,4.625784993,18.156073575,1.0733520835
428,3.566524000000016,1.6460494995000001,9.540623663,18.092781099999996,0.392171055,-0.3665145785,11.02173853,3.8830871585,15.355515004,0.548426449
429,3.5748570000000086,1.6643963455000002,9.714687825999999,18.115455600000004,-2.2114955185,0.1612312085,7.3106853965,1.5660100579999998,20.260923384999998,1.8328334689999999
430,3.583190000000002,1.6951758264999999,9.8244566895,18.130241400000003,0.39384672800000003,-0.1410651355,8.6831855775,3.2063454385,12.5197587,1.1215770545
431,3.591522999999995,1.7136813995,9.92802191,18.150230399999998,-0.49536997100000013,-0.1355984155,11.083137988,1.6278295520000001,11.7209292665,1.7420564294999998
432,3.5998559999999884,1.708500743,10.009372235499999,18.157783500000008,-0.714839682,-0.7156221939999999,8.202781677,-0.952996917,9.1624240865,0.3513120415
433,3.6081890000000394,1.7196776864999999,10.017446038500001,18.16774749999999,0.23073934,0.24703007949999997,10.593698979500001,0.9556158480000001,0.232705355,0.9031003715
434,3.616522000000032,1.6891679165,10.055950640999999,18.162490849999998,-0.5009874664999999,-1.086041808,6.8841631415,-3.729938507,3.9799079895,-1.0063512330000002
435,3.624855000000025,1.6562955380000002,9.984158992000001,18.16333005,-0.5557042209999999,-0.27299109099999996,11.571135045,-4.142033815,-9.303125141999999,0.095336184
436,3.6331880000000174,1.5994389055,9.961207389,18.1522217,-0.326682955,-0.500259101,7.9252719875,-6.7703106405,-3.4861619475000003,-1.4867208004999999
437,3.641521000000012,1.542461872,9.8388266545,18.142669650000002,-0.580743134,-0.4585869535,9.531833888000001,-6.8206682205,-15.481357575,-0.966790348
438,3.649854000000005,1.4652585390000001,9.7548451425,18.13347625,-0.25326120850000006,0.4010769125,10.032603739999999,-9.258811474,-10.721526148,-1.072256893
439,3.658186999999998,1.3979977369999999,9.631302357,18.116615300000007,-2.3138557669999997,-0.163609989,9.5109958645,-7.9114129559999995,-15.641394615,-1.8705761435000001
440,3.6665199999999913,1.3563943505,9.4883322715,18.110168450000003,0.3022672685,0.6604276595,11.971990585,-5.041389108,-17.78629446,-0.5995718055
441,3.6748529999999846,1.29518348,9.360948562499999,18.095367449999998,-1.7324615125,-0.4953042565,8.679949045,-7.2390904425,-16.017921925,-1.6359494925
442,3.6831860000000343,1.2579270005,9.1777825355,18.09037015,-0.39716356249999996,0.37470965050000005,11.250284193,-4.55679971,-22.68470764,-0.34371110800000004
443,3.691519000000028,1.2152449490000001,9.05746603,18.08363340000001,-1.9206665159999998,0.314088181,8.349306584499999,-5.1761130095,-15.222773550000001,-0.7303389164999999
444,3.699852000000021,1.2123320105,8.907192707,18.08204655,-0.7426226515000001,0.1841417325,10.9972353,-0.49799883350000007,-18.649564745,-0.03854297100000001
445,3.7081850000000154,1.1968511345000001,8.7763261795,18.083877599999994,-1.967012286,0.555116296,10.4866082645,-2.0765726565,-16.470039845,0.30527043349999994
446,3.716518000000008,1.171792388,8.666249751999999,18.07936095000001,-1.747488439,-0.385113379,9.643326999500001,-3.102480054,-13.832400320000001,-0.5024872795
447,3.724851000000001,1.194061339,8.5689163205,18.079528850000003,-1.860916972,0.1291349345,10.373829364999999,2.4927261475,-12.368571283999998,0.027535379000000026
448,3.7331839999999934,1.1828727125,8.47233057,18.08029175,-1.3188627364999999,-0.009044289500000025,9.252943515,-1.5416763725,-12.283769605,0.09221768399999997
449,3.741516999999988,1.176445484,8.430501938,18.07403565,-2.084247172,-0.9352784155,10.122367860499999,-0.8435086460000001,-5.8045567275,-0.8731252249999999
450,3.7498500000000377,1.1951051355,8.3964357375,18.0860596,-2.337798595,1.0939405855,10.5829267525,1.8504104015,-4.6749631984999995,1.2783873675000001
451,3.758183000000031,1.182350934,8.375467777,18.09200285,-0.5814071595,-0.5651795119999999,9.4708404535,-1.8263335045,-3.2751834395,0.5177276730000001
452,3.766516000000024,1.195110798,8.405013561499999,18.101699850000003,-3.0387313365,-0.10300934300000003,11.648931505,1.1867651049999999,2.951585889,0.8348127230000001
453,3.7748490000000174,1.1958157420000002,8.412010192499999,18.11347959999999,-1.3598677215000001,0.303193778,10.0023565285,-0.29808557050000006,0.17563670850000002,1.144578606
454,3.7831820000000103,1.1679630875,8.4462547305,18.12176515,-1.2629097105,-0.6311632245,8.1668689255,-3.6713393925,3.4318914415,0.657741517
455,3.791515000000004,1.1625232695,8.496702671,18.125259400000004,-1.3200614750000002,-0.272003271,11.282131195,-0.8960693475000001,5.2898008825,0.05547402800000001
456,3.799847999999997,1.14862752,8.5423641205,18.12983700000001,-1.588574648,0.33111235499999997,10.4517045015,-1.9193196295000001,4.8730449675,0.19368854149999998
457,3.8081809999999914,1.0846678915,8.5722517965,18.142646749999997,0.06305222199999999,-0.9435943665,8.623095989500001,-8.0958282945,2.840420306,1.2015063165
458,3.8165140000000406,1.020594448,8.6083078385,18.13205715000001,-2.1305789355,-0.8119356560000001,11.229565625,-7.67164898,3.685101032,-1.5801101925
459,3.824847000000034,0.9566029905,8.6420769695,18.142036399999995,-1.317256272,0.504086472,9.709760904,-8.0263299965,3.3846592305,0.883883178
460,3.833180000000027,0.843177736,8.6740727425,18.131393450000004,-1.109144747,-0.4480001775,6.882565022,-13.604408265,3.118911624,-1.565997064
461,3.841513000000021,0.7290918235,8.726200104,18.123451250000002,-1.9225646555,-0.677832958,10.793118953,-13.723296165999999,5.4751269815,-1.2740202840000001
462,3.8498460000000136,0.6237650365,8.767782211499998,18.109764100000007,-1.043843076,0.011214904499999984,12.271028517000001,-12.558129784999998,4.3536200525,-1.9131849710000002
463,3.858179000000007,0.49461078599999997,8.79804945,18.1064911,-1.2648832205,-0.0957826075,6.667600870499999,-15.632158754999999,2.8510633705000004,-0.6612830459999999
464,3.866512,0.36244646449999995,8.855238437499999,18.083648700000012,-1.5963400305,0.04717299349999998,6.988760948,-15.612436294999998,6.2241261004999995,-3.001841545
465,3.8748449999999934,0.2455874,8.898317814,18.096855149999996,-0.0820619165,0.273529276,13.193655490000001,-14.45022917,4.4815120695,1.293397427
466,3.8831779999999863,0.11451591549999998,8.945441246000001,18.084342949999993,-2.354849398,-0.012972682999999985,10.730677367,-15.68415689,4.9458984135,-1.7337321675
467,3.891511000000037,-0.0051149944999999974,8.987756729,18.0904388,-0.7822593745,0.39839255799999995,6.4059457779999995,-14.644348619999999,4.314046621499999,0.485697359
468,3.89984400000003,-0.0951119475,9.0450091365,18.09277345000001,-1.024194762,0.5277312125,8.0479321475,-11.0208652015,6.24799788,0.034604788
469,3.9081770000000233,-0.182491255,9.116456985500001,18.09134675,-1.7492729425,1.1873236295,9.6525206585,-10.642106534,7.802909851500001,-0.3847706615
470,3.9165100000000166,-0.241037052,9.156841754999999,18.0851593,-0.905877054,-0.05188539599999997,13.00513792,-7.07536316,4.2325538394999995,-0.9459976405000001
471,3.92484300000001,-0.252901211,9.2162470815,18.086090100000007,-1.2257785795,1.5518978835,8.7166953085,-1.6236617555000001,6.4327660805,-0.10501839999999998
472,3.933176000000003,-0.25526519849999996,9.272851466999999,18.0745316,-0.725046113,1.0370506345,3.9134765865,-0.24424457549999978,6.1013424395,-1.5813781025
473,3.941508999999997,-0.214183189,9.3071327205,18.080368050000004,-0.7311860769999999,0.3529958725,11.850919725,4.632994056,3.3400256634999996,0.46817058349999996
474,3.9498419999999896,-0.138646226,9.372348308500001,18.0743942,-1.8367666004999998,1.712738171,12.898436069999999,9.001772403,7.2082886695,-0.923579067
475,3.95817500000004,-0.047416915500000004,9.3893766405,18.08200074999999,-0.408452168,0.014464080499999976,6.878977299000001,10.617929220999999,1.2708373365,0.6631206125
476,3.966508000000033,0.0648782065,9.407816887,18.0825119,-0.280802235,0.44653881700000003,6.890913486500001,13.2805037515,1.5946525335000001,-0.17856961449999997
477,3.9748410000000254,0.200561337,9.438381671999998,18.08029934999999,-1.7241119745,1.301398665,9.366757631,16.150642395,2.9726412294999998,-0.510811895
478,3.98317400000002,0.370954931,9.425549984,18.086463949999995,-0.809657976,-0.22838766849999997,12.381315705,20.14537811,-2.232812822,0.497921661
479,3.991507000000013,0.5382789225,9.4053401945,18.078338649999992,-0.12051033949999995,0.2700381580000001,10.5950536715,20.056372165,-3.203485964,-1.1762765050000001
480,3.999840000000006,0.686630815,9.389074325500001,18.08266445000001,-1.502141297,0.2774897145,6.73339653,17.537250995,-2.5636525155,0.29562677449999997
481,4.008172999999999,0.869165242,9.325638771000001,18.077468850000002,0.010312319000000014,-0.5327225325,11.0479269,21.822630885,-8.3911628725,-0.7572724225
482,4.016505999999993,1.046664864,9.259728431500001,18.094566350000008,-1.1904043555,0.19823944599999999,11.708075525,20.784340855,-8.4900156875,1.9232522845
483,4.024838999999986,1.1707823275,9.196703910499998,18.086547850000002,-1.4334824085,-0.6476424035,7.1617212299999995,14.870547295,-8.2728428855,-1.043146357
484,4.033172000000036,1.304692745,9.089566230500001,18.109153750000004,-0.45472955700000006,-1.231808484,9.186499835500001,15.457550049999998,-13.491042140000001,2.715385318
485,4.041505000000029,1.4202590585000001,8.969310283999999,18.101219150000006,-0.20550221199999996,-0.051168621,12.243598935,13.83431053,-15.220119,-0.8380148559999999
486,4.049838000000023,1.4916916489999998,8.877295493999998,18.1215057,-2.4295653105,-0.25797506400000003,8.6867337225,8.019940137999999,-11.593254566,2.4437072875
487,4.058171000000016,1.5370256305,8.742432594,18.1127853,-0.7205630540000001,-1.318419218,9.7057270995,5.419058323,-16.975831505000002,-0.8426123860000001
488,4.066504000000009,1.5597671865,8.6209983825,18.125183149999998,-1.7462955115,-0.5297362879999999,10.7347388255,2.3275913894999998,-15.142568115,1.6196716425000002
489,4.074837000000002,1.5498945709999998,8.538029671,18.111373900000004,-1.5049517749999999,-0.494590111,10.606834889,-1.115621697,-10.688738344,-1.605698824
490,4.083169999999996,1.5224672555,8.448070526,18.121139500000012,-1.751791984,-0.6429223415,9.833670618500001,-3.64036572,-11.4528360385,1.212417841
491,4.091502999999989,1.4532805085,8.360154629,18.106086750000003,-1.596082628,-0.7432309539999999,7.25203228,-8.22330451,-11.364762785,-1.7518666385
492,4.099836000000039,1.3402711150000002,8.307217598,18.113609350000004,-1.4794165940000001,-0.43057648800000003,8.0768215655,-13.867659571,-6.9456664335,0.818125248
493,4.108169000000032,1.2161567805,8.2692046165,18.1019821,-1.6323362295,-0.61472781,12.279247285,-14.875784873,-5.3615018125,-1.495288849
494,4.116502000000025,1.077526063,8.266697884,18.115997300000004,-3.180299163,-0.5201150175,12.40893412,-17.053878785000002,-0.8866690395000001,1.431483865
495,4.124835000000019,0.9008842109999999,8.2627134325,18.107589700000005,-0.31840221599999996,-0.857768055,6.4411122800000005,-21.23160362,-1.1905692815,-1.229080379
496,4.133168000000012,0.7095412315,8.2770235535,18.124984749999996,-2.1851867435,-0.4651820065000001,4.1256848569999995,-23.4407177,1.0500176845,1.8113562465
497,4.141501000000005,0.501379177,8.3060417175,18.121749899999998,-0.5286121665,0.36579502399999997,9.455468175499998,-25.112078670000002,2.70323956,-0.6334466525
498,4.149833999999999,0.2932954915,8.3380291465,18.13980869999999,-1.9688327905,0.3929742575,14.37436104,-25.451758384999998,3.238877058,1.8842033745000002
499,4.158166999999992,0.07989141350000001,8.3893237115,18.13666535,-2.069661319,0.3064286115,11.86158562,-25.732713695,5.388093114,-0.649321074
500,4.166499999999985,-0.1261698455,8.4245457645,18.1476593,0.1979108045,0.15567278850000005,5.9107334615,-25.091383935,3.609245837,1.0808638634999999
501,4.174833000000035,-0.3035562395,8.463833332,18.134445200000002,-2.61271739,0.47100469450000004,6.43590498,-21.232245445,4.027551532,-1.7809008954999999
502,4.183166000000028,-0.4331983475,8.544988631999999,18.1310577,-1.091798425,1.715924561,8.8873062135,-15.66104126,9.0511698725,-0.5647043285
503,4.191499000000022,-0.55791907,8.616463184499999,18.124549850000008,-1.6714512705,1.4801632765,8.582033396,-15.04356003,7.8079190254999995,-0.9374557735
504,4.199832000000015,-0.6568160355,8.7110714915,18.103317250000003,-2.297214031,1.392450333,11.538873195,-11.6513609885,10.76175308,-2.628821313
505,4.208165000000008,-0.7023697495000001,8.797837734,18.10422514999999,-0.2903360875,1.3552419095,12.462736605,-5.6666377765,9.6398615855,-0.005225308499999998
506,4.216498000000001,-0.7159071565,8.907227039,18.081375100000002,-2.8604539635,1.6291161180000002,7.4016478065,-1.3856153470000008,12.537497525,-2.787271142
507,4.224830999999995,-0.6704045835,8.978708743999999,18.07335660000001,1.0155247155,0.712840505,8.511289597000001,5.4358544355000005,7.8949935435,-1.0848590665
508,4.233163999999988,-0.5815761985,9.074270725,18.065795899999998,-2.6057370905,1.759870291,7.376741648,10.611333846499999,10.78013134,-1.0117881295
509,4.241497000000038,-0.4606961165,9.166538715,18.047859200000005,-0.279626168,1.5096867084999999,9.067667007,14.664263725000001,10.321239471,-2.2665339705000003
510,4.249830000000031,-0.2931555065,9.2240314485,18.057479849999993,-0.5557970699999999,0.956040904,11.886398315000001,19.733693600000002,6.271358371,0.946964983
511,4.258163000000025,-0.120340974,9.2961378095,18.04611204999999,-1.089064896,1.237827301,9.118544579,20.771382335,7.8881558205,-1.549354434
512,4.266496000000018,0.0975741095,9.320036888,18.0539093,-0.172809422,-0.044491529500000015,8.494601009,25.82170868,2.2457485194999998,0.6879730375
513,4.274829000000011,0.3151377815,9.337495327,18.047035199999996,-1.037865907,0.270278372,8.163734198,26.059408185000002,1.3985652924999998,-1.0517403485
514,4.283162000000004,0.511255264,9.367022990999999,18.042350749999997,-1.304360032,-0.194897335,9.065423488499999,23.449093814999998,2.8419710394999997,-0.8218587115
515,4.291494999999998,0.7311341165,9.342661381,18.034767150000008,-0.4660198985,-0.27021004299999996,12.0864706,26.350666045,-3.703327537,-1.11130631
516,4.299827999999991,0.9421462715000001,9.364600658499999,18.040481549999996,-1.2310033105,0.20486903199999998,9.1132700455,25.017015455,2.02722013,0.40213733900000004
517,4.308160999999984,1.1048330665,9.363913059000001,18.035896300000005,-2.5406236645,-0.549653187,7.802582264,19.43054676,-0.8621817235,-0.781855464
518,4.316494000000034,1.2929382325,9.375750065,18.05746459999999,-0.390825823,-0.1723509395,12.37447643,21.966503144999997,0.8554772134999999,2.277254045
519,4.324827000000028,1.4714776875000002,9.379137039,18.06349180000001,-2.1386262179999997,0.2747375515,10.6164488775,21.11519241,-0.268552549,0.45901387899999996
520,4.333160000000021,1.6186879875,9.408434391,18.085853600000007,-1.279568851,-0.132253051,7.1838223935,17.049715995,2.890342772,2.312383056
521,4.341493000000014,1.784668267,9.424079895,18.104423549999993,-0.825331986,-0.606138226,12.372612475,19.37026501,1.1718708125000001,1.8994946475
522,4.349826000000007,1.947794616,9.432021141,18.125404349999997,-1.597391665,0.7143674045,11.328862668500001,18.982427595,0.4148096444999999,2.2054823635
523,4.358159000000001,2.081338048,9.450935363500001,18.13825990000001,-1.7268078924999999,-0.5990312640000001,6.3716003895,15.59503031,1.54957813,1.201109186
524,4.366491999999994,2.229384422,9.486765385,18.158340449999997,-1.1129255295,-0.153401874,10.65684223,17.189044000000003,3.7682833374999998,1.9657583239999998
525,4.374824999999987,2.382340193,9.498822689,18.169845550000005,-1.736149788,-0.15207776450000002,12.87102938,17.93972206,0.8082060215000001,1.0596804805
526,4.383158000000037,2.500099897,9.531203269999999,18.184211700000006,-1.7153777185,-0.18453607900000002,7.375785112000001,13.675768855000001,3.2572729584999998,1.2962213235000002
527,4.391491000000031,2.6026839015,9.540693283,18.196022049999996,0.46545141949999996,-1.1408457754999999,8.657238245,11.892108917000002,0.4297813180000001,1.103493452
528,4.399824000000024,2.71368134,9.509455204,18.19384765000001,-1.360921472,-0.428273391,12.4022259735,13.188329695,-4.373803973,-0.32840010500000005
529,4.408157000000017,2.794281602,9.4979310035,18.20339969999999,-0.846864134,-0.2461694445,10.6563796975,9.3048529635,-2.0977814199999996,0.9546106010000001
530,4.41649000000001,2.8461323975,9.4532794955,18.197425850000002,-1.4629010560000002,-1.4013164635000002,6.733866691499999,6.1645467279999995,-6.003907204000001,-0.688389033
531,4.424823000000004,2.8788218495,9.400754452000001,18.200050349999998,-1.7786961945000002,-0.813408181,8.8475217845,3.6903905865,-6.9728674889999995,0.3811590445
532,4.433155999999997,2.879061222,9.3646745685,18.195869450000004,-1.220059514,-0.511540368,10.313577176999999,-0.06878709800000005,-5.0431290865000005,-0.5179518165
533,4.44148899999999,2.8503770824999997,9.335038185,18.203262350000003,-2.055543244,-1.9353603725000001,11.329672335000001,-3.7688463034999997,-4.2792357205,0.810709715
534,4.44982200000004,2.796565294,9.312731266,18.19973755000001,-2.4481478930000002,-0.367759183,9.2716572285,-6.5606572629999995,-3.310467243,-0.5282871575
535,4.458155000000033,2.719195008,9.296370506,18.211074850000003,-0.553035304,-0.30600309400000003,6.266417264999999,-9.690935135,-2.6680043935,1.207000494
536,4.466488000000027,2.6113253834999997,9.319871425999999,18.206397999999993,-3.8010396955,-0.6110068559999999,10.471751215,-13.021932126,2.1742516755,-0.923841536
537,4.47482100000002,2.48933506,9.367211342000001,18.23144529999999,-1.440561175,-1.032632649,12.970892429500001,-15.314397334999999,5.1082865,2.484184265
538,4.483154000000013,2.3579038380000004,9.407957076999999,18.214332600000006,-3.0305178165,0.24205544599999998,8.045224905,-15.605996130000001,4.1098877935,-2.453287065
539,4.4914870000000064,2.230484724,9.4966545105,18.253639249999992,-0.0010533035000000468,-0.024228096000000088,6.761937976,-16.25288391,10.048051831999999,3.9767712355
540,4.49982,2.1077064275,9.586284160999998,18.235977199999994,-3.388155937,-0.1848703995,9.5483841895,-14.556122779999999,10.045416357499999,-2.733090162
541,4.508152999999993,1.995530963,9.6761188525,18.269576999999998,-0.8937893729999999,0.6024834809999999,9.525425672,-14.309440615,10.150341513,3.359596133
542,4.516485999999986,1.8795980810000001,9.786023619000002,18.267326350000005,-1.2330449525,-0.17558456249999999,9.928364276,-14.051807879999998,12.544344904999999,-0.9481691715
543,4.524819000000036,1.7959899305,9.9045524575,18.298233049999993,-1.0438548029999999,0.36772415049999996,9.598924876,-10.8463897715,13.637701985,2.945343256
544,4.53315200000003,1.7131704685,10.0271549245,18.302375799999993,-2.0712220665,-0.187012449,7.697787523500001,-10.1946151235,14.025110245,-0.202352494
545,4.541485000000023,1.6267802715,10.116508006499998,18.33885955000001,0.2835825085,-0.8556208009999999,5.975568533,-11.3224091515,10.0714483265,3.7589855195000004
546,4.549818000000016,1.554622948,10.255909445,18.326164250000005,-2.842801571,0.558672339,9.98734379,-8.547831297,16.06321621,-2.1951405404999997
547,4.558151000000009,1.5045443175,10.381062984,18.358276349999997,-0.9038869515,-0.241724357,11.639641765,-6.8689391625,14.349526404999999,3.14583236
548,4.566484000000003,1.4272070525,10.50761509,18.340003949999996,-1.5371600984999998,-0.11519285250000001,7.7919988655,-9.0583939575,14.50084257,-2.788014114
549,4.574816999999996,1.3568399549999999,10.63814974,18.35072325,-0.6672198324999999,-0.5766156765,7.9959471225000005,-8.848124981,14.998360635,0.6526124179999999
550,4.583149999999989,1.3197044130000002,10.75534248,18.342559800000004,-1.7922348975000002,0.20028299100000002,11.016837118000002,-4.453567088,13.340234755,-1.535170317
551,4.591483000000039,1.2581663724999999,10.88312149,18.35605625000001,-0.7854405645000001,-0.0630754305,7.7364985945,-7.878742218,14.592810629999999,0.9948120989999999
552,4.5998160000000325,1.2161115405,10.946249485,18.35546115000001,-1.005818423,-0.6087177545,7.649130583,-5.204909026999999,6.949341416999999,-0.4832382645
553,4.608149000000026,1.194729805,11.020715715,18.37332155,0.2006834335,0.38895456500000003,9.535104274999998,-3.153177142,8.208063126999999,1.6721165775
554,4.616482000000019,1.1891546245,11.046985625,18.381698650000004,-1.0119959120000002,0.286834359,8.049607515,-1.0336624385000002,2.550178498,0.676382229
555,4.624815000000012,1.1923962234999999,11.04564667,18.387786849999998,-0.31770876049999996,-0.2059006,11.887938025,0.08382260799999997,-0.8370990749999998,0.47446525100000003
556,4.633148000000006,1.2156516910000001,11.02527142,18.401512150000002,-1.033402115,-0.02884292599999999,6.6815474035,2.301721334,-3.106571674,1.4222241640000002
557,4.641480999999999,1.240740478,10.95073938,18.39427945,0.6188954935,-0.1413668695,10.9072213185,2.997076914,-9.729446412000001,-0.901998922
558,4.649813999999992,1.2889081835,10.855362894999999,18.404243499999993,-0.9943654239999999,-0.097217297,9.300318718,5.391368389,-12.034153938,1.182603061
559,4.658146999999985,1.2965625525000002,10.743194105,18.388580349999998,-0.7567590475,-1.226205945,10.608610155000001,1.0923832805,-14.26807213,-1.78242448
560,4.666480000000036,1.3407895564999999,10.555717945000001,18.39329529999999,-0.457559239,-0.299141459,9.7685410965,5.0385086535,-23.09467316,0.828012675
561,4.674813000000029,1.359449148,10.45055771,18.372726450000002,-1.7001246810000001,-1.1188596485,8.368888377,2.515811324,-13.364273545,-2.3669028880000003
562,4.683146000000022,1.3404150605,10.219697,18.369636549999996,-1.190099761,-0.7162159379999999,10.384010790000001,-2.3862495425,-28.396395679999998,0.04440849999999996
563,4.691479000000015,1.3317748305000001,10.095158579,18.350135800000004,-1.612362385,-1.2541893125,10.0363924525,-0.8063617350000001,-15.76464939,-2.197708368
564,4.6998120000000085,1.306022644,9.8479824055,18.344734200000005,-0.759481877,-0.5505711285,13.434490205,-3.1406598095,-30.28420067,-0.19400239750000003
565,4.708145000000002,1.2526173589999998,9.703348160000001,18.326866149999987,-3.0116164385,-1.733980894,6.726519941,-6.22653389,-18.16908455,-1.965835452
566,4.716477999999995,1.1748641135,9.4859776495,18.324432400000006,0.10375582100000001,-0.5739664285,14.330945015000001,-9.4419956205,-26.698521615,0.039907014
567,4.724810999999988,1.1076632145,9.370047569,18.3158722,-4.0270553825,-0.7185993195,5.985575676,-8.069259881999999,-14.622725485,-0.9738212525000001
568,4.733144000000038,1.010755181,9.2092609405,18.31513215000001,-0.36686745249999997,-0.5943960850000001,13.253015045,-11.78286791,-19.984972,0.04807803049999998
569,4.741477000000032,0.909682691,9.124782562,18.317062399999998,-3.5335267779999997,-1.5424568655,8.576587199999999,-12.351437565000001,-10.903642654999999,0.158462524
570,4.749810000000025,0.7700740395000001,9.0026140215,18.3057022,-1.0193187295000001,-0.525293097,13.537531855000001,-16.688954350000003,-15.287856099999999,-1.347424306
571,4.758143000000018,0.6165670155,8.979857921499999,18.305274949999998,-3.9117794034999998,-0.748454645,5.067949295,-18.591776850000002,-3.4968949855,-0.24099802999999997
572,4.766476000000012,0.463585101,8.942378044,18.290237450000006,-1.1667376605000002,-0.176278919,11.655662535000001,-18.23814964,-5.134933591,-1.938473463
573,4.774809000000005,0.321412733,8.9958100315,18.288856499999994,-3.881270647,-0.23024705050000002,10.4535279265,-17.20746231,5.716272711999999,-0.4342831075
574,4.783141999999998,0.17251944949999998,9.048502445499999,18.27928159999999,-2.196551919,-0.5677189235,12.276886465,-17.853443145,5.6235753295,-1.387081683
575,4.791474999999991,0.005086891499999982,9.137915134,18.28488159999999,-1.5944257975,-0.3968236895,6.994255781,-20.387961384999997,9.957339764,0.4112367035
576,4.7998079999999845,-0.144184701,9.223049640500001,18.268058800000006,-1.944683075,-0.6635252159999999,6.793008327500001,-17.74246788,9.599584579,-2.2031259535
577,4.808141000000035,-0.2864805205,9.319161892,18.286735500000006,0.503968626,-0.2533171475,12.86000681,-17.626474379999998,10.75246954,2.0156297685
578,4.816474000000028,-0.4273099825,9.4109025005,18.266265900000008,-3.1647520064999997,-0.10064172699999996,8.817074776,-16.650585175,10.4055504775,-2.6059354545
579,4.824807000000021,-0.576100498,9.4785079955,18.291061400000004,0.138662788,-0.5730102655,9.017033577,-18.512625215,7.392457009,2.7581864595
580,4.833140000000014,-0.710396439,9.56690836,18.267295849999996,-2.4309200345,-0.875381619,4.9698042865000005,-15.81489325,9.9405744075,-2.9188262225
581,4.841473000000008,-0.806769371,9.6134123785,18.28455355,-0.2886596325,0.8305040595,11.6671209335,-12.0847020145,4.787601947500001,1.875967592
582,4.849806000000001,-0.9230574965,9.698784826,18.26706695,-2.073711157,-0.5840987190000001,7.6841812135000005,-13.759505745,9.653336643,-2.167278886
583,4.858138999999994,-1.005635649,9.701924801,18.28340150000001,-0.13402866549999998,0.0824202895,9.652371409,-10.428234814,-0.42846848800000004,1.6953038575000001
584,4.866471999999988,-1.0711132585,9.735789776,18.265953050000007,-2.1388789415000002,-0.4107317925,10.011638644,-7.6562485695,3.4809746744999996,-2.221509814
585,4.874805000000038,-1.1218433675,9.748760224,18.289009099999987,-0.7699118255,0.471039375,8.1909639835,-6.726688981500001,0.8092561064999999,2.5185902120000003
586,4.883138000000031,-1.1770041585,9.760530471500001,18.283920300000005,-1.250077933,-0.7611326575,10.1476964955,-6.694671869,0.7241401970000001,-0.8139180245
587,4.891471000000024,-1.1917576195000001,9.724619389499999,18.308181750000003,-0.9154032615000001,0.04916970400000001,9.5813102725,-2.442938826,-5.1359752125,2.526889324
588,4.899804000000017,-1.2351855635,9.71123457,18.3156891,-1.29620035,-0.7390020195,9.7609736915,-5.5153146985,-2.2455040215,0.6217279135
589,4.908137000000011,-1.255680919,9.635446548,18.336112999999997,-0.3250116035,-0.12129799999999999,6.8148918155,-3.0533261295000003,-9.913793086,1.9733400345
590,4.916470000000004,-1.2783983349999999,9.614415169,18.338806149999996,-1.7956982255,-0.6059046985,12.311573505,-2.9299803975,-3.1493791345,0.034310281499999984
591,4.924802999999997,-1.295086503,9.521077633,18.354599000000007,-1.3054695500000002,-0.0836565815,8.7606158255,-2.483530998,-11.932592391,1.3720074
592,4.93313599999999,-1.332171261,9.482590675,18.357704150000004,-1.7616896485,-1.359667361,9.715588569000001,-4.6784338949999995,-5.3220430610000005,0.029225818499999986
593,4.9414690000000405,-1.3582555055,9.343420028499999,18.356445300000004,-0.26957646,-0.07111440600000002,11.196041107,-3.2797884345000003,-17.458899025,-0.78765738
594,4.949802000000034,-1.3939163685,9.3153390885,18.35175325,-1.4342194645000002,-0.8593117,8.2981386185,-4.335433483,-3.972556472,-0.8662351145
595,4.958135000000027,-1.4177399875,9.146097183,18.344009400000004,-0.03490400300000002,0.610595271,10.7773699785,-2.894851416,-21.052406310000002,-1.6583111284999998
596,4.96646800000002,-1.4252318145,9.102613926,18.334709149999995,-2.616647124,-0.912940025,10.3433551775,-0.8730164465,-5.807201862,-1.465768278
597,4.974801000000014,-1.4480329749999998,8.929338455,18.327651950000003,-0.7750629705000001,0.11634217200000002,12.29290438,-2.769251466,-21.4587183,-1.594179332
598,4.983134000000007,-1.4821484090000001,8.8861069675,18.3239212,-2.844078779,-0.7488942590000001,6.7291254995,-4.194376469,-5.870328903000001,-0.8058047965
599,4.991467,-1.499751568,8.7196917535,18.310714750000002,-0.6618982705,-1.014518976,13.345650670000001,-2.0505418775,-20.69293499,-2.322437167
600,4.999799999999993,-1.519002259,8.707129955500001,18.317237850000012,-2.9327722785,-1.0828166605,9.2224936505,-2.582286537,-2.1480098965,0.503806427
601,5.008132999999987,-1.556819022,8.581928253000001,18.3051605,-0.691933483,0.1174356345,9.9737999425,-4.506326914000001,-15.75112009,-2.068427026
602,5.016466000000037,-1.6053822640000002,8.594610214,18.3161087,-3.693514824,-0.6548773084999999,6.3017892835,-6.171948433,0.8672274950000001,1.1141871214999999
603,5.02479900000003,-1.6318570375,8.522476673,18.315032950000003,-0.3103191555,-0.3148983719999999,13.821487430000001,-3.3341988325000003,-9.3480777725,-0.595505625
604,5.033132000000023,-1.678489089,8.53061533,18.31774139999999,-3.2444092035,-0.48645626399999997,13.08312273,-5.800491571,0.27485364700000003,0.112818003
605,5.0414650000000165,-1.73208648,8.520028590999999,18.317337050000006,-0.804314792,-1.2566735150000001,8.933388947000001,-6.603804944,-2.03585159,-0.3197937165
606,5.04979800000001,-1.794013202,8.540520668500001,18.314292899999998,-2.269435048,0.14789980650000006,7.717643499499999,-7.5315010545000005,1.846594036,-0.509351978
607,5.058131000000003,-1.8370324965,8.599078178500001,18.303382900000003,-2.0651346444999996,-0.42611530400000003,8.650147915,-5.1433324815,6.2966525575,-1.3005053105
608,5.066463999999996,-1.8822496530000001,8.659750938,18.305442799999994,-2.397612393,-0.3903536945,12.577512739,-5.613276243,6.646247625499999,0.2584412395
609,5.07479699999999,-1.956269324,8.727681637,18.29024505000001,-0.7019806504999999,-0.835150391,10.30601597,-8.7782998075,7.510292531999999,-1.7724860905000002
610,5.08313000000004,-2.0046979785,8.8174123765,18.29000855000001,-2.5482209925,-0.18434505899999998,7.386088371,-5.9729008055,10.065453532,0.115821175
611,5.091463000000033,-2.053099275,8.8820610045,18.281234749999996,-0.2835140975,-0.12324126049999998,8.0996387005,-5.832777619,7.0193574420000004,-0.998961657
612,5.099796000000026,-2.1072520615,9.0232515335,18.275962800000002,-3.3495612145,-0.274132371,9.263326167999999,-6.544272423,16.33251047,-0.2295868695
613,5.10812900000002,-2.1655982735,9.1102390285,18.278976450000002,-0.540040225,-0.8987576665,12.591640949999999,-7.2533698085000005,9.644510746,0.503037989
614,5.116462000000013,-2.239479184,9.239961624500001,18.261268600000008,-1.564382374,-0.7991703450000001,8.8776021005,-8.6684417725,15.01540756,-1.7287626859999998
615,5.124795000000006,-2.306635976,9.362569332,18.26737215,-0.71264901,-0.47725988900000005,7.65618062,-8.3436789495,13.976430415,1.0826691985
616,5.133127999999999,-2.40080452,9.47256279,18.25065615000001,-1.471434265,-0.363882439,9.3865289685,-11.1446991,12.56962013,-1.6793275175
617,5.1414609999999925,-2.5025373699999998,9.6185164455,18.247619599999993,-2.555470109,-0.9011758565,6.4317507745,-12.320859908,16.7494483,0.14777499449999998
618,5.149793999999986,-2.607260108,9.728739739,18.23687745000001,0.1043851375,0.19113574949999998,9.5603630535,-12.504258629999999,12.641858578499999,-0.8906071335
619,5.158127000000036,-2.7138894794999997,9.8524374975,18.227821350000013,-1.865143329,-0.24457968000000002,11.71961594,-12.795350075,14.108593464999998,-0.628624752
620,5.166460000000029,-2.798125625,9.9971723575,18.227981600000007,-1.269494891,0.18026727449999996,8.662441730000001,-10.271935701999999,16.7193985,0.615766317
621,5.174793000000022,-2.8827675580000003,10.075344088000001,18.22247315,-0.793779075,0.23603349900000004,6.7219195365,-10.214862824999999,8.704365014,-0.425202772
622,5.183126000000016,-2.9478298425,10.1835951805,18.224533100000002,0.2955630425,-0.7968512475,7.0855331425,-8.0110268595,12.264297965,0.6677568815
623,5.191459000000009,-2.9880019425,10.214734079500001,18.23117825,-0.47640844649999997,1.4142584505,13.517541885,-5.1570487465,2.9192292689999997,0.7248187065
624,5.199792000000002,-3.0404371025,10.276533604,18.23601529999999,-0.6306780814999999,-0.3167754115,7.1802566055,-6.5509500505,6.751682795500001,0.721316129
625,5.208124999999996,-3.0746704339999997,10.233412743,18.24607850000001,-0.48991775500000007,-0.6964803635000001,8.350132704,-4.4996078015,-5.9981048105,0.6641259639999999
626,5.216457999999989,-3.1099088195,10.216202733500001,18.25357815000001,0.2531196175,0.33690504,10.889694215,-4.541551232,-2.7319054755,0.5461787285
627,5.224791000000039,-3.1245518925,10.159884932,18.25588225,-2.2366411685,0.103125177,8.0006394385,-1.9744988680000002,-7.456566334,-0.330673365
628,5.233124000000032,-3.14307642,10.0985031135,18.255386349999995,-1.0075072944999999,-0.41366422199999997,11.369006630000001,-2.3701747060000002,-8.0452136985,-0.6970083115
629,5.241457000000025,-3.1523035764999996,10.023812773,18.246727000000007,-1.4389373659999998,0.08594401200000001,9.8699772335,-1.1032948495000001,-9.660301686,-1.7596789895
630,5.249790000000019,-3.175772786,9.940557954500001,18.239692699999992,-0.454814017,-0.020104847999999995,10.366365434999999,-2.8282855749999998,-10.5516962985,-1.6024779675
631,5.258123000000012,-3.1666707995000003,9.855019569,18.225013750000002,-2.4769481425,-0.247505336,8.6275134085,1.2121298315,-10.922134400000001,-2.5422705409999997
632,5.266456000000005,-3.1428031925,9.7629809375,18.22580715000001,-0.16419854,0.421454802,11.454683303500001,2.6921591165,-11.653934003,-0.7440743445
633,5.274788999999998,-3.1333345175,9.6851630215,18.222732550000003,-2.1176757815,-0.05151916299999999,6.6428108214999995,1.0207085015000001,-9.9995288865,-1.1091796010000001
634,5.283121999999992,-3.0970270634999997,9.541979312999999,18.23122405000001,0.0586126595,-0.069134183,12.36024237,4.0175231694999995,-17.90810013,-0.16842640949999999
635,5.291454999999985,-3.047819972,9.4638166425,18.23809815,-2.837207556,0.17140449549999998,9.3440399165,5.5887771845,-10.178362844999999,0.06951698649999999
636,5.299788000000035,-3.010313988,9.338683605,18.244979849999993,-0.6412491575,-0.2153552845,7.6521790015,4.2131007315,-15.657542705000001,-0.20427358149999997
637,5.308121000000028,-2.9768095015,9.243212223,18.242706299999995,-2.3407537935000002,-0.3901059185,9.629650116,3.8880040645,-12.195123670000001,-1.10681029
638,5.3164540000000216,-2.924934864,9.189163208,18.24319455,-1.7258778810000002,-0.09672617899999997,9.9083685895,6.058055401000001,-7.101208445999999,-0.49415627100000004
639,5.324787000000015,-2.880559683,9.1324663165,18.23480984999999,-3.136456847,-0.271581918,9.965274334,5.3150497675,-7.440109373,-1.5663681029999998
640,5.333120000000008,-2.8461909294999996,9.141738891500001,18.232872,-1.962125778,-0.35846061100000004,8.2619919775,3.9953274724999996,0.4273477795,-0.401010089
641,5.341453000000001,-2.794378996,9.159796714999999,18.229057299999994,-2.6874189375,-0.3880183545,10.715263844999999,6.102681041,1.416742325,-0.5823972525
642,5.349785999999995,-2.7281762365,9.207836150999999,18.226898200000008,-0.798069924,0.38211733849999996,8.247015953,7.8239270444999995,5.147686719999999,-0.2052980885
643,5.358118999999988,-2.6607971189999997,9.293119430499999,18.219734200000005,-2.1834867,-0.1181254685,6.597760439,8.0511572355,9.4946606175,-0.6057320535
644,5.366452000000038,-2.5673111674999998,9.3432459835,18.22619625,-0.142386064,-0.15847194199999998,11.029991625000001,10.923449042000001,5.3490605355,0.823389031
645,5.374785000000031,-2.4805798535,9.434697627999999,18.208442700000006,-2.1346740425,0.03834152199999996,9.6229853625,10.589874743500001,10.360973594499999,-1.848989576
646,5.3831180000000245,-2.3862906695,9.463540554000001,18.2118454,-0.325413719,-0.46235303599999994,6.9619848730000005,11.08732724,2.7437143925000003,0.3117316665
647,5.391451000000018,-2.299290538,9.491938591,18.192398049999994,-0.09438893199999998,-0.839599252,9.604733466999999,10.637272359499999,2.7304905059999998,-2.403153479
648,5.399784000000011,-2.178245187,9.5041780475,18.1950226,-1.266300261,0.916028708,8.908126354,14.307993409999998,0.8327188489999999,0.14221033449999998
649,5.408117000000004,-2.0753088,9.5112228395,18.178443950000002,-2.2670477035,-0.5327579715,9.862786767500001,12.50238085,0.14857542499999998,-2.168546319
650,5.4164499999999975,-1.9409790635,9.5197377205,18.190559399999998,-0.864275023,-0.911663562,9.341032028,15.71746683,0.348558545,1.232051343
651,5.424782999999991,-1.8368571999999999,9.519654751000001,18.17143250000001,-1.5899229049999999,-0.13510544549999998,10.106429098500001,12.701402185,-0.630520076,-2.500685811
652,5.433116000000041,-1.726178169,9.542645931,18.185401900000002,-1.448149741,-0.989688501,7.187420845,12.836645605000001,2.009981394,1.4974914195
653,5.441449000000034,-1.6080311535,9.542269706999999,18.17424009999999,-1.037598208,-0.3754956015,12.974478245,14.213680745,-0.774933219,-1.5626797975
654,5.449782000000027,-1.5080803034999999,9.578112602000001,18.188072200000008,-1.6513291300000001,-0.2138205545,6.5401576755,11.558727265,3.632182881,1.5229907040000001
655,5.458115000000021,-1.4358419775,9.5523462295,18.183372500000004,-0.7435384389999999,-1.261862546,12.0032177,8.578456878499999,-3.846188903,-0.8769097625
656,5.466448000000014,-1.3209593295,9.5472016335,18.196540799999994,-1.3603685200000002,-0.075594984,7.541768789500001,13.367014404999999,-1.2764732834999999,1.3093037605
657,5.474781000000007,-1.2450034025,9.5404281615,18.197280899999996,-1.3641162814999999,-0.9526339770000001,9.1380729685,8.924915554,-1.5095748900000001,-0.1689771265
658,5.4831140000000005,-1.1494380235000001,9.4924259185,18.204475399999993,-1.750420928,-0.03164837499999999,9.216163635000001,11.16114187,-6.4735184925,0.49669847650000004
659,5.491446999999994,-1.0691006185,9.527263164499999,18.210082999999997,-0.9119530615,-1.116337478,11.293814179999998,9.346718788,3.3986061815,0.503992185
660,5.499779999999987,-0.994715422,9.4348526,18.220886199999995,-0.572932303,-0.691548884,10.153194429500001,8.547145367,-11.7345032675,0.8450650125000001
661,5.508113000000037,-0.9480473700000001,9.436245441,18.226532000000006,-1.547640353,-2.146611452,8.543799875,5.3096195455,-0.6124486925000001,0.42866707849999997
662,5.51644600000003,-0.950924039,9.334949017,18.235885649999986,0.235153824,-0.895884514,10.999846455,-0.678956717,-12.792563439999999,0.6703373340000001
663,5.524779000000024,-0.9749210775,9.304560661499998,18.242973300000003,-2.263811171,-1.474807739,6.7625722884999995,-3.1884729865,-4.35388878,0.535625726
664,5.533112000000017,-1.028214961,9.1841988565,18.24053955000001,0.5646583585,-1.3035311105,14.71582937,-6.5120686295,-15.1311326,-0.7774307205000001
665,5.54144500000001,-1.1083338555,9.1016001705,18.251411449999992,-3.1984273195000004,-1.3066443799999998,6.064051628500001,-10.003377915,-10.702353359,0.8386678395
666,5.549778000000003,-1.2459285855000002,8.981304169,18.2447205,0.8751573229999999,-1.351495564,11.237734795000001,-16.540764335,-15.03769541,-1.3012741205
667,5.558110999999997,-1.351606488,8.8541030885,18.25408935,-3.62097764,-0.06276027849999999,7.8350989815,-13.03610754,-16.0518651,0.51088877
668,5.56644399999999,-1.4955276844999998,8.786612034000001,18.24332425,0.10438399000000001,-0.36403304400000003,11.00670147,-17.22016764,-8.682390092,-1.684885502
669,5.57477700000004,-1.6164367195,8.665927887,18.250801100000004,-3.5629475115,0.11816551549999998,9.2645664215,-14.815951824999999,-15.19682264,0.2636666095
670,5.583110000000033,-1.7428860065,8.642922401500002,18.230735749999994,-1.1734583975000001,-0.458752826,12.3459720635,-14.973148824999999,-3.3829111825,-2.68133682
671,5.591443000000027,-1.868495345,8.578385353000002,18.235137949999995,-3.745910406,0.4434622375,7.740199089000001,-15.331833364999998,-8.525117634,0.047834650000000006
672,5.59977600000002,-1.9918174149999999,8.5925135615,18.220451399999988,0.022729099000000086,-0.19701842200000003,10.8993234655,-14.699366090000002,1.124772668,-1.8929113595
673,5.608109000000013,-2.0756109955,8.584768772,18.218597399999993,-3.428032041,-0.384387843,9.636038303500001,-10.202516079,-1.6882665755000001,-0.486151859
674,5.616442000000006,-2.1784876585,8.6148977275,18.216659550000003,-0.06334756350000001,0.27028708399999996,9.734260319499999,-12.465662481999999,2.99597609,-0.326728858
675,5.624775,-2.273568034,8.642607689,18.210144049999997,-1.9986893535,-0.176295321,8.0298256875,-11.4586253145,2.657765329,-0.8724529145
676,5.633107999999993,-2.358703852,8.661875725,18.21476745000001,-0.17493510249999997,0.09829409450000001,12.10231304,-10.4714903825,1.5898242295,0.40105498949999996
677,5.641440999999986,-2.4562504295,8.715619564,18.20043944999999,-3.2786247729999998,-0.015644945000000007,7.194268941500001,-11.620174405,5.750300645499999,-1.6685689685
678,5.649774000000036,-2.5516318085,8.7082033155,18.20540615,1.0174500145,-0.7062041085,11.80128813,-11.6910367,-1.5396656100000001,0.3080816645
679,5.6581070000000295,-2.6694858075,8.7647075655,18.17951205,-2.881545305,-0.2698223315,7.536311388,-13.847640994999999,6.1476676465,-2.9979740379999997
680,5.666440000000023,-2.7763947245000002,8.745222091999999,18.181045499999996,0.28269307349999995,0.7853216345,10.6864285455,-13.011212348499999,-2.9679089784999997,-0.158616163
681,5.674773000000016,-2.859925866,8.805214882,18.144401549999998,-2.9486111399999997,0.19510211049999998,9.533180715,-9.515522481,6.711762667,-4.2228142024999995
682,5.683106000000009,-2.937794447,8.827902794,18.144165,-1.055882126,0.701639816,8.500160695,-9.51043296,2.0227302015,-0.116583258
683,5.691439000000003,-3.020368576,8.869541168,18.102531400000004,-1.7296451035,0.42229072,10.700502394,-9.32242322,4.4777333735,-4.915083885
684,5.699771999999996,-3.0540111065,8.920890808,18.101768500000006,-1.257339209,0.8857990205,9.16396022,-4.180006696,5.533315897,0.010994910999999996
685,5.708104999999989,-3.0713951585,8.934948921499998,18.06676485,-1.28061223,0.531572163,10.748526575,-1.6208050250000001,1.136394858,-4.2933238744999995
686,5.716438000000039,-3.072241545,9.007439612999999,18.05685425,-1.2379032075,0.8771835265,8.0648601055,-0.06911993049999987,8.1250605585,-0.932851389
687,5.7247710000000325,-3.047897339,9.010746479,18.026908849999998,-1.6340200905,0.883374214,10.0899753585,3.3094749425,-0.10962903499999999,-3.763890624
688,5.733104000000026,-2.95773077,9.090258598,18.016189550000007,-0.6456320289999999,0.7964080725,9.096719264499999,10.850961925,8.8979132175,-1.009738952
689,5.741437000000019,-2.850642681,9.096300602,17.993049599999992,-1.626104295,0.8455055954999999,8.984605552,13.100327015000001,0.0943948925,-2.9420002695000003
690,5.749770000000012,-2.7357457875,9.162647724,17.99050905,-0.8022938,0.3500823525,10.10652113,13.6699276,7.3427507875,-0.14379832899999997
691,5.7581030000000055,-2.581520438,9.1957645415,17.978599550000013,-2.2176902295,0.306133777,8.3765001275,18.547448155,3.267858863,-1.4658583104999998
692,5.766435999999999,-2.394636631,9.2448415755,17.982315049999997,-0.19469758150000002,0.1640254785,10.33364916,22.19220352,5.239656925,0.4576945605
693,5.774768999999992,-2.2091220619999996,9.300564289,17.981346099999996,-1.8100202680000002,-0.1711074635,7.065315189500001,22.10040188,5.993343115,-0.09365841749999998
694,5.783101999999985,-2.031263113,9.346447468000001,17.983970650000003,-0.472833395,-0.25852156449999997,10.9894681,21.12577057,4.794039011000001,0.2551114875
695,5.791435000000035,-1.8133350015,9.4140286445,17.990241999999995,-1.6662570235,0.13168531649999998,8.9191505935,25.845918655,7.312510014500001,0.77950567
696,5.799768000000029,-1.6267579195000001,9.451742649,17.988922150000008,-0.7213501634999999,-1.2231527565,10.58690691,22.252786635,3.9031630755,-0.2510900575
697,5.808101000000022,-1.4543593525,9.487030029500001,17.993652350000005,-0.849370005,-1.3066716189999998,7.7107493875,20.411911965,3.4497005940000003,0.435595825
698,5.816434000000015,-1.321079195,9.511324406,17.992248550000014,0.008842945000000046,-0.0675373675,9.7555992595,15.857154365,2.295247257,-0.32955920699999997
699,5.8247670000000085,-1.1556504964999998,9.499361038,18.0067978,-0.508589944,-1.0633516905,9.909753086,19.380556105,-2.1650247575000003,1.454427898
700,5.833100000000002,-1.036068797,9.5056118965,18.013801599999994,-1.165625453,-0.6795071589999999,9.8557989595,14.03810167,0.03753125700000004,0.6068012865
701,5.841432999999995,-0.9462444485,9.4375519755,18.033866900000007,-1.0930301545,-0.5620115175,8.5659234525,10.203137396,-8.975690605,1.99330008
702,5.849765999999988,-0.8511970935,9.4596505165,18.035247799999993,-1.2393656075000001,-0.24027156049999998,8.713938236,11.22269249,2.0277063135,-0.029213070499999994
703,5.858099000000038,-0.7460532785,9.3775377275,18.052856450000007,-1.0086749419999999,-0.3038874045,12.45483875,12.088327885,-10.650804519,1.705774009
704,5.866432000000032,-0.6671987475000001,9.3925361635,18.044792149999992,-1.6369981765000001,-1.279103339,8.5477123235,9.4604845045,1.189589277,-1.1662994925
705,5.874765000000025,-0.6257767974999999,9.292575836,18.05351259999999,-0.9218596965,-0.6083479525,11.432908059999999,4.6345957515,-12.69957161,0.6598867179999999
706,5.883098000000018,-0.5426121655,9.271872044,18.0465851,-1.0021901910000002,-0.1893820585,7.304302931,9.94004631,-3.171785608,-1.0852431355
707,5.891431000000011,-0.4746024165,9.200389862,18.04904175,-0.6310060319999999,-0.431157425,11.429078105,7.9310336115,-9.34847474,-0.023347400000000004
708,5.899764000000005,-0.403593883,9.102752685999999,18.050895700000012,-1.415123463,-0.587882027,10.325499059,8.3220858575,-12.3403726805,-0.10955199600000001
709,5.908096999999998,-0.3601522445,9.046555996,18.056037899999993,-1.4210711569999999,-0.7845275105,8.2699184425,4.9350887535000005,-7.5154292585,0.325934805
710,5.916429999999991,-0.3056171835,8.899276733499999,18.062751750000004,-0.5256014465,-0.6490697265,10.450799941,6.253403664,-18.298654555,0.46393800499999993
711,5.9247629999999845,-0.244892687,8.8558297155,18.073333750000003,-2.072060525,-0.5042338670000001,7.511000752999999,6.919391632,-5.913379431,0.993396908
712,5.933096000000035,-0.22937731449999998,8.7113046645,18.080902100000003,-0.5538298675,-1.1878347845,13.43015051,1.553874977,-18.041083335,0.588730544
713,5.941429000000028,-0.168737419,8.621340752,18.091491700000006,-1.729603499,-0.5701370535,8.7973988055,6.9061307905,-11.568397283000001,0.9728735385
714,5.949762000000021,-0.1473274415,8.527143955,18.09474180000001,-0.6885688004999999,-0.5814227905,9.8452634785,2.3533210455,-11.924582483,0.123889692
715,5.958095000000014,-0.122369837,8.399394035,18.09295655000001,-2.241353273,-0.64061977,9.549268245499999,2.851460576,-16.095816135,-0.4908074735
716,5.966428000000008,-0.0990263185,8.363354683,18.098052999999993,-1.4198273125,-0.538082555,12.403414725,2.5534125565,-4.9469605685,0.36910755900000003
717,5.974761000000001,-0.093400508,8.223447561499999,18.093605049999994,-2.014736831,-1.1487075985,9.792533396,0.5754687935,-17.48440361,-0.7956680355
718,5.983093999999994,-0.1067834935,8.2094018455,18.097999599999994,-1.8787181674999998,-1.697523296,7.265346346,-1.8486754890000001,-2.3815412445,0.2876094255
719,5.991426999999987,-0.153225484,8.120037794,18.098739600000002,-0.9474191144999999,-0.7507237495,12.48269367,-5.7673466205,-11.4917321225,-0.169137219
720,5.9997600000000375,-0.2179920125,8.1367828845,18.101326,-2.921589732,-1.324282557,6.414886236,-7.969933984999999,1.387785643,0.08306057750000001
721,6.008093000000031,-0.3162942975,8.064807415,18.092887849999997,-0.320110146,-1.578227043,14.441401005,-11.830743313500001,-9.397671702,-1.2706838550000001
722,6.016426000000024,-0.4276603015,8.071348905499999,18.088439949999994,-2.0850289465,-1.032262549,6.896613004,-13.441673755,0.16674214600000004,-0.7655327620000001
723,6.024759000000017,-0.596834138,8.0372748375,18.075202900000008,-0.08178438200000002,-0.8937573434999999,11.879212854999999,-20.249233245,-4.770909757,-1.8255208134999998
724,6.033092000000011,-0.750598073,8.01203084,18.06390379999999,-2.960858941,-0.559354767,7.708263397,-18.42107868,-3.7040503025,-1.6502937375
725,6.041425000000004,-0.9310413,8.019662857,18.045593249999996,0.1327458025,-1.2216418985,11.767008780000001,-21.526839255,0.182533383,-2.3803445695
726,6.049757999999997,-1.0927007195,7.985560893999999,18.027664200000004,-2.592364967,0.132440986,5.1110272405,-19.25504112,-4.6792936325,-2.4251632095
727,6.05809099999999,-1.277155936,8.0126924515,18.000953699999997,-1.2478901445,-0.680203125,11.795345784999999,-21.863021850000003,2.5586262939999997,-3.344125867
728,6.0664240000000405,-1.4423963425,7.999746323,17.981231699999995,-1.319312096,-0.7236908599999999,8.787448883,-19.646265030000002,-2.1181506475,-2.632337153
729,6.074757000000034,-1.613459587,8.0422341825,17.946350100000004,-1.2506708205000001,0.32754032499999997,8.8483338355,-20.110289575,4.5120640695,-4.2238726615
730,6.083090000000027,-1.7563144565,8.0578165055,17.913353,-1.3645243644999998,-0.5868983195,8.2779698385,-16.747949124999998,1.2921423015000002,-4.085945606
731,6.09142300000002,-1.8860915305,8.1053943635,17.87671664999999,-1.3182585835,-0.08336505100000001,11.818488595,-15.135456564999998,5.0776788889999995,-4.428189993
732,6.0997560000000135,-2.0192593335,8.149285793,17.838058500000002,-1.046027273,-0.173027614,6.2426626679999995,-15.47582436,4.795990944,-4.630522966
733,6.108089000000007,-2.1026005150000002,8.148085832500001,17.801528899999994,-0.4823983535,0.39682121600000003,10.054138659500001,-9.567641734999999,-0.75803414,-4.582406163
734,6.116422,-2.1541914935,8.216947316999999,17.769256600000006,-1.271065719,0.6680447385,8.703488587999999,-5.7956636025,7.7750546935,-3.755245924
735,6.124754999999993,-2.1778211594999997,8.187811613000001,17.74821469999999,-1.0031357035,-0.27599891249999997,10.282571789999999,-2.6550823450000003,-4.098834693500001,-2.8749226924999998
736,6.1330879999999866,-2.172483206,8.2338633535,17.727264399999996,-0.20831952999999998,0.050234075,8.138279915,0.8292734625,4.920077801,-2.512224853
737,6.141421000000037,-2.135103464,8.194500446500001,17.725975050000002,-0.8316085634999999,0.357906077,9.6700854305,4.316128015,-5.4852058884999995,-0.5731183585000001
738,6.14975400000003,-2.064764738,8.2043528555,17.72486115000001,-0.574549541,-0.271944061,10.894299982500002,8.297462702,0.5623800754999999,-0.32669043550000004
739,6.158087000000023,-1.996177018,8.164859533000001,17.736976650000003,-1.763146639,-0.17258812500000004,7.420833824,7.838629247,-5.5559782984999995,1.028546065
740,6.166420000000016,-1.929288268,8.1638519765,17.737388600000003,-0.6016130860000001,-0.364760734,9.4923524875,7.872094156,-0.7449640039999998,-0.182373434
741,6.17475300000001,-1.8151606915,8.119869471000001,17.75328830000001,-1.2157234695,-0.007801919999999962,11.771661519,13.25499153,-6.0321603425,1.4771796465
742,6.183086000000003,-1.7276389600000002,8.1331329345,17.75627895000001,-2.209669769,-1.738842785,8.272649765,10.282649995,0.8830124585,0.16773484649999998
743,6.191418999999996,-1.6607131365,8.0600180625,17.76222229999999,0.7478212715,-0.778610103,11.9649357785,7.753755808,-9.5587139145,0.20933239199999998
744,6.1997519999999895,-1.606855452,8.08132863,17.771362300000007,-2.4930552245,-1.027561039,7.628029586,6.154492855,1.90306738,0.9268959465
745,6.20808500000004,-1.553783536,7.991526604000001,17.78485105,0.7564443015,-0.938850433,14.420059205000001,5.952806711,-11.5856976515,1.060301259
746,6.216418000000033,-1.513372719,8.0009810925,17.796592700000005,-2.448737204,-1.3425314425,6.094978212,4.501010298500001,0.4730886220000001,1.1949168445
747,6.224751000000026,-1.5510215755,7.9305508135,17.81033325,0.09661331750000002,-1.456412554,12.58132839,-4.909000397,-9.1857081655,1.1852157565
748,6.233084000000019,-1.551535666,7.883761644,17.830360400000004,-2.2112504245,-0.914984161,9.25799775,-0.5616946224999999,-6.373935938000001,1.9686653015000002
749,6.241417000000013,-1.5958721635,7.8800787925,17.837593099999992,-0.008572012500000004,-1.3791288135,10.0939331065,-5.620974064,-1.2330424784999998,0.6268380285
750,6.249750000000006,-1.6661595105,7.763840675500001,17.86981965000001,-1.6854236125000002,-1.4790139194999998,9.958074094499999,-9.119112491500001,-14.679439545000001,3.1989433765
751,6.258082999999999,-1.7595218419999998,7.760650634999999,17.902633699999996,-0.801293552,-1.3592229485,10.462832929000001,-11.9295167945,-1.2746286389999997,3.6309652925
752,6.266415999999992,-1.8684117195,7.658190012,17.9457321,-1.046768546,-0.6037613150000001,8.910084485,-13.911371235,-13.07537365,4.513223648
753,6.274748999999986,-1.9930186275,7.651760340000001,17.99953459999999,-1.234486908,-0.8634087445,7.867038488,-15.979374885,-1.6812545065000002,6.1487181185
754,6.283082000000036,-2.0993828175,7.5456967355,18.06143184999999,-0.9221255184999999,-0.268053897,13.242958545,-13.919784069999999,-13.685338019500001,6.6476330755
755,6.291415000000029,-2.2210823895,7.578126430499999,18.120880150000005,-1.5120304225,-0.9300947785,7.7117483589999996,-15.72508097,2.8543997705,6.986796141
756,6.299748000000022,-2.3492631910000004,7.4587650295,18.197746300000006,-0.9007131755,-0.3965576145,9.8014087675,-16.73971748,-15.303398605,8.347273588
757,6.308081000000016,-2.478575826,7.4662737845,18.2791443,-0.9447996915,-0.5801777244999999,9.27924347,-16.979580875,-0.28126430499999966,9.4441266055
758,6.316414000000009,-2.5882838965,7.403128624,18.36417385,-1.090831943,-0.6260561945,8.013593195999999,-14.634257315,-8.643585680000001,9.568872928
759,6.324747000000002,-2.7106039525,7.3462381365,18.463561999999996,-0.9982213675,0.1390797145,9.897724629999999,-16.375629425,-8.061988591999999,11.259196280000001
760,6.333079999999995,-2.8253347875,7.319442272,18.56549075000001,-1.2810199334999999,-0.9861015974999999,8.534318924,-15.499237065,-4.4980726245,11.720815185
761,6.341412999999989,-2.928758025,7.2608647345,18.670768749999993,-0.3146940765,0.09212622050000002,11.748501298499999,-14.20026827,-8.4205293645,11.93559694
762,6.349746000000039,-3.0432115790000003,7.213798761,18.790222150000005,-1.3670417965,-0.784973696,7.2590541855,-15.692433354999999,-7.007602692999999,13.66984272
763,6.358079000000032,-3.144153595,7.1463713645,18.906448350000005,-0.8332386964999999,-0.2973875365,8.7605507365,-14.03892994,-9.5937702675,13.13403082
764,6.366412000000025,-3.248389244,7.094983101,19.034034700000007,-0.61019291,-0.47963166249999994,9.973731041499999,-14.548186305000002,-7.6273977760000005,14.594124789999999
