,time,Euler_X,Euler_Y,Euler_Z,Acc_X,Acc_Y,Acc_Z,Gyr_X,Gyr_Y,Gyr_Z
0,0.0,-14.336551666666667,9.833511987666666,-130.15499113333334,-0.8553007840000001,0.6175251106666667,6.347713311666666,-56.458156583333334,-0.8020168146666666,-5.735790689999999
1,0.0027776666665886,-14.831254326666667,9.840077084999999,-130.1987686,-1.7343332169999996,-0.16112817333333332,9.352819443,-58.781506856666674,1.5338160193333332,-5.208538691
2,0.005555333333328833,-15.304843266666666,9.843253771,-130.23562873333333,-2.141883333333333,-0.9086955093333334,11.933561006666666,-56.41235733,0.9513837496666667,-4.5234693686666665
3,0.008332999999917467,-15.776227633333333,9.830982526666666,-130.2606227,-0.47402272633333337,0.18407977633333336,8.877924600666667,-56.42427826,-1.1641069649999998,-3.6081172626666667
4,0.011110666666657667,-16.256776176666666,9.831606229333332,-130.30843353333333,-2.7236501373333333,-0.7250317883333333,9.861653327666668,-57.01098251333334,1.084825188,-5.846447785666666
5,0.0138883333332463,-16.691926320000004,9.831390380666667,-130.3301061,-1.1267305313333333,-0.09518753499999995,7.037667115333334,-52.13880412,0.1647523840000001,-2.832023223333333
6,0.0166659999999865,-17.149574916666666,9.833599090333333,-130.3752772,-1.4499096473333335,0.7979031053333333,9.839667320000002,-54.30479939666666,1.2619060673333333,-5.478233416999999
7,0.019443666666575134,-17.59347852,9.846863745666667,-130.40779366666666,-2.3549921909999996,-0.8588484926666666,11.912926356666667,-52.9519666,2.1269002790000004,-3.564588229
8,0.022221333333315368,-18.003357573333332,9.830775897666667,-130.4325358,-0.792321503,0.386124452,10.614522776333333,-49.05362319666667,-1.4928304353333335,-3.7788243293333337
9,0.02499899999990397,-18.41938082333333,9.826776820666668,-130.46298979999997,-1.8584875666666665,-0.3148953816666667,9.376261551666667,-49.64436213333334,0.12905311066666672,-3.948968410333334
10,0.0277766666666442,-18.785726546666666,9.820597012999999,-130.4764582,-1.4574631453333333,0.5767003346666667,7.0324439996666674,-44.03345871,-0.7440216543333333,-2.1635397473333335
11,0.030554333333232833,-19.15847079,9.803325017666667,-130.51097613333334,-0.6927216253333333,0.8183925746666668,8.119829814666668,-44.39645131333333,-1.1660900713333333,-4.922035932333333
12,0.03333199999997303,-19.504229866666666,9.798569681666665,-130.51254020000002,-2.4254137676666665,-1.0693306823333333,13.641027133333333,-41.74799982666667,-1.0277849633333334,-0.7911396026666667
13,0.036109666666561666,-19.81203015666667,9.759985288666668,-130.53213243333335,-0.7724493739999999,0.9894159733333333,10.949293137666666,-36.96538035,-4.117543379,-4.098415215666667
14,0.03888733333330187,-20.119457243333333,9.734667462666666,-130.53360493333332,-1.9198684093333334,0.2534474133333333,9.187394460333334,-37.190156300000005,-3.338452299333333,-1.6364358066666667
15,0.0416649999998905,-20.38743464,9.695767085666667,-130.54077656666666,-1.469022274,-0.03514766700000002,7.677718321333334,-32.39306640666667,-4.629252036333333,-2.775642097
16,0.044442666666630735,-20.630100253333335,9.654830613333333,-130.53449503333334,-1.590876062666667,0.684479932,9.338797251666668,-29.59053230666667,-5.406089306000001,-1.4502192933333333
17,0.047220333333219365,-20.849188483333336,9.621243636,-130.55140176666666,-1.6101297936666665,0.5328007436666666,10.396402359333333,-26.301719666666667,-3.6033399989999997,-3.6807163556666667
18,0.04999799999995957,-21.020569483333333,9.592532159333333,-130.54453023333335,-2.3306949536666663,0.24629986299999998,9.371610641333334,-21.068258286666666,-4.050371488,-0.8882977266666666
19,0.052775666666548204,-21.192817686666668,9.567700069666666,-130.55214433333333,-0.688261658,0.32998484866666666,10.027638117,-20.879959743333334,-3.0042519173333333,-2.286109825
20,0.0555533333332884,-21.32946523,9.551179088,-130.56292470000002,-2.855373144333333,-0.4070441523333333,13.39433638,-16.54223919,-1.9214990933333331,-2.338323911333333
21,0.05833099999987704,-21.439146043333334,9.531683603666666,-130.5639496,-1.3393096996666667,0.47441998133333335,9.097222963,-13.569416050000001,-2.6807646750000003,-1.3155558506666667
22,0.06110866666661723,-21.55635261666667,9.535293263,-130.58871713333335,-2.195980072333333,0.05274097633333335,9.822025935666666,-13.880702336666667,0.9355217616666666,-3.012042284333333
23,0.06388633333320587,-21.630232493333335,9.515489893333333,-130.59438833333334,-2.449247678,0.0006472650000000022,9.974209786,-9.176787377000002,-2.5111132463333337,-1.8516190450000003
24,0.0666639999999461,-21.697144823333332,9.533838908666667,-130.62505596666665,-0.6626988673333333,0.366766583,10.116683324333335,-7.753706773,2.8452337036666666,-2.993531465666667
25,0.06944166666653473,-21.733107883333332,9.527426878999998,-130.6375656,-2.5470176536666664,0.279314359,8.525439737666666,-4.464779178333334,-0.7132454713333333,-2.0336207946666667
26,0.07221933333327493,-21.756567,9.541755675333333,-130.650767,-0.2123949973333333,0.19481742366666666,8.259256521666666,-2.9106009803333333,1.6359639763333333,-1.244002243
27,0.07499699999986358,-21.775716146666667,9.550129097000001,-130.67333983333333,-2.3979574243333333,-0.2280935843333333,13.150223733333334,-2.2319731810000003,1.3818752766666667,-2.497772212666667
28,0.07777466666660376,-21.754323323333335,9.547467232333334,-130.68198903333334,-1.380489568,-0.5639482836666667,11.655873297,2.3381231623333334,-0.454593261,-1.4888871113333335
29,0.08055233333319241,-21.760999676666668,9.566508612333331,-130.70427450000003,-2.6617373626666665,-0.390018056,8.465792339666665,-0.7321573696666667,2.550653259,-1.9807190796666665
30,0.0833299999999326,-21.749660493333334,9.561123371,-130.7166392,-0.9768607216666667,-0.07734425133333334,7.570316314666666,1.2339700856666667,-0.594250381,-2.0333731376666666
31,0.08610766666652124,-21.730609893333334,9.564023971333333,-130.73882293333332,-1.6686780053333334,-0.17079842599999998,11.394323666666667,2.3292007843333336,0.7492804130000001,-2.6878169379999997
32,0.08888533333326147,-21.690268196666665,9.568121115333334,-130.74559530000002,-1.3317174809999999,-0.7812522249999999,9.908578236333334,4.639144246666667,0.2179086606666667,-1.0128083476666665
33,0.09166300000000166,-21.651599246666667,9.562430379666667,-130.76069896666667,-1.3580039990000001,-0.015622337666666672,9.484955150666666,4.495349367666667,-0.515298605,-2.2874066433333335
34,0.0944406666665903,-21.638213476666667,9.578228313333334,-130.7765859,-2.114597439666667,-1.1593390903333332,9.815442722666667,1.5889961223333333,1.921754956,-1.5054554143333334
35,0.0972183333333305,-21.602321623333335,9.568035761333334,-130.7836507,-1.4405055243333333,-0.551651448,11.620794934666668,3.982701381,-1.3756895063333336,-1.5834677616666666
36,0.09999599999991914,-21.577697753333336,9.574289959333333,-130.79752603333333,-1.8063845433333334,-0.8007865550000001,11.546240168333334,2.9117707013333334,0.7659293809999999,-1.707047661
37,0.10277366666665937,-21.537638346666668,9.573477586000001,-130.79717000000002,-1.5126423836666667,-0.40039399133333337,7.562300204666666,4.336831450333333,-0.6571033003333334,-0.34600990000000004
38,0.105551333333248,-21.531978606666666,9.580158551666665,-130.82015483333333,-1.2722840309999999,-0.417809745,9.092802364999999,0.8097044229999999,1.2144006093333335,-2.7106138466666665
39,0.1083289999999882,-21.512872693333332,9.580876668,-130.81804403333334,-2.6525683006666667,-1.4486978053333335,12.444813093333332,1.805645764,-0.5618397593333334,-0.09365842733333331
40,0.11110666666657683,-21.50275675333333,9.574913662333334,-130.81968940000002,-0.5095962983333334,-0.6885460216666667,11.126971563333333,0.8937788009999998,-1.115969499,-0.9259460963333334
41,0.11388433333331703,-21.49184989666667,9.557722250666666,-130.8253428,-2.448232491666667,-0.947075367,8.350709755666665,0.9638722043333333,-2.234005491,-1.7121964766666666
42,0.11666199999990567,-21.484427136666664,9.559240818,-130.82886253333334,-0.5615456103333334,-0.20345291799999995,6.984788258666666,0.601405104,-0.2109672726666667,-0.776196609
43,0.11943966666664586,-21.501485823333336,9.556127864666667,-130.84079486666667,-2.1812310613333334,-1.0438598986666665,10.104863167,-2.2304661673333332,-0.38991283866666676,-1.8005739453333334
44,0.12221733333323449,-21.517249426666666,9.556506952333335,-130.83606976666667,-2.0232809560000002,-1.5821118753333334,12.229032198666667,-2.3761770326666665,-0.688425223,0.07711167633333334
45,0.12499499999997472,-21.564952216666665,9.561493237999999,-130.85689543333334,-1.6734378536666668,-0.6672921576666667,10.022394973333332,-5.739164669333333,0.9012755553333333,-2.4225474596666667
46,0.12777266666656337,-21.57933172,9.552479584666665,-130.84886170000001,-2.0468129316666666,-0.8404391110000001,9.352858861666666,-2.2840303580000003,-1.8804009756666666,0.02554589533333333
47,0.13055033333330357,-21.621403376666667,9.579079945,-130.86065926666666,-0.5728564236666666,-0.5587991576666667,9.86699009,-5.20609347,2.915045422,-0.4707939273333333
48,0.1333279999998922,-21.65972519,9.552254675999999,-130.85770926666666,-1.8741773366666667,-0.7623814543333333,9.922068595666667,-5.098595222,-3.6430107743333338,-1.312798083
49,0.1361056666666324,-21.731138226666662,9.568308355000001,-130.86225383333334,-1.5415706836666667,-1.6938550073333332,8.329934597,-8.906168779333333,1.422653357,-0.12516391266666674
50,0.13888333333322103,-21.794653573333335,9.541298548333334,-130.86389666666665,-1.431324164,-0.6983924460000001,7.996356328333333,-7.968303046,-3.4592408340000005,-1.8603150293333333
51,0.14166099999996123,-21.866239546666666,9.531678994333333,-130.868838,-1.256722669,-0.7342755246666667,10.763577143333334,-8.933601061666668,-1.417645792,-1.309971889
52,0.14443866666654986,-21.94821612,9.52151823,-130.87246703333332,-1.8828177026666666,-1.5172373803333332,11.68764782,-10.127207755999999,-1.5029496350000002,-1.3140444756666667
53,0.1472163333332901,-22.03205871666667,9.496865114333334,-130.8892873,-2.5193003016666666,-0.4817104936666667,10.899160225666668,-10.252440136666666,-2.5586020153333333,-3.264897555333334
54,0.14999399999987872,-22.150092443333335,9.505136648666666,-130.89608256666665,-1.4405935606666667,-1.4340373676666667,7.030068952666667,-14.33864498,0.6905852159999998,-0.8554769903333334
55,0.15277166666661893,-22.246503193333336,9.478218875666668,-130.92294056666665,-1.197454025,-0.23543084666666672,7.617850303333334,-11.560102147,-2.3584565323333333,-4.465632915666666
56,0.15554933333320756,-22.365387596666665,9.504674751000001,-130.9297078333333,-2.380148331333334,-1.0663316523333333,12.274825093333334,-14.436549503333334,2.7145932516666664,-0.028730670666666663
57,0.15832699999994776,-22.462967553333332,9.477437019666667,-130.9528478,-0.7644615469999999,-0.7627435326666666,11.003320535999999,-11.818721455,-2.5420845359999995,-4.076835155666667
58,0.16110466666653642,-22.579866409999998,9.488712629666667,-130.9570516,-2.2666456703333338,-0.9731037419999998,9.028325874333333,-14.277553243333335,0.9056893983333335,-0.4065791319999999
59,0.1638823333332766,-22.674096423333335,9.478705882333333,-130.97348273333333,-1.1711391606666666,-0.5304455856666667,6.7438755043333325,-11.490851083666668,-0.9368236856666666,-2.555545389666667
60,0.16665999999986522,-22.78208542,9.487613521333335,-130.98531083333333,-1.7169355249999996,-0.424215826,9.656701088333334,-13.069696106666667,1.006131649,-1.3716852663333334
61,0.16943766666660545,-22.898251213333335,9.491182166,-131.00246686666665,-2.676556269666667,-1.6064793666666668,11.454581576333334,-14.090251603333334,0.6014864843333334,-2.00262781
62,0.17221533333319408,-23.009142556666664,9.488926250666665,-131.00589243333332,-0.804926855,-0.18262068900000003,10.474289576666667,-13.634946823333335,-0.6104855539999999,-0.9585702023333332
63,0.1749929999999343,-23.12540118,9.487659932,-131.02932743333332,-2.0398854613333337,-1.3514688813333333,8.257833164,-13.954393387000001,0.36708168199999996,-2.9250732266666666
64,0.17777066666652294,-23.211090086666662,9.487231890333334,-131.03731026666665,-0.464945922,-0.2549609643333334,10.224289893,-10.551354568,-0.20524601000000006,-1.331159204
65,0.18054833333326314,-23.32134819,9.496227584000001,-131.06959023333332,-2.614452759666667,-0.3870228246666667,10.726386229666668,-13.05204328,1.9145958423333334,-3.385732889333333
66,0.18332600000000335,-23.402420043333333,9.496609845,-131.06749216666665,-1.8444190870000001,-0.8072037173333334,7.873811721666667,-10.217450935,-0.5719698253333334,-0.21974020233333333
67,0.18610366666659198,-23.511224746666667,9.507896582999999,-131.1092733,-1.3884515763333336,-0.5204806080000001,8.772269726666666,-12.667175927,2.626778920333333,-4.317975918333333
68,0.1888813333333322,-23.573387783333335,9.503793398,-131.10838573333334,-2.392991542666667,-1.1411866943333333,9.944028855000001,-7.883802891333333,-1.0223326683333334,-0.5546808443333333
69,0.19165899999992084,-23.65030861,9.528021176333333,-131.13962043333333,-0.24661501266666672,-0.41493457533333333,12.037714639999999,-9.048993904666666,3.563482284333334,-2.5506660343333336
70,0.19443666666666104,-23.71286265,9.492897351666668,-131.14472453333335,-2.193996608333333,-0.7568277106666667,9.560413836,-7.865236281666668,-4.128293355333334,-2.719352551
71,0.19721433333324967,-23.796703976666667,9.504287085,-131.16686506666667,-1.1995783166666667,-0.6311224103333334,7.927873134333333,-10.089994907,1.7237021126666665,-2.1656410396666668
72,0.19999199999998987,-23.857470833333334,9.467501164333333,-131.1750514,-1.5623854793333332,-1.0216665713333333,8.952969074333334,-7.552665551666666,-4.158424774666667,-3.1560240786666665
73,0.2027696666665785,-23.921559016666667,9.460278510333334,-131.19142150000002,-0.5927418073333334,-0.46551512666666667,11.746199926666668,-7.836445331333333,-0.5929354826666668,-2.43489786
74,0.20554733333331873,-23.970432283333334,9.431807993,-131.2063064666667,-2.5055722793333337,-0.9081935683333334,9.808665911666667,-6.004775920666667,-2.9220976036666664,-3.472509463333333
75,0.20832499999990736,-24.028935753333332,9.420788925666665,-131.21982066666666,-1.7413522603333333,-0.18917970866666667,10.002260684666666,-7.261878808333333,-1.1431121626666667,-2.2996248403333333
76,0.21110266666664756,-24.087070463333333,9.398541133333334,-131.24058276666668,-2.95713679,-1.5396716593333333,8.223663012000001,-6.961483478333332,-1.9582978486666667,-3.8082689046666665
77,0.2138803333332362,-24.126532873333332,9.391873042333334,-131.25681306666667,-0.06719128300000003,-0.10634770999999998,10.397394019333333,-4.9072142439999995,-0.5273372529999999,-2.397923559
78,0.2166579999999764,-24.153991066666666,9.366915545666666,-131.2763621,-2.4827330506666665,-0.5767152906666667,9.981458665,-3.3061234056666664,-2.3091107013333336,-3.812290748
79,0.21943566666656503,-24.17517217,9.369251887999999,-131.27983853333333,-1.026959166,-0.24792027466666675,11.329953353333332,-3.0009169576666666,-0.15628540533333327,-0.5688622496666667
80,0.22221333333330526,-24.212609606666664,9.338834446666667,-131.29610186666665,-2.379032125,-1.550307274,9.609507082666667,-4.590400298333333,-3.0514878233333333,-3.744352658666667
81,0.2249909999998939,-24.218833286666666,9.330586431666667,-131.28819783333333,-0.6031573016666666,-0.6862494546666666,10.65839068,-1.4280106226666665,-1.873121932,0.14822528766666668
82,0.2277686666666341,-24.237749736666668,9.310829479333334,-131.29669696666667,-1.4695036413333336,-0.34980769266666667,6.431570687333334,-2.504999697,-2.264234463333333,-2.3814877076666665
83,0.23054633333322272,-24.238156,9.300611018666666,-131.2884191,-1.1924256286666666,-0.16764023400000003,10.222590603,-0.7311242820000001,-2.092273195666667,0.06040692333333331
84,0.23332399999996292,-24.258062363333334,9.298468273333333,-131.3030243,-3.438084682,-1.811792731,12.521576564,-2.506365637,-0.04345028566666668,-2.164898197
85,0.23610166666655155,-24.242029826666666,9.305861153333334,-131.29905956666667,-1.2441230963333334,-0.3388466783333333,9.974580445666666,1.2838068306666666,0.03851962099999984,0.4824100136666667
86,0.23887933333329178,-24.251692453333334,9.311278502333334,-131.33135476666666,-2.125928581,-0.726506422,7.287281752999999,-0.8959005276666666,1.6469399133333333,-3.721197446
87,0.2416569999998804,-24.228468576666668,9.321803411333333,-131.32610066666666,-1.4357751013333333,-0.6078009413333333,8.178884505333334,2.1324534016666665,0.3167200483333333,0.7715564173333332
88,0.24443466666662061,-24.22114118,9.342574437666666,-131.3505122,-1.2436864176666667,-0.6688242553333333,13.40810585,1.0039711796666666,2.9280533803333335,-2.090181008
89,0.24721233333320924,-24.17571131,9.335677941333335,-131.34631856666667,-1.7590885559999998,-1.0108654899999998,11.150479317666667,4.7586128316666665,-1.530159950333333,-0.19655509799999993
90,0.24998999999994945,-24.16997655,9.363784312666667,-131.36978153333334,-2.0187981723333333,-0.7906093203333334,7.800991534999999,0.7830399276666666,3.6934410733333336,-1.648220559
91,0.2527676666665381,-24.13705317,9.348924477666666,-131.36503853333332,-0.5452809706666666,-0.931664666,7.346814791333333,3.265665650666667,-2.4273668926666665,-0.5385905503333333
92,0.2555453333332783,-24.114493686666666,9.370072364333334,-131.38323463333333,-1.844531695,-0.7915226073333334,12.328306833333334,2.715015173333333,2.658906619,-1.3955703576666665
93,0.2583229999998669,-24.061061223333336,9.364149569333334,-131.3903147,-1.5861124793333332,-0.6341244873333333,9.730707966,5.932598869333334,-0.884383480666667,-1.353665471
94,0.26110066666660714,-24.040485379999996,9.386313277,-131.41174063333332,-2.5922130743333334,-0.7818967796666668,9.644773799333334,2.501294275,2.94491148,-1.7291486656666664
95,0.26387833333319577,-23.99841308666667,9.383040908,-131.4150238,-1.5732318756666668,-1.5479196906666666,6.8299957913333325,4.528067986,-0.7799363136666669,-0.8258968293333332
96,0.266655999999936,-23.95552063,9.414755662333333,-131.43493903333334,-1.0971039533333335,-0.3432612023333333,10.814851283333335,5.194242954333333,3.9106842673333335,-1.1015829643333332
97,0.26943366666652463,-23.897277833333334,9.392478942666665,-131.42789206666666,-1.5366907316666667,-1.0351006189999998,9.453870773333334,6.256887118000001,-3.3547602493333333,-0.6453293563333332
98,0.2722113333332648,-23.853929519999998,9.422669571,-131.4349823,-2.6439317066666668,-0.653655847,11.911977450666667,4.95301644,3.136992524,0.1950481536666667
99,0.27498899999985343,-23.79537582333333,9.408955416666666,-131.43302663333336,-1.7674176893333335,-1.4116251669999997,9.764511266666666,6.391913692333333,-2.173547427,-0.772862673
100,0.27776666666659366,-23.71840667666667,9.443295479666666,-131.4502868666667,-1.4417533679999999,-0.136779445,8.098065057,9.193940002666666,4.075818936,-0.7110597343333334
101,0.2805443333333339,-23.646437326666668,9.454470319,-131.4546763,-1.8668237129999998,-0.3619331716666667,7.616432509333333,8.157152176333332,0.8599254883333334,-0.2643261006666667
102,0.2833219999999225,-23.552782060000002,9.484397410666666,-131.46761826666668,-0.644376685,-1.0166860716666666,13.717418829000001,11.062132198666667,3.382578095,-0.4487913883333334
103,0.2860996666666627,-23.45213,9.471784430333333,-131.46882633333334,-2.6099879739999996,-1.2397667566666666,10.081160225666666,11.515163419666665,-1.9131105739999998,-1.0458506840000001
104,0.28887733333325133,-23.3486468,9.493529636333333,-131.46890513333335,-0.8381173909999999,-0.75141114,5.731484333666667,12.026927630000001,1.8825656173333334,0.519119491
105,0.29165499999999156,-23.246762593333333,9.477325120333333,-131.47218066666667,-1.384814342,-0.933413138,8.465473652,11.72800763366667,-2.203579968,-1.4665176469999999
106,0.2944326666665802,-23.128383,9.488204002666665,-131.47131603333332,-1.3510105510000001,-0.9022608996666667,15.043808618999998,13.768258413333333,0.6403388733333334,0.1111060626666666
107,0.2972103333333204,-23.02815246333333,9.476998964333333,-131.46500903333333,-2.715163827,-1.7583463193333333,9.026406447333335,11.311871210666666,-2.1069165069999998,-0.1573100786666668
108,0.29998799999990905,-22.921824140000002,9.465765477666666,-131.44909666666666,-0.45316598066666663,-0.33369933566666665,8.637339273,12.020703634999998,-2.485678434,0.691981534
109,0.3027656666666492,-22.80232747333333,9.446375526999999,-131.43960823333336,-2.1719811753333333,-1.3406077823333333,9.424523672333335,13.597352666666668,-3.1591488916666663,-0.19770780200000004
110,0.30554333333323785,-22.66867574,9.443790911999999,-131.42409513333334,-0.7553415893333334,-0.5573404926666666,12.737738133333332,15.296183266666667,-1.5140409966666664,1.0773650013333333
111,0.30832099999997814,-22.568229676666665,9.402831713666666,-131.40939073333334,-2.9890887340000005,-1.7907046873333332,8.964658577,11.178257306666668,-5.777918338666666,-0.6185924013333333
112,0.31109866666656666,-22.46324857,9.391107400333334,-131.39210766666667,-1.7065778093333333,-1.1317405896666666,10.195263226666667,11.832344057666667,-2.596370168,0.83822151
113,0.31387633333330694,-22.351837793333335,9.367531775666668,-131.37452186666667,-2.0030845006666667,-1.1370192666666668,7.147354445666667,12.463102341666668,-3.988738696,0.5224748850000002
114,0.3166539999998956,-22.23223559,9.371553263333334,-131.37443543333333,-1.2826884833333334,-0.43015011166666667,11.730962436666667,13.941191036666666,-0.06403982633333309,-0.3447247743333331
115,0.31943166666663575,-22.15110588,9.363092738666667,-131.35373943333335,-3.251470724666666,-2.5846672853333335,10.235630354000001,8.732832430333334,-2.4514958856666667,1.5842790703333334
116,0.3222093333332244,-22.07164955,9.369394780666667,-131.35702513333334,-0.640330851,-0.894201259,11.344907442333335,9.156893013666666,0.3314524096666666,-0.5786725356666668
117,0.3249869999999646,-21.999266306666666,9.366104922,-131.33453876666667,-2.5471984743333334,-1.8380281926666668,7.262286982,7.6783841446666665,-1.938113609666667,1.9775086246666664
118,0.3277646666665532,-21.924737293333333,9.386050699,-131.3403422,-1.08777527,-0.16548633566666668,9.519034544,8.616707005666667,1.9631691340000001,-0.2530942359999999
119,0.33054233333329347,-21.88490613,9.399546465333334,-131.3190155,-2.5028928516666666,-1.8757200243333332,10.423147200333332,3.7787313459999994,-0.023859779000000064,2.633501787666667
120,0.3333199999998821,-21.82258987333333,9.404581229,-131.31277213333334,-1.0710228186666668,-1.500523011,8.605086008666667,6.890289306666666,-0.22938386600000005,0.41018635033333334
121,0.3360976666666223,-21.78068415333333,9.439318813666667,-131.29326376666668,-1.75172174,-0.9684172866666666,7.559703033000001,4.112784107333334,2.4236234033333335,3.374325792
122,0.3388753333332109,-21.721748353333336,9.449202377999999,-131.29667153333335,-1.4640797973333333,-0.8496105326666666,9.992363613,6.6566960019999994,0.7408959866666666,-0.439958672
123,0.34165299999995113,-21.704238256666667,9.504769958666666,-131.28135426666668,-2.943379004666667,-2.075139443,10.736327649666668,1.2337952853333334,4.937148252999999,3.8357962766666667
124,0.34443066666653976,-21.660572053333336,9.519596576333333,-131.2833328,-0.47850135966666674,-0.4646221609999999,7.042292436,4.7853795686666665,1.2231221,-0.050016085333333425
125,0.34720833333328,-21.626491546666667,9.57896455,-131.2785746333333,-2.0599655306666667,-1.307715615,10.482681593666667,3.456684232,5.837455112666667,2.8029362956666666
126,0.3499859999998686,-21.58862877,9.604162695000001,-131.28235116666664,-2.1232925253333335,-1.2746246456666668,9.752610207333333,4.132460393,2.457450947666666,0.21217126666666666
127,0.3527636666666088,-21.57820765,9.652678331666666,-131.29229223333334,-2.291694521666667,-1.1176320116666665,8.713748296333334,0.8679125706666665,5.275892575666666,0.6968310676666668
128,0.35554133333319743,-21.54417356,9.678699492666667,-131.31108346666667,-2.150488058666667,-1.8017108043333334,7.041344087,4.026037216333333,3.203632434333333,-1.4262049596666666
129,0.35831899999993766,-21.49371274666667,9.745910963999998,-131.33715313333335,-1.07105275,-0.22476801766666665,12.344204269666667,6.019499699333333,8.061740359333333,-0.26666990800000007
130,0.3610966666665263,-21.459639866666667,9.755684215666667,-131.34884133333333,-2.04354012,-1.6606402596666667,9.892295203333333,3.8576666513333335,1.0908504426666665,-1.3807355363333336
131,0.3638743333332665,-21.418952309999998,9.800177575,-131.3518804,-1.5378833216666665,-0.6913135026666667,8.103925069,4.344503442333333,4.534808596,1.258461674
132,0.36665199999985515,-21.374756493333333,9.815513294333334,-131.35928343333333,-1.0059771536666666,-1.6063213346666665,7.497224806999999,5.030994812333334,1.5268091760000002,-0.6863847176666665
133,0.3694296666665953,-21.300339383333334,9.845828692,-131.3724594,-1.5602505803333333,-0.4812532366666667,12.080100692666667,8.578925292333333,3.393143395333333,-0.48854013300000015
134,0.3722073333333356,-21.25710614333333,9.867172876333333,-131.36820219999998,-2.557375232333333,-1.5732691286666667,8.157588959,4.662260055333333,1.6833888290000003,0.895563364
135,0.3749849999999242,-21.182416916666664,9.865185101,-131.36323546666668,-0.1970851173333333,-1.074913412,7.836241244,8.213153681,-1.0001335143333334,0.11417130633333339
136,0.3777626666666644,-21.107354483333335,9.873959541666666,-131.36254119999998,-2.344358364666667,-0.670962741,9.498693625,8.627080599333334,0.4266861276666667,-0.060974737
137,0.38054033333325304,-21.00559171,9.869330089,-131.35879263333334,-0.9333384236666667,-1.1213407963333333,10.404521146666667,11.467409134666667,-1.247618675,-0.11468334999999996
138,0.38331799999999316,-20.952642443333335,9.871550243,-131.35256196666668,-3.381993691,-2.036052704,10.755841095333333,5.821296811333333,-0.5347956023333333,0.2654871543333335
139,0.38609566666658185,-20.870581946666665,9.855400721333332,-131.34231056666667,-0.9314352276666665,-1.204524398,8.829591432333332,8.959369022333332,-2.81156047,0.11014540999999989
140,0.3888733333333221,-20.79808426,9.878535272,-131.3378397666667,-2.131196578,-0.9201594790000001,8.260873477,8.248891512666667,1.8842852903333334,0.9517227013333334
141,0.39165099999991065,-20.707593916666667,9.848926864333333,-131.3252843,-0.9609081346666669,-0.9174519230000001,12.442877609999998,9.910140675,-4.408945878333333,-0.21817345400000007
142,0.39442866666665094,-20.649035773333335,9.855573970999998,-131.31116993333333,-3.246414661333333,-2.3814338446666667,8.515725453000002,6.349521955666667,-0.36937022233333366,1.3309456106666666
143,0.3972063333332396,-20.553491590000004,9.837966918333333,-131.30678809999998,-0.8233743113333333,-0.6579728920000001,8.468401751,10.706748327666666,-2.7219872473333333,-0.6100074050000001
144,0.39998399999997974,-20.48152478333333,9.852406498999999,-131.30275730000002,-2.2195943696666665,-1.5270144940000001,8.717905203666668,8.192035038666667,0.9353892013333335,0.5136636696666667
145,0.4027616666665684,-20.39877319333333,9.840733209333335,-131.2904129,-1.231380423,-1.4699721336666667,11.010509194333332,8.978218235999998,-2.384317715333333,0.5373098559999999
146,0.4055393333333086,-20.354272206666664,9.845189093333333,-131.27596789999998,-2.322570125,-1.8877386846666668,10.269766809,4.6491680146666665,-0.6167866389999999,1.2672428586666664
147,0.40831699999989723,-20.27335230666667,9.833921750666667,-131.26525370000002,-1.2079174430000001,-1.0187927733333335,7.463000615333335,8.818683625,-2.2635903359999996,0.3533357483333333
148,0.41109466666663746,-20.23394330333333,9.877436955999999,-131.25362143333334,-2.5435798366666664,-2.009745796666667,8.957825024333333,4.118726571333333,3.8979527160000003,2.567408879333333
149,0.4138723333332261,-20.17855262666667,9.858022053666666,-131.2417933,-0.5884531536666665,-1.0069670873333332,12.013403652666668,5.680631796666667,-3.2297248810000005,0.17123546166666667
150,0.41664999999996627,-20.149279913333334,9.879191079666667,-131.23053996666667,-2.777671486333334,-1.5317741633333333,6.5366169816666675,2.9067291023333333,1.3982162476666662,1.6048900486666666
151,0.4194276666665549,-20.07044283666667,9.870111148,-131.22050729999998,-0.7910283903333334,-0.9736205436666667,8.4739364,8.579612573333334,-1.993646144666667,0.389537126
152,0.42220533333329513,-20.035671233333332,9.897592226666665,-131.2227758,-2.924454450666667,-1.361553748333333,11.254612286666665,3.836214224666667,2.670564969666667,0.33721139033333336
153,0.42498299999988376,-19.9901282,9.885943094333333,-131.21027883333332,-1.708968202,-2.432691018,9.861598968666668,4.487413883333333,-2.381820043333333,0.5757867093333333
154,0.427760666666624,-19.95911598,9.905920028666667,-131.208608,-1.4085530443333336,-0.5591083166666667,8.46216607,3.314969221666667,1.6590766883333332,0.4796735446666667
155,0.4305383333332126,-19.886589686666667,9.897058806,-131.1965993,-1.9161462390000004,-0.9536086616666667,10.136080423666668,7.7728877076666665,-2.0461168286666664,0.621311804
156,0.4333159999999528,-19.858128230000002,9.930485409000001,-131.1997528,-2.513025244,-2.1195633806666665,10.687088329333333,3.0720094443333337,3.369249820666667,0.504177769
157,0.4360936666665414,-19.805884043333332,9.908370653,-131.17928313333334,-1.399574558,-1.1793480713333333,8.914438406333334,5.134796818,-3.879981673333333,1.034738382
158,0.43887133333328165,-19.758192063333333,9.939506213,-131.1740926,-2.1261427999999998,-1.1590714256666665,6.885620558666666,5.270774364333334,2.777384123333333,1.3108940126666666
159,0.4416489999998703,-19.663150150000003,9.943847337,-131.15543113333334,-1.3708021093333336,-0.620262757,12.547462938666664,10.326752028666668,-0.8222388029999994,1.9222376743333331
160,0.44442666666661057,-19.622552233333334,9.963814736666665,-131.15165199999998,-2.649605353666667,-2.0625623066666665,10.003103256666668,4.377008080666666,1.5873996416666667,0.6888609133333334
161,0.44720433333319914,-19.55878194,9.969805397666667,-131.12660726666664,-1.6969871123333335,-1.424025198,6.718912839666667,6.439129313,-0.8796181676666665,2.684568683
162,0.4499819999999393,-19.517766313333333,10.0032835,-131.1295649,-0.7875575623333333,-1.5048125980000002,10.655689399666667,4.606169859666667,3.37765535,0.4780385006666667
163,0.45275966666652795,-19.442564649999998,10.006125767999999,-131.11675773333334,-1.8587079296666664,-1.0948745210000002,11.286143621999999,8.049983142666667,-0.7411991786666666,1.1873480876666667
164,0.4555373333332681,-19.41583379,10.037476222,-131.1208496,-3.079780499,-1.5682498016666668,7.232991774666668,2.8717441756666666,3.186961650666666,0.263694207
165,0.4583149999998568,-19.343957263333333,10.030722936333333,-131.1000417,0.19564212366666678,-1.598822554,6.918460368999999,7.5169246990000005,-2.1361678443333334,1.6765285930000002
166,0.46109266666659704,-19.282547633333333,10.061057091333334,-131.11051686666667,-2.6428631943333336,-0.07658225333333335,10.955649377,7.215932210333334,3.32053121,-0.5111063916666666
167,0.4638703333333372,-19.185519536666664,10.062462804666668,-131.09024050000002,-1.4303880930000001,-1.988240997,11.867436289000002,10.508387089000001,-1.187416713,1.9626695563333332
168,0.46664799999992584,-19.123709996666665,10.088582359,-131.1018753,-2.9734295206666665,-1.25843666,9.083349386333333,7.227031151333333,2.8920654453333334,-0.8016743706666666
169,0.4694256666666661,-19.031992596666665,10.107134501666666,-131.0745621,-1.51551193,-0.7581216793333333,6.256761075333333,9.784067788333333,0.48759698866666684,3.405199687
170,0.47220333333325465,-18.931090036666667,10.144418399000001,-131.07820383333333,-0.8555247306666667,-0.8343034686666666,13.214507106666668,11.766746203333334,3.8532141049999993,0.5006686896666667
171,0.47498099999999494,-18.811809540000002,10.130286537666667,-131.04083763333333,-2.175766865,-1.9336090486666666,11.196758430333333,12.838834761666666,-3.597695193,3.276415824666666
172,0.47775866666658356,-18.712923686666667,10.144919076999999,-131.0361786,-2.0930862826666665,-0.5835413140000001,5.668333133,11.320595738333333,0.9561752083333334,0.5823823363333334
173,0.48053633333332374,-18.597305933333335,10.143845239,-131.0107472666667,-1.2903971276666668,-1.9417725003333335,8.637925943666666,12.72155984,-1.6546883186666665,2.443769296333333
174,0.48331399999991237,-18.461542766666664,10.149197897666667,-131.00298563333334,-1.2929388973333333,-0.6227323066666667,12.287462713666665,15.662859596666669,-0.20472186799999995,0.5522473853333333
175,0.4860916666666526,-18.34622701,10.145892779,-130.97370143333333,-1.9854133726666667,-1.7159759603333333,9.603816349666667,12.559652326666667,-2.0368445716666668,2.8052118220000004
176,0.48886933333324123,-18.20327759,10.125147501333334,-130.95823413333332,-1.0258827803333335,0.008794188666666666,6.08675464,16.340584116666665,-3.4533716836666666,0.4298326573333333
177,0.49164699999998146,-18.068039573333333,10.132877348,-130.93040973333333,-2.336551547333333,-1.716301958,9.057999769666667,15.05297788,-0.7096646626666665,3.0300111547
178,0.4944246666665701,-17.90358098333333,10.115088462000001,-130.9090398,-0.9432077816666666,-1.4551549153333332,15.021273931666665,18.767189026666667,-3.3269491986666666,1.227404580333333
179,0.49720233333331026,-17.76390203,10.098538398,-130.8850123,-3.2466812133333334,-2.022502819666667,8.530042013,15.633420623333334,-3.322026044,1.7050332229999998
180,0.4999799999998989,-17.584635416666668,10.086649892333332,-130.8520406,-1.3821745713333333,0.051047007666666665,4.660067796666667,20.338472366666664,-3.0628837346666664,2.761753718
181,0.5027576666666391,-17.425833386666667,10.092248918000001,-130.84085593333333,-1.8694217803333333,-1.2575085163333333,11.58175723,18.250188826666665,-0.3083030396666662,1.0165439846666666
182,0.5055353333332278,-17.249045056666667,10.063475924333334,-130.8129603,-2.0319841403333334,-2.9012872376666667,12.517703851666667,20.107603710000003,-4.795422873666666,1.6012832323333333
183,0.5083129999999679,-17.110801060000004,10.060374259666666,-130.80788420000002,-1.5496598283333334,-1.2421832683333334,8.774081864333333,15.864052136666666,-1.090863774333333,0.06289576733333334
184,0.5110906666665566,-16.944043476666668,10.032080330666666,-130.78136446666664,-1.5006403923333334,-0.627165705,7.1962968510000005,18.97165076,-4.687078396666666,1.4790946243333334
185,0.5138683333332968,-16.803331376666666,10.055567424000001,-130.77076213333333,-2.2244538663333335,-1.7272344033333333,10.398744899333332,16.04309495333333,1.7761214176666666,1.6168647556666667
186,0.5166459999998855,-16.657812116666666,10.015858335333334,-130.74834443333333,-0.732912739,-1.9980856976666665,7.390362103666667,16.481830276666667,-5.844756922333333,0.6439418596666667
187,0.5194236666666256,-16.49829674,10.015800792666667,-130.741656,-2.038672606,-0.5148023566666667,9.164064247666667,18.39822006333333,-0.7871174026666665,0.3392649543333334
188,0.5222013333332143,-16.33103370666667,10.01387914,-130.71284483333332,-1.663095832,-1.7497393390000002,11.863316695,19.006703696666666,-1.7083679436666668,2.676794985666667
189,0.5249789999999546,-16.182176589999997,10.002858480666667,-130.70878856666667,-2.651649687666666,-1.2864362296666667,8.542472126,17.084907533333332,-1.9542772769999999,-0.29911029333333333
190,0.5277566666665431,-16.04769611,10.020111084666667,-130.68953960000002,-1.8706955909999998,-1.8707677126666666,5.8820206310000005,15.32290522,0.8295684656666668,2.2240206
191,0.5305343333332834,-15.882228533333333,10.026925724333333,-130.6885096,-1.3446409900000003,-0.365208884,13.092861493333332,19.170570373333334,0.20467420433333353,-0.07335503900000002
192,0.533311999999872,-15.73098596,10.030034068333332,-130.65487416666667,-2.182766358,-2.1245167553333335,12.001797357333333,16.996568996666667,-1.254721761,3.4020239906666667
193,0.5360896666666121,-15.541642506666667,10.020785648999999,-130.6380361,-1.406139026,-0.33498491833333327,5.235574225666666,21.69734128,-2.140113433,1.1711687543333331
194,0.5388673333332008,-15.36150519,10.040440243333334,-130.61278023333332,-0.7644248106666667,-0.541531677,6.8682481446666666,20.675289789999997,0.9504642486666665,2.944118380666667
195,0.541644999999941,-15.16706244,10.029802005666667,-130.59135183333333,-2.5723528860000004,-2.1482739846666665,11.150137226,22.193865456666668,-2.4366318386666665,1.679782192
196,0.5444226666665296,-14.966876666666666,10.024307569,-130.55465953333336,-0.5806030976666666,-0.721706887,11.131235440333333,22.81271871,-2.2925220333333334,3.4837808609999996
197,0.5472003333332699,-14.727201143333334,10.015039444333333,-130.5371399,-3.082691947666666,-0.6283857376666667,8.752055009666666,27.756457013333335,-2.1377221743333332,1.2405494746666665
198,0.5499779999998585,-14.480341913333334,10.013980862666667,-130.4940262,-0.6318808793333334,-1.3285496233333334,10.663506667666667,28.25615946666667,-1.9357418619999998,4.361014445666666
199,0.5527556666665987,-14.255346933333334,9.973710380666667,-130.474439,-2.0898919503333335,-1.4250495236666667,7.631676514333333,26.127504983333335,-5.765314896666666,0.5388511953333334
200,0.5555333333331873,-13.980472246666666,9.939990043,-130.4206568333333,-0.615018985,-0.6377048496666667,5.290354778,31.238290149999997,-6.036042372333334,4.691255807666667
201,0.5583109999999275,-13.695207276666666,9.903602280666666,-130.39667513333333,-1.270068278,-1.3198871216666668,14.305872282333334,33.09664599333333,-5.455090196333333,1.2513459423333333
202,0.5610886666666678,-13.382587430000001,9.829448063000001,-130.34700773333336,-2.0862163503333333,-0.7978408833333335,9.243268013,35.99652735666667,-10.553652484333334,3.093106672333333
203,0.5638663333332564,-13.08949089,9.793015798333334,-130.32590993333335,-1.6819107136666667,-0.7391708293333332,5.960218787333333,34.13296509,-5.368441977333333,0.9702553753333333
204,0.5666439999999966,-12.757777850000002,9.71529913,-130.28363546666665,-1.0065679946666668,-2.0288060506666667,11.683950106666666,38.482941946666664,-10.736007692000001,2.2299313146666666
205,0.5694216666665852,-12.419397353333332,9.623076121666665,-130.24752296666665,-1.129725168,-0.31044375900000004,12.569444339999999,39.21016947666667,-12.274478117333333,1.3288727203333333
206,0.5721993333333254,-12.057531036666667,9.505866528,-130.20133463333335,-1.281102419,-0.770404498,4.611135443333334,42.06191635,-15.439204213333333,1.8124321303333335
207,0.574976999999914,-11.673763913333334,9.378472963999998,-130.1657791,-0.42799664499999995,-1.0367536146666667,9.778072515333333,44.70670445666667,-16.359908739999998,0.508938757
208,0.5777546666666543,-11.311205226666667,9.219761851,-130.12714643333334,-2.4629652896666667,-2.180958111666667,11.662509281,42.292292276666664,-20.105749766666666,0.13862031666666666
209,0.580532333333243,-10.922460556666666,9.056144555666668,-130.08562466666666,-0.6310142676666666,-0.625767067,9.323131083,45.218593596666665,-20.741530103333336,0.540930594
210,0.5833099999999831,-10.533115706666665,8.882574876333335,-130.04603576666665,-1.6486864376666668,-1.9241586529999999,12.905397414,45.54911422666667,-21.872666993333336,0.15630302833333332
211,0.5860876666665717,-10.148193995,8.653699556999998,-129.9856796,-0.47185949499999996,-0.9260304173333332,7.5279061,44.40346654333333,-28.84401766666667,1.6961189110000001
212,0.588865333333312,-9.793054579,8.425191561333333,-129.95839693333335,-0.9572710196666668,-1.809960127,3.9111261373333335,41.701463063333335,-28.100496926666665,-2.146858136
213,0.5916429999999006,-9.395901044,8.176129023333333,-129.90933226666667,-1.5829403746666664,-2.5868094366666665,15.762900672,46.13623937,-30.984743749999996,0.35432730100000004
214,0.5944206666666408,-9.061070124000002,7.911925951666667,-129.86996459999997,-1.317577044,-1.2143444713333333,9.679097175,39.06212616,-32.57840029333333,-1.0175665553333333
215,0.5971983333332295,-8.686992963,7.6606410343333335,-129.8308563,-2.736034870333333,-1.442508956,9.029841583000001,43.61903,-31.051673893333334,-0.5159957806666667
216,0.5999759999999696,-8.379806518666667,7.411086877,-129.79529063333334,-0.32893586133333336,-2.675111691,11.969628016666666,35.83178838,-30.778002420000004,-0.814722459
217,0.6027536666665583,-8.074818293,7.109629154333334,-129.7585983,-2.479550232333333,-1.4398443003333334,4.8229712786666665,35.39695358,-36.97432963,-1.2774745526666667
218,0.6055313333332986,-7.781116326666666,6.883650302666667,-129.73258716666666,-0.8673728306666666,-1.8928727306666664,11.049490291666666,34.42835235666667,-27.825510660000003,-1.2601585586666666
219,0.6083089999998871,-7.526583035666666,6.566713015333334,-129.7063319,-1.14142704,-2.744940400333333,9.472705207333334,29.492748260000003,-38.65489832666666,-2.3462566336666666
220,0.6110866666666274,-7.267348925,6.332325299666667,-129.68328856666668,-2.86945647,-1.5476935703333334,7.740141151666667,30.349179586666665,-28.785951613333335,-1.4792033633333332
221,0.613864333333216,-7.050916671666666,6.0797489486666665,-129.65305836666667,-0.9941183626666666,-1.9423678516666667,15.630643366333333,24.940103530000002,-31.065908433333334,-0.6292535789999999
222,0.6166419999999562,-6.840571562333333,5.805751641333333,-129.63160703333335,-2.7160922886666667,-1.6760600603333333,4.231693268333333,24.500963213333335,-33.490980146666665,-1.9700708513333334
223,0.6194196666665448,-6.626222451333334,5.597643057333333,-129.60341896666668,-0.17671589066666668,-1.0988295973333333,11.744364102666667,24.778687156666667,-25.737711270000002,-0.0779229973333333
224,0.622197333333285,-6.450520515333333,5.296213467666667,-129.58925883333333,-2.1133676566666666,-2.3864352703333336,9.495701234333334,20.411225636666668,-36.67273331,-2.938337604666667
225,0.6249749999998736,-6.253383000666666,5.095979134333334,-129.55599466666666,-1.283834775,-0.8999068836666667,6.100372960333334,22.701535543333335,-24.864504176666667,0.7820165036666666
226,0.6277526666666139,-6.100882212333334,4.837249994333334,-129.55281576666667,-1.654143542,-1.9401251476666665,14.494318601666665,17.751189233333335,-31.44900767333333,-3.4752620063333333
227,0.6305303333332025,-5.941988309333333,4.6143240930000005,-129.5105718,-2.6060837903333334,-1.0314019319999999,5.0713660733333334,18.061937333333333,-27.691222510000003,1.7828423183333333
228,0.6333079999999427,-5.762018521666666,4.403504928,-129.51111853333333,-1.2246827779999998,-1.4225308893333333,12.200034777333334,21.11425654,-25.698618569999997,-3.216481685333333
229,0.6360856666665313,-5.625256379333333,4.157313108333334,-129.4671478,-1.4562203883333336,-1.8709221283333335,6.299677611333333,15.37671153,-30.480233189999996,1.9624489943333332
230,0.6388633333332715,-5.4333999953333345,3.973309835,-129.460879,-0.9971445400000002,0.46594011533333335,10.159068108,22.51572164,-22.590432805666666,-2.000662883
231,0.6416409999998601,-5.267079671333334,3.7446773846666663,-129.43251293333333,-2.8407684666666664,-3.042285680666667,11.542473475000001,19.070044836666668,-28.19475952666667,0.5335061946666668
232,0.6444186666666002,-5.103324254333334,3.5459583200000004,-129.43005879999998,-1.062577406666667,0.6972711086666665,4.286631724666667,19.178839999999997,-24.317542393333337,-2.4615824223333336
233,0.647196333333189,-4.908089479,3.395417054333333,-129.41572826666666,-2.917836230666667,-2.363311847,16.676208177000003,22.696996053333333,-18.704625766666666,-0.258912921
234,0.6499739999999293,-4.712769031666666,3.1580615836666666,-129.39220936666666,0.7074686290000001,-0.8024786660000002,3.0157625276666664,22.80034510333333,-29.166779199999997,-0.10493857733333319
235,0.6527516666666694,-4.496928851,3.0323789913333337,-129.40805306666667,-4.604558209333333,0.0725823043333333,11.25439358,25.35224851,-15.432332832,-3.5315154389999996
236,0.6555293333332581,-4.3012175563333335,2.844409148,-129.35607656666667,0.8698623976666667,-2.3434545793333332,12.443945249999999,22.72168096,-23.526045481666667,3.9725654919999998
237,0.6583069999999983,-4.061938365,2.717011610666667,-129.38422393333335,-4.601201534,0.05330502999999994,6.0176055449999994,28.223424273333332,-15.550511439666666,-4.956198056666666
238,0.6610846666665869,-3.7982708613333336,2.583992819,-129.3124008,1.2327528793333333,-0.7969865326666666,11.608290552,30.816257476666664,-17.07839584466667,6.966224870333334
239,0.663862333333327,-3.5470485686666664,2.4158093133333334,-129.33020783333333,-3.5642205873333332,-0.30815455199999997,5.344551086666667,29.542800903333333,-20.554370243333334,-3.7697839116666665
240,0.6666399999999157,-3.2424643833333335,2.3504896263333332,-129.25280506666667,-1.0024478733333333,-0.6453605093333333,11.563039459999999,35.76285044333333,-8.940616688,8.195005098666666
241,0.6694176666666559,-2.930956920333333,2.2231994766666667,-129.2773717,-2.7004060346666665,0.2716678133333333,13.999957719333333,36.80252202333333,-15.642143008333333,-4.147026698
242,0.6721953333332445,-2.5887416203333333,2.142349988,-129.1963933333333,-1.1778663003333332,-1.3790308933333335,2.889820972666666,40.30112966,-10.73542913,8.679494857
243,0.6749729999999848,-2.196351091,2.0690042126666666,-129.22038266666667,-1.3861442410000002,1.7787661356666666,9.666724363666667,46.49226507,-9.214542865,-3.6753128569999998
244,0.6777506666665735,-1.780297637,2.0168872723333333,-129.14779406666668,-3.3632897436666673,-2.2466427486666665,13.472272557333334,49.207888286666666,-7.134505987333334,7.953870891666667
245,0.6805283333333136,-1.317563335,1.9803488700000003,-129.17265319999998,-0.5850591263333331,1.2831288576666668,8.400523662,54.95338313,-4.8474698756666665,-3.5753109456666663
246,0.6833059999999023,-0.7979604603333333,1.967781545,-129.1144511,-2.2645508846666664,-0.45574321366666676,11.039416314333332,61.68123499666666,-2.220441351333333,6.396425166666667
247,0.6860836666666424,-0.26433907966666664,1.9487220619999999,-129.11706036666666,-0.5300773776666666,0.046000895333333326,7.6462831499999995,63.383845013333335,-2.828800042333333,-0.7662394840000003
248,0.6888613333332311,0.3156738626666667,1.9645193293333332,-129.07966869999998,-4.114214738,-0.16020500633333334,7.444209932,69.01332601,1.3038153646666668,3.903212071
249,0.6916389999999714,0.9479669926666667,1.9922027263333335,-129.05413819999998,0.8649050393333333,0.8209231493333332,11.784062863,75.13906605999999,2.8063913186666665,2.5293896196666665
250,0.69441666666656,1.6080816586666666,1.9913387596666665,-129.0387039,-3.4699102043333334,-1.0504229863333332,10.468032360999999,78.66867828666666,-0.6499690613333333,1.3388390936666665
251,0.6971943333333002,2.33141311,2.0552492289999997,-128.98576356666666,-0.37970423666666653,1.2151661516666667,8.482024828333335,85.98418680666667,7.314332803666666,5.529321183666667
252,0.6999719999998888,3.0716551143333333,2.092224503666667,-128.99762473333334,-2.471164445,-0.014426201666666657,9.947195055,88.37108358,3.7878507970000004,-2.1713854473333334
253,0.702749666666629,3.8395980196666666,2.1369284193333336,-128.9322586,-0.30817855399999994,-1.0946175256666668,7.814354578666667,91.30697377333333,5.234126050333334,6.954133827
254,0.7055273333332176,4.65849638,2.1854273030000004,-128.94280496666667,-2.6964413723333336,0.949278027,10.655632494333332,97.78129323,5.143056552333333,-2.2736886540000003
255,0.7083049999999577,5.516560077666665,2.2638838883333334,-128.88403826666666,-1.850863278,-1.0258287786666667,14.097237269999999,102.13221483333332,9.394735019,5.613292932333333
256,0.7110826666665465,6.387792110666666,2.296785831333333,-128.88712563333334,0.004497170333333411,-0.23354459066666666,7.318695862999999,104.0743637,3.3200626176666668,-1.2992188136666667
257,0.7138603333332867,7.288722196999999,2.379821141666667,-128.8410314,-2.5703143676666667,-0.3893455266666666,10.000990072,107.27116646666667,9.939734659666668,3.6916173696666665
258,0.7166379999998753,8.187149048,2.4429313736666667,-128.8249919,-0.749066184,-0.719764471,13.170916553333333,107.11184436666667,7.204848155333333,0.33282134266666663
259,0.7194156666666155,9.088974952666668,2.4926328756666667,-128.78462473333332,-2.0864602326666666,-1.787762522666667,7.4654918519999995,107.57591246666668,5.989604473333333,3.3612546916666663
260,0.7221933333332041,10.015668867999999,2.556647996,-128.74954223333333,0.661304732,0.15493060133333328,12.107557934666666,110.52084353333333,7.696614425666667,2.3151797849999998
261,0.7249709999999444,10.928016983333334,2.5640687346666664,-128.71804806666668,-2.2496329943333335,-1.8744500476666666,11.304545403666667,108.74492646666668,0.9380391740000004,3.0185004870000003
262,0.727748666666533,11.848931630000001,2.625902593333333,-128.66078696666668,-1.0544877053333332,-0.646245281,9.640612126666667,109.69991809999999,8.043480874,4.6784467696666665
263,0.7305263333332733,12.741805396666665,2.634353439,-128.64170836666665,-1.4909084640000003,-1.4535697126666667,12.779761792,106.46735126666665,0.8528361316666665,1.481514632666667
264,0.7333039999998617,13.609172183333333,2.6432641943333333,-128.5746867,0.8811283510000001,-1.3167473276666666,7.185215316000001,103.27006786666668,2.272366921,7.031685590666666
265,0.736081666666602,14.481534006666669,2.6555266179999997,-128.5712738,-3.034947772666667,-1.3890203836666668,14.14927769,104.00861356666667,0.9382844766666668,-0.42815860133333333
266,0.7388593333331906,15.347286223333333,2.6462124186666665,-128.5024923,-0.48614631100000016,-0.9138548176666665,8.362073582,103.13185119,0.43270945566666646,7.751874130666667
267,0.7416369999999309,16.187816620000003,2.6941900650000004,-128.4930242,-3.3255730470000002,-2.0489638846666667,14.456855136666666,100.11642963000001,5.254013699000001,-0.9836420216666667
268,0.7444146666666711,16.97222010333333,2.6660580436666668,-128.4290924,2.2958318793333334,-1.5472130976666667,6.852889060666667,93.45248922,-1.665460585333333,7.8254572556666675
269,0.7471923333332597,17.769562403333335,2.710267225666667,-128.43398796666668,-4.4899750549999995,-1.2822984656666667,12.045286176666666,94.96821848333333,4.29338233,-2.6708848476666667
270,0.7499699999999999,18.492987313333334,2.6695171596666665,-128.37284596666666,2.1129513183333333,-2.5688952603333335,10.087251981333333,86.19884490999999,-2.984568596666667,8.046157042333332
271,0.7527476666665885,19.20828437666667,2.7513226866666667,-128.3772685,-5.7059629759999995,-1.4742612443333332,13.035626413333333,85.08292389,8.527017913333333,-4.2238500913333334
272,0.7555253333333288,19.851472216666668,2.723512908,-128.32389070000002,3.3088587126666664,-2.5374275646666664,11.013074557666668,76.62486521666666,-1.6381691286666669,6.6877717966666665
273,0.7583029999999175,20.464991889999997,2.7873618996666667,-128.34328206666666,-4.025160074333333,-1.7263179816666667,8.488199233,72.98489633999999,5.78894774,-5.386141061666667
274,0.7610806666666576,21.002501166666665,2.7773364983333337,-128.3136495,1.447356154666667,-2.4177819890000003,10.044028777,64.02088547,-0.4982094766666669,3.2719759246666666
275,0.7638583333332463,21.507158283333336,2.8927736283333334,-128.31881206666665,-5.584117571666667,-1.774231434,16.19060977366667,59.885299683333336,12.074124175666668,-6.153763929999999
276,0.7666359999999864,21.961668650000004,2.8988906743333334,-128.27441913333334,1.0451813540000001,-2.132876038333333,5.020392099333333,53.99861399666667,2.0172622810000003,4.200992544666667
277,0.7694136666665751,22.397555033333333,3.0198465186666668,-128.26046243333334,-1.5281535386666665,0.10720719266666667,10.709760507666667,51.57948430333334,13.461822194,-4.456474522666666
278,0.7721913333333154,22.820349376666666,3.0689333873333333,-128.18763223333335,-1.572305769,-2.2863315343333332,10.507065138666666,49.88141378,8.153758524333334,5.262901082666667
279,0.774968999999904,23.19452540333333,3.185101668,-128.15084330000002,-0.9138326643333334,-1.1823255443333334,12.513762514,44.059162140000005,13.945465086666667,-1.8902759553333333
280,0.7777466666666442,23.531284966666664,3.260394970666667,-128.0735728,-1.0071616970000001,-1.4821730056666664,10.682652153666666,39.47001775333333,11.341710091333335,4.4099216063333335
281,0.7805243333332328,23.834305443333335,3.33932821,-128.02834576666666,0.02890341499999997,-0.9843673306666666,7.952222345666667,35.543556213333325,10.235560415666667,0.6916145979999998
282,0.783301999999973,24.143623986666668,3.467495759333333,-127.93161263333332,-2.7125391563333334,-1.235441069,13.775222140666665,35.91362254,18.137490433,3.7806577286666667
283,0.7860796666665616,24.432275136666664,3.5135864023333334,-127.896904,0.7893239756666667,-0.561414083,6.571880340666667,33.96430460333334,6.1308245543333335,1.0712654886666666
284,0.7888573333333017,24.722136816666666,3.586432894,-127.8336385,-0.09400294733333332,-0.39191675666666664,9.105031172,33.84622256,10.481480517333333,2.7434071503333333
285,0.7916349999998905,25.00790023666667,3.637406786333333,-127.80873363333332,-1.6143370069999998,-0.6318093933333334,14.147512436666666,33.551837283333334,6.185054938333333,-0.3635820943333332
286,0.7944126666666307,25.273576736666666,3.653929273333333,-127.78793590000002,1.6927529173333333,-1.2046696543333335,9.157021520999999,31.386751813333333,2.2406657536666668,0.967297276
287,0.7971903333332193,25.546058653333333,3.6468135116666667,-127.77807106666667,-2.9861155553333334,0.134348893,9.569022018666667,32.055375416666664,-0.8788630166666668,0.9376609326666667
288,0.7999679999999595,25.80747986,3.6493522323333334,-127.78480276666666,1.9778217276666663,-0.6762553753333332,11.266042710666667,31.0389417,-0.6778212090000002,-1.3040942153333333
289,0.8027456666665481,26.078528086666665,3.6166607539999998,-127.79088846666666,-2.081365069,-1.049173688,11.660133998666666,32.07180341,-4.471544980666667,0.5746089466666667
290,0.8055233333332884,26.347682953333333,3.540899316333333,-127.8274358,1.647111361,-0.038444866666666654,8.258442083,32.14264806,-10.666017212999998,-0.3225987356666667
291,0.808300999999877,26.605745953333336,3.4913928903333336,-127.85528056666665,-3.615227938,-1.0750261993333334,12.914036272333334,30.68475914,-7.421970725,-0.80636658
292,0.8110786666666173,26.873562493333335,3.394290765333333,-127.90613046666668,3.1065610893333333,0.106252479,9.804433504666667,32.079367319999996,-13.753725369,-0.6697917823333333
293,0.8138563333332057,27.12828064,3.2871915500000006,-127.96285243333334,-3.2069253923333334,-1.7923169329999997,11.003221510333333,30.526713689999998,-15.146067619666667,-0.6563911236666665
294,0.816633999999946,27.395799636666666,3.1620753406666666,-128.03235116666667,1.7396381299999997,0.310909291,10.973996958,32.08394686333333,-17.767311732333336,-1.0220733283333334
295,0.8194116666665346,27.626516343333336,3.0404718916666673,-128.10325369999998,-3.835730543,-1.3756515383333336,12.129609585333332,27.756462733333333,-17.477135338,-1.2174372873333335
296,0.8221893333332749,27.889790856666664,2.8951284686666665,-128.18737283333334,2.813237925333333,-0.26141307766666666,10.208464622,31.626208623333337,-20.734711645333334,-1.2887357073333334
297,0.8249669999998636,28.10632197,2.7487152019999996,-128.28810883333333,-3.932474052,-0.9798064433333332,9.602188270333334,26.21521314,-21.785390216333337,-2.81687359
298,0.8277446666666037,28.340856553333335,2.5920184853333335,-128.37213896666665,2.610849062333333,-0.5485244593333333,12.346943536666666,28.063168206666663,-21.942258199333335,-0.5031839116666667
299,0.8305223333331924,28.54412778,2.4574704766666664,-128.47937520000002,-5.296515921666667,-1.3953056036666664,11.393998941666666,24.63079770666667,-20.926317852666667,-4.015616447
300,0.8332999999999325,28.760544456666665,2.296565072,-128.57373809999999,2.6355060736666664,0.06207491466666667,10.762873966333332,25.90980784333333,-22.975703874666667,-1.1687924466666664
301,0.8360776666665214,28.901486076666668,2.1619035896666667,-128.67682650000003,-3.7894008953333334,-2.267361184,12.157411258333333,17.08377997,-20.722533703,-3.4333052636666666
302,0.8388553333332615,29.08342997,1.9993123116666667,-128.76151783333333,1.3541034063333333,-0.4930476893333333,10.560561179333334,21.652269999999998,-22.600145974333333,0.06685678133333361
303,0.8416330000000016,29.218887326666664,1.889308671,-128.85291036666666,-3.9231928200000006,-0.19638059033333333,9.544635655999999,16.37400468,-17.46978855233333,-3.516255935
304,0.8444106666665903,29.367729823333335,1.7585621673333334,-128.90959676666665,0.7036070826666668,-1.1821895636666666,11.216064134666667,17.5069774,-17.622477848666666,1.2309146723333333
305,0.8471883333333304,29.459829966666664,1.6948738596666668,-128.9840164,-2.867277622,-1.5454547806666667,14.383708316333333,11.030534583333333,-11.651535988666666,-4.424834618999999
306,0.8499659999999191,29.591856636666666,1.5964996016666666,-129.0317993,-2.341155091333333,0.071181655,8.876791364,15.470239956333332,-13.680632749666666,0.37656382699999985
307,0.8527436666666594,29.651883443333332,1.5743569533333333,-129.06915026666667,-0.9836063386666666,-1.3652821776666666,12.900898853000001,7.058502833333333,-5.1413628246666665,-2.9819623626666663
308,0.855521333333248,29.728849413333336,1.5210480690000001,-129.10784913333333,-3.2352623326666667,-1.0344259243333334,9.895027318666665,8.859188555333334,-8.439569631,-1.3044137159999998
309,0.8582989999999882,29.782445909999996,1.5720908443333332,-129.10563150000002,0.06473700199999992,-0.6003852536666666,15.873504797,6.069110076666667,4.8325786593333335,-3.2344507376666667
310,0.8610766666665768,29.807112376666666,1.5247566900000002,-129.1313807,-2.892331164333333,-0.4903696676666667,3.1346872633333334,2.7024216303333333,-7.049781162333335,-0.25056692966666666
311,0.863854333333317,29.821655273333334,1.6267021893333335,-129.09657543333333,0.7456573646666668,-1.2814787526666667,16.897388779,1.1320635873333333,12.072388809333333,-2.9330569853333337
312,0.8666319999999056,29.84292984,1.6015577513333332,-129.09630073333335,-3.161030054,0.20814738700000004,8.095930259333334,2.3201115133333334,-3.187260944333333,1.1650808650000002
313,0.8694096666666457,29.86525345,1.7047434846666665,-129.04634603333332,0.9573855796666665,-1.2612525376666668,13.885564166666668,1.9312031269999999,13.095737058666666,-1.4750944176666667
314,0.8721873333332345,29.83184751,1.6987612146666666,-129.04517620000001,-3.6811602113333333,-0.9769666393333334,9.078084309333335,-4.173780838666667,-1.1364310603333339,0.14279943733333333
315,0.8749649999999747,29.836962383333333,1.803334395,-128.9792989,1.4058417083333332,0.4072621113333333,13.241706213333336,-0.2504264113333334,14.181467053333334,0.07507523900000002
316,0.8777426666665633,29.80560366666667,1.8182785806666668,-128.97487386666668,-3.9339292446666665,-1.4801403133333333,10.590918383666667,-3.928947339333334,1.236337184666666,-0.7679063380000001
317,0.8805203333333035,29.811127346666666,1.888588776,-128.94147236666666,2.430967331,0.024149760333333322,8.534039338666666,-0.01792971299999994,8.675631204,-1.231259346
318,0.8832979999998921,29.73620097,1.9119990119999999,-128.93358103333333,-3.4737260539999997,-1.5232226453333333,12.10426108,-9.196493627,2.3256169153333333,-0.919316441
319,0.8860756666666324,29.710419333333334,1.9637235506666666,-128.89987436666667,2.416430274666667,-0.10171562899999993,10.31948185,-3.7961497110000004,6.749792416666668,-0.09590804566666655
320,0.888853333333221,29.65416781,2.020682610666667,-128.88584643333334,-5.206168442,-0.9755912026666667,12.177145083666666,-6.983547528333332,6.193685413333333,-2.265331904
321,0.8916309999999613,29.621118546666665,2.0417567096666667,-128.8581009,3.028780699,0.24479138866666664,8.669489183333333,-4.554079215000001,3.1864158313333335,1.1212337413333333
322,0.8944086666665497,29.53459676,2.1216838596666667,-128.84931693333334,-5.002427896,-1.2895063363333332,16.600730576666667,-10.705851236333332,8.28341494,-4.198775808333333
323,0.89718633333329,29.507840473333335,2.1200400713333334,-128.84352876666665,2.421748042333333,0.7650926956666666,6.577430050666667,-3.642233769,-0.4879726566666666,0.19980824
324,0.8999639999998786,29.463340123333335,2.1829625373333332,-128.84454853333335,-3.954994360666667,-0.31792394333333324,12.642183942333332,-5.641087691,5.9329573710000005,-4.210549394333333
325,0.9027416666666189,29.429738363333332,2.1460083969999997,-128.86760203333333,4.166595379333333,0.1655115633333333,7.6408893283333335,-4.2542473476666665,-5.8837904136666666,-0.7137745023333334
326,0.9055193333332076,29.418039323333335,2.2100684483333333,-128.88013203333333,-5.042126079333333,-0.6831715799999999,14.008699735,-1.7604791123333337,5.330971637333334,-5.600023105000001
327,0.9082969999999477,29.385879516666666,2.1232795933333333,-128.9144033,3.073030312666667,-0.3550306816666667,7.521691799333333,-3.8969334363333332,-11.758736131666668,1.0861887136666668
328,0.9110746666665364,29.359422679999998,2.166853469,-128.9554011,-3.751637061666667,0.05331807333333336,10.330921173333332,-3.465175589,1.5217132563333333,-7.385067205333335
329,0.9138523333332765,29.322025300000004,2.080296613333333,-128.99180859999998,2.0019923843333336,-1.736247917,12.8484087,-4.5450894433333335,-11.870497860999999,0.804581245
330,0.9166299999998654,29.312343600000002,2.0814109963333336,-129.066274,-4.3248838596666666,0.2523569863333333,8.667507968,-1.2380858263333334,-4.886330604666666,-8.370827753666667
331,0.9194076666666052,29.262289683333336,1.9950712073333332,-129.09473930000001,2.1451737483333333,-0.576497078,12.564508757333334,-6.165705839666667,-11.378169855000001,1.596151034
332,0.9221853333331941,29.205620449999998,1.9837479343333335,-129.1792195666667,-4.203614453666666,-1.1128159166666667,12.099969864,-6.767308393666667,-6.707448005666666,-8.564335025666667
333,0.9249629999999343,29.17245610333333,1.8942909043333334,-129.1878764,1.3845431006666662,-0.9255917669999999,9.733163197333333,-4.318882346,-10.56524099,3.7785107293333335
334,0.9277406666665229,29.104297000000003,1.8725554943333333,-129.26732126666667,-3.4874091149999997,-0.1354461213333333,10.587538081666667,-8.126263618333333,-7.5599459,-7.544059834
335,0.9305183333332631,29.022636413333334,1.776943286,-129.2716548,1.0387218793333333,-1.1840481856666667,10.723038832666667,-10.07563607,-10.971143404666668,4.5858757
336,0.9332960000000033,28.95418612,1.768625329,-129.3466568,-3.227638085666667,-0.6706266353333333,11.928910574666666,-8.346298695666666,-5.804272254333333,-7.791459719333333
337,0.936073666666592,28.840733209999996,1.665448189,-129.34516653333333,0.6856645743333334,-1.1283724106666666,10.939864316,-13.802226386666668,-11.445981185666668,5.633002758
338,0.9388513333333321,28.701739630000002,1.6579942703333332,-129.42244463333336,-3.0254519186666666,-0.9445687926666667,12.955484073333333,-16.761798223333333,-5.821955601333333,-8.090899469
339,0.9416289999999208,28.587104793333335,1.5811588766666667,-129.4049504666667,0.43357117966666675,-1.0560881696666666,8.146811089,-14.100228311333332,-7.780548781333334,5.719797293333333
340,0.944406666666661,28.461216606666667,1.5782566666666666,-129.4731649,-2.907067457666667,1.307538153,11.053805350666666,-15.233968099999998,-4.783972183666667,-7.406324546
341,0.9471843333332496,28.30255,1.5338910223333333,-129.42957813333334,-0.7057847976666666,-2.1286589106666667,14.779471079333334,-19.358373959999998,-2.8915067316666665,6.618541876333334
342,0.9499619999999896,28.160025916666665,1.567233344,-129.48451996666668,-3.2271723746666665,-0.6204237539999999,9.021069207666667,-17.307120006666665,-0.26410476366666674,-8.276355505
343,0.9527396666665785,27.99545606,1.5565151773333337,-129.42899066666666,0.4808639286666667,-0.34372921800000006,8.630133946666668,-20.10889879666667,1.317511638,5.975901961333332
344,0.9555173333333187,27.804109573333335,1.6164110106666667,-129.45854440000002,-2.5769093433333334,0.12339883800000002,15.046133676666669,-23.264593126666668,4.016775012,-7.075304190333334
345,0.9582949999999073,27.619735716666668,1.6478628713333332,-129.3889694,-2.1817187839999996,-3.327578624333333,13.938407580333333,-22.522188186666664,6.546768029,5.144464433
346,0.9610726666666475,27.43022537,1.7091983656666667,-129.3959452,-2.4790655970000004,1.663767894,6.8771742976666665,-23.02522595666667,5.551188668333334,-4.527182181666666
347,0.9638503333332361,27.198457719999997,1.7605665723333335,-129.30725353333335,0.2873942503333334,-2.0849803946666667,8.686089038666667,-28.334005993333335,9.674470424,6.090663513666667
348,0.9666279999999764,26.987230303333334,1.8522904613333333,-129.29102323333333,-2.6817991733333333,-0.2565285066666667,11.371198016666668,-25.83208084,10.013917884333333,-3.852895897
349,0.969405666666565,26.760390599999997,1.9217296443333334,-129.19478610000002,-1.0173644623333333,-0.9982669999999999,12.511878013333332,-27.736481986666664,11.974859239333332,6.030398527
350,0.9721833333333053,26.494694393333333,2.0134384483333334,-129.15740459999998,-1.9933939376666665,-0.4182470143333334,13.184375130000001,-32.345409393333334,11.242581847333334,-1.3214349746666665
351,0.9749609999998937,26.22540601,2.107669008333333,-129.06895193333332,-0.730201453,-2.4653754633333334,11.660458882333332,-32.8812383,14.178857803333335,3.9809683170000003
352,0.977738666666634,25.96870231666667,2.182040438,-129.02873736666666,-1.5092258453333336,1.4151013296666666,5.267936110666667,-31.262129466666664,9.463620345666667,-0.11922097366666644
353,0.9805163333332226,25.67521159,2.2797489313333332,-128.93655143333334,-0.5880844196666667,-1.1912022826666668,9.117385545666666,-35.87461344333334,14.698130926666666,4.301002821666667
354,0.9832939999999629,25.397724786666668,2.3708258866666667,-128.87288666666666,-1.0405456223333331,0.09420979033333336,12.890031813,-33.93116060666666,12.471052806666668,1.6236481366666673
355,0.9860716666665515,25.123633066666667,2.4566601909999997,-128.79211683333332,-1.6291838486666663,-1.0639668006666667,10.072373708666667,-33.49250412,12.785671552000002,3.845068454333333
356,0.9888493333332917,24.81421788333333,2.535722364666667,-128.70844776666664,-1.1182384293333334,-0.24783213933333328,11.907198270666667,-37.84057871666667,12.150227226666667,4.543904462333334
357,0.9916269999998804,24.50208854666667,2.6468737326666667,-128.6436437,-2.497900665,-1.8908647696666667,13.852877933333334,-38.03966522333334,14.70697816,0.9795992766666668
358,0.9944046666666205,24.203023273333333,2.7294297616666667,-128.54167173333335,-1.2635937133333333,0.00227344033333333,8.910316466,-36.685572306666664,13.38427289,6.525682528666667
359,0.9971823333332094,23.87923368,2.834373116666667,-128.48630013333334,-1.4840058883333331,-0.9262690546666666,10.057426452333333,-39.37388865,13.55765756,0.44714462766666685
360,0.9999599999999492,23.554640449999997,2.9340959193333336,-128.37112679999998,-1.050224781,-0.9201638303333333,10.394697504999998,-39.91504160666667,15.826098443333334,7.264300347333333
361,1.002737666666538,23.256812413333332,3.0414311489999997,-128.3355891,-1.9164087773333331,0.38811536633333327,10.640727683333333,-36.172306060000004,12.861309688,-1.703256607
362,1.0055153333332782,22.949591956666666,3.1226825713333333,-128.2185542,-0.701446722,-0.3340385016666667,9.390273729999999,-37.81085967666667,13.791821796666667,8.541281221333334
363,1.0082929999998669,22.65059153333333,3.2530637979999995,-128.19512683333335,-1.678890228333333,-0.09413742033333333,11.911580723333335,-36.321359,14.864102681,-3.9828182059999997
364,1.0110706666666072,22.38426526666667,3.3455218473333335,-128.07258603333335,-1.5499365129999998,-0.575310995,10.613641102666667,-32.949895223333336,15.19311618666667,8.778741042333332
365,1.0138483333331958,22.11186536,3.4799685083333336,-128.06650796666668,-1.6557843486666668,1.532346477,9.08183988,-32.99738057333334,14.55227089,-5.9428425633333335
366,1.0166259999999359,21.84854380333333,3.609797001,-127.94008893333334,-1.323574046,-1.47450156,11.20878633,-32.73452568,19.44202296,7.641537665
367,1.0194036666665245,21.61759186,3.7510635056666666,-127.92518106666667,-1.5643236886666667,0.9317070893333333,12.155131656666667,-28.08972740333333,15.742617926666668,-5.130343635666667
368,1.0221813333332648,21.402573266666668,3.8827537299999997,-127.80479173333333,-2.3276431583333337,-0.700372636,10.488587060666667,-26.93329175,19.318381626666667,7.053489048
369,1.0249589999998534,21.195135753333332,4.066114068,-127.76780190000001,-0.8463581006666666,0.8330213849999999,12.19626236,-25.491338093333336,21.44283994,-4.383610884333334
370,1.0277366666665937,21.037478766666666,4.231131871333333,-127.65032703333333,-3.000078817,-0.4608053663333333,13.162755330000001,-20.10224247,22.87628746,5.423742613333334
371,1.0305143333333338,20.894912083333335,4.441356579333333,-127.58341726666667,-0.9733141063333334,1.2947062653333334,8.673428376333334,-17.901913323333336,25.749546050000003,-2.034037431
372,1.0332919999999226,20.75926844333333,4.661920865333333,-127.4695765,-1.957188318,-0.8308056420000001,9.238554954333333,-17.615633013333333,28.92025947666667,2.72035861
373,1.0360696666666627,20.650643033333335,4.900778214,-127.37313586666669,-1.993928591666667,0.7771200936666668,9.981558165333333,-14.174426713333332,30.220534006666668,0.16389738499999984
374,1.0388473333332513,20.56388219333333,5.143293301,-127.26330563333335,-1.3295346053333332,0.076433872,10.041307450666666,-11.810966493999999,31.201145173333334,1.4661346276666667
375,1.0416249999999916,20.509541193333334,5.405542453,-127.1625214,-1.6626615523333335,-0.20442827566666666,13.894769986666665,-7.8432326329999995,33.02790578333333,-0.26667418099999995
376,1.0444026666665802,20.501396816666666,5.662570238,-127.04888410000001,-1.580797831,0.6110903223333333,10.486888886666668,-2.488507509333333,32.98580233333333,1.35154438
377,1.0471803333333203,20.50680542,5.9318922359999995,-126.93881223333334,-0.8820509213333333,0.797899008,8.116411368333333,-0.8475423456666668,34.211061476666664,0.5101416333333334
378,1.049957999999909,20.521089556666666,6.230894724666666,-126.8152898,-2.3212198416666667,-0.569252471,9.098837852666668,-0.1160072686666666,38.11177444333334,0.6379915873333334
379,1.0527356666666494,20.567441306666666,6.502280871,-126.69817096666667,-0.5360406386666666,1.2106108266666666,10.158282280333333,3.8459776246666664,34.738573073333335,1.1832337876666668
380,1.0555133333332376,20.6328125,6.817943096,-126.56885783333333,-2.5032996336666664,-0.5894380906666666,12.784447349999999,5.782426198333333,40.21509806,0.48640648533333347
381,1.058290999999978,20.738380433333333,7.107892513333333,-126.45184576666664,-0.5733043350000001,-0.26219821,12.38969358,10.829395611333334,36.811023713333334,0.2755411936666669
382,1.0610686666665667,20.836022056666668,7.422355810666666,-126.35050963333333,-1.596630645333333,0.6588203213333333,10.220994314,9.933786709333333,38.90789795,-2.6918969156666672
383,1.0638463333333068,20.942979176666668,7.719414711,-126.22675576666666,-1.1974041263333335,-0.9898623726666668,8.423405647000001,10.717441877333334,37.89150873666666,0.5556159419999999
384,1.0666239999998954,21.038131713333332,7.999552409,-126.13533530000001,-0.27562063933333336,0.13857576266666663,10.879336357,9.664736271999999,34.62216440666666,-2.4802167516666667
385,1.0694016666666357,21.142025633333333,8.252322515,-126.03427886666667,-1.4657795826666666,-0.6444502276666667,11.934055963,10.590186277333332,31.960550946666668,-0.20606682700000004
386,1.0721793333332243,21.25731786,8.509346326333334,-125.95934296666667,0.07230389099999994,-0.7768101493333334,13.687942823333332,12.302780786666666,31.315281549999998,-3.432276567
387,1.0749569999999646,21.356279373333333,8.717971960666667,-125.88494109999999,-0.9891483186666665,-0.6199745586666666,8.607013862333334,10.396888894333333,25.887338003333337,-1.3171445926666667
388,1.0777346666665533,21.436310449999997,8.937537668666666,-125.81675209999999,-0.1554930213333333,-0.2971756456666667,9.293841043333332,8.094680786,26.821055729999998,-2.683519959333333
389,1.0805123333332933,21.506896976666667,9.093266804333332,-125.77032213333335,-0.745805462,-1.3759318196666666,10.118515334333333,7.453672647,18.754890443333334,-2.1881141116666667
390,1.083289999999882,21.564769743333333,9.264711377333333,-125.73846436666668,-0.7671372293333333,-0.5302391896666666,15.415906266666667,6.072941145000001,19.85957909,-4.656563123000001
391,1.0860676666666222,21.599851606666665,9.352548441000001,-125.71276853333335,-0.19631177199999997,-1.860425829666667,7.2382016170000005,3.6344888406666667,10.279939572333333,-1.472460101
392,1.0888453333332109,21.58476702666667,9.476760544,-125.70771026666667,-0.8475646576666667,-0.5414940653333333,9.558631895666666,-2.243239959,13.422953923333333,-5.563818931666667
393,1.0916229999999512,21.558268866666666,9.496954124666667,-125.71605683333333,0.06097494566666669,-0.9294717706666668,10.755064647,-3.0798088910000003,1.2595545459999997,-2.2119046050000004
394,1.0944006666665398,21.49803479666667,9.576187771666666,-125.73343659999999,-0.9329771249999999,-1.2984981340000001,13.30827268,-7.216350873333333,7.436445714,-6.028704007333334
395,1.0971783333332799,21.429931003333333,9.546714144666666,-125.77184803333334,0.21977104733333327,-0.6594593326666667,10.539371808,-7.469607989,-5.56745561,-3.2984141506666673
396,1.0999559999998685,21.310405096666667,9.562211037,-125.80407206666666,-1.9132545793333335,0.0009541860000000235,8.344430766,-14.025630313333332,-0.3088531493333336,-4.8569002150000005
397,1.1027336666666088,21.195126853333335,9.509594122333334,-125.85021720000002,0.2965529363333333,-1.824837466,13.939490002666666,-12.979160626666667,-8.485196588333334,-3.191914638
398,1.1055113333331974,21.048896156666668,9.478099504,-125.90872446666667,-2.215300758666667,-0.6735565863333334,9.328554631333333,-16.681387903333334,-6.6754528676666665,-5.723263422666666
399,1.1082889999999377,20.892512003333334,9.410633723666665,-125.95823923333334,-0.02527260766666665,0.24789059933333335,10.984666981333334,-17.91153017666667,-10.250283082333333,-2.929791450333333
400,1.1110666666665263,20.705360413333334,9.329062461666666,-126.02061973333333,-1.4753335316666665,-1.3542392650000001,9.322470982666667,-21.500992459999996,-12.410820644333333,-3.9909473259999992
401,1.1138443333332666,20.549874623333334,9.237435341000001,-126.08375296666668,-0.6233987606666667,0.371803855,12.883300463333335,-17.591436703333333,-13.520956991666665,-3.5086478393333334
402,1.116621999999855,20.36348661,9.145783105333333,-126.13907113333333,-1.5415865553333334,-0.14385420566666665,7.925439834333333,-21.551886876666668,-13.23866367,-2.877811988
403,1.1193996666665953,20.187155403333332,9.050006232,-126.19473013333334,-0.46278093266666676,-0.7721864726666666,10.286406358,-20.275981903333335,-13.654562629333332,-2.5719436010000005
404,1.1221773333333356,20.00180308,8.948052406333334,-126.24856569999999,-1.3598688216666668,0.14608737833333332,12.629256246666666,-21.47011820333333,-14.319509186666664,-2.3552984796666667
405,1.1249549999999242,19.837711333333335,8.855292002333334,-126.2977117,-1.677655736666667,0.29719076566666663,9.137022336666668,-18.948788323333332,-13.033963203666666,-2.0471418700000004
406,1.1277326666666643,19.661389033333332,8.760609467666667,-126.35123950000002,-1.5449100930000002,-0.11077861733333334,10.349023024666666,-20.416350050000002,-13.471251486666667,-2.689461946666667
407,1.130510333333253,19.492371239999997,8.681671619333333,-126.40232086666667,-2.0050747990000004,-0.783900251,12.741161664000002,-19.536839806666666,-11.552126881666666,-2.9512393476666667
408,1.1332879999999934,19.333702723333335,8.590646743666667,-126.45210776666666,-1.4036355816666666,0.24306863799999998,9.440087319,-18.33721351666667,-12.899189152333333,-2.4750703573333337
409,1.1360656666665816,19.159907656666665,8.527510007,-126.50091300000001,-0.7572802256666668,-0.007951044666666669,8.649943668333334,-20.210645676666665,-9.655346234666666,-3.400509357666667
410,1.138843333333322,19.02199936,8.434475581,-126.55187480000001,-2.2615806263333336,0.415787359,10.712412516666667,-15.859104156666666,-13.151210466,-2.5848741533333333
411,1.1416209999999107,18.877850849999998,8.369137446333333,-126.5940501,-0.3092381583333333,0.18136863933333336,8.496123472999999,-16.744325,-9.620969772333334,-2.5611380736666667
412,1.1443986666666508,18.737812676666664,8.307933171666667,-126.64454143333334,-2.540373544,0.30509905499999995,9.613912266,-16.20619615,-9.513450623666667,-3.8791021506666667
413,1.1471763333332394,18.629552203333333,8.242799123,-126.6919098,-0.9173384706666668,0.7084295946666667,12.22425588,-12.328945476666668,-9.794416269333333,-3.2137076856666673
414,1.1499539999999797,18.52045631333333,8.189233303,-126.73420716666668,-1.7813498773333334,0.41919459899999995,10.307163236666668,-12.608289083333334,-8.341827709,-3.337087233666667
415,1.1527316666665683,18.42963155,8.136374155666667,-126.7866567,-0.7192250403333333,0.24217153900000002,10.216651600666667,-10.214586418,-8.575856048333334,-4.300208250666667
416,1.1555093333333086,18.36419042,8.061586062000002,-126.83671063333334,-1.7025546633333333,0.68136698,10.209943772,-7.211658795666668,-11.021972972333336,-3.357586781
417,1.1582869999998973,18.29875373666667,8.017638047666667,-126.87644703333335,-1.2496730883333333,0.212259402,10.308607736333334,-7.396682898333334,-7.068803945,-3.2021552723333335
418,1.1610646666666373,18.24540710333333,7.961264928333333,-126.92519123333334,-2.283608496,0.09629857533333334,10.918510119333334,-5.843060414,-8.869484583666667,-3.9533443453333335
419,1.163842333333226,18.215061823333333,7.907800515333332,-126.96719106666667,-1.1379483243333335,0.33219982400000003,10.42023786,-3.1116217176666665,-8.232462087,-3.0940588313333333
420,1.1666199999999662,18.173519133333333,7.857742468333334,-127.0029602,-1.3741819063333331,0.29744710533333335,7.863630930666666,-4.658273538,-7.6643180840000005,-2.7464524906666665
421,1.1693976666665549,18.1451238,7.808302720333333,-127.04569753333332,-0.7765759826666666,0.149869263,10.11863772,-2.908641966,-7.811873595000001,-3.402100245333333
422,1.172175333333295,18.13338979,7.753281434333332,-127.09150693333333,-1.5966303743333332,0.269604951,10.027014732,-0.8932793936666666,-8.586528620333333,-3.6427672706666665
423,1.1749529999998838,18.10405922,7.71483771,-127.12266796666665,-1.4327858486666667,-0.10682925566666668,8.994417508333333,-3.245520194333334,-6.118942499,-2.49963363
424,1.177730666666624,18.083923340000002,7.68258969,-127.16377766666666,-1.8473160663333335,0.3002563366666667,13.29438273,-2.0089502036666667,-5.815550009333333,-3.986984014333333
425,1.1805083333332125,18.08118884,7.638636271,-127.19383493333332,-1.2166275183333333,0.33553245633333334,9.505320232333334,-0.037273049333333454,-6.703754425666666,-2.146571278666667
426,1.1832859999999528,18.065632503333333,7.603064537333334,-127.21830240000001,-1.5485663416666666,0.10451707233333334,6.947413603333334,-1.7207813856666665,-5.585474014333333,-1.9990202586666665
427,1.1860636666665414,18.051635743333332,7.571575800333332,-127.2444636,-0.5795890686666666,0.027532517666666683,12.823753673333334,-1.4863811533333333,-5.138889869,-2.193782329333333
428,1.1888413333332817,18.066392263333334,7.5307283400000005,-127.26739503333334,-2.1960353853333334,0.40753080933333335,10.064332323666667,1.8882900080000002,-6.119087219,-1.598780731333333
429,1.1916189999998703,18.07157580333333,7.487430254666667,-127.29434713333335,-0.9344161153333334,0.5447963376666667,6.915633837333334,0.8308490616666666,-6.520403067,-1.8598668573333335
430,1.1943966666666106,18.080846150000003,7.4696262676666665,-127.31728873333333,-1.898915549,-0.024998218,11.793970743333333,1.222072137,-3.5090479056666672,-2.516581456
431,1.197174333333199,18.099004743333335,7.431430817,-127.34200033333333,-0.8880558610000001,0.4500868123333333,9.674312591000001,2.3364239533333335,-5.869557559333334,-1.8398834466666667
432,1.1999519999999393,18.118951796666668,7.394763787666666,-127.36735793333334,-1.260227124,0.28466973700000003,8.304859797,2.5639552673333337,-5.753461043000001,-2.0772034723333337
433,1.2027296666665281,18.138648986666666,7.378339290666666,-127.38540139999999,-1.3255370456666666,0.29090547033333336,10.862914087666667,2.420391678666667,-3.129927476,-1.8616042933333334
434,1.2055073333332682,18.152362823333334,7.358635584666668,-127.40309143333332,-1.6678863763333334,-0.3913604713333334,11.055484454,1.650547127,-3.533419728333333,-1.8568614520000002
435,1.2082849999998564,18.179582593333333,7.341286818666667,-127.4244003,-2.0195204416666663,0.23593220099999998,11.470659256,3.397348563,-3.3440708716666663,-2.1366969346666664
436,1.211062666666597,18.198808036666666,7.347647031,-127.4358317,-1.7147655186666668,0.11774476366666668,7.329921881333334,2.237279574,-0.3232601879999999,-2.0918932160000003
437,1.2138403333333374,18.199767429999998,7.332238356333334,-127.44909413333335,-0.2751605113333333,0.28764897066666667,9.110426267000001,0.09886224066666649,-2.8490714429999997,-1.383702417
438,1.2166179999999258,18.218992233333335,7.340014934666667,-127.4749705,-1.6178433396666667,0.20551890633333328,12.456976253333332,2.4354145723333334,-0.6952942193333334,-3.7757818699999994
439,1.219395666666666,18.238408406666668,7.332094669666667,-127.48617046666665,-0.9079007606666667,0.185785403,5.898814678333333,2.2887685696666664,-1.9060321846666666,-1.3927740256666665
440,1.2221733333332547,18.243446986666665,7.336647669333334,-127.51128386666669,-1.3486686350000001,0.265028467,12.043011663333333,0.7297709186666665,-1.0346315799999999,-3.555529197333333
441,1.2249509999999948,18.249649686666668,7.350124677,-127.53011576666667,-1.6748755573333334,0.18017401799999996,12.214618363,0.7765211463333334,0.24833005666666663,-3.078130881
442,1.2277286666665839,18.26578903333333,7.344530582333334,-127.55434419999999,-1.5254872043333334,0.10526198133333331,8.722728093666667,2.0809900513333335,-2.1739909253333334,-3.1092393596666668
443,1.2305063333333237,18.27275785,7.331980387333334,-127.5678482,-0.6435090896666668,0.22972720866666665,8.822754225,0.847728729,-2.5332776906666665,-1.5085547663333332
444,1.2332839999999123,18.257305783333333,7.330336093666666,-127.59459176666667,-0.9770125296666666,0.0023337849999999958,9.123927752333332,-1.734617511333333,-1.8131892446666666,-3.560071468333333
445,1.2360616666666526,18.26658439666667,7.296497504,-127.61400350000001,-1.0982800873333334,0.05061883700000003,12.25662708,1.2050135533333333,-5.179600159333333,-1.3843983113333334
446,1.2388393333332413,18.263906476666666,7.2841345466666665,-127.64039103333334,-1.8580695886666667,0.6527172526666667,7.697293758333333,-0.1873253186666668,-3.0248704753333335,-3.1126847266666666
447,1.2416169999999813,18.251114526666665,7.2599188486666675,-127.65810396666666,-1.0165539583333334,-0.022056624666666653,9.23336665,-1.4675120910000004,-4.0320137339999995,-1.5969879230000001
448,1.24439466666657,18.23422877,7.248190403,-127.67759706666668,-1.4608304303333333,0.19925038633333333,12.309163093333334,-2.0065210063333336,-2.7030918196666662,-2.3851464986666664
449,1.24717233333331,18.219947180000002,7.233376821,-127.6958364,-1.4942486683333334,0.21704732599999998,9.495082539666667,-1.6587180296666666,-2.976788203,-2.015827457
450,1.2499499999998989,18.212087630000003,7.221124013333333,-127.71304576666667,-0.9558830060000001,0.20722289900000002,9.412011462666667,-0.9025817016666666,-2.668905417,-2.056063175333333
451,1.252727666666639,18.178794226666664,7.216716448666666,-127.73328653333334,-1.391490240666667,0.19568587499999998,8.696334203333333,-3.947076797333333,-1.8533733883333332,-2.6144876480000003
452,1.2555053333332278,18.16315905,7.223838964999999,-127.75962066666666,-1.9347624383333333,0.6204848686666667,13.617778459999998,-1.7466474173333335,-0.7732297233333334,-3.7613349756666667
453,1.258282999999968,18.155635200000003,7.233022689999999,-127.77186329999999,-1.6791840396666666,0.17567328633333332,8.396675745666666,-0.9486573543333332,0.015633165666666837,-2.140585949
454,1.2610606666665565,18.146256126666668,7.2348817190000005,-127.78306326666666,-0.3957165083333333,0.8748551806666667,7.318292299666666,-1.2086460563333332,-0.8229044676666666,-1.8794828256666667
455,1.2638383333332965,18.12771352,7.251268386666666,-127.79483286666668,-1.1315348746666667,0.16161070266666666,10.527207373333333,-2.303991775,0.8524715503333332,-2.3831272523333333
456,1.2666159999998854,18.115095140000005,7.247066020999999,-127.79708863333333,-1.0610253066666666,-0.5687171323333334,11.353734336666667,-1.7912716766666665,-1.1338181696666667,-0.5122249126666666
457,1.2693936666666257,18.11471875333333,7.261716365999999,-127.81558733333334,-2.2045912343333334,1.418123722,12.819217046666665,0.05362764000000005,0.33278433466666674,-3.276615699
458,1.272171333333214,18.10765075666667,7.2665869396666665,-127.81425220000001,-1.176284487,-0.24816781300000001,5.448979377666667,-1.1068251926666666,-0.03158237533333338,-0.6259649646666667
459,1.2749489999999544,18.09385872,7.272528489333332,-127.83121236666666,-1.070011278,0.33674108966666666,9.464827538,-1.636830648,-0.5478373120000001,-2.622940341666667
460,1.277726666666543,18.069634756666662,7.293324947333335,-127.82571156666666,-1.294136266,0.4493132733333333,9.123681386333333,-3.260845740666667,1.9494140346666669,-0.7394529780000001
461,1.2805043333332833,18.057039256666666,7.298309962,-127.83540346666666,-1.1179480899999998,-0.17358329399999997,11.909458800000001,-1.5952672960000003,-0.40019251899999997,-1.7986570993333333
462,1.2832819999998721,18.043626153333335,7.325800101000001,-127.82944743333333,-2.0171354213333337,0.8124047916666667,8.825159073,-1.9806509016666667,2.7330176036666667,-0.9267231226666667
463,1.2860596666666122,18.01747195,7.349670250999999,-127.82644396666667,-1.5743196210000001,0.254556477,7.606062253,-3.399811645333333,2.2309145129999997,-1.0347425016666667
464,1.2888373333332004,17.984808606666668,7.383003711666667,-127.81289416666668,-1.4173463780000002,0.142176072,11.725682893666667,-4.389955997333334,3.6780463456666666,-0.27186523433333337
465,1.291614999999941,17.95685577,7.419689973333334,-127.81091816666667,-0.7409687436666669,0.2983194986666666,10.746046700666668,-3.6332384349999995,3.6587587989999997,-1.6317634779999999
466,1.2943926666665295,17.948044460000002,7.444316704999999,-127.79810586666667,-1.1783185006666665,0.4426228366666667,9.309686978666667,-1.500640154,2.6475856303333334,-0.057435592
467,1.2971703333332698,17.919345853333336,7.483467419666667,-127.79419963333333,-1.647342642,1.0328922470000002,6.241194089333334,-3.7671115003333333,4.021414121333334,-1.479858428
468,1.2999479999998584,17.89185587333333,7.522937775,-127.78517406666667,-0.9586005906666667,0.4921063383333333,10.996033034333335,-3.682708084666667,4.214194943666667,-0.9933840833333334
469,1.3027256666665987,17.855254490000004,7.551804383666667,-127.77482860000002,-0.8233314256666665,-0.4176534216666667,10.896644910333334,-4.828420241333333,3.0861569046666664,-0.3554187613333333
470,1.3055033333331874,17.847276686666664,7.581549962333334,-127.77835083333333,-1.1095784803333333,1.31402115,11.8391997,-1.1519110203333336,2.6418783863333335,-2.0742622306666667
471,1.3082809999999279,17.830837250000002,7.604166349000001,-127.76666516666667,-1.4929536380000001,0.32118598633333334,5.640834013333333,-2.398380406333333,2.4135908486666664,0.01362253700000001
472,1.3110586666666677,17.811628340000002,7.627462545999999,-127.77166493333334,-1.3355615933333336,0.11151928700000001,10.20572694,-2.4782583913333336,1.8505475123333335,-2.004207213666666
473,1.3138363333332563,17.77624321,7.656639258333333,-127.76556903333335,-0.8779999413333335,0.753608957,9.025068600666666,-4.612193187,2.953167557666667,-0.8959945303333333
474,1.3166139999999966,17.761758166666667,7.654247760666666,-127.77293396666664,-0.43299619366666664,0.26096008200000004,11.730127333666667,-1.865962704,-1.172338128,-1.3370501993333332
475,1.3193916666665852,17.739538193333335,7.659765243666667,-127.77092233333333,-1.7425049143333335,0.5699930686666667,7.680472214999999,-2.946302871,0.0958655180000001,-0.4960879633333333
476,1.3221693333333253,17.72921753,7.667122840666667,-127.77453866666667,-1.203206668,0.6234749133333333,10.045448940666667,-1.4201043943333334,0.08662752300000005,-1.2378975553333333
477,1.324946999999914,17.69748179,7.668102582333333,-127.76833343333334,-1.4845307473333333,0.17528538866666665,10.487701418333332,-4.165899316333333,-0.27190363400000006,0.1399134993333333
478,1.327724666666654,17.687796276666663,7.662413279333333,-127.7803955,-0.36306315666666666,0.798047816,11.640348752333333,-1.2235363723333332,-1.7143311500000002,-1.7442184686666666
479,1.330502333333243,17.67626317666667,7.643035412000001,-127.77678936666668,-1.1558669703333333,0.21483349800000004,6.112819195,-1.686906539,-2.683061177666667,0.6233138640000001
480,1.3332799999999831,17.66958999666667,7.623749573999999,-127.79079183333333,-1.2648637296666667,0.8793252109999999,10.787982938666666,-0.8313014906666667,-3.341466844333333,-1.4726519189999998
481,1.3360576666665718,17.642116546666667,7.621340910666667,-127.79103086666667,-1.5659497776666667,0.550898255,9.167257787666669,-3.579529572333333,-0.8709610800000002,-0.41873713333333323
482,1.3388353333333118,17.64236069,7.589338143666666,-127.80258433333334,-0.5655958056666667,0.4214304686666666,13.298276263666667,-0.026937583999999976,-4.701749523666667,-0.7106712213333334
483,1.3416129999999005,17.629040399999997,7.568345387666667,-127.8173701,-1.8515826063333334,0.4949253,6.644049167666666,-1.6307094096666666,-3.5098163286666675,-1.343744179
484,1.3443906666666408,17.63737488,7.543294747666667,-127.82431539999999,-0.9313246356666666,0.9319024086666667,9.155990599666668,0.8797165753333335,-3.742320696666667,-0.44462889299999997
485,1.3471683333332294,17.61821747,7.516302267666667,-127.83844503333334,-1.2859242756666667,0.32429002733333334,9.369279703333333,-2.3684243856666667,-4.168183637333334,-1.0511826673333333
486,1.3499459999999697,17.641537983333333,7.506451924666667,-127.84972126666666,-1.5967741233333335,1.1919430296666667,13.43387063,2.7039713859999996,-2.1579693656666668,-1.502548138
487,1.3527236666665583,17.650673549999997,7.4639091493333325,-127.869634,-0.7029309869999999,0.25006399166666665,6.411669254333333,1.175215284,-6.164800086666666,-1.1420063773333333
488,1.3555013333332984,17.675762813333332,7.444906234666667,-127.87863156666667,-1.2701201166666667,0.9741986196666667,10.243313633,2.874732574,-3.127822558,-0.928545912
489,1.358278999999887,17.68344498,7.408943494000002,-127.9023234,-0.6923022940000001,0.5285812666666666,9.763377826666668,1.0382131933333334,-5.538882176333334,-1.7813121873333333
490,1.3610566666666273,17.718352,7.388900120999999,-127.89965820000002,-2.1967809993333334,0.46417346566666656,12.636197726666666,3.8550194896666667,-2.8314058776666666,0.4077999590000001
491,1.363834333333216,17.741935093333332,7.352526823666667,-127.92282356666665,-1.5366130023333333,-0.08243998866666667,9.009625751666666,2.966965079,-5.579839625999999,-1.7252811786666669
492,1.3666119999999562,17.76916949,7.345664819,-127.91381326666665,-1.2241374850000002,1.2720233749999998,6.536135991333334,2.8573402963333336,-1.0902315256666668,0.6624225066666666
493,1.3693896666665448,17.77744484333333,7.301978747,-127.93803916666667,0.051955054,0.03371284166666666,10.033123814,1.120870511,-6.4543518613333335,-1.5814742046666668
494,1.3721673333332849,17.79597155,7.297416686999999,-127.93304193333331,-2.2406853436666663,0.338968059,11.565632502333335,1.8350850029999999,-0.9675046603333333,0.12217990500000002
495,1.3749449999998735,17.819180173333333,7.259198189,-127.95372263333333,-0.9570551513333333,0.44599023466666665,10.638413428666667,2.8811019509999998,-5.707274396,-1.3837834203333335
496,1.3777226666666138,17.815845493333335,7.258273760666666,-127.95155079999999,-2.4593501886666664,0.5356902283333334,7.653747558666667,-0.7258006730000001,-0.6491074463333334,-0.305065535
497,1.3805003333332024,17.81140391,7.238514423333332,-127.9619039,-0.21384789566666665,-0.3506888673333333,10.845276675666668,-0.587953329,-3.231718301666666,-0.9161614773333332
498,1.3832779999999427,17.791363399999998,7.229642867666667,-127.95336149999999,-1.8005892636666667,0.9222564496666669,8.557442822333334,-2.8412379,-1.3277308146666664,0.6941842043333333
499,1.3860556666665313,17.79216194,7.217916329666667,-127.95955656666668,-1.0746088026666667,0.6609432696666667,10.674450559,-0.04774077733333323,-2.1531624,-0.7234099506666668
500,1.3888333333332719,17.769646963333333,7.222309589666668,-127.9540736,-1.6796527306666666,0.21412410333333332,6.215036313,-3.0794502893333333,0.07476345666666677,-0.14443870133333334
501,1.39161099999986,17.74717013,7.214050134,-127.95040130000001,-0.9313265880000001,0.3139777826666667,13.850867749,-2.9836357679999996,-1.4206680006666668,0.20332578833333326
502,1.3943886666666003,17.70520083,7.219384511333334,-127.95267233333334,-1.6304664906666668,0.319689254,9.628042061666667,-5.291089773333334,-0.10211543266666662,-1.0631657443333336
503,1.397166333333189,17.693470003333335,7.206482887333333,-127.94732920000001,-0.24127427733333331,0.806403935,9.678852238666666,-1.704520424,-1.88168629,0.5982289563333333
504,1.3999439999999295,17.645196913333333,7.188193321,-127.95794166666667,-1.603082448,0.39606601,5.950535137999999,-5.906830628666667,-3.1011286580000004,-1.1300147373333334
505,1.4027216666666693,17.614076613333335,7.196503639333334,-127.94138846666665,-1.4787339716666665,0.6640843203333333,13.248001733333334,-4.248953640666667,0.9539893469999999,1.0930533213333333
506,1.405499333333258,17.562400183333335,7.149388631333333,-127.94576773333334,-0.45110539566666663,0.033384700666666656,10.311252593999999,-6.3823336746666675,-6.174858411333333,0.6329534266666667
507,1.4082769999999982,17.52977561666667,7.149211088666667,-127.93981933333335,-1.3198730650000001,1.15397197,9.319246608666667,-4.3007196976666675,-0.4064381916666666,0.15884668300000002
508,1.4110546666665869,17.476221083333332,7.087105592333333,-127.95032243333333,-0.2506011673333333,0.07282269233333331,6.841841220666666,-6.477849483666667,-8.111777941,0.4906535633333333
509,1.4138323333333271,17.416541416666664,7.072249571666666,-127.94081876666667,-2.4336629706666666,1.082676967,10.809638658666666,-7.632359822666667,-1.9641847623333328,1.0583845776666667
510,1.4166099999999158,17.36252276,7.026433626666666,-127.95244853333334,-1.3111880423333335,0.18124597266666667,14.279310226666666,-6.528036275000001,-6.252466518666666,-0.12364421266666666
511,1.4193876666666558,17.305386223333333,7.001776694999999,-127.95071153333333,-1.5595803956666667,0.4664368033333333,6.224428812666666,-7.191710074666666,-3.349741281333333,0.5904936393333333
512,1.4221653333332445,17.259742103333334,6.958205382,-127.96099343333334,-0.6025400406666667,1.2449103193333333,8.163957833,-5.540069024,-5.973329861666667,-0.1401226323333334
513,1.4249429999999847,17.1921285,6.942725499666667,-127.96089426666667,-1.619323452333333,0.8462899890000001,7.120565333666666,-8.433239301666667,-2.345777372333333,0.1013084949999999
514,1.4277206666665734,17.148876826666665,6.914156436666667,-127.9635773,-1.142527004,0.3386284756666666,15.628488543333333,-5.398844798333333,-3.995193560666667,0.13634886333333332
515,1.4304983333333137,17.089892066666668,6.898473103666667,-127.97616833333332,-2.064664840666666,0.7339814603333333,8.474533794666668,-7.188682397333333,-2.8082381883333336,-1.294757092
516,1.4332759999999023,17.055388770000004,6.869607448333333,-127.97327676666667,-0.018373360333333297,0.9954819083333334,10.046632764666667,-4.421239416,-3.836748559,0.7740238506666667
517,1.4360536666666424,16.991328556666666,6.8292520843333335,-127.99278766666664,-1.7867903513333332,0.5263210883333334,5.764975786333333,-7.67295901,-5.884376288666666,-1.2283734283333334
518,1.438831333333231,16.95588239,6.826170762666667,-127.98534136666666,-1.579628944666667,1.1364636223333333,13.830167133333333,-4.646456718333334,-0.7102782926666666,0.38908018666666666
519,1.4416089999999713,16.88930448,6.777673720999999,-128.0061798,-0.8300225336666668,-0.145426271,8.835557142666666,-7.943556308666667,-6.866955439333334,-1.1005156436666665
520,1.44438666666656,16.852300006666667,6.781127294,-128.0097351,-1.594441354,1.1972735126666667,9.368054707999999,-4.690943768,-0.3489513596666667,-1.1255064703333335
521,1.4471643333333002,16.786308289999997,6.736393769333333,-128.02961476666667,-0.37383011466666666,0.18596450466666667,5.980544646666666,-7.8723737400000005,-6.399756172,-1.1232013753333332
522,1.4499419999998888,16.720602036666666,6.747594039,-128.0230738666667,-2.897344589333333,0.6687966486666667,11.835798263333333,-8.275901317666667,0.8847496506666666,-0.2562192133333333
523,1.4527196666666289,16.623189926666665,6.742515405,-128.04370623333332,-0.8428431746666666,-0.13538734133333333,9.979413035333334,-11.642097948333335,-1.8642767666666666,-2.594056447333333
524,1.4554973333332175,16.528441113333333,6.742479324333334,-128.04028063333334,-1.5484506883333333,0.534626613,11.299981434666668,-11.687772750666667,-0.5122034053333333,-0.198313991
525,1.4582749999999578,16.418366116666665,6.754364967666667,-128.0605825,-1.0003520746666668,0.5074627026666666,6.977976322,-13.209339140333332,0.1138424873333334,-3.137138048666667
526,1.4610526666665464,16.318081856666666,6.762588342,-128.05323533333333,-1.4662476379999998,0.44786774100000004,8.341078121333334,-12.393620173333334,0.5772680936666666,-0.002476056666666615
527,1.4638303333332867,16.168482463333333,6.794592062666666,-128.07561239999998,-2.006828506666667,0.6375610953333333,8.703237215666666,-17.93657875,2.356027966,-4.108848810333334
528,1.4666079999998753,16.022203763333334,6.821098645666666,-128.07704673333333,-0.8463303896666666,0.11511782833333334,11.656360147666666,-17.773979186666665,2.3957859676666664,-1.5964464146666666
529,1.4693856666666154,15.84564527,6.841693401333334,-128.09233093333333,-0.9906167386666667,0.07049235666666664,10.186692236666666,-21.246367773333333,1.2850153119999999,-2.9103156823333336
530,1.472163333333204,15.680027009999998,6.875800132666666,-128.10439553333333,-1.8179648716666668,0.6880244166666666,11.079138756,-19.948417346666666,2.9273843243333335,-3.083938320666667
531,1.4749409999999443,15.474529266666666,6.912957032666667,-128.11621096666667,-0.978010416,0.16084275633333336,5.2786576746666665,-24.770558039999997,3.3276194780000004,-3.034092903
532,1.477718666666533,15.26187134,6.9430082639999995,-128.12623596666666,-1.1806105436666667,0.62621209,10.704928079666667,-25.63959121666667,2.549270908,-2.666989883
533,1.4804963333332735,15.019396146666667,6.985348383666666,-128.13473000000002,-1.1150869923333333,0.34701218233333336,9.997028352333333,-29.26551374,4.070758183666666,-2.7187906106666664
534,1.4832739999998619,14.778795243333334,7.004092375666666,-128.15068566666665,-0.8000753916666666,-0.33921885999999996,12.285901706666666,-28.88997078,1.0817797183333333,-2.9390521053333334
535,1.486051666666602,14.502081553333333,7.046006043999999,-128.17306010000001,-2.1532607873333336,0.15100923933333335,6.568109670333334,-33.16720009,3.6180524826666667,-4.279912392333333
536,1.4888293333331906,14.201162973333334,7.081315835333332,-128.19993593333334,-1.2114064493333334,-0.24583566166666668,7.456509908666667,-35.97209167333333,2.6976132593333335,-4.742737293333334
537,1.4916069999999308,13.843547503333333,7.127610683333333,-128.2271474,-1.2130131523333334,-0.061758734,9.894916377333333,-42.77681732,4.014035066,-4.970902999333333
538,1.4943846666666711,13.454647379999999,7.191208998333333,-128.27662656666666,-1.2798370323333332,-1.3087800343333333,12.845875423333332,-46.219450630000004,5.415257454,-8.126328468333332
539,1.4971623333332598,13.02921009,7.231222471,-128.31466676666665,-1.0980215983333335,-0.8260099739999999,8.885596912666665,-50.70726394666667,3.063173294,-5.897443771333333
540,1.4999399999999998,12.532505353333335,7.307543436666666,-128.37167103333334,-2.256652435,-0.19580038366666666,4.8554150263333336,-59.042907713333335,6.818927843333333,-9.263784568333334
541,1.5027176666665885,11.982510246666665,7.394130548,-128.40747580000001,-1.3341899863333333,-1.0039274493333332,10.349299747666667,-65.70172246666667,8.668229103333333,-6.821960449
542,1.5054953333333287,11.379890123333332,7.484424432333333,-128.45639036666668,-1.3832484879999998,-0.9139968953333334,14.28459422,-71.84575144666667,8.817866803666666,-8.504528522333333
543,1.5082729999999174,10.74345271,7.582524776333333,-128.49446613333333,-1.9480669099999999,-0.5982451736666667,7.719778061666667,-76.02452850333333,10.111501217333334,-7.134447733666668
544,1.5110506666666577,10.069967587666666,7.687351067666666,-128.53497316666667,-1.2318424383333333,0.29028942166666666,4.621161898,-80.43310547,10.893507322666666,-7.613256295666666
545,1.5138283333332463,9.351027806666666,7.817291736333334,-128.56604003333334,-1.4229468306666666,0.3792253036666667,9.464694977999999,-86.06673431333333,14.170991897666667,-6.7230769793333325
546,1.5166059999999864,8.614859899,7.9457004866666665,-128.60192873333332,-2.003253857666667,-0.39112838099999997,14.196448643333333,-88.01693979666668,13.952445346666666,-7.225071112333334
547,1.519383666666575,7.859553019333333,8.070741653333334,-128.62474313333334,-0.9890796443333333,-0.0904889503333333,10.977452598333334,-90.48179626333335,13.86269474,-5.425826549333333
548,1.5221613333333153,7.088355064333334,8.204144319,-128.66651153333333,-0.9125480056666667,1.0860273763333332,5.524255037333333,-92.12092336,14.627323783333333,-7.622002283666667
549,1.524938999999904,6.298668861,8.331234773,-128.70110830000002,-0.7102610420000001,0.24090959633333334,7.825881481000001,-94.40718587333333,14.079383213333331,-6.4850039483333335
550,1.5277166666666442,5.481423378,8.456084092333334,-128.74411263333334,-1.9606102706666668,0.5396844746666668,11.807676949666666,-97.58643087,13.780157406666666,-7.237180391999999
551,1.5304943333332328,4.662959098999999,8.572392305,-128.79940796666668,-0.7477438253333334,0.08444855866666669,12.517689066666668,-97.46393331333333,12.735652606666667,-8.420492808
552,1.5332719999999729,3.8433196546666664,8.667953809000002,-128.84564206666667,-0.6306949706666667,0.3144402703333334,8.863737423333333,-97.79516857333334,10.438822905,-6.932217916
553,1.5360496666665615,3.025718768333333,8.769648551666668,-128.91546886666666,-1.14735577,1.461970647,8.647776444333333,-97.10615284333333,11.107105253333335,-9.647709210666667
554,1.5388273333333018,2.1925080616666666,8.859708945,-128.96620176666667,-0.9833877086666666,-0.09884519366666662,8.342909335333333,-99.29761251000001,9.943024635333332,-7.084882895
555,1.5416049999998904,1.3429408470000002,8.925132592666667,-129.04161073333333,-1.2115821043333332,0.46318224066666663,8.149657408333333,-100.80668131666665,6.9893613053333326,-9.782454807333332
556,1.5443826666666307,0.49746021600000007,8.987647374666667,-129.10477193333335,-0.5450947656666667,0.7140379446666666,10.684198060333335,-100.54765318666666,6.815536181333333,-8.212869643333333
557,1.5471603333332193,-0.34661952133333335,9.036375522333332,-129.1774699,-1.3615153629999999,0.30337097,12.217040696666666,-100.16896310999999,5.259088437,-9.32309246
558,1.5499379999999594,-1.1882210573333334,9.084459463666667,-129.25230663333335,-0.7295213539999997,0.9475426669999999,13.25332133,-99.85521953333334,5.326655227666667,-9.339635848999999
559,1.552715666666548,-2.0427609283333332,9.093431791666667,-129.31495156666668,-0.6446764616666666,0.49589629963333337,5.819903612,-101.59520468333334,0.7160960236666667,-8.034204325333333
560,1.5554933333332883,-2.8853082653333337,9.112219016,-129.39874776666667,-1.5004812176666666,1.7677310903333332,7.446327287666667,-99.80451458,2.1208262843333334,-10.400142351
561,1.558270999999877,-3.7245168686666665,9.119105816333333,-129.45976766666666,-0.39625234400000003,0.10064358766666666,8.853557588333333,-99.76763154000001,0.6849262393333334,-7.794937292666667
562,1.5610486666666175,-4.564409256,9.109899681666667,-129.53614296666666,-1.4395635126666668,0.8286996456666667,11.540802636666667,-99.62551116999998,-1.0111233393333334,-9.673261961000001
563,1.5638263333332059,-5.407636642333333,9.083914281666667,-129.59672543333335,-0.768374875,0.44264538066666664,11.136691887666666,-100.29104105,-3.0312927960000002,-7.993348757333333
564,1.566603999999946,-6.257804076,9.049981434666668,-129.65796406666666,-1.2234448193333334,0.42024029799999996,10.024177391,-101.14261373,-3.877050518666666,-8.208278657
565,1.5693816666665346,-7.107462088333333,9.020154158333334,-129.7215983,-0.6330113806666666,0.7224938073333332,11.413224536666666,-101.03146617333334,-3.2207146289999997,-8.432176112333332
566,1.5721593333332748,-7.9777452150000014,8.961958090666668,-129.7693227,-0.5960403679999999,0.5111287953333333,9.819978394666666,-103.826917,-6.7454063096666665,-7.029966672333333
567,1.5749369999998635,-8.852529843666666,8.904847463000001,-129.8406245,-1.4452750090000002,1.1560053826666665,9.264321485333333,-103.94642636666667,-6.090047935333334,-9.856546401333334
568,1.5777146666666038,-9.715891520000001,8.832890192333332,-129.87401583333335,-0.6205461226666666,0.27097139266666664,7.472211202,-103.24255623333333,-8.445524215333334,-5.786331812666667
569,1.5804923333331924,-10.58137417,8.769448439333333,-129.94662986666665,-1.3717781106666667,1.1858405669999998,9.138403574333333,-102.83314513333335,-6.550224145333334,-10.204291026666667
570,1.5832699999999325,-11.435223896666665,8.680488586666668,-129.98195139999999,-0.0011256933333333812,0.46913343166666666,11.357415359333336,-102.0893987,-10.225566705666667,-6.641478856333333
571,1.5860476666665215,-12.292092323333334,8.604986349666666,-130.04622143333333,-2.552482485666667,0.6340810610000001,11.212479273333335,-101.98710887666665,-7.8834233283333335,-9.699102878333333
572,1.5888253333332614,-13.13393879,8.513005574666666,-130.08168536666668,-0.12736017533333335,0.7543228270000001,10.724625269333332,-100.67024233000001,-10.392971037666667,-6.977641740333333
573,1.5916030000000017,-13.969434419999999,8.428250313,-130.13001763333332,-1.5477923550000001,1.6868304806666667,9.08781306,-99.73198448333335,-9.158127307333332,-8.233776648333334
574,1.5943806666665903,-14.775672909999999,8.324232578333334,-130.16614786666665,0.013784626999999975,0.977796773,8.736779373333333,-96.41929118,-11.567280452666665,-7.701171953333333
575,1.5971583333333303,-15.563273113333333,8.239778836666666,-130.19109596666667,-2.313129266333333,1.6887185376666667,12.483457246666665,-94.37381744333334,-9.628578505333333,-5.784910718666667
576,1.599935999999919,-16.327789623333334,8.140707969333333,-130.23371633333332,-0.46870144200000013,1.3603767553333335,10.068165462333333,-91.3347524,-10.573231538666667,-8.600184758
577,1.6027136666666593,-17.06339709,8.039793968333333,-130.23569236666665,-1.9721544979999999,1.5988733569999998,11.634777390000002,-88.54282888,-12.166365623333334,-3.9420503376666667
578,1.605491333333248,-17.771642046666667,7.942118644333334,-130.27934013333333,-0.18225031099999991,1.0038206776666667,8.440515518,-84.58817291000001,-10.165408453333333,-8.921103319
579,1.6082689999999882,-18.44606081666667,7.845585823333333,-130.26730856666669,-2.6092336973333334,1.4174701470000002,11.690329553333333,-81.38728078000001,-12.024362246666668,-2.694343030666667
580,1.6110466666665768,-19.107414883333334,7.753743171666666,-130.31975553333334,0.2881501913333331,2.0269665916666666,8.482111454333333,-78.83251953333333,-8.964601437666667,-9.907962640333333
581,1.6138243333333169,-19.724253336666667,7.646639347,-130.2992452,-2.075375398333333,1.303053498,10.588595390000002,-74.65226237,-13.583883603333334,-2.172068069333333
582,1.6166019999999055,-20.316272100000003,7.558879057666666,-130.34922536666667,0.18612197033333336,2.503201485,9.055256206000001,-70.58214314666667,-8.417214393666667,-9.593057951
583,1.6193796666666458,-20.870536166666668,7.467339356666667,-130.32704163333332,-3.1592260796666665,0.758853396,12.39873314,-67.15657297666667,-11.865932465333332,-1.597211915
584,1.6221573333332344,-21.398792266666664,7.4027045566666665,-130.37914276666666,-0.3667361386666667,1.8665756583333335,11.868686676666664,-62.90679677333333,-5.554620741666667,-8.996183236333334
585,1.6249349999999747,-21.88654518,7.319853305999999,-130.3442408,-2.3985260326666666,1.7172176936666668,10.459051449333332,-59.34207026333333,-11.317366600999998,-0.284481025
586,1.6277126666665633,-22.346467973333333,7.265948136666666,-130.39340973333333,0.28891386599999996,1.4285900543333332,10.305722235,-54.76695251333334,-4.341620569333333,-8.283640383333333
587,1.6304903333333034,-22.775381086666666,7.192394256666667,-130.36734516666667,-2.796711643666667,1.3763715426666667,10.142750738333332,-52.18104680333334,-9.997598172666667,-0.7270618029999999
588,1.633267999999892,-23.171178183333335,7.150812467000001,-130.42622883333334,-0.015393316666666657,2.404374679,12.744286853333334,-46.946801503333326,-2.419158458666667,-8.806195578
589,1.6360456666666323,-23.530543643333335,7.094190120666667,-130.41321053333334,-3.675291777,1.07601276,10.681060631666668,-43.62304941666667,-7.509283064333334,-1.4841766756666666
590,1.638823333333221,-23.84861946,7.066574097,-130.47268933333334,1.1570340793333334,2.252577662333333,10.220194976333334,-37.621348063333336,-0.7553436759999999,-8.208899815999999
591,1.6416009999999615,-24.14388339,7.017429351666667,-130.45944466666666,-3.1983861526666666,1.7819401026666668,8.104236603000002,-35.94034703666667,-6.6842441546666675,-1.1790118093333333
592,1.6443786666665499,-24.395021439999997,6.991182963333333,-130.51098123333333,1.9964169663333333,1.475487013666667,11.809284843999999,-29.721080143333335,-0.9167553386666665,-7.275571664333332
593,1.64715633333329,-24.626133600000003,6.9528875349999995,-130.51125843333332,-4.927445411666667,1.442733079,9.509809812,-28.033166249999997,-4.809477329,-2.1949236793333333
594,1.6499339999998786,-24.815572736666667,6.937095960000001,-130.5598755,2.1690670253333333,1.4435289303333334,12.781641323333332,-22.357574463333332,0.13087081900000008,-6.440428893
595,1.6527116666666188,-24.99359703,6.906989574000001,-130.57380930000002,-5.519475778,1.5410657323333332,9.022370974666668,-21.472613016666667,-3.2306736306666664,-3.2633956076666664
596,1.6554893333332075,-25.12410418,6.902609348333333,-130.62196346666667,2.763833821,1.630531311333333,11.231444359,-15.281239506666667,1.3901916346666667,-5.827107747333333
597,1.6582669999999478,-25.24458122333333,6.886807759666667,-130.64352926666666,-5.493516445333333,1.4730504356666667,9.522335687,-14.476156553333334,-1.281292637333333,-3.3483828306666665
598,1.6610446666665364,-25.32281684666667,6.895328998666667,-130.68720753333335,3.0457317429999997,1.415630738,10.442296983,-9.067853927666667,2.5924897990000004,-4.698927720333333
599,1.6638223333332764,-25.394964216666665,6.903919856000001,-130.71847026666669,-5.474326292666667,1.5513753493333333,9.642423310333335,-8.545955341333332,1.8887299696666666,-3.1779242753333334
600,1.6665999999998655,-25.42454401666667,6.918992678333333,-130.76024883333332,2.4211158753333333,1.002568682,12.393707275333334,-3.2658452986666666,3.1995984713333336,-4.118462165333334
601,1.6693776666666054,-25.459086736666666,6.956525325666667,-130.80522413333333,-5.594100475333334,1.0073294836666669,9.139987309333334,-3.815671682666667,5.728453556000001,-3.1568864983333333
602,1.672155333333194,-25.45175234333333,6.994084199333333,-130.85071563333332,1.7939136226666665,0.8398297229999999,13.211990037000001,1.2282453376666667,5.845131554666668,-3.3943219186666664
603,1.6749329999999343,-25.463118873333332,7.060516198333333,-130.91430413333333,-5.270921230666667,1.4156451226666666,8.786529542,-0.7585740093333335,9.799846012333333,-3.635284582666667
604,1.677710666666523,-25.436587649999996,7.124104658666667,-130.97386423333333,1.4616650936666666,0.32076007866666667,13.046179138,3.7382700443333334,9.361771145666667,-3.516451518
605,1.680488333333263,-25.43524233333333,7.221669037999999,-131.03374483333334,-5.126621008,1.100606044,7.942027410666667,0.7395729273333332,13.007039706333336,-1.6852127713333331
606,1.6832660000000033,-25.406365713333333,7.316444397000001,-131.09811403333333,1.3349245786666668,0.47253341466666665,12.968045552000001,4.113475958333333,13.015645144666665,-2.4937688509999996
607,1.686043666666592,-25.40366808666667,7.433291753333333,-131.14672343333334,-4.197449565,0.24059928966666666,8.664796193333332,0.7494344513333333,14.502664883333333,0.5488315126666666
608,1.6888213333333322,-25.370607376666666,7.551725864666667,-131.22533416666667,0.6756954063333332,1.223540465,13.404155731000001,4.844763199666667,16.288047156,-2.7703092099999993
609,1.6915989999999208,-25.36640994,7.687947591333334,-131.2570190333333,-3.2904410343333335,0.05901670466666664,7.983915488,0.7115296916666667,15.751077653333333,3.3208134966666667
610,1.6943766666666609,-25.346275329999997,7.832776705666667,-131.35176083333332,-0.20858820300000014,1.0400377436666666,13.035983087333333,3.6132645606666665,19.978530246666665,-3.1731100479999994
611,1.6971543333332495,-25.351631796666666,7.984258175000001,-131.372584,-2.3105166953333334,-0.48537154099999996,6.957009314666666,-0.6146477459999999,16.843567213333333,5.292337735333334
612,1.6999319999999898,-25.35244115333333,8.148200989000001,-131.4759471,-0.45023614200000006,1.6910589933333335,11.738355636,1.3269248803333333,22.495322546666667,-3.134282668333334
613,1.7027096666665784,-25.362156553333335,8.303594748333333,-131.49459076666668,-2.564195911,-0.8520483516666667,8.739229043333333,-1.1936746836666667,17.171268780000002,5.706691543333334
614,1.7054873333333187,-25.381818133333336,8.474143504999999,-131.5894623,-0.28428139033333333,1.4352260826666665,13.067278546666666,-0.9674076240000001,22.769406003333334,-1.8647762933333334
615,1.7082649999999073,-25.39858373,8.625797112666667,-131.61722566666666,-1.5757267576666667,-0.4722248453333333,12.36719672,-1.9297723233333333,17.237639426666664,4.541239897333333
616,1.7110426666666474,-25.432536439999996,8.783600966333333,-131.69683836666667,-0.693927725,1.3337637783333331,11.842419305666667,-2.8694018526666665,20.597136339666665,-0.8471477826666666
617,1.713820333333236,-25.449398043333332,8.932523727333333,-131.73651886666667,-1.8212182126666665,-0.19339459133333334,13.16607348,-1.7139356929999998,17.56664594,3.1022570926666666
618,1.7165979999999763,-25.49376742,9.070509433666667,-131.79297383333335,-0.8328816096666669,0.26304407933333335,5.5625221730000005,-4.500555197333333,17.286074957,0.591194061
619,1.719375666666565,-25.524888353333335,9.215274491999999,-131.83267973333332,-1.4572223226666667,0.7617884476666666,13.455768349333333,-3.3763713039999996,17.116396266666666,2.8932696976666663
620,1.7221533333333054,-25.583670933333334,9.325404804666666,-131.87260183333333,-0.3335259756666666,0.6499760346666666,7.762454033666668,-6.582689205333334,13.409819286666666,0.9930724026666665
621,1.7249309999998939,-25.617785773333335,9.459193863666666,-131.91062163333334,-1.0198773146666669,0.06453777633333331,15.886890731333333,-3.6592805983333334,15.839838663333333,2.500636816333333
622,1.727708666666634,-25.64689445333333,9.528309822999999,-131.91829170000003,-0.6276059153333333,0.710358739,10.145095030333334,-3.7125449576666667,7.330966533666666,2.3176145553333334
623,1.7304863333332225,-25.677447639999997,9.643524648333333,-131.9548238333333,-1.5447714926666665,0.9198722839999999,9.188431104000001,-3.198172529666667,13.755574942,1.6903556983333334
624,1.7332639999999628,-25.684535343333334,9.690702122,-131.94050343333333,-0.29279045766666667,0.5642517903333334,11.532712459666667,-1.5496314366666668,3.818597713333333,3.561860402333334
625,1.7360416666665515,-25.70750745333333,9.778259595,-131.97402953333332,-1.6323106486666668,1.0913698276666668,9.602796712999998,-2.338644425,10.610897544,0.5753003556666666
626,1.7388193333332918,-25.678528466666666,9.826869013,-131.94562023333333,-0.07360438500000004,0.46168092899999996,15.138139564666668,2.550495107666667,3.2426983513333334,5.1344166
627,1.7415969999998804,-25.662681576666667,9.850715955333333,-131.961174,-2.6592084366666664,0.7960229816666667,8.258455436,1.8677644283333332,2.810056437666667,-0.8208252586666664
628,1.7443746666666204,-25.622158053333333,9.917186099666667,-131.94366963333331,-0.4557992023333333,1.3954744339999998,11.544181030666666,4.2318567436666665,5.7338072276666665,4.883499701666667
629,1.747152333333209,-25.564390816666663,9.911527316333334,-131.93713376666668,-1.431365351,-0.012849062999999994,13.121521633333332,6.379567146333333,-1.5040508906666663,-2.5729666666659174e-05
630,1.7499299999999494,-25.497566223333333,9.974846204333332,-131.92420703333332,-1.6111398936666668,0.9364632566666667,10.935532410666667,7.544511159,5.629118603333333,4.223967194666667
631,1.752707666666538,-25.40029335,9.969873429000002,-131.9096222,-1.3615865706666668,1.1139569183333333,11.098240137666666,10.906983378333331,-1.8526571573333335,0.9370628893333333
632,1.7554853333332783,-25.324178063333335,10.002615927333332,-131.87102763333334,-1.4511245886666668,-0.5430328226666666,7.464866322,8.098316986666667,1.0267838626666663,5.380561113
633,1.758262999999867,-25.224632263333334,10.026427268666666,-131.87860363333334,-1.4257391293333332,1.631773650666667,15.645291646333334,11.704016366333335,2.4011258286666664,0.014156149000000026
634,1.761040666666607,-25.122975033333333,10.041319528,-131.82462566666666,-1.353326201,-0.5516417723333333,8.390473365666667,10.776388487666665,-1.6558196743333333,6.101951599
635,1.7638183333331956,-25.02000491,10.082592647666667,-131.84484353333335,-1.6618356703333335,0.7305422426666667,9.804729937333335,12.445353188666667,4.934434295,-0.47704789999999986
636,1.7665959999999359,-24.913944243333333,10.080132804,-131.79533130000002,-0.5469050406666667,0.5177022619999999,8.79485051,11.309020678000001,-3.2891661326666664,4.752090772
637,1.7693736666665245,-24.833766300000004,10.129715917333334,-131.81671400000002,-1.9697599683333333,0.17888288733333332,12.280270893333332,9.832667510999999,5.891963960000001,-0.2120432253333334
638,1.7721513333332648,-24.72008133,10.126045229666667,-131.7812907,-0.8459372916666666,-0.6468149623333334,11.836455663333332,12.471382774666667,-2.7071816133333333,3.203219175333333
639,1.7749289999998534,-24.626726786666666,10.171247798333333,-131.79587556666664,-1.7477867106666665,2.016834139666667,6.567027728,11.217803318666666,5.077980677666667,0.28707593666666664
640,1.7777066666665935,-24.528344473333334,10.181941668333334,-131.76949820000002,-0.8442070283333333,-0.8630321373333333,14.275641442,10.896638552666666,-0.6849844456666664,2.9411718049999998
641,1.7804843333333338,-24.442982993333334,10.218871751666667,-131.77364856666665,-2.3279713790000005,-0.374843548,8.889099278333333,10.025472642666665,3.6685779890000005,0.9790016513333333
642,1.7832619999999224,-24.344310763333336,10.241832733,-131.75035096666667,-1.297255148333333,0.7016448576666666,13.177759489000001,10.972731271,0.8151558250000001,3.2260324856666664
643,1.7860396666666627,-24.288227716666665,10.265343030333334,-131.74650066666666,-1.066250563,-0.22580789999999998,7.854177316666667,6.3236174583333336,1.8186752796666668,1.166083753
644,1.7888173333332513,-24.19345919,10.290318169333332,-131.73951466666668,-1.5995741806666668,0.4228461783333333,14.883639333333335,10.908441861666667,1.8345812956666665,1.5523850916666666
645,1.7915949999999914,-24.11491648666667,10.286795301,-131.7204361,-0.9807262816666666,0.059825457333333366,6.204250176666666,8.633479278333333,-1.8735407986666666,1.487508436
646,1.79437266666658,-24.031816483333333,10.300333977,-131.70346833333335,-1.2135101359999998,0.2541615613333333,13.080444337333333,9.320978640666667,0.10149637833333336,2.0663775503333333
647,1.7971503333333203,-23.959545773333332,10.288095793333333,-131.67759703333334,-0.9189589816666666,0.28340719166666667,9.595815181666667,7.7457963633333335,-3.1428624390000004,1.7809234906666667
648,1.799927999999909,-23.86475690333333,10.287648834,-131.6634547,-1.6526658633333333,0.30589276566666673,10.352199235999999,10.747370402,-1.2831664086666665,1.0733561413333332
