,time,Euler_X,Euler_Y,Euler_Z,Acc_X,Acc_Y,Acc_Z,Gyr_X,Gyr_Y,Gyr_Z
0,0.0,-0.879398346,5.4374752045,15.266006449999992,-2.1460043195,0.9393455985,9.27945137,53.515501025,40.49641228,6.269473790999999
1,0.0083330000002206,-0.332321235,5.845463991,15.323997500000004,-2.681194067,0.8754820525,10.980955125,63.66860962,48.529281615,7.1473407745
2,0.0166659999999865,0.24242452150000002,6.3159155845,15.392356849999999,-1.7700492739999998,1.7179802655,9.7739267345,66.79779434,56.092864989999995,7.87513113
3,0.0249990000002071,0.8711800574999999,6.752135515,15.456726099999997,-1.6822181345,-0.013780284499999997,6.885761738,73.273193355,52.064245225,6.8707797525
4,0.033331999999973,1.6032736895,7.215189694999999,15.522392249999996,-1.864287317,1.377133191,11.24490452,85.59233856,55.369140625,6.2895751
5,0.0416650000001936,2.3387014864999998,7.740131616999999,15.6132202,-2.1254818440000003,0.9003149269999999,10.5097003,85.53607940500001,62.971145629999995,8.3386244775
6,0.0499979999999595,3.1016772985000003,8.196978569,15.6840744,-0.10024815799999998,-0.6206487565000001,7.5602359775,89.07469177499999,54.80732727,5.487025976
7,0.0583310000001802,3.9309272765,8.7258491515,15.7724075,-2.1406461595,-0.982624173,10.856048105500001,96.65478897,63.633541109999996,6.261954069
8,0.0666639999999461,4.7547781465,9.2683582305,15.873031650000001,-1.494415462,1.117989242,13.213248255,95.67335129,65.462285995,6.6352350715
9,0.0749970000001667,5.5640387535,9.7659964575,15.975448600000007,-2.4858742955,-0.640763998,10.417088985,93.78606796,60.2101593,6.3899049755
10,0.0833299999999326,6.418609141999999,10.285822391,16.08022305,-1.8772995475,-1.391660333,7.75695014,99.06000900000001,62.97546959,5.4735019205
11,0.0916630000001532,7.2859740255,10.809424875,16.1909409,-0.666742686,0.7179144175,14.171223165,100.358932505,63.586418155,5.1437032225
12,0.0999959999999191,8.100541353,11.313031675,16.300285349999996,-1.6452406645000002,-0.8531175255000001,10.92035484,93.92829132,61.258232115,4.3399643895
13,0.1083290000001397,8.9099502565,11.87497282,16.43383025,-2.552883744,-1.691731334,5.913135886000001,92.621688845,68.657211305,5.236052752
14,0.1166619999999056,9.719866753,12.39613056,16.539939899999993,-1.2690937225,-1.3403078019999999,12.04161167,93.21057892,63.375476835,1.836106241
15,0.1249950000001263,10.557492255,12.987473965,16.68179325,-3.606308937,-1.7394134700000001,11.8695302,95.49162674,72.42076492000001,3.5356223585
16,0.1333279999998922,11.303945545000001,13.524034025,16.81986239999999,1.5718351605,-0.6791885124999999,17.406029225,84.46331787,65.921943665,3.2872682810000002
17,0.1416610000001128,11.97524309,14.136367320000002,16.958328249999994,-2.9118735795,-2.2578656675,10.1519062505,75.30370712,74.871219635,0.6605529425000001
18,0.1499939999998787,12.5797019,14.676844599999999,17.097862250000006,-0.2419092505,-2.46877265,8.347501278,67.06496429500001,66.46778488000001,1.7290834785
19,0.1583270000000993,13.176375865,15.29615879,17.232841500000006,-3.925934315,-2.8086624145,10.420881508,66.137420655,75.58300781,-1.6250262855000002
20,0.1666599999998652,13.71219349,15.816017625,17.38919829999999,-1.005871385,-2.5798627135,7.8088372955,57.95690346,64.52098083499999,2.7476506235000002
21,0.1749930000000858,14.221961975,16.387037755,17.516128499999994,-0.8121834694999999,-1.4207717780000002,9.6417913425,55.673728940000004,69.67667389,-2.651520729
22,0.1833259999998517,14.652105330000001,16.873698235,17.654312149999996,-0.5480486455,-2.3407940865,17.15483999,45.566810605,60.162130355,0.5025602915
23,0.1916590000000724,15.062917235,17.496685980000002,17.812660199999996,-2.6129785775,-0.357411247,13.4809756275,42.41412163,76.56573485999999,-1.9288992285000002
24,0.199992000000293,15.370087625,17.986256595,17.949333200000012,0.1418975295,-2.515981674,11.317684174499998,30.54916382,60.432413100000005,-0.6815271749999999
25,0.2083250000000589,15.638537405000001,18.527633665,18.090271,-1.494189441,-2.444303274,5.816879091000001,25.657195090000002,66.55015564,-2.1861652135
26,0.2166580000002795,15.88718605,18.99835968,18.21342469999999,0.9436379669999999,-2.903370857,8.2279803745,23.770032885,57.807905195000004,-2.210778892
27,0.2249910000000454,16.11833477,19.447755815,18.332160950000002,-1.669454992,-0.768142417,16.803840165,21.79767418,55.20609474,-2.2259544135
28,0.2333240000002661,16.304467199999998,19.962630275000002,18.490158100000002,0.2484155295,-1.3414248825000001,5.9732719659999995,14.62326574,63.953798295,-0.446733389
29,0.2416570000000319,16.413551335,20.212041855000002,18.553161649999993,1.117707759,-1.7651986480000001,9.5535545365,9.238660336,30.378544804999997,-1.9166829585
30,0.2499900000002526,16.56761265,20.661357875,18.688438399999995,-2.4742423295,-1.2181295155,12.579688547,11.515663145,55.665054325,-1.0362333355
31,0.2583230000000185,16.604073525,20.932444574999998,18.7679749,0.997869134,-1.9421179295,15.97704697,-0.27478992950000003,33.386709215,-1.0419304665
32,0.2666560000002391,16.6358757,21.240115165,18.847099299999996,-2.850684166,-0.688206047,11.9307627685,-0.892797828,37.558933255,-2.377752781
33,0.274989000000005,16.711670875,21.562571525,18.94992830000001,-0.17972514050000005,0.012474909000000006,7.0020325185,3.3210242990000003,40.030439380000004,-0.4188125875
34,0.2833220000002256,16.699085235,21.729365350000002,18.988365200000004,-0.7966906725,-2.1600353715000002,11.43534899,-4.507126808500001,20.050004960000003,-1.956614435
35,0.2916549999999915,16.73824024,21.98898697,19.078483600000013,-0.047847807500000006,-0.5557498185,11.347854134999999,-0.5812835545,32.39595604,0.3469899295
36,0.2999880000002122,16.718193055,22.16109943,19.111488350000002,0.4318423125,-0.2417849155,10.756225107,-5.203809023,20.482295035,-2.7497467995
37,0.3083209999999781,16.69514084,22.27782822,19.163436899999994,-2.5874359604999997,-1.0322955249999999,11.88760185,-6.362647295,14.752232549999999,1.204644084
38,0.3166540000001987,16.718961720000003,22.510516165,19.230201699999995,-0.82096989,-0.1192892395,7.315331936,-1.5041648745,28.51904297,-1.2514675259999999
39,0.3249869999999646,16.688118935,22.563287735,19.256759650000006,-0.652319178,-1.072004974,10.516717194,-6.170591831,6.589320183,0.6955866815
40,0.3333200000001852,16.713758470000002,22.717873575,19.308631899999995,-1.5836361650000002,0.31668078899999996,11.66419363,-0.6213886885,19.065868379999998,-0.142159093
41,0.3416529999999511,16.7024765,22.788393974999998,19.352691649999997,0.13105088450000002,-1.6570338009999999,8.038209200499999,-4.6538057325,9.187820909,1.929014623
42,0.3499860000001717,16.700083735,22.835837365,19.368133549999996,-0.038387343500000004,0.810321748,12.747760294999999,-2.3092066645,5.5900189875,-0.314459578
43,0.3583189999999376,16.72293854,22.934329990000002,19.413879400000013,-2.4686563015,-0.2667364285,8.413834094999999,-0.6319865285,12.458785055,1.143810213
44,0.3666520000001583,16.74528217,22.949230195,19.416091899999998,0.5263908505,-1.054729104,10.422475098,1.2613410205,1.4295561905,-0.606064886
45,0.3749849999999242,16.777275085,22.992118835,19.45482634999999,-3.3797649145,0.646439135,12.561404227,0.8008674085,5.8524109125,2.3265730145
46,0.3833180000001448,16.824433325,23.07722664,19.47293855000001,1.4955748915,-0.5369701385,9.353558779,3.4810706375,9.9994711865,-1.3692537245
47,0.3916509999999107,16.82572365,23.02331257,19.47528840000001,-2.5405184625,-1.1730636955,14.56074667,-1.176679686,-6.42407012,1.8312963249999998
48,0.3999840000001313,16.89689827,23.14804077,19.51531220000001,-2.4173754455,0.89153178,9.841406822500002,5.345340252,15.251546860000001,-0.435371697
49,0.4083169999998972,16.90937328,23.09540272,19.514595,-0.9458983240000001,-1.1729263665,8.9908387685,0.297483772,-6.3732123375,1.4618237615
50,0.4166500000001178,16.979683875,23.156289100000002,19.543235749999994,-2.01418376,0.12491737300000001,13.78328228,5.7858018875,7.558819056000001,0.5818722245
51,0.4249829999998837,17.02740669,23.17039776,19.552917500000007,-0.6561105549999999,-0.1732376575,8.6690824035,4.0325962305,1.628706619,0.2219409345
52,0.4333160000001044,17.08011818,23.148652079999998,19.5474167,-1.7584838275,-0.004959486499999999,13.57493925,5.2793562415,-3.0254573825,-0.1314394485
53,0.4416489999998703,17.16359043,23.20879364,19.584815950000007,-2.52575469,-0.20948286,8.811629774,7.028489351499999,7.8130278585,1.5261283515
54,0.4499820000000909,17.244120595,23.21953297,19.601005549999996,-0.5681280195,-0.3254699705,10.2140636445,7.5805785655,1.4054787755000002,0.9965795875
55,0.4583149999998568,17.308727265,23.199868199999997,19.605796800000007,-2.5448413495,-0.32096555800000004,12.792098047500001,6.3150687219999995,-2.3934450750000003,0.916816771
56,0.4666480000000774,17.428236005000002,23.282858845,19.661521899999997,-0.7479214519999999,-0.1907006245,9.0769894145,10.3809456825,10.983842375,2.5619939565000003
57,0.4749809999998433,17.449477195,23.197720529999998,19.632980349999997,-1.1266403945,-0.601997882,14.532675269999999,2.6912302375,-10.982521055500001,-0.2277681975
58,0.4833140000000639,17.566291810000003,23.319610595,19.71308900000001,-2.467603445,-0.247489132,8.6131615635,8.909613132499999,16.252254965,3.698882103
59,0.4916470000002846,17.619474410000002,23.239500999999997,19.681236249999998,-0.10133713500000002,-0.522847086,8.0476422335,6.6689167025,-10.516520977,-0.742704034
60,0.4999800000000505,17.742105485,23.277826310000002,19.7339554,-3.844884515,0.7800841629999999,14.0867462145,10.917550085,5.794856071,3.828951001
61,0.5083130000002711,17.813961985,23.273612975,19.72174835,0.8200603125,-1.3687129615,8.3051440735,7.975024223,-1.181981742,-1.431483626
62,0.516646000000037,17.901519774999997,23.26760197,19.742225649999995,-1.6013792754999998,-0.009410258499999997,13.811664105,8.231897831,-0.347636402,2.0547549725
63,0.5249790000002577,17.982142445,23.278736115,19.731147750000005,-2.405794024,0.46310262350000003,9.7588152895,8.990308762,0.611098021,-1.8687826395
64,0.5333120000000235,18.100836755000003,23.292336464999998,19.759033200000005,-1.1195951405,-0.12489457999999999,8.487473728,11.61011934,2.14852868,2.0938421490000003
65,0.5416450000002442,18.200688364999998,23.264757155,19.751029950000003,-2.085731268,-0.8386943339999999,12.38138056,11.159911155,-3.7012637855,-0.10030533
66,0.5499780000000101,18.341335299999997,23.34504032,19.813140849999996,-1.33380115,0.005814582000000013,10.280072213499999,12.612701895,10.9405016915,3.154118419
67,0.5583110000002307,18.397773739999998,23.26459026,19.780563349999994,0.6674700395000001,-0.9645204995000001,12.1452336305,7.1075861455,-10.5726804735,-0.662224144
68,0.5666439999999966,18.53845215,23.33512783,19.845138549999987,-5.0548238755,0.7582371535000001,10.881958485,12.524884225,9.9321980465,3.7624185085
69,0.5749770000002172,18.63676357,23.319672585,19.842567450000004,1.671074867,-1.168393254,7.696149305,10.698830125,-2.1288762094999996,0.010296927999999997
70,0.5833099999999831,18.746207235,23.302568434999998,19.8823395,-4.4565088745,0.32081279149999997,15.879195211,9.959809302,-0.8894288539999997,4.508406877500001
71,0.5916430000002038,18.8385725,23.370218275,19.90410614999999,1.1077500225,-1.2306787075,7.6678907875,8.82632637,8.180617808,-0.6578696519999999
72,0.5999759999999696,18.888523104999997,23.270063399999998,19.8786774,-2.075053215,-0.465696171,12.855339050000001,5.909941196,-12.629926680499999,0.9281895760000001
73,0.6083090000001903,18.9928112,23.356983184999997,19.912521350000006,-2.569939077,0.3368024785,10.386552333000001,9.7079963685,10.80687237,-0.156643897
74,0.6166419999999562,19.062366485,23.29318428,19.904113749999993,-0.354053691,-1.1154276730000001,8.518687723500001,7.435114384,-7.8936612605,1.3003771305
75,0.6249750000001768,19.13508606,23.316678045,19.9114151,-2.8760029075,0.4096647875,14.384160994999998,7.1918046475,2.6605312825,-0.45512010150000004
76,0.6333079999999427,19.198432925,23.284921645,19.912933350000003,-0.38347443950000004,-0.2724572815,9.654033183,6.2162230015,-3.8978145125,1.0898024435
77,0.6416410000001633,19.261928555,23.29775524,19.904060349999995,-1.5028796795,-0.8516680005,9.397504806499999,6.852326870000001,0.866273518,-1.726777315
78,0.6499739999999292,19.31586647,23.22278404,19.891975400000007,-1.6717842225,0.2625417115,12.959686755,5.7402210235,-9.283719538,1.4004777075
79,0.6583070000001499,19.397874835000003,23.28766823,19.914123500000002,-2.8459727765,-0.3701026435,8.990095853,7.6096124645,7.8921883105,-0.5717033739999999
80,0.6666399999999157,19.43608475,23.203457835000002,19.88403319999999,1.0315189065,-1.3088970185,10.537873507,4.688257575,-10.9866709715,-0.09691150099999998
81,0.6749730000001364,19.50010681,23.200969694999998,19.891509999999997,-4.2902667525,1.3104701045,13.355265854,6.1621899605,-0.2639030215,0.5949226175
82,0.6833059999999023,19.54484081,23.19280815,19.879959150000005,0.6952437985000001,-1.7221634985,8.338629128000001,4.5841355324999995,-1.706151962,-1.2093442675000001
83,0.6916390000001229,19.546685215,23.07672787,19.84410855,-1.1546103705,-0.910475403,14.137216565,0.7482687530000001,-14.70601225,0.653118268
84,0.6999719999998888,19.599728579999997,23.13915825,19.867263800000003,-3.8371458055,0.8437480030000001,8.565548897,3.9569325445,7.559869289,-0.42767447199999997
85,0.7083050000001094,19.581985475,22.99958515,19.798461900000007,1.272240922,-1.372299939,9.526698589,-0.082196027,-18.584918979999998,-1.8383021355000002
86,0.7166379999998753,19.604813575,23.00087643,19.800445550000006,-5.2864243984999995,-0.09682479499999999,13.578857898999999,1.355806291,-0.13136255749999992,-0.15057326299999998
87,0.724971000000096,19.595152855000002,22.926371575,19.7614212,1.987302959,-0.5528876935,9.037749290499999,-0.5291581599999999,-10.128490926,-1.3686648904999998
88,0.7333039999998618,19.550473214999997,22.86330986,19.722526550000012,-3.487994075,-1.2431158425,13.24291515,-4.844401121,-8.921790598,-1.8258788584999999
89,0.7416370000000825,19.525211335,22.81002426,19.69629669999999,-0.532826976,0.4566984325,10.0052261365,-2.99997139,-7.2534458635,-0.8935078825
90,0.7499699999998484,19.486769674999998,22.768773080000003,19.65259555,-2.978720069,-0.034425295999999994,8.2210822105,-3.8866851330000003,-6.6323008535,-3.220138669
91,0.758303000000069,19.44211769,22.70256424,19.623817450000004,-1.614796996,-1.2866915465,13.93337822,-5.208520651000001,-8.8096005915,-0.6530670075
92,0.7666360000002896,19.387034415000002,22.67278576,19.597587599999997,-2.042386949,-0.156574937,11.365466115,-6.6964259145,-4.686989069,-1.8609062435000001
93,0.7749690000000555,19.321067810000002,22.655995365000003,19.58155825,-0.9199557755000001,-0.1901369065,9.2746074185,-8.3680362705,-2.7471200230000004,-1.3119162919999998
94,0.7833020000002762,19.228233335,22.569699285,19.528244,-2.5690569874999998,-0.41416096700000005,13.047305105,-9.9768805505,-12.0757246025,-2.4643268584999998
95,0.791635000000042,19.19843769,22.636114120000002,19.53790285000001,-2.8175194265,0.172729181,6.718038559,-5.210134506499999,7.6194348335,-1.9128136035
96,0.7999680000002627,19.10884285,22.508364675,19.483985899999993,-0.688199818,-0.8862984780000001,13.884735108000001,-9.574572084,-16.793613435,-0.9279080035
97,0.8083010000000286,19.04185486,22.578019140000002,19.494308500000002,-4.4000353815,0.4129924775,12.9305858585,-9.6799974445,8.016954899,-1.935635805
98,0.8166340000002492,18.951507569999997,22.522006035,19.4621887,1.988403559,-1.3647156355,7.463049707500001,-10.701571945,-7.8704566965,-1.515511453
99,0.8249670000000151,18.84995651,22.492869375,19.424118050000004,-5.48643589,1.3765131835,13.928357600000002,-11.589297295,-4.9294610305,-3.1315904855
100,0.8333000000002357,18.796194075,22.56036091,19.424430850000007,-0.18135344950000004,-0.8815293015,6.515872001,-7.799926042999999,7.3207606075000005,-2.917468071
101,0.8416330000000016,18.685653685,22.437714575,19.368759150000002,-3.0992555619999997,-0.6186028865,14.67662859,-11.869429115,-16.178051945,-1.3906676770000002
102,0.8499660000002223,18.63831234,22.5882082,19.39147949999999,-2.2089331745,1.1155651215,9.6262402525,-8.045387744500001,17.561528680000002,-3.7201292515000004
103,0.8582989999999882,18.49949074,22.456067085,19.323448150000004,-0.10629421499999997,-1.9864889385,11.5821809775,-14.723701,-17.69450569,-2.3958220480000003
104,0.8666320000002088,18.419079779999997,22.574670795000003,19.31183625,-4.519292831,1.4589900375,12.876811503999999,-10.4078931795,12.741478443999998,-6.0337612625000006
105,0.8749649999999747,18.313783645,22.53070164,19.293418900000006,0.2446770595,-0.7342765035000001,7.8499763,-12.99337864,-5.916984856,-0.581475288
106,0.8832980000001953,18.18334007,22.55363083,19.246963499999993,-4.4132146835,-0.09665828950000001,12.844924449,-14.800132755,0.6526374815000002,-6.048514604499999
107,0.8916309999999612,18.110424039999998,22.632159235,19.27273559999999,0.33415830150000003,-0.7956348655,7.409161567,-11.157211305,9.574378967000001,-0.5383920910000001
108,0.8999640000001818,17.945222855,22.541909215,19.17733765,-2.298820019,0.535805717,13.377793310000001,-16.713969705,-13.9197368635,-6.9991378785
109,0.9082969999999476,17.888095855,22.685664180000003,19.217102049999994,-2.9723687174999998,0.1980801075,7.987726926500001,-9.8918809865,17.501502035,-1.4151804449999998
110,0.9166300000001684,17.747484205,22.575706484999998,19.142944349999993,-0.22968304150000002,-0.8914766015,11.627679108999999,-14.754247185,-15.42834854,-4.09677434
111,0.9249629999999344,17.680848125,22.704144475,19.1722336,-4.332854748,1.29696545,10.381179331,-10.537117004999999,15.40226126,-1.886828482
112,0.9332960000001548,17.558444025,22.63703823,19.1217575,2.4572520255,-1.223120302,10.578132865499999,-13.68368626,-9.722097636,-3.2229955195
113,0.9416289999999208,17.45296192,22.674360274999998,19.10047145,-5.7650916575,1.3823954465,13.2140426635,-12.84509993,3.296629429,-3.8679873945
114,0.9499620000001414,17.383901594999998,22.710010529999998,19.10662839999999,1.0159430655000001,-0.5737338665,6.271777077,-9.9042887705,3.9294036625000004,-0.9685832859999999
115,0.9582949999999072,17.274565695,22.63833046,19.057556149999996,-4.137424946,0.072564304,13.107635497,-12.027620795,-10.0980496415,-2.899243832
116,0.966628000000128,17.23743248,22.763611795000003,19.089210550000004,-0.22006189800000003,0.01092203,6.4504470825,-7.254408121000001,15.0409202595,-1.450758636
117,0.9749609999998938,17.11175442,22.60620594,19.002563449999997,-1.1848974375,-0.1674774865,14.672224045,-12.262302875,-21.151818275,-3.871471882
118,0.9832940000001144,17.078027725,22.74911213,19.028556800000004,-3.4317872524999995,0.8007062075,8.044040205,-6.557149887,16.884043695000003,-2.6070367095
119,0.9916269999998804,16.97838688,22.598170279999998,18.96614835000001,-0.2505687625,-0.4954849775,11.976110457,-10.28419018,-19.618699075000002,-1.6023696065
120,0.999960000000101,16.933571815,22.683778765,18.97606660000001,-3.4302202465000002,0.2520450095,9.6706106645,-7.1307282445,9.794584276,-2.253713548
121,1.0082929999998669,16.84946537,22.60103798,18.937698400000002,0.096646323,-0.8162976799999999,11.1024992445,-9.549968242999999,-11.015281437,-1.4940209985
122,1.0166260000000875,16.78643894,22.590931894999997,18.912116999999995,-3.2353284355,1.3949657085,11.762703416499999,-7.674851656,-2.3309592009999998,-2.664822102
123,1.0249589999998534,16.728784564999998,22.576778415,18.890670749999998,-1.8640615345000002,-0.6617312725,7.753471254,-7.153166294,-2.59283942,-2.0932788255
124,1.033292000000074,16.67497635,22.50175095,18.855361950000002,-1.7278874515,0.153977655,13.44772053,-6.132336855,-10.0993933665,-1.464987218
125,1.04162499999984,16.617408755,22.510287285,18.837058999999996,-1.926955819,-0.0188247265,8.18278098,-7.291790247,0.11801779249999989,-2.547368169
126,1.0499580000000606,16.541612625,22.407676695,18.7875061,-0.8906594665,-0.0914328845,13.990030765,-8.126546621000001,-13.72200298,-2.0626185535
127,1.0582910000002812,16.49407959,22.41146946,18.764045699999997,-3.461857319,-0.213504629,7.113714218,-5.853807211,-0.5860153435000001,-2.929237843
128,1.066624000000047,16.42905426,22.278519629999998,18.709159850000006,-1.167037338,0.3306753785,11.15545702,-6.599323988,-17.378347400000003,-1.6318129300000002
129,1.0749570000002675,16.410593985,22.310173990000003,18.71239469999999,-2.305890977,-0.3799788465,10.528769015,-3.5888683795,3.4590296745,-1.0338737965
130,1.0832900000000336,16.30604744,22.15304565,18.643997150000004,-0.9028483930000001,0.052474886,13.962584495,-10.7449774755,-20.582986835,-2.291085362
131,1.0916230000002545,16.28162384,22.21310234,18.6635742,-3.7449142935,0.109560445,9.1271414765,-5.047893762499999,7.240638733,-0.23937145599999998
132,1.09995600000002,16.1803236,22.017960549999998,18.588706950000002,-0.365929261,-0.5301755145,9.445606234,-10.083337786,-25.162089345,-1.763188958
133,1.1082890000002408,16.17675686,22.097544669999998,18.614227299999996,-4.8342888355,1.5025061965,8.6200982325,-2.796095014,9.673428533,-0.23030401749999999
134,1.1166220000000069,16.082293515,21.92127228,18.54587554999999,0.747956768,-1.4357176125,14.817682742999999,-9.5790815365,-22.784598350000003,-1.7520082000000001
135,1.1249550000002273,16.051795005,22.007894515,18.569206199999996,-5.430803775499999,0.17391856049999999,10.4187455195,-5.9199433325,10.4184055315,-0.671330035
136,1.1332879999999932,15.963870524999999,21.882118225,18.52522280000001,0.8298386335,-0.16519203400000002,9.773208499499999,-9.906994341,-16.21332407,-0.878575027
137,1.1416210000002138,15.918004035000001,21.916046145,18.522277799999998,-5.5816235545,0.7460619804999999,9.152249635499999,-6.582430601,3.5339066385,-1.718273699
138,1.1499539999999795,15.859132285000001,21.852748875000003,18.49959564999999,0.7509437425,-1.154096067,10.707222102000001,-7.3789432045000005,-8.3522336465,-0.6835351885000001
139,1.1582870000002004,15.77851343,21.837800025,18.478126500000002,-4.624099016000001,0.7017545555,13.172197818499999,-9.927113055,-2.6690684554999997,-2.093406856
140,1.1666199999999662,15.707240105,21.837477685,18.48497775,-0.7205459734999999,-0.509413421,8.1902154065,-10.18472624,-0.1852169035000002,0.40991103650000005
141,1.1749530000001869,15.62630939,21.774221425,18.44385525,-2.459788799,-0.006596446000000006,8.5568733225,-9.1023972035,-8.8419258615,-2.649978876
142,1.1832859999999528,15.56651783,21.798669815,18.452079749999996,-2.663368523,0.310579449,10.7647504805,-8.8588180545,2.7190792565,-0.2333584705
143,1.1916190000001734,15.470520969999999,21.729537965,18.406936650000006,-1.7251347005,-0.17584769449999998,12.974334240000001,-10.742247105,-9.637312649,-2.922859907
144,1.1999519999999393,15.38466835,21.761494635,18.41519925,-3.2257894274999996,-0.509898806,8.720606803,-11.97745371,3.587152362,-0.451828703
145,1.20828500000016,15.302413465,21.710541725,18.388717650000004,-0.38848886650000003,0.4678474965,8.7075657845,-9.9372806535,-6.9771578309999995,-1.531020582
146,1.2166179999999258,15.20607519,21.699387549999997,18.363990799999996,-3.4272774459999997,-0.09636871550000001,9.828477858,-11.768211845,-2.370680928,-2.626259923
147,1.2249510000001465,15.114430904999999,21.674889565,18.335678099999996,-0.308950521,-0.13866198400000002,12.559445385,-10.98828459,-3.96617949,-2.5800135135
148,1.2332839999999123,14.96207762,21.597683905,18.29008485,-3.5553494690000003,-0.5141872765,10.6839270575,-17.56961155,-10.619736671,-2.8255137205
149,1.241617000000133,14.863011835,21.587435725,18.280914350000003,-0.4104168895,-0.049115329999999985,7.009362221,-12.73247242,-1.755119592,-0.976369858
150,1.2499499999998989,14.708679674999999,21.467805865000003,18.219131450000006,-2.080600679,-0.1758171955,10.742667675,-17.109747884999997,-15.99397898,-3.3239291905
151,1.2582830000001195,14.59582329,21.47325611,18.209060699999995,-2.542349935,0.9577376845,10.906005861,-14.34499216,0.04221188999999992,-1.5533434750000001
152,1.2666159999998854,14.424226285,21.335306170000003,18.158203099999994,-2.468755484,-1.258149564,12.421331881,-19.676168439999998,-17.80220413,-1.6751911045
153,1.274949000000106,14.29365015,21.361281395,18.151664749999995,-2.7259343865,1.079517752,8.4779425855,-16.626158715000003,2.5317748785000003,-1.7739718555000001
154,1.283281999999872,14.140007494999999,21.25261021,18.100997949999993,-1.3402318355,0.027908175999999993,11.0168104155,-17.547838210000002,-14.385965825,-2.617436528
155,1.2916150000000926,14.02096224,21.271094325,18.08184815,-2.978207469,0.5652666534999999,9.5317533015,-14.695792675,1.321707845,-2.9100657705
156,1.2999479999998584,13.90139389,21.17583656,18.052558900000008,-1.801473439,0.1926539395,12.340517758,-14.39163637,-12.236889839,-0.747724518
157,1.308281000000079,13.792850495,21.151079175,18.03709415,-1.297132313,0.831647232,7.453596709499999,-13.603178974999999,-3.6094624695,-1.267988205
158,1.316613999999845,13.7134943,21.12020874,18.01940915,-3.168584108,-0.21341458000000002,11.2923793795,-10.069743631000001,-4.422317028,-1.3646560905
159,1.3249470000000656,13.612957,21.027443885,18.007171650000004,0.2018304225,0.2198236585,9.963782786500001,-12.795050145000001,-11.451903345000002,0.9928272665
160,1.3332800000002862,13.545032975000002,21.034407615,17.988433799999996,-5.0979406835,0.7425227609999999,9.308988571499999,-8.64648962,-0.03269657450000002,-2.5497245790000003
161,1.341613000000052,13.4518466,20.924839975,17.96934505,1.2455180289999999,-0.16289313100000002,12.6221299185,-11.62965393,-13.60069466,0.6767090265
162,1.3499460000002728,13.39036894,20.972520825,17.945716900000008,-6.562853336,0.300523743,8.058083889999999,-7.658688783500001,4.599234641,-4.2103209495
163,1.3582790000000386,13.32428169,20.893021580000003,17.93605805,1.8338870405,0.771229759,11.958256008000001,-8.792555809,-9.848849060500001,0.833532147
164,1.3666120000002593,13.25772524,20.89759636,17.883522,-5.136791706,0.5258492905,8.4568707965,-7.036288023,-1.1722355185,-6.1687340735
165,1.3749450000000252,13.25953245,20.901000025000002,17.894104,-0.6091694795,0.30964078,8.4130842665,-1.505559981,0.35163223750000006,0.7476731985
166,1.3832780000002458,13.21474695,20.836097719999998,17.842918400000002,-4.00213182,0.9803368155000001,15.0143199,-4.4860582355,-9.2483727935,-4.1127437350000005
167,1.3916110000000117,13.22205448,20.92182064,17.883323649999994,-1.8169333339999998,0.7502934185000001,8.123291731,-2.124515355,10.7307586675,1.7414672375
168,1.3999440000002323,13.193198200000001,20.86972332,17.81392665,-3.3999788764999996,0.2946991325,10.648601055,-1.791171342,-8.216310022,-6.456279516
169,1.4082769999999982,13.235287190000001,20.942647935,17.86942295,-2.595043361,1.3643517795,11.639482495,1.400913179,9.619780063,3.739032149
170,1.4166100000002189,13.20582056,20.931594845,17.8053436,-2.4080973265,-0.644095734,8.9593257905,-2.0922029015,-3.2855190034999997,-7.0006723404999995
171,1.4249429999999847,13.2313323,20.993380549999998,17.831604,-2.924075365,0.7178380934999999,11.976474284999998,0.667013861,7.5680007934999995,0.8591846825
172,1.4332760000002054,13.18510485,20.980897900000002,17.763008099999993,-1.5253833235,-0.998584479,6.6112942695,-3.9120687245,-3.5671474935000003,-7.4579505919999995
173,1.4416089999999713,13.21146345,21.059226035000002,17.787605299999996,-3.373682022,0.7774885375,9.6200077555,0.840704113,9.457166909,0.230637014
174,1.449942000000192,13.166539669999999,21.01723385,17.72247315,-0.4546782525,0.3561316435,9.878592493,-3.9002861975,-6.922368765,-6.2773253915
175,1.4582749999999578,13.18568659,21.11235714,17.758636449999997,-2.8688627485,0.037013895500000005,10.3230664745,-0.531809211,11.71229553,1.033284694
176,1.4666080000001784,13.15376425,21.069493295,17.714942949999994,-0.013391226500000006,0.717205688,5.807176471,-3.2533984185,-6.474874973,-3.9108775854999998
177,1.4749409999999443,13.192748550000001,21.12073612,17.737434399999998,-3.3758060935,0.1455482025,10.697824002,2.4344345929999998,6.236586094,0.7429857255000001
178,1.483274000000165,13.199124815000001,21.1368742,17.74903110000001,-0.9768784345,-0.4457980245,8.31783104,-1.046309471,1.827466816,0.49899733049999995
179,1.4916069999999308,13.226753715000001,21.194723125000003,17.79220579999999,-4.4254176615,0.403100848,12.976401329,0.17832629349999998,7.536995172499999,2.8137686255
180,1.4999400000001517,13.22277069,21.21487999,17.802864100000008,-0.11726847300000001,0.23158873649999998,9.012214897,-2.254430324,2.273410551,0.282723501
181,1.5082729999999174,13.25647163,21.33067417,17.86473079999999,-6.291432619,0.865026258,11.733005525,0.08760067850000003,14.78306055,3.2476103304999997
182,1.516606000000138,13.260208129999999,21.36924362,17.887084950000002,-0.382740589,-0.10774757000000001,7.291708708,-1.840158701,4.7255260945,1.050190121
183,1.524938999999904,13.29844856,21.458019255000004,17.930183400000004,-3.8254425530000002,1.003766291,13.164101124999998,1.4306000175,11.145465375,1.9327286485
184,1.5332720000001243,13.28528786,21.514369015,17.94044495,-1.199187517,-0.35835526149999997,8.1802513595,-3.3394622800000002,6.4902048115,-0.7601600285
185,1.5416049999998904,13.32835865,21.593387605,17.9799881,-3.6219798325,0.995417297,7.411850691,2.1522170305,9.915636538000001,1.806066275
186,1.549938000000111,13.32045555,21.629245755,17.977973949999992,-0.889838785,-0.283240318,10.165125848999999,-2.1723113655,3.7819995879999997,-1.5314815645
187,1.558270999999877,13.345806119999999,21.73490524,18.01772305,-2.252231538,0.3116551675,9.4830970765,0.0022284405000000014,13.028341295,1.076239824
188,1.5666040000000976,13.329228879999999,21.723923685,18.012443500000003,-0.1342213195,0.4483862295,7.292406081999999,-3.0629440545,-1.769706726,-0.5847537665
189,1.5749369999998637,13.35672855,21.79643726,18.021667499999992,-2.4390206340000002,0.12790066,9.872950078,1.6092467605,8.372852802499999,-1.3217523695
190,1.583270000000084,13.36929798,21.7860384,18.027610800000005,-0.8746946455,0.33380736450000004,8.3245489585,-0.06357455250000002,-1.413502276,0.6163488925
191,1.59160299999985,13.403942585,21.80329132,18.038833600000004,-3.4346219305,0.900873899,13.323909285,2.3801962735,1.9717002510000001,0.4284300655
192,1.5999360000000706,13.39878416,21.780676839999998,18.034317,0.03720225400000002,-0.2896324245,8.602674005,-1.7330784795,-3.1091901060000002,-0.18512687800000002
193,1.6082690000002913,13.429887775000001,21.78157234,18.035140999999996,-4.7212421895,1.3431898655,10.48623991,2.425123632,-0.20442724199999995,-0.2389872
194,1.6166020000000572,13.4467392,21.73302555,18.035171500000004,0.1734863,-0.303430691,8.664093255,0.702784255,-6.019300938,1.029737145
195,1.6249350000002778,13.46025324,21.713869090000003,18.031867950000006,-3.977008462,-0.014202430499999988,11.779936312999999,0.4986962395,-2.6524308325,-0.12276261299999999
196,1.6332680000000437,13.47014713,21.64544296,18.019203149999996,0.692272596,0.584612861,8.9565628755,0.42694447150000003,-8.667402267,0.209486067
197,1.6416010000002643,13.456691745,21.597766874999998,18.000869749999993,-4.501759052,0.34820017999999997,12.106777907,-2.0733506085,-6.3719825745,-0.9602839944999999
198,1.6499340000000302,13.471392155,21.52492905,18.007003749999996,-0.908791676,-0.09345170400000001,9.583635571,0.17305617,-8.693030357,2.372973144
199,1.6582670000002508,13.433559415000001,21.433535575,17.96025085000001,-2.5462617874999998,1.02359581,9.6441392885,-3.7610603570000003,-12.2138485905,-2.8274596929999998
200,1.6666000000000167,13.444001674999999,21.417123795000002,17.985740700000008,-2.8697137835,0.15724835550000002,11.401756765,-1.1789400875,-1.6063007825,2.9026627545
201,1.6749330000002374,13.384397504999999,21.268980980000002,17.944129950000004,-1.3831939995,0.042030498,9.48858261,-6.618202686,-18.70422077,-0.7095978855
202,1.6832660000000033,13.38023901,21.327542305,17.989326500000004,-4.2537088395,1.1702881155,9.8010034545,-3.7823323010000003,7.652323008,2.967287421
203,1.691599000000224,13.321846484999998,21.212862015,17.960983299999995,-1.9175165294999998,0.1542604565,10.068145753,-7.0576648715,-14.454212185,-0.21525565550000003
204,1.6999319999999898,13.28915882,21.279999735,18.0063782,-2.7091349365,0.6929345055,13.622437,-7.2070589065,8.655376911,2.764461398
205,1.7082650000002104,13.18871069,21.22434044,17.977920499999996,-2.260189533,-0.006099604500000008,4.716893554,-12.098622800000001,-7.5656580925,-1.8767488
206,1.7165979999999763,13.15304041,21.28793144,17.995460499999993,-3.6455395225,0.495097369,12.55882978,-6.352516413,7.524956465,-0.147358697
207,1.724931000000197,13.03713274,21.284437179999998,17.994148249999995,-1.8904562,0.19931095100000001,11.4024105055,-15.139865875000002,-0.777673905,-0.3615001665
208,1.7332639999999628,12.932106495,21.382053374999998,18.011627199999992,-3.608769298,-0.5574780105,10.800890924499999,-14.67501974,11.500890255000002,-1.0436202285
209,1.7415970000001837,12.818994045,21.39925194,18.00991055,-1.91332531,1.8623848555000002,8.631742241000001,-14.786017895,1.633426547,-0.960566044
210,1.7499299999999494,12.735997675,21.485798835,18.044097899999997,-3.283713102,1.3247743845,11.85939121,-12.765912530000001,10.6189279535,1.1092951295
211,1.75826300000017,12.613489625,21.52851677,18.053695649999995,-1.5496755835,0.40535512549999997,7.10523963,-16.40910196,4.9005479815,-0.3887152595
212,1.766595999999936,12.55821705,21.60341644,18.06839755,-2.0615241525,1.3702304065,9.610801699,-8.590125560499999,8.7768275735,-0.677093178
213,1.7749290000001563,12.45864153,21.61779499,18.072448750000007,-0.851088017,1.5615485009999999,12.082404140000001,-13.4154768,1.445558533,-0.24224659800000004
214,1.7832619999999224,12.40495491,21.71639919,18.0839462,-2.4577492475,0.1337375085,6.046975374,-8.2595996855,11.477080825,-1.615842283
215,1.791595000000143,12.40827322,21.741097449999998,18.11460115,-3.299006939,2.6224853990000003,9.957549093499999,-2.2489748,3.293625832,2.3935799600000003
216,1.799927999999909,12.422735209999999,21.795170785,18.1278152,-1.33283326,1.2668128015,13.647508145,-0.16464193049999998,6.300058603,-0.28123793
217,1.8082610000001296,12.41173506,21.788711544999998,18.137168899999992,-2.6590024235,1.5249238015,9.236044169,-3.023126304,-0.8694495560000001,0.8766664865
218,1.8165939999998957,12.45723295,21.877903940000003,18.15713500000001,-2.3445194364999997,0.1311911495,7.814497232499999,3.259930849,10.577432155499999,-0.45431336749999995
219,1.824927000000116,12.493201254999999,21.837157249999997,18.168479950000005,-1.68235445,1.645859718,9.10787916,2.524238229,-4.838228583,1.981562197
220,1.833259999999882,12.548236370000001,21.943600654999997,18.168052650000007,-2.094874382,0.8671464919999999,12.560332299999999,5.309914589,12.1052436835,-3.1389926675
221,1.8415930000001024,12.600141525000002,21.92455292,18.192924500000004,-3.039534688,1.361224949,8.288223505000001,3.8295778035000003,-1.96569401,2.887166262
222,1.8499259999998685,12.687594415,22.049595834999998,18.203353899999996,-4.2340706585,-0.052019953499999994,10.342915057999999,8.718735695,14.54217148,-2.4702181815
223,1.8582590000000887,12.770653724999999,22.060266495,18.232284550000003,-1.8984659315,1.8569039105,9.615758896,7.3752539155,1.6201705935,2.5436537264999997
224,1.866591999999855,12.83448076,22.17214489,18.253768899999997,-1.3512373865,0.8682179155,11.121691225,5.378714561500001,13.26788664,-0.9665340485
225,1.874925000000076,12.880142685,22.20279789,18.2709198,-1.278908491,-0.3640758435,5.362481475,3.413897157,3.6722551584999996,0.727156073
226,1.8832579999998416,12.973209385,22.289182665,18.2839508,-1.774234593,0.32730436150000003,7.6658291814999995,9.2684288025,10.073907373,-1.2273254395
227,1.8915910000000624,13.047020915000001,22.26967621,18.310661299999992,-2.62239635,1.2700850959999999,14.15600967,6.35377121,-1.952643752,3.1015957595
228,1.8999240000002828,13.0921216,22.346970555,18.3147812,-1.4763781429999998,0.9337891935,9.125671149999999,3.9113131764999998,8.785881759,-1.9752866624999998
229,1.9082570000000487,13.16536665,22.35742569,18.3339462,-2.9666546585,1.0889429745,7.109596014,6.627165556,1.3668911825,1.4772819875
230,1.9165900000002691,13.262722969999999,22.374082565000002,18.35035705,0.1541579065,0.889030218,7.71089053,9.622034073,2.0097763985,0.9919562340000001
231,1.9249230000000352,13.348243235,22.389011385,18.355766300000013,-3.1108384129999997,1.386831522,9.4963297855,8.7239973555,1.54323861,-0.138515384
232,1.933256000000256,13.446267129999999,22.444649695000003,18.376396150000005,-0.3511690985,-0.3882428405,8.321458579,9.507422447,6.670978069,0.35464833650000005
233,1.9415890000000215,13.537365435000002,22.427383419999998,18.379676849999996,-4.006100893,0.9465928675,9.123052835,9.495985267,-2.268313527,0.5296319575
234,1.9499220000002424,13.648094655000001,22.49845505,18.39458465,-1.2631085515000002,0.6961132585,10.123652933,11.289982315,8.3239035625,-0.7250686584999999
235,1.9582550000000083,13.72660446,22.487607005,18.404457100000002,-3.124592185,-0.002946372999999995,10.454878807,7.684149027,-1.3434284625,1.064380318
236,1.966588000000229,13.83294678,22.526353835000002,18.427375800000007,0.33382928,0.591955036,7.670284271,10.3930606825,4.768250704,1.0367428065
237,1.9749209999999948,13.88777685,22.46085167,18.412254349999998,-2.1038076875000002,0.4044933615,9.19311285,5.988281727,-8.372545004,-0.054026831
238,1.9832540000002157,13.97886801,22.52740669,18.44048310000001,-1.3607329424999999,-0.8723303675,9.3935499215,8.322353124500001,8.1510198115,0.791038036
239,1.9915869999999811,14.02488518,22.374627115000003,18.426971449999996,-1.4322983325,1.0737669465,11.611943244999999,4.8528035880000004,-18.488674165,2.6711363795
240,1.999920000000202,14.08144093,22.418904304999998,18.427635199999997,-3.2058126925,1.212742269,13.43351412,5.4456562994999995,4.8184154034999995,-1.5402671099999998
241,2.008252999999968,14.097246645,22.260773659999998,18.3887024,-1.376287371,-0.10474249699999999,7.9557650075,2.3810423015,-19.795461655,0.115142422
242,2.0165860000001885,14.14334011,22.223025319999998,18.374557499999995,-3.5999257565000002,1.2871638535,12.602903368,4.8714370725,-5.127080202,-0.7288978695
243,2.0249189999999544,14.135618685,22.09090805,18.328010550000002,-0.5562892255,0.006248742000000002,8.3927079445,-0.12120018900000001,-16.97718954,-1.466203988
244,2.033252000000175,14.140105725,22.021469115000002,18.3000641,-4.418483972500001,0.966563642,12.062747242499999,0.5000347385,-9.190740345,-1.2849957939999999
245,2.041584999999941,14.132119655,21.89479446,18.27414705000001,0.11071388400000001,-0.32378527500000004,9.088153483500001,-1.107706994,-15.785320285000001,0.585253328
246,2.0499180000001616,14.097156044999998,21.79454136,18.23200985000001,-3.8087483645,1.745359182,9.687753918,-3.6084121465,-13.1629204745,-1.9197169545
247,2.0582509999999274,14.10489035,21.7237854,18.22056579999999,-2.077161014,0.7577903420000001,8.689345598,0.1301074625,-8.8854830285,0.5056954625
248,2.066584000000148,14.046225074999999,21.585698125,18.182540900000006,-2.092623472,0.2529757935,12.651778221499999,-6.6570205685,-17.455896375,-0.39327465749999996
249,2.074916999999914,14.00750494,21.584001540000003,18.180923449999995,-3.1431823970000003,-0.157557599,8.793864489499999,-5.878038168,-0.5804826614999999,-0.44951064900000004
250,2.0832500000001346,13.925413605,21.43710804,18.133399949999998,-2.4070793395,2.1326167584999998,10.391702651500001,-9.062415838,-18.7387085,-1.2040680049999999
251,2.0915829999999005,13.864315985000001,21.45262051,18.127357500000002,-4.0390998125,-0.15838764600000002,11.1402974115,-8.36591053,1.304725528,-1.423517704
252,2.099916000000121,13.743559365,21.35333729,18.114829999999998,-1.8962151404999998,0.34938857300000004,10.4371438035,-15.245165825,-12.255318639999999,1.1722293795
253,2.108248999999887,13.63624668,21.37966728,18.090782199999992,-3.830475688,0.378820831,9.7317152015,-13.12360382,2.0933045150000003,-3.6769307854999997
254,2.116582000000108,13.485761165,21.298911095,18.098419199999995,-1.5316852925,1.306128621,12.140373705,-19.700254440000002,-9.571845054,2.7877838610000003
255,2.124914999999873,13.326368335000002,21.346512795,18.075782750000002,-3.5946247575,-0.04901631149999999,4.7652699945000005,-19.43458271,4.6303060055,-4.0987975599999995
256,2.133248000000094,13.20364237,21.318614005,18.097496050000004,-2.003406584,1.2702233195,9.692966461000001,-16.983619689999998,-3.0539797545000003,2.8154342175
257,2.14158099999986,13.046233655,21.333420750000002,18.070510850000005,-1.6921050545,0.701411113,12.46117258,-19.008488655,0.7053458095,-3.6576049325
258,2.1499140000000807,12.907550335,21.32559204,18.086593649999998,-3.20983243,2.118064344,8.8177142165,-18.64931488,-0.8641157374999999,1.6469253895
259,2.1582469999998466,12.782354835,21.358301165,18.059387200000003,-3.4652328495,0.09609849749999999,8.972807169,-15.12883949,2.8096705675,-4.1536625625
260,2.1665800000000672,12.684298515,21.34049606,18.09633635,-2.6811541315,2.5597935915,12.218532085,-14.687583445000001,-1.525289439,4.18614161
261,2.174913000000288,12.515718934999999,21.36486626,18.042381300000002,-1.6163905265,0.035755258000000005,10.800277232,-19.169988635000003,1.1978308055,-6.838266611
262,2.1832460000000538,12.391713145,21.38782501,18.07439425000001,-2.737552881,1.213925779,7.875497102000001,-17.584847449999998,3.108550608,2.5853158235
263,2.1915790000002744,12.244539265,21.363205905,18.013542200000003,-1.124990225,0.9945679605,7.378967047,-16.299395564999998,-4.67748642,-6.328721285
264,2.1999120000000403,12.125305175,21.354634285,18.015785199999996,-3.6003687380000002,2.2222071885,13.643837455,-15.71248722,-1.3051161765000001,0.146084439
265,2.208245000000261,11.957504270000001,21.33868313,17.953193650000003,-1.6861769560000002,-0.7938936055000001,8.6558837885,-18.69973564,-3.671885133,-6.758657217
266,2.216578000000027,11.830595970000001,21.288298605,17.94129185,-3.67140758,2.6458233595,10.4594073285,-16.01330042,-6.5429079535,-0.3700425405
267,2.2249110000002474,11.628899095,21.251961705,17.8590164,-1.874701202,-0.6494366225,9.376814603,-21.922881125,-6.4807178975,-8.438722133999999
268,2.2332440000000133,11.46258688,21.24356842,17.8453064,-2.109205246,0.4627368005,8.474417688499999,-20.66657734,-1.644844368,-1.613242686
269,2.241577000000234,11.21922779,21.149868015000003,17.748497,-1.4599241015,0.9434993269999999,10.551726818999999,-26.30253029,-13.49564552,-8.7251057625
270,2.24991,10.99941635,21.114725115,17.702987699999994,-1.998054862,0.9512788354999999,11.21688652,-25.720479015000002,-5.4715816975,-4.5034143925
271,2.2582430000002205,10.745295525,21.039977075,17.60521695,-3.0617632864999997,0.09561564399999999,7.324977398,-27.56914425,-11.21301937,-9.3676271435
272,2.2665759999999864,10.499211315,20.93183613,17.54664615,-1.759847045,1.405605495,14.57376957,-28.32573891,-14.31723642,-4.3777649405000005
273,2.274909000000207,10.17436075,20.870764735,17.4352188,-3.107600331,0.089727528,7.8202471735,-35.508348465,-9.791060447,-11.28606224
274,2.283241999999973,9.8762583735,20.781026840000003,17.359031650000006,-2.680755973,-0.1861510875,7.8689825535,-33.830312725,-12.44345236,-6.855676174
275,2.291575000000193,9.533043861,20.703742984999998,17.258148199999994,-2.003522158,0.303610027,11.083959100000001,-38.20210457,-11.389738560000001,-9.9091315275
276,2.2999079999999594,9.144729137,20.644497875,17.16260525,-1.909524024,-0.1108187215,8.2726442815,-43.85894394,-9.107996941,-9.746189117499998
277,2.30824100000018,8.755400657500001,20.59617138,17.04096220000001,-2.9600661995,0.666736931,12.189648625,-42.877649305,-8.193925142000001,-12.90400791
278,2.316573999999946,8.329261303,20.521039010000003,16.95043185,-2.661390662,0.020582059,10.397167206999999,-48.630649565,-10.77990961,-9.034872532
279,2.3249070000001666,7.883119344500001,20.500483515,16.814300499999987,-2.5988291500000003,0.6012607815,9.8455724695,-49.11556816,-4.9391593935,-15.109814165
280,2.3332399999999325,7.438078641500001,20.434549335,16.704872100000003,-4.0600709915,1.0437933799999999,11.501411914999998,-50.121097565,-9.834601877499999,-11.450339320000001
281,2.341573000000153,6.948156833500001,20.3881588,16.572273249999995,-2.9096429345,0.294697661,11.75128937,-54.541612625,-7.730634451,-14.411946775
282,2.349905999999919,6.455468655,20.373345375,16.471313449999997,-2.705446124,0.47483606599999995,9.213463783000002,-56.21772766,-3.442659378,-11.386335375000002
283,2.35823900000014,5.9159042835,20.30788326,16.311508200000006,-2.8172185425,0.5383855255,9.930218219,-59.382980345,-10.0875411025,-17.336213115
284,2.366571999999905,5.375168085,20.267372135,16.217681900000002,-2.412687302,0.10328070099999999,8.4303812985,-62.296937944999996,-6.229973554500001,-10.34903812
285,2.374905000000126,4.7902815345,20.223953245,16.061325100000005,-0.77532959,-0.925276786,7.0730292795,-64.99856949,-7.0889923575000005,-17.385226250000002
286,2.383237999999892,4.1776080135,20.117245675,15.941688499999998,-2.3912062645,0.4628589005,10.507454872,-69.88449478000001,-14.172081474999999,-12.749204635
287,2.3915710000001127,3.5369397405,20.05238247,15.769149799999994,-1.671063304,-0.410957232,9.0967345235,-71.07395554,-9.414871218,-19.18991184
288,2.3999039999998786,2.8727948665,19.935049055,15.65695190000001,-3.882548809,-0.050740406,13.35516548,-76.40584564,-15.11706066,-12.15592289
289,2.408237000000099,2.1252503395,19.817066195,15.45436860000001,-1.244633079,-0.37938722950000003,13.127556325,-82.746875765,-15.481993675,-22.533228875
290,2.416569999999865,1.3966947795,19.7501049,15.332954400000006,-5.742191076499999,0.28063812850000003,10.635214327,-83.806835175,-8.8060445775,-13.768104075
291,2.4249030000000857,0.5660975724999999,19.573689459999997,15.141380349999991,0.508354008,-0.09458813049999998,10.360728264,-93.24856949,-21.876656535,-21.595166204999998
292,2.433235999999852,-0.2951811705,19.44052887,14.988014199999995,-2.303549826,-1.135213077,6.32636714,-98.52453231999999,-16.3732481,-17.625450135
293,2.4415690000000723,-1.2045341729999999,19.185181614999998,14.7790222,0.12526410799999999,0.218132615,11.57761049,-102.1398506,-30.66912365,-24.375128745
294,2.449902000000293,-2.1524385214999997,18.992810249999998,14.624473550000005,-4.6805138589999995,-0.5520208035,14.59396887,-108.9973106,-22.91432381,-18.507650375
295,2.458235000000059,-3.1309460405,18.748162264999998,14.428939800000009,-1.7430917025000001,1.1455442905,10.999106882,-111.19664764999999,-28.649251935,-23.691656115
296,2.4665680000002794,-4.1439116,18.469650270000002,14.260177599999992,-3.3489111665,0.427364737,11.842625143500001,-116.40879824999999,-32.48937893,-21.59120941
297,2.4749010000000453,-5.1915211679999995,18.18701172,14.086502100000004,-0.526084818,-0.30613136300000005,5.999967574999999,-120.54030610000001,-32.548998835,-22.59471798
298,2.483234000000266,-6.27137208,17.76529217,13.933128350000004,-1.3360569775,0.40049821150000003,12.786949154999999,-125.22169875,-48.95723343,-22.786393165
299,2.491567000000032,-7.38574028,17.427946095000003,13.764350899999997,-1.6584941145,0.4983192235,10.960085871,-128.9812088,-38.262939454999994,-24.08743954
300,2.4999000000002525,-8.480200767500001,17.041469575,13.612136849999999,-5.5517098905,0.672648944,11.453886031,-127.24482725,-43.877950670000004,-23.98737526
301,2.5082330000000184,-9.5844287875,16.62469959,13.485450749999998,-0.17687691750000004,1.6351415815,15.618267535000001,-129.48275755,-47.48021507,-22.330200195
302,2.516566000000239,-10.715296745,16.23179245,13.342865000000003,-4.7400169375,1.1223341225,10.209162235,-132.18403625000002,-43.87158775,-24.77865505
303,2.524899000000005,-11.812337875,15.781548025,13.23590089999999,-0.926669538,0.878181577,7.8296170235,-129.47987365,-50.955179215,-22.769564629999998
304,2.533232000000225,-12.91138506,15.275354865,13.149673450000009,-2.845762134,1.2806491555000001,14.45909357,-130.4344635,-57.552263260000004,-23.05911827
305,2.5415649999999914,-14.060885429999999,14.815836430000001,13.052810649999998,-0.6930508315,1.214169309,11.550073145,-136.28982545,-51.385614395000005,-23.90287399
306,2.549898000000212,-15.16773796,14.326021195,12.970466600000009,-4.3381528855,0.46965338650000005,8.983165503,-131.65605165,-54.816682815,-24.395210265000003
307,2.558230999999978,-16.207989695,13.866424085,12.919151349999993,-3.2642621995,1.792907298,12.087089540000001,-124.69026945,-51.863094329999996,-20.81014824
308,2.5665640000001986,-17.257472035,13.358110905,12.842391950000007,-4.2066195010000005,3.8400261405,17.979310035,-125.08956144999999,-56.189769745,-26.44468689
309,2.5748969999999645,-18.30158901,12.91863537,12.816390949999999,-3.129521966,1.7399523255,12.944394585,-125.9012413,-49.629417419999996,-19.30782318
310,2.583230000000185,-19.32971096,12.46035385,12.759201050000001,-4.096927047,1.0895310935,5.6763923169999995,-123.1875076,-50.246543880000004,-24.382617
311,2.591562999999951,-20.278182985,12.018890855,12.758651700000001,-0.7058730719999999,1.7115662095,7.066659689,-115.11751935,-50.160842895,-18.319656369999997
312,2.599896000000172,-21.18358135,11.54596996,12.725883449999998,-2.7540153265,1.5029606819999999,12.651677135,-109.16360475,-52.06337929,-23.99882984
313,2.608228999999937,-22.036382675,11.094325545,12.7619629,-2.4529689550000002,3.4646984339999998,11.676264764999999,-104.49939345,-52.293087005000004,-16.321278095
314,2.616562000000158,-22.84061432,10.632983209999999,12.780593850000002,-2.3774505855,4.029663205,11.16975975,-98.24766922,-52.356077195,-19.41626263
315,2.624894999999924,-23.613752365,10.20599413,12.831054699999996,-1.8563424945,1.9464730024999999,9.071086883500001,-95.187625885,-49.775224685,-15.04028988
316,2.6332280000001447,-24.255031585,9.766324520000001,12.89307405000001,-2.000872612,1.937789857,7.6065814495,-79.55895996,-51.5454998,-15.021033285000001
317,2.6415609999999106,-24.813037875,9.378929138,12.961708099999996,-4.057999492,4.247144103,12.462177749999999,-69.644584655,-46.005023955,-12.21722746
318,2.649894000000131,-25.304696085,8.9550151825,13.051116950000008,-1.4942485689999998,2.089502096,9.5249152165,-62.021884915,-50.91729355,-12.26710653
319,2.658226999999897,-25.73090744,8.6094493865,13.095687850000004,-2.6622742415,2.5398882625,10.318740846,-53.27470589,-40.041007995,-13.400968075
320,2.6665600000001177,-26.08991623,8.2356061935,13.213493350000007,-3.8038834335000002,2.1403301955,12.335075855,-46.463884355000005,-46.812828065000005,-7.335157155999999
321,2.674892999999884,-26.39074707,7.9306516645,13.254020699999998,-3.034145117,2.3092029094999997,13.4440012,-38.0973053,-35.295827865,-12.176275255
322,2.683226000000104,-26.634232525,7.631182194,13.358932499999995,-3.6078048945,1.9491248135,12.448620795,-32.234604835,-38.073625565,-5.189013481
323,2.69155899999987,-26.84378433,7.3896090985,13.373420699999997,-2.334359169,2.5586054325,8.4862360955,-26.68594265,-27.009564400000002,-11.818470475
324,2.6998920000000908,-26.94560051,7.112575054000001,13.479530300000008,-4.5568358895,3.1925102475,11.99576664,-15.135029315,-35.71125412,-4.087697864
325,2.7082249999998567,-26.996806145,6.9230582715,13.472915650000004,-2.9080789685,2.186078787,13.05075598,-7.3587615490000005,-20.25668812,-11.334489825
326,2.7165580000000773,-27.04076862,6.756680965499999,13.529647850000003,-5.620749712,1.4307886060000001,7.3461642265,-7.396017313,-21.204414370000002,-3.362349987
327,2.724890999999843,-27.05456066,6.5975584985,13.503333999999995,2.3307014704999998,0.3079064115,6.404288530500001,-2.6011587975,-15.926995755,-11.797364715
328,2.733224000000064,-27.023759845,6.4351854325,13.530799900000005,-6.991335154,1.529433727,13.685141565,2.0158601405,-19.191401485,-6.2612416745
329,2.7415570000002845,-26.980466845000002,6.307187557000001,13.518074049999996,3.1729732755,1.0732363165,9.561651467,4.051051616500001,-13.343717575,-8.6512670515
330,2.7498900000000503,-26.949665070000002,6.1592719554999995,13.5267944,-6.212524414000001,0.474364169,11.841002945,2.271349311,-16.63986397,-7.4312484265
331,2.758223000000271,-26.927279470000002,6.0395174025,13.522140500000006,1.866820276,-0.06321807199999999,9.865255834,1.4312278035000001,-12.909289835,-7.317085743
332,2.766556000000037,-26.875695225,5.922802448,13.520576500000004,-7.0508656505000005,0.8103077315,12.92186165,4.900190115,-12.752376080000001,-6.8123316764999995
333,2.774889000000257,-26.808793065,5.814635515,13.518150299999988,0.8582579775,1.2676735225,13.462557315,6.7443637845,-11.8030228615,-6.4483144285
334,2.7832220000000234,-26.7822361,5.7307133675,13.531181350000011,-4.974737167500001,0.7029746474999999,9.788575650999999,1.7208477855000002,-10.03598547,-3.4752309324999997
335,2.791555000000244,-26.77532101,5.576790571,13.52973935,3.4728420975,-1.7050136925,4.03992188,-0.46783772850000005,-16.762440685,-8.797755241499999
336,2.79988800000001,-26.777317045,5.468375205999999,13.566963200000004,-5.9154736995,-0.2415542605,11.05283427,-1.9808836579999998,-13.965286255,-2.1971188185
337,2.8082210000002306,-26.757268905,5.3328490255,13.53537750000001,0.31699570299999996,0.26660981750000007,13.528933044999999,1.443624914,-13.17275667,-10.99988794
338,2.8165539999999964,-26.73510933,5.287077665,13.550178500000001,-8.220070362000001,0.9440723955,17.966668130000002,1.186790794,-6.049205542,-1.2104071675
339,2.824887000000217,-26.75395393,5.1745638844999995,13.514579749999996,2.2045325635,0.777095612,11.768223762,-3.191528201,-10.490356444500001,-10.204207895
340,2.833219999999983,-26.826127055,5.072954178,13.550407399999997,-4.1127099995,0.05552908750000002,9.4188447,-10.353775500000001,-13.164567945,-1.9913408160000001
341,2.841553000000204,-26.927631375,4.933077097,13.522911050000005,1.7867676614999999,-2.5788277385000002,6.522202253,-13.21703291,-13.831647400000001,-10.83507538
342,2.849885999999969,-27.023884775,4.8126847745,13.572990450000006,-4.1435511115,0.487855753,14.328000065000001,-13.370975014999999,-15.94311905,-1.51745826
343,2.85821900000019,-27.11822796,4.710829258,13.53074645000001,-2.729495645,0.340945374,12.053737640000001,-12.224993224999999,-8.9314751625,-10.37558079
344,2.866551999999956,-27.202721595,4.6332468984999995,13.578575149999992,-3.254526019,0.16142910699999996,11.665540218499999,-11.91258907,-11.247603892,0.509422481
345,2.8748850000001767,-27.3272295,4.513000487999999,13.561325049999994,0.2543348525,0.5872967840000001,11.521428584999999,-16.100249765,-12.224071505000001,-8.7680950165
346,2.8832179999999425,-27.473448750000003,4.4154262545,13.6123276,-2.9186993835,-0.7018431460000001,6.4462823865,-19.33095074,-13.558844090000001,-0.28700762949999997
347,2.891551000000163,-27.602603915,4.2768614295,13.628074649999988,0.25251779,0.017592847000000023,10.284778596,-16.97154522,-15.954967020000002,-6.322332382
348,2.899883999999929,-27.709423065,4.2192111015,13.641471850000002,-5.9245576855,0.33826115700000003,13.12070227,-14.245800495000001,-7.2316994665,-2.097786963
349,2.9082170000001497,-27.79913044,4.1569790845,13.652702350000013,-0.41862967300000004,1.620493859,14.488597395,-12.19207716,-7.575494766,-2.6076508165
350,2.916549999999916,-27.888867375,4.1165331605,13.631469750000008,-4.8087930675,0.440259993,14.081327915,-11.890161035,-3.46335876,-4.8385744095
351,2.924883000000136,-28.01783943,4.0650902984999995,13.67810055000001,0.5615206805,0.534502512,7.587901114,-17.207808495000002,-8.411300659,1.712062508
352,2.933215999999902,-28.136589049999998,3.9824441669999997,13.638999949999999,-2.9765071865,-0.8192906085,4.9907894135,-15.22839212,-6.904300213,-9.10977602
353,2.9415490000001228,-28.22448921,3.9407811164999997,13.70183560000001,-1.2225721475,-0.3618326785,10.9569678325,-12.401767255,-8.303040743,3.9636690615
354,2.9498819999998886,-28.30348301,3.890434861,13.638092049999997,-3.1134111879999997,0.6122927069999999,13.44673586,-10.265718458,-2.062068045,-9.894351007000001
355,2.9582150000001093,-28.36714554,3.8968712095,13.681571950000006,-4.35262084,3.0285471680000002,16.315958025,-9.3261251465,-2.1396791935,4.633980751
356,2.966547999999875,-28.470170975,3.889805913,13.603019750000001,-2.203422904,-0.260538716,10.3805651645,-13.030533315,3.3773334025,-9.000863075
357,2.974881000000096,-28.558698655,3.835341692,13.658874499999996,-2.081028521,-0.810630381,5.96131742,-12.40790367,-9.285475731,2.436548352
358,2.9832139999998617,-28.650918005,3.8217393160000004,13.59254455,-0.118856553,-0.2087620645,6.60923481,-11.84295559,2.02029115,-8.076432228
359,2.9915470000000823,-28.726742745,3.771924019,13.630714400000002,-0.7113204599999999,-0.9470145405,9.7424392715,-10.735728265,-7.789949894,0.8242982624999999
360,2.999879999999848,-28.79855442,3.7674156425,13.575248700000003,-3.843009591,0.038814857499999994,15.51297998,-9.490056038,2.3717568515,-6.386942147999999
361,3.008213000000069,-28.8725996,3.8130444289999996,13.558448749999997,-4.73698163,2.3371999265,15.164444924999998,-10.088321211,5.4137995245,0.569609389
362,3.016546000000289,-28.94631672,3.826331139,13.5106964,-1.8146584035000002,-0.858132243,12.55561066,-9.772311211,3.8091636895,-4.5554471015
363,3.0248790000000554,-28.998259545,3.8505718709999996,13.488632199999998,-3.4568034415,1.1481572985,11.2153830535,-7.392390251,3.4722720385,-1.224149227
364,3.033212000000276,-29.067481995,3.8800433874999998,13.469894400000001,-0.130858086,1.011494145,7.3801031115,-9.462495804,3.8313715459999997,-0.569231657
365,3.041545000000042,-29.137482645,3.8747211695,13.436080950000004,-1.1188251375,-2.2565300465,4.7143872975,-9.4657092095,1.0590782760000002,-4.165303946
366,3.0498780000002625,-29.150170325,3.8885498045,13.428092949999993,-0.90726424,-0.7942441105,11.680884840000001,-2.765229702,1.5635890364999998,-0.34346772000000003
367,3.0582110000000284,-29.156767845,3.9133427144999997,13.408218349999999,-2.8459818365,1.9547795055,15.3695302,-1.9694208205000001,3.4076217415,-0.9393060504999999
368,3.066544000000249,-29.17315674,3.9210335015,13.38481904999999,-2.8060023779999996,1.304173946,15.351740365000001,-3.083127916,1.8181559445,-2.3116525415
369,3.074877000000015,-29.194893835000002,3.9369555714999995,13.381690950000007,-3.887194753,0.04970848550000001,11.729747295,-3.9219682215000002,1.4976706505,0.2853874115
370,3.083210000000236,-29.19579792,3.9523041245000003,13.373382550000002,-0.34157945949999996,0.6855360715,7.8370733260000005,-1.3470718265000001,1.7428116315,-0.29950724500000003
371,3.091543000000001,-29.190750119999997,3.929633856,13.374465950000001,-2.5384327175,-0.6564506889999999,7.7632226945,-0.7443689405,-2.792701006,-1.5314047335
372,3.099876000000222,-29.179715155,3.8997009995,13.399551399999993,-0.7461401525,-1.0546184775,7.199097156500001,-0.189199507,-4.949816704,0.552812852
373,3.108208999999988,-29.144412045,3.8464249375,13.406105049999994,-0.1864868365,0.532820582,11.939263345,2.8388964535,-6.315798521,-2.7492977385
374,3.1165420000002086,-29.14716339,3.828241467,13.4315414,-3.5044960974999997,0.28807763750000004,16.077830315,-1.8437960075000002,-3.741849184,1.281051159
375,3.1248749999999745,-29.16526318,3.8147211075,13.429267849999988,-1.4986543655,-1.3827723265,8.746511699,-3.4982447625,-1.635641694,-1.34426719
376,3.133208000000195,-29.115139005,3.794373274,13.441932649999998,-3.7510756255,0.6131273355,11.88976908,4.605701923,-3.225645304,-0.173594087
377,3.141540999999961,-29.051077845000002,3.7915939095,13.44707489999999,-2.6835139989999997,1.041349888,15.66110134,6.3002119064999995,-0.9411374929999999,0.05161266049999999
378,3.1498740000001817,-29.038891794999998,3.7541142704999997,13.472534199999998,-3.5035725835,0.461674261,14.023753169999999,-0.04663068050000008,-5.765770912500001,0.164116807
379,3.158206999999948,-29.019125934999998,3.731071353,13.479286200000004,-0.8423244059999999,-0.153008448,8.1160526275,0.9716183245000001,-3.162711084,-0.9678402245
380,3.166540000000168,-28.981836315000002,3.6916406155,13.496444699999998,-1.3400215805,-0.6909194585,10.4086766245,3.0341535805,-5.4847443105,-0.8166011425
381,3.174872999999934,-28.939002035,3.6415764095,13.516860950000009,-2.3040190935,-0.6440143735,10.504289625,3.6340909005,-6.7930564884999995,-1.0868697765
382,3.1832060000001547,-28.90530586,3.567501664,13.559860200000003,-1.1946429015,0.3180894855,12.2931571,2.4102293845,-10.623716355,-0.1064271555
383,3.1915389999999206,-28.891577725,3.5289405585000004,13.572563150000008,-2.1691304445,-0.522619128,13.428551200000001,0.2013215015,-5.1397714615000005,-1.2242643835
384,3.1998720000001413,-28.847204205,3.5092790125,13.597816499999993,-2.8954234125,-0.283488512,8.165556669499999,3.8311786650000004,-3.8782318835,1.196421623
385,3.208204999999907,-28.804896355,3.4678323265,13.626052900000005,-2.2201983925,-0.08790642,13.48480034,3.5159189705,-6.340145111,0.24657546000000002
386,3.216538000000128,-28.778497700000003,3.4316965340000003,13.656829849999994,-2.4570521715,0.048293486,11.501012325,1.639445394,-5.9286513329999995,0.822287321
387,3.2248709999998937,-28.74307728,3.382826209,13.702827450000001,-0.6472905875,0.21142788950000002,10.1760702115,2.5684610005,-8.146549463,1.674613833
388,3.2332040000001143,-28.744628905,3.35597384,13.7141266,-2.4342670440000003,-1.109753698,11.24383354,-1.572976589,-3.826709032,-0.686173409
389,3.24153699999988,-28.726771355,3.3151776789999996,13.748870850000003,-1.773074329,-0.8366054895,5.625063658,0.54407835,-6.6499481199999995,0.9764722585000001
390,3.249870000000101,-28.673848155,3.246811509,13.786132800000004,-1.9361929295000002,0.25023689849999997,13.730209825,4.78725636,-9.6898474695,-0.34202052650000003
391,3.2582029999998667,-28.671923640000003,3.2194734809999996,13.802406300000001,-3.664931655,0.347264528,18.144212725,-1.2384354770000001,-4.170080185,-0.18325063600000002
392,3.266536000000088,-28.692575455,3.2351278065,13.805526749999999,-2.3782157899999996,-0.118271343,10.182448862000001,-3.805423975,1.116326019,0.905956298
393,3.2748689999998533,-28.69746971,3.266217351,13.784461950000008,-5.362708092,-0.39769452800000005,10.1161556255,-1.8037481905,4.129239082,-0.732765645
394,3.283202000000074,-28.691535000000002,3.3301469084999997,13.750068650000003,-3.0013598205,-0.795324713,9.5679230685,-0.35733785,8.3540263175,-0.251333304
395,3.29153499999984,-28.689888955,3.3529406785,13.749679600000007,-1.078300208,-0.026712358000000005,12.957771305,-1.1584422625,2.066370845,0.9476306434999999
396,3.2998680000000604,-28.734807015,3.437528372,13.687377949999998,-1.3739721775,0.4596034885,10.237842561,-6.254593134,12.137735365000001,-1.9969307785
397,3.308201000000281,-28.79483414,3.5329482555,13.650550850000002,-0.909220636,-1.7009125950000001,7.2678043845,-8.296395301499999,11.80120516,1.3213427665
398,3.316534000000047,-28.832990645,3.616703033,13.5968704,-3.4336893555000003,-0.693699449,11.2951507585,-5.4861791135,11.552424904999999,-1.0931580065
399,3.324867000000268,-28.85346794,3.715690613,13.538528450000001,-3.048481226,0.024768516500000004,13.40796566,-3.3704177140000002,13.4164896,-0.708867699
400,3.333200000000033,-28.88414574,3.8349024055000003,13.484725949999998,-2.7561570404999998,0.7098044004999999,15.337426185,-4.56369555,15.28590631,0.9399593175000001
401,3.341533000000254,-28.938504215000002,3.9741717579999998,13.402191149999993,-3.148660898,-0.0720283095,9.099088192,-7.2115945815,19.049037929999997,-0.8940459789999999
402,3.34986600000002,-28.981402395,4.0475311275,13.352897650000003,-1.4058399795,-0.9173595015,4.978046417,-6.040099859,10.2040143,-1.223688245
403,3.3581990000002406,-28.995474815,4.098403573000001,13.33982850000001,-0.15305150300000003,0.527242765,11.740881921,-2.9390287995,5.7439796925,1.263050824
404,3.3665320000000065,-29.060490610000002,4.161028862,13.28446199999999,-0.7245109975,-0.063439526,11.890604974999999,-8.630755662999999,9.434005737,-2.4668431285
405,3.374865000000227,-29.091597555,4.2252960205,13.265541099999993,-4.2381491659999995,-1.3531121609999999,7.737765312,-4.931412935,7.481143713,1.4670361280000002
406,3.383197999999993,-29.0854969,4.2599055765,13.246528650000002,0.019056081500000016,0.0817672465,15.879978654999999,-0.405972876,4.3851377965000005,-0.2884163035
407,3.3915310000002137,-29.117827415,4.29935503,13.221771250000003,-4.038677335,0.790315747,13.603073595000001,-5.02102375,5.218470573499999,-0.6112900675
408,3.39986399999998,-29.13924408,4.3384633065,13.209403999999992,-1.3892997205,-0.9834196865,6.739850044,-3.7657089235,4.4684482815,0.6693320125
409,3.4081970000002,-29.13634777,4.2853353025,13.229217500000004,-0.6155684594999999,-0.06560413400000001,13.18136072,-1.1926501095,-7.079800605999999,-1.363202512
410,3.416529999999966,-29.166202544999997,4.287455559,13.238098149999999,-2.1316981315,-0.044918597000000005,11.391435625,-4.9692320825,-0.6464520245,0.7304091305
411,3.4248630000001867,-29.19022274,4.2258300779999995,13.242141750000002,-3.671810031,-1.1331575815,8.3524494175,-4.281643390499999,-7.051554203,-3.5028042790000002
412,3.4331959999999526,-29.179327965,4.195046663,13.294090300000008,-0.73337622,0.48691347249999994,14.754380699999999,-0.45918644950000004,-6.6075057985,3.3081488610000003
413,3.4415290000001733,-29.21590042,4.1308972834999995,13.285659750000008,-3.6449985505,-0.0028895585,12.47035122,-5.6772229670000005,-6.585618972500001,-4.957872867500001
414,3.449861999999939,-29.226760865000003,4.123934746,13.3224716,-3.500855565,-0.5861766185,7.3112225535,-2.929596305,-3.234149456,3.1242899895
415,3.45819500000016,-29.211725235,4.038589239,13.35466765000001,-0.6821839510000001,-0.021059706999999997,13.52868128,0.16724817449999999,-11.175870415,-1.9636067750000001
416,3.4665279999999257,-29.24106121,4.0154147145,13.384216300000006,-3.4823566675000004,0.14100909250000002,9.3365130425,-5.0756976604999995,-4.5100586415,1.409378529
417,3.4748610000001463,-29.242991445,3.958420038,13.402221699999998,-1.197068274,-1.707010567,6.105870247,-1.745373219,-7.377866268,-1.7884818315
418,3.483193999999912,-29.230917935,3.9159551854999997,13.460845950000007,-2.345202923,0.1121816635,13.518221375,-0.34207817900000004,-8.225788116499999,3.3167940380000003
419,3.491527000000133,-29.264456745,3.8694665429999997,13.465248149999994,-1.017466441,-0.6093765499999999,10.358808993,-5.4207980629999994,-5.483117342,-2.5959961415
420,3.4998599999998987,-29.262631415,3.872891784,13.506797800000001,-4.534408331,-1.14600119,8.131539822,-1.426475942,-2.428056419,4.2281481030000005
421,3.50819300000012,-29.24352169,3.8573950530000003,13.522949249999996,-1.4564922455,0.7017232775,15.08543682,0.7994138935,-2.9216685294999998,0.45560041049999994
422,3.516525999999885,-29.257632255,3.867778182,13.5368347,-4.155834198,-0.755396724,12.61619043,-3.1125970485,-0.082061602,1.7426838279999999
423,3.524859000000106,-29.246554375000002,3.9123805765,13.530578599999998,-3.034803629,-0.4906685125,9.397944450499999,0.018685594000000007,4.676973819500001,1.639624774
424,3.533191999999872,-29.19917202,3.9640216825,13.5299835,-3.6439523695,0.4398468065,13.39874649,4.383805871,5.0907075405,2.64865911
425,3.5415250000000924,-29.18045902,3.980491161,13.525451650000008,-1.907462001,0.468116994,13.263269900000001,0.921446547,1.630416393,0.16092142099999998
426,3.5498579999998583,-29.12900543,4.058636427,13.508705150000011,-4.457835436,-1.0863682030000001,7.7843880655,5.009433984999999,8.811303854,2.493731618
427,3.558191000000079,-29.060685155,4.0895888805,13.506881699999994,-0.903446108,0.8837646095,13.78681803,6.8525955675,2.995488763,1.290989369
428,3.566523999999845,-29.024269105000002,4.121343255,13.502983050000012,-3.525025487,-0.5840491649999999,10.4614949225,3.09721601,3.2032588719999997,1.1186058225
429,3.574857000000065,-28.958727834999998,4.180811882,13.471855149999996,-1.7852962015,-1.3515236975,6.4271149635,6.774394989,7.6882600785,-0.1340585105
430,3.583190000000286,-28.872646335,4.2053222654999995,13.489517200000009,-2.808572054,0.0012181700000000184,14.29102564,8.867374183999999,1.1998541059999999,2.9637147185000003
431,3.591523000000052,-28.83390617,4.2256743905,13.462249749999998,-1.3411501645000001,-0.6818004625,11.43629074,3.5287513729999995,3.3561372755,-2.0117484335
432,3.5998560000002726,-28.75871468,4.2773149015000005,13.451065050000011,-4.750763178,-1.3338977250000001,8.787400245499999,7.8155381675,5.718526125,1.50191015
433,3.6081890000000394,-28.66592884,4.3080198764999995,13.458320600000008,-0.8403262195000001,0.5299196505,13.58556509,9.708019735,2.458691478,2.20384264
434,3.616522000000259,-28.618561745,4.3439347745,13.4367218,-5.0346074105,-0.8110458705,11.203644275,4.572621822,4.664858818000001,-0.5174651775
435,3.624855000000025,-28.531920435,4.4192042355,13.42604064999999,-2.18830657,-0.7349312004999999,8.6967000965,9.13520956,8.1859452725,2.869057298
436,3.6331880000002457,-28.45457077,4.457693577000001,13.431587199999996,-2.5922838445,-0.547577664,13.34146929,7.9237582685,3.3895515205000004,2.465069294
437,3.641521000000012,-28.425244335000002,4.5386662485,13.4145508,-1.9883764385,-0.8421751854999999,6.153890133000001,2.3199647665,9.155251742499999,2.5012878179999998
438,3.649854000000232,-28.360686305,4.5816464425,13.397987349999994,-2.4868599775,-1.993826568,8.113776206999999,6.597784519,5.1239287855,0.3952852785
439,3.658186999999998,-28.296796800000003,4.6561985015000005,13.415847799999995,-1.4831916095,0.1364951875,14.496460435,6.1355648039999995,6.5024628635,5.7926793100000005
440,3.6665200000002183,-28.268781660000002,4.7231533525,13.362045249999994,-3.1734250785,-0.875022322,7.484090328,2.5816910265,9.770660398,-2.172414005
441,3.6748529999999846,-28.190598485,4.822706461,13.36869815,-3.61608994,-0.3943725305,13.188025475,7.956109762500001,9.788539409999998,6.0324800015
442,3.683186000000205,-28.129934315,4.9081645015,13.314926149999991,-1.8226729035,-0.3764858845,15.338209630000001,6.51996994,11.72118521,-1.1525191069999998
443,3.691518999999971,-28.074715615000002,5.034447908500001,13.305755599999998,-4.8326654435,-0.3167738985,7.9098854055,5.360529184000001,13.5228796,5.8576636314999995
444,3.699852000000192,-28.014560699999997,5.096509695,13.257598900000005,-0.9742099049999999,-1.3500164744999998,12.015603064,6.423891306,8.9268376845,-1.9057570695
445,3.7081849999999577,-27.954558375,5.237199068,13.23974609999999,-3.482379198,-0.603670582,10.829145910000001,6.0355796815,15.547338485000001,5.707768440500001
446,3.7165180000001774,-27.92989731,5.2797367575,13.18357850000001,-1.229245067,-0.7487845120000001,9.197965143000001,2.2704904675,7.302765608,-3.85510242
447,3.724850999999944,-27.902419090000002,5.360586166,13.181900049999996,-1.0576678815,-2.003715336,7.950323584,1.9593928455,8.306037426,4.027076721
448,3.733184000000165,-27.85673714,5.4341981409999995,13.09761044999999,-2.1769008640000003,-0.769501746,10.649771214000001,5.12501812,12.16464281,-5.083997249499999
449,3.7415169999999303,-27.819210050000002,5.486929417000001,13.121437049999997,-3.5696674584999997,0.22504814699999998,13.985692499999999,2.873782873,3.903565049,5.1535265445
450,3.7498500000001513,-27.781746865,5.5761556625,13.04345705,-1.8490682244999999,-1.21812737,8.521580696000001,4.091958164999999,13.462838175,-3.5697348115
451,3.758182999999917,-27.70298958,5.6722695825,13.04639435,-4.305402279,0.2256694435,12.572937490000001,8.059976101,9.6828546545,5.3620016575000005
452,3.766516000000138,-27.675757405,5.7165293695,13.011917100000005,-0.9253513215,-1.038992524,11.985789297,2.372909188,6.2607917785,-1.5095045565
453,3.774848999999904,-27.610196115,5.8069047925,13.029075599999999,-2.77525568,-1.466222584,2.6902534965,6.3043489455,8.297225475000001,6.522607088
454,3.783182000000125,-27.54689121,5.809788704000001,13.011398299999996,0.2590551,-1.066067681,11.816792013,6.5066759585,0.931205466,-2.0368504525
455,3.7915149999998894,-27.505820274999998,5.8801693915,13.028244049999998,-4.3536171915,-1.1381884815,10.094483855,3.3677214385000003,6.197134495,5.3626351355
456,3.799848000000111,-27.448559760000002,5.869949579,13.028274550000006,-1.2105727795,-1.4332692625,11.0598521255,5.5613949300000005,-1.4399618505,-0.8735415045
457,3.808180999999877,-27.39814949,5.973092556,13.017227149999997,-4.1432166100000005,-1.1095921995,13.827804085,4.8331701755,11.231042865,4.196002721999999
458,3.8165140000000974,-27.357692715,6.0125477315,12.990333550000003,-3.736351013,0.10892304749999998,12.557035925000001,3.8807679415000003,5.3302651645,-0.9748330414999999
459,3.8248469999998633,-27.328713415,6.0922217365,12.991966250000004,-2.725767732,-2.1335654855,11.625099657,2.1074815989999998,8.037958622,4.219452023500001
460,3.833180000000084,-27.26444626,6.170294285000001,12.96269989999999,-1.2927996815,-0.33914341,6.633800745,6.775484562,9.5790779605,0.888256937
461,3.84151299999985,-27.24481964,6.1732435225,12.979858399999998,-2.1048565505,-0.898255676,12.555770875,0.785383642,-0.9891833660000001,1.640021801
462,3.8498460000000714,-27.2120142,6.2308681015000005,12.967613200000002,-1.3860061765,-2.665406227,7.2343153954999995,2.7860924005,6.4684209825,1.5500647425
463,3.858179000000291,-27.180278774999998,6.228463411,12.999481199999991,-2.436306,-0.743316516,14.74702263,2.042664677,-2.3571306465,2.91961956
464,3.866512000000057,-27.177991865,6.3096113205,12.9713974,-3.6495645045,-0.44360320799999997,10.550163031,-0.6671611964999999,9.8414316185,1.1571424605
465,3.8748450000002777,-27.157433509999997,6.3417367935,12.982605000000007,-4.8199603555,-1.086358994,10.3923611625,0.967507377,2.4555151459999998,2.626695037
466,3.883178000000044,-27.14490795,6.4333024025,12.961875950000007,-0.692718357,-1.9562239645,12.141900540000002,0.47315260800000003,10.554110049,2.486636639
467,3.891511000000264,-27.133048055,6.4638016225,12.960556050000008,-4.911010742,-0.4249478725,6.383077145,0.089598656,2.9658914210000002,1.210176587
468,3.89984400000003,-27.152639389999997,6.5182402135,12.959419249999996,1.430334717,-1.796644449,6.4887014625,-3.6400709155,5.523536682,2.5240074395
469,3.9081770000002503,-27.125307085,6.5431973935,12.936386100000007,-3.8504275085,-2.4755851035000003,8.692811012,2.2412136795,3.5565428735,-1.3964815735
470,3.9165100000000166,-27.134477615,6.5724248885,12.959693950000002,-1.776879251,0.391691193,17.690461155,-2.727153957,1.5025373100000001,3.7529911995
471,3.924843000000237,-27.15757656,6.6740250585,12.895912199999998,-5.4534757135,-1.7382971045,7.484065891,-3.24096334,13.955694675,-1.52082628
472,3.933176000000003,-27.13334465,6.7066264155,12.90138245,-1.1766386925,-0.668528169,14.224528789999999,1.524412021,2.832569599,2.045777023
473,3.941509000000224,-27.12411213,6.8298676015,12.83003235000001,-4.771614313000001,-0.47727844099999994,12.74166584,0.7697655405,16.674390795,-1.1541969775
474,3.9498419999999896,-27.12952423,6.868928671,12.841896050000003,-1.413300455,-1.457536101,6.7687492375,-2.127857804,3.177221775,3.08037436
475,3.9581750000002094,-27.107214925,6.9451096055,12.781562799999989,-0.4468649885,-1.4615928535,6.252625704,2.202894926,11.0522303565,-2.5703183415
476,3.966507999999976,-27.075376509999998,6.965834141,12.782051100000004,-2.867284417,-1.6412041785,13.0830164,2.501966596,1.8352409295,0.8791254159999999
477,3.974841000000197,-27.073747635,7.0474660395,12.737731949999997,-2.491587043,-1.4284942150000002,10.570435998499999,-0.500297278,10.761367796,-0.577953264
478,3.9831739999999622,-27.023946764999998,7.1217682364999995,12.720718350000013,-4.262894034,0.1025087835,9.9195542345,4.9173383715,8.511195661,1.9509405495
479,3.9915070000001833,-26.98559952,7.200325489,12.666976900000009,-1.471095085,-1.8245850205,12.7584166545,4.0638718605,10.9421920775,-1.7669150230000001
480,3.999839999999949,-26.93604755,7.2894186975,12.652023299999996,-4.8919165135,-0.627851605,6.4516888859999995,4.861165881,9.9834501765,2.9601923230000002
481,4.00817300000017,-26.9066782,7.3212137219999995,12.621841450000005,1.2005578575,-2.0734187365,9.069078324500001,2.6443306205,4.6676121205,-1.8292983770000002
482,4.016505999999936,-26.84168434,7.3826251030000005,12.611244200000002,-3.3547068835,-2.399661064,6.66399312,6.651344776,6.792402506,1.903682172
483,4.024839000000156,-26.814732555,7.3953564165,12.61109925000001,-0.084412575,-0.5504853574999999,12.0505561855,1.8927960395,1.0091623665,0.3366927055
484,4.033171999999922,-26.761213305,7.490704775,12.576698300000004,-5.585850954,-1.115564704,15.148312091000001,5.6450383665,11.7057142245,1.2080507274999999
485,4.041505000000143,-26.716097830000002,7.527190685000001,12.569244350000005,-1.8125703335,-1.738847196,12.461108922000001,4.190175652500001,3.947301596,0.8315726225
486,4.049837999999909,-26.685368535000002,7.644155264,12.53297425000001,-4.827805996,-0.879666954,9.43496442,2.949818969,14.126194955,2.151397586
487,4.058171000000129,-26.689779280000003,7.6210811135,12.533981300000008,2.6951568129999997,-3.0768845085,6.5225350255,-1.883548856,-2.8863790034999997,-1.4964668154999998
488,4.066503999999895,-26.682207105,7.6839604375,12.49210355000001,-4.5309187175,-1.6914021375,12.172288419000001,0.265382713,8.62501192,-1.3531425595
489,4.074837000000116,-26.72621727,7.677684307,12.508209250000007,0.0700681545,-1.4090702835,10.732107164,-6.8795673845,-1.894275427,1.028046489
490,4.083169999999882,-26.72948551,7.722963333,12.488479650000002,-5.561542034,-1.2989949285,9.9258710135,-1.389988542,5.555690233,0.06596945800000001
491,4.091503000000103,-26.747951505000003,7.733379363999999,12.48539735,-0.008278041999999985,-1.6709609625000001,10.691231845,-3.5035346745,0.9201793670000002,-0.1298065485
492,4.099835999999868,-26.793486594999997,7.751335382500001,12.477088899999998,-3.9817789795,-1.5958034995000001,9.3693168185,-6.645504236500001,2.0178124905,-0.20012401800000001
493,4.108169000000089,-26.866970065,7.721889734,12.489814749999994,1.278057337,-2.9901359085,7.027673051,-10.35761118,-4.1973799465,-0.6098942755000001
494,4.116501999999855,-26.91944599,7.69128418,12.505760199999997,-3.7059149745,0.2111918085,13.779901027000001,-7.8707749845,-4.4836710695,-0.24479522950000002
495,4.124835000000076,-27.002194404999997,7.712372303,12.503753649999993,-0.6073636560000001,-2.2455483675,7.7507135855,-11.23542261,2.0031358,0.5803097484999999
496,4.133167999999841,-27.06149197,7.631774664,12.546195950000012,-4.0032576325,-1.165094912,17.11397791,-9.1118879335,-11.259746311499999,-0.17828781900000001
497,4.141501000000062,-27.124893184999998,7.697637558,12.517372100000003,-3.0150672795,-1.613275647,7.9255486715,-8.479690075,8.2347409145,0.1820532005
498,4.149834000000283,-27.203145024999998,7.585548401,12.574249250000008,-1.4967155155,-0.40910696999999996,12.836493015,-11.613914965500001,-15.403862955,-0.40857259949999997
499,4.158167000000049,-27.28378296,7.628100157,12.55413815,0.017572880000000013,-3.9217188355,3.8062455950000005,-10.693206785000001,5.2741773255,-0.1488507355
500,4.166500000000269,-27.350381855,7.4712319375,12.643127449999994,-2.0805285575,0.212567322,15.304733755,-10.710502624,-21.932144165,0.48222035199999996
501,4.174833000000035,-27.464967725,7.517303944,12.631736749999988,-3.560477376,-2.078282416,9.028374672,-14.90958118,5.169945598,0.99455604
502,4.183166000000256,-27.53531742,7.3812520505000005,12.71819305000001,-2.5737524030000003,-0.9205558599999999,13.331915855,-11.101143835,-19.58104658,1.2918224635
503,4.191499000000022,-27.621269225,7.4762709140000005,12.676925650000001,-4.722942829,-1.006805459,10.536582945,-11.010107994999998,12.0179514885,0.5808220655
504,4.199832000000242,-27.73193741,7.363131523,12.758697500000011,-2.224136114,-0.766528994,10.7272720315,-15.85987425,-16.893317695,2.00990504
505,4.208165000000008,-27.826470375,7.4512903690000005,12.72515109999999,-2.6777268645,-2.34114331,7.38091135,-12.16411877,10.859111546,1.0553514955
506,4.216498000000229,-27.912243845,7.3524222375,12.797935500000008,-2.2090834975,-1.1478125155,8.445792198,-12.73100281,-14.887940879999999,1.8083848955000001
507,4.224830999999995,-28.01966667,7.4378061295,12.767219499999996,-1.535352528,-0.859095216,7.2174613475,-13.7529583,10.403089759,1.2342543005
508,4.233164000000215,-28.080795285,7.3845124245000004,12.803871149999992,-2.6513186695,-1.7142513990000001,13.511681075,-9.2156114565,-8.0467827335,0.5404796005
509,4.241496999999981,-28.140594485,7.469309568,12.763809200000011,-4.3432775735,0.4379274845,14.615513804999999,-7.8925089835,10.862506389,0.25675074750000004
510,4.249830000000202,-28.189460750000002,7.514549494,12.753067049999999,-3.5422831775,-0.659004405,8.3502743265,-7.006691932500001,5.035548091,1.1336926225
511,4.258162999999968,-28.23643398,7.571804285,12.700668349999987,-1.9908330445,-2.188762188,11.857064246,-6.1515219210000005,8.640957117500001,-2.5829844475
512,4.266496000000188,-28.25393009,7.667305231,12.665382399999999,-3.4565598965,0.097335018,9.9038946615,-2.848130345,11.730289935,1.4163841605
513,4.274828999999954,-28.326019289999998,7.6982610225000005,12.651184049999998,-0.40467801699999995,-2.294310331,11.2382223605,-9.761258603,3.7115990519999995,-0.063408042
514,4.283162000000175,-28.368989945000003,7.782565117,12.605194049999994,-1.521265924,-1.6663044095,4.6611919405,-5.723136425,11.148436065,-0.321913354
515,4.291494999999941,-28.38326168,7.799855947499999,12.610115050000005,-2.1809579135000003,-0.376274094,10.063809633,-3.134138703,1.189339399,1.1742526290000002
516,4.299828000000161,-28.395706175,7.9411029815,12.54270935000001,-3.8255175350000004,-2.016834736,12.566549777999999,-1.6947343350000001,18.366532325,0.700684011
517,4.308160999999927,-28.396419525,7.9333922865,12.561454749999996,-1.3473964335,-0.19862882799999998,10.4555499555,-1.736894846,-2.2318513395,1.192886889
518,4.316494000000148,-28.374648094999998,8.093463421,12.49485014999999,-4.0296384100000004,-0.446506141,8.5610880855,2.4193357224999996,20.30756855,1.8472927215000001
519,4.324826999999914,-28.38871384,8.0609064105,12.520881650000007,-0.394347012,-2.6919072865,10.146048547,-3.467751622,-5.264257431,0.5359587075
520,4.333160000000135,-28.393069269999998,8.180385113,12.47112270000001,-1.9585078955,-1.209545672,6.4931256775,-0.9839968235,15.069595815,1.2920015455
521,4.3414929999999,-28.386136055,8.11301589,12.534072850000001,-0.9462163,-1.1617493625,11.3526673315,-1.5802577734999999,-11.025155068499998,2.4158900975
522,4.349826000000121,-28.36229515,8.2441563605,12.463958749999989,-3.8451908825,-1.2574701309999998,6.6494971524999995,2.7483248710000003,17.45082283,-0.163169123
523,4.358158999999887,-28.310577395,8.162786484,12.525260899999992,-0.4948554225,-0.792752385,14.721845625,3.8165023325,-12.407479285,1.4477102755
524,4.366492000000108,-28.25010109,8.309258460999999,12.442260749999988,-5.6378364565000005,-1.4562449755,13.137890577999999,7.377625226999999,19.795116425,-0.668909535
525,4.374824999999873,-28.221979140000002,8.225903034,12.507133499999995,-0.8474083245,-1.308938503,10.6815795905,0.9169769584999999,-12.816640855,1.719016373
526,4.383158000000094,-28.16025734,8.365289688,12.4291992,-3.0398129224999995,-1.2925453185,7.155777454,7.4464764595,18.764245985000002,-0.566657528
527,4.39149099999986,-28.132019995,8.257278919,12.490104649999992,-0.016642511000000026,-2.8374450209999997,11.157127619,0.9949465395000001,-15.19971323,-0.0744926075
528,4.399824000000081,-28.09621048,8.340493679,12.444709750000001,-3.5916634795,-0.969594419,10.466685533,3.7723050115,10.995058535,-0.3481038805
529,4.4081569999998464,-28.048038480000002,8.282631397500001,12.484519949999992,0.1369041205,-1.165993631,7.059887499499999,3.756628394,-8.7089235805,0.548240721
530,4.416490000000067,-27.97296333,8.314626217,12.472755399999997,-5.4320156575,-1.851485014,13.674228909,7.8978619575,3.6937267780000003,0.286885843
531,4.424823000000288,-27.92027569,8.3020272255,12.476455650000005,-0.18208229550000002,-1.6799932714999999,8.753108622500001,4.927749872,-1.9014985560000002,-0.6807560025
532,4.433156000000054,-27.864782335,8.299515723999999,12.491737350000008,-4.242583036,-1.1783940195,13.560312988,5.07875824,-1.466402054,1.1833712164999999
533,4.441489000000274,-27.859260560000003,8.327917575499999,12.463775650000002,-1.576608747,-3.305709958,7.038589237999999,-0.18319305800000002,4.2059470405,-1.7077844144999998
534,4.44982200000004,-27.83285618,8.254076481,12.520881649999993,-2.3943327665,-0.4185517095,8.8631474975,0.867208451,-11.3539409645,1.5634739995
535,4.458155000000261,-27.807660105,8.359052658,12.454917899999998,-1.080135189,-2.5089153050000004,5.555927992,2.8340684769999998,14.4383969295,-1.4064331655
536,4.466488000000027,-27.80903816,8.1931777,12.5448837,-0.834036991,-2.0583423375,15.030164240000001,-3.0324775575,-22.942523004999998,-0.127456442
537,4.474821000000247,-27.794759749999997,8.327632904000001,12.448089600000003,-5.154818058,-1.4312089085,7.827285292,2.044125557,19.275428775,-2.969055891
538,4.483154000000013,-27.797595025,8.200115204,12.53952790000001,-0.9853601755,-1.1125121715000001,14.040007590000002,-3.2252884955,-18.95293236,2.160977602
539,4.491487000000234,-27.778928755,8.3459796905,12.442741400000003,-5.483629227,-2.160429299,8.346628427999999,2.571343601,20.48617649,-2.3350777625
540,4.49982,-27.76775551,8.2480773925,12.493812550000001,0.4197203665,-0.6666243225,10.778936744,-0.8469091055,-13.57315922,-0.4432992635
541,4.50815300000022,-27.744358065,8.390227317499999,12.402923600000008,-5.421422005,-1.187418699,8.651428996,3.043388128,19.764033315,-1.915439427
542,4.516485999999986,-27.72727108,8.307785988,12.4505463,2.1500800845,-2.7457863089999996,7.307320356,-0.08133792900000003,-11.741357089000001,0.058784680500000006
543,4.524819000000207,-27.688147545,8.4072666165,12.382766700000005,-5.440037727,-0.557430938,12.287033555499999,4.532613039,13.953070639,-1.8689368365
544,4.533151999999973,-27.704100609999998,8.378880978000002,12.401756250000005,1.175274074,-2.6809828875,8.2498978365,-3.5489230154999998,-4.4181876925,0.06908160449999999
545,4.541485000000193,-27.672219275,8.434490203500001,12.362823449999993,-6.0677888395,-1.256082684,15.359263895,3.1655800345,7.7008758765,-1.2875187995
546,4.549817999999959,-27.668416025,8.4863648415,12.341339100000013,-1.7042647005,-0.851012796,6.6416279545,-0.4641108325,6.342962742,0.28627108149999997
547,4.55815100000018,-27.644111629999998,8.496640681999999,12.342201200000005,-4.2620751855,-1.9639993310000001,8.472702503999999,1.5563272979999998,0.6873710155000001,0.36996559749999997
548,4.566483999999946,-27.625128750000002,8.596260548,12.294395449999996,1.901940003,-3.1377671955,6.0864018205,1.8290935755,12.8697662335,0.1620228905
549,4.5748170000001664,-27.644242284999997,8.5013012885,12.325775149999998,-3.9285827875,-0.5536743705,14.72384739,-4.195298314,-12.1805872895,-2.288062215
550,4.583149999999932,-27.648139954999998,8.6100025175,12.2729645,-1.1581869425,-3.129225731,5.1037317515,-0.8279545865,14.10967541,0.16382228199999999
551,4.591483000000153,-27.64307022,8.5094642635,12.330787650000005,-2.7546104195,-0.9030223935,16.39976025,-1.7649109065,-14.228435515,0.171154378
552,4.599815999999919,-27.623345375,8.6393265725,12.256820649999995,-4.6339297295,0.16488218349999997,8.969284057,2.3811318875,17.524398805,-0.856380105
553,4.60814900000014,-27.61503029,8.5465774535,12.305313099999992,-0.265150696,-2.5742565395000003,12.750916244,-1.2060335405,-12.88912964,-0.4007924195
554,4.616481999999905,-27.58988762,8.663449287,12.249183650000006,-4.574500084,-0.743432373,11.7695198035,2.7129514215,15.16422558,0.295524262
555,4.624815000000126,-27.589240075,8.596764564499999,12.28173065,0.024193480500000003,-2.2618665695,5.995344641,-1.8376487495,-9.240971922,-0.6447936295000001
556,4.633147999999892,-27.563762665,8.6428279875,12.273139950000001,-3.59970808,-1.979110897,12.5449583505,1.8974193635,5.0215557665,1.367806524
557,4.6414810000001125,-27.579376224999997,8.6657891275,12.248184199999997,-0.675480217,-1.967133701,4.269435763500001,-2.756494999,3.4527216554999995,-1.701598525
558,4.649813999999878,-27.563608170000002,8.631150246,12.28764344999999,-3.0436025855,-1.6219473485,16.18506241,-0.13346302500000007,-6.2024417515,1.9378640655000001
559,4.658147000000099,-27.550094604999998,8.771045208,12.207138050000012,-4.2240858075,-1.4662628175,8.317041397,1.7504966855,18.939587595,-1.0470142065
560,4.666479999999865,-27.550070759999997,8.7068681715,12.275726300000002,-2.7671828865,-1.0755722525,10.0076298695,-2.558996558,-10.941856862,3.347325921
561,4.674813000000086,-27.553218845,8.90804863,12.164047249999996,-2.392596036,-3.012979746,7.900461674000001,0.3376983699999999,27.171629905,-0.909619659
562,4.683145999999852,-27.59614754,8.808270453999999,12.238662750000003,1.3863761575,-2.2487055655,5.482466459,-7.8362348075,-15.060705185,1.9748514894999998
563,4.691479000000072,-27.592161175,8.919868469,12.178855900000002,-3.9632723335,0.107298791,10.071974037499999,0.243661866,14.794508935,-0.392711103
564,4.699812000000293,-27.619264604999998,8.928168773500001,12.209358249999994,-0.43175446349999996,-2.9630361795000004,9.2898206715,-5.1233911515,-1.1459164620000002,3.3264243605
565,4.708145000000059,-27.622406005000002,8.930572510000001,12.211662250000003,-4.06037879,-1.5750783085,13.031752109500001,-1.7637128235000001,-0.22928547900000007,0.0827531815
566,4.716478000000279,-27.616039275,9.086639881,12.1684494,-3.581072092,-1.687582195,8.9176864625,0.271184395,18.615042685,3.8095617295
567,4.724811000000045,-27.672041890000003,9.031209946,12.202316299999993,-0.06624642000000003,-2.1635658145,12.64757538,-8.6982305045,-8.1128556725,0.147954259
568,4.733144000000266,-27.682977675,9.183275222999999,12.146789549999994,-4.5989992619999995,-1.4056316615,7.466615915,-1.5656897425,18.86395931,2.33120966
569,4.741477000000032,-27.710590365,9.1625699995,12.17450715000001,0.9135074915,-1.9704598185000002,7.655567648,-5.177988052,-4.0848622325,1.41716522
570,4.749810000000252,-27.717985155,9.2026252745,12.190978999999999,-4.402432919,-0.349117942,11.9007396685,-2.513403177,2.9953989685,3.657245159
571,4.758143000000018,-27.733016015,9.2686066625,12.164238000000012,-0.35042758500000004,-2.5488466025,8.1494841575,-2.6262341735000003,8.1253802775,0.5481766985000001
572,4.766476000000239,-27.75338364,9.228415012,12.203193649999989,-1.4139077064999999,-3.379262924,9.404496432,-4.500517726,-6.770080328000001,1.512898505
573,4.774809000000005,-27.767133715,9.245067120000002,12.20257565,-4.6914572715,0.4599545895,11.0074143395,-2.980260849,1.445257604,0.5590755045
574,4.783142000000225,-27.777827260000002,9.291526794,12.190948449999993,-3.1174077985,-2.908026457,11.984346389999999,-2.3637137415,5.2205590005,1.0543907585
575,4.791474999999991,-27.788800235,9.266032219,12.21163175000001,-0.7882264704999999,-0.9223087725,9.409574032,-3.0551315545,-4.2057487965,0.413445756
576,4.799808000000212,-27.794193264999997,9.217219353,12.23024749999999,-4.059156537,-1.786863923,12.421356679999999,-2.314201474,-6.5646152495,-1.0937215685
577,4.808140999999978,-27.774213789999997,9.2453188895,12.231597899999997,-2.4266985654999997,-1.1921364665,9.3967621345,1.0336176755,2.552977204,1.3875679375
578,4.816474000000198,-27.78127289,9.176445960999999,12.261505099999994,-1.3703705075000001,-3.6629594565000003,4.642819822000001,-2.7265009879999997,-9.3183252835,-1.047615796
579,4.824806999999964,-27.78422451,9.140553951,12.29788975000001,-2.230856955,-0.5683157145,12.894406316,-2.390621781,-6.1749204395,1.49293226
580,4.833140000000185,-27.798089025000003,9.099695206,12.302124050000003,-1.587301016,-3.3085345029999997,8.835775612499999,-3.051148772,-4.925637245,-2.1667530535
581,4.841472999999951,-27.783995625,9.0775752065,12.331817599999994,-2.296651304,-1.2545925975,8.0028524395,-0.2088648905,-4.3456281425,1.5467221145
582,4.849806000000172,-27.786265375,8.9840350155,12.381767300000007,-2.965244532,-1.356043458,10.974599839500002,-2.520908415,-13.043787954999999,-0.3120646625
583,4.858138999999937,-27.750819210000003,9.019388199,12.38519285000001,-3.0140274765,-2.089082241,10.1288189875,2.8499745130000003,3.2103410955,2.0132086275
584,4.866472000000158,-27.747728345,8.932570457499999,12.423194899999999,-0.31895297750000007,-2.906653643,6.376222670500001,-1.6443762185000002,-11.6720175755,-1.1974080205
585,4.874804999999924,-27.706054684999998,8.9031395915,12.467536949999996,-4.620665312,-1.0991543529999999,9.8973731985,2.835041344,-5.9278581145,2.699157834
586,4.8831380000001445,-27.689844129999997,8.8955025675,12.466232300000001,-3.0228861570000003,-2.137399137,13.46290016,0.661596477,-1.0951685905,-0.876871288
587,4.89147099999991,-27.66612148,8.913707732999999,12.466148399999994,-1.294448197,-1.5316538215,13.48737478,1.512373328,1.5828701855,0.6687940955
588,4.899804000000131,-27.664544104999997,8.830116272,12.502891500000004,-2.7478495835,-1.8470543025000001,10.586360935,-1.7996565174999999,-11.260064125,-1.1071563365000001
589,4.908136999999897,-27.624798775000002,8.9198703765,12.488075300000006,-3.839747548,-1.5049625935,10.6174664485,3.702326536,9.999369622,3.117848158
590,4.916470000000118,-27.618080135,8.8879852295,12.50076295000001,-0.4912346605,-2.505689621,4.8649766445000004,-0.7341232185,-4.4405032395,-0.76931718
591,4.924802999999884,-27.60223675,8.891515255,12.52417754999999,-3.513407826,-2.2991775275,14.06234026,0.1255226135,-1.2690700295,2.3407633304999997
592,4.933136000000104,-27.57562923,8.94991827,12.5051117,-4.9871103765,-0.522413969,10.467407942,2.239548862,6.906296253,0.92655018
593,4.94146899999987,-27.541350365,9.020539284,12.498168950000007,-2.5645575525,-2.3912930489999997,8.816791294000001,2.9071708915,7.5334086414999994,2.8536115884999997
594,4.949802000000091,-27.531938555,9.0320339205,12.489921550000005,-3.6627397535,-1.369118512,14.845623015,-0.02516603449999999,1.3214381935,-0.5345882625
595,4.9581349999998565,-27.502980235000003,9.1363015175,12.451774600000007,-2.867199063,-1.372889638,9.028477905999999,2.8589394094999996,12.82703972,1.4402437209999999
596,4.966468000000077,-27.461019515,9.1654233935,12.428474399999999,-0.905501157,-1.8037561775,7.602018834999999,4.175664544,4.019635439,-1.1613942385
597,4.974800999999843,-27.461523055,9.183815002500001,12.435134899999994,-3.3131408689999997,-3.513177991,8.7744226455,-1.528753698,1.2362006605,1.3928316834999999
598,4.983134000000064,-27.42832565,9.251567364,12.391891450000003,-1.7754326465,-1.7236196995,10.1336548335,3.5052505729999996,9.2247815125,-1.1105629205
599,4.991467000000284,-27.4188385,9.286893368000001,12.378532449999994,-0.6127628685,-2.9702720645,8.2312383665,0.06015500400000001,4.133017063,0.2123355975
600,4.99980000000005,-27.38831234,9.309949398,12.376037600000004,-3.292667389,-2.6085932255,10.979822635,2.403748751,2.2381141185,0.6957018669999999
601,5.008133000000271,-27.35949707,9.342590332,12.394027699999995,-2.6911696195,-1.038694322,9.2798948305,1.766863555,2.1397556065,3.372735381
602,5.016466000000037,-27.32427502,9.420343876,12.346519450000002,-2.359043837,-3.0073657035,11.701707840000001,3.8484812975000002,10.5207343085,-1.0314150155
603,5.024799000000257,-27.326601025000002,9.394766331,12.376235950000009,-1.2851524054999999,-2.7203809025,7.62977147,-2.1999617815,-4.70161438,1.3845325709999998
604,5.033132000000023,-27.32065296,9.424279213,12.350997899999996,-4.7868902685000005,-1.7599204780000002,11.294067385,-0.09943440599999998,4.1646761895,-1.3415902855000001
605,5.041465000000244,-27.33273697,9.4703154565,12.34719849999999,-3.0016616584999998,-2.390560627,14.012978555,-2.7166136505000003,4.7545461655,1.816298902
606,5.04979800000001,-27.334774969999998,9.525844574,12.29241180000001,-1.4748619795,-1.0397926275,10.2615571015,-0.465846196,8.545389890500001,-3.0244972705
607,5.05813100000023,-27.351378439999998,9.491291046499999,12.31250765,-2.4774957895,-2.679304838,8.813804626,-3.7324107885,-5.13511014,-0.11594287500000001
608,5.066463999999996,-27.356235505,9.5325579645,12.286567700000006,-3.7871285675,-2.083160698,12.810561655,-1.378321171,5.4560177329999995,-0.7616969345
609,5.074797000000217,-27.3640461,9.568903923,12.27392574999999,-2.013394654,-0.456360318,6.3220899105,-2.0250678655,4.2026109695,0.3422382325
610,5.083129999999983,-27.3901701,9.5527057645,12.270370450000001,-0.546353504,-2.7026476859999997,8.0308234695,-4.369398117,-1.8849133550000001,-1.595132947
611,5.091463000000204,-27.398951529999998,9.556066990000001,12.274803149999997,-5.3104786875,-1.538755238,11.402306555,-2.48559919,-0.24278449999999996,0.333747089
612,5.099795999999969,-27.43488407,9.631145477499999,12.223220850000004,-3.1494859455,-1.6854044794999998,8.973228216999999,-4.5872862340000005,10.4549708355,-1.5936731100000001
613,5.10812900000019,-27.453361514999997,9.711539268500001,12.175552350000004,-3.000736475,-3.580061078,8.6309247035,-2.596713662,10.800786972000001,-0.891727656
614,5.116461999999956,-27.497912405,9.805062293999999,12.1115341,-4.666816234500001,-1.6845032569999998,11.47860956,-5.3533434865,13.097206114999999,-1.8539391754999999
615,5.1247950000001765,-27.51335144,10.081977845,11.98779295,-2.9694701435,-0.635967426,8.840805056,-0.6311290039999999,35.868633270000004,2.0476105804999998
616,5.133127999999942,-27.5428133,10.274624825,11.899826050000001,-0.11936025349999999,-3.2096465825,1.9482262135000001,-2.9769455195,24.94903946,1.1479857560000002
617,5.141461000000163,-27.533477785,10.519953725,11.81809235,-3.3162134885,-0.36970272849999997,12.779942035,1.5464862775,30.20416832,4.7396686075000005
618,5.149793999999929,-27.522922515,10.81341171,11.695602449999996,-1.994512677,-0.9419009089999999,7.794291973,2.6792969705000003,37.551019665,3.150151372
619,5.15812700000015,-27.466160775,11.112921714999999,11.604705850000002,-3.972678542,-2.456683159,6.859199047000001,7.5458409785,36.463550569999995,6.7618265155
620,5.166459999999916,-27.39243603,11.42493057,11.524520899999999,-1.7360016704999999,-0.393140145,12.220110415,9.417977097,37.224882125,8.5618844035
621,5.174793000000136,-27.292292595,11.811086655,11.403091449999991,-3.17568326,0.0405547775,6.195873976,13.612658025,47.35596466,8.273371220000001
622,5.183125999999902,-27.157452585,12.075020315,11.357978849999995,1.0600607100000001,-2.5084917545,8.2968772665,15.99731779,30.232584,9.452630043
623,5.191459000000123,-26.97905827,12.388339519999999,11.289283749999996,-4.131592035500001,1.5566161275,12.0168552405,21.80680084,36.78602028,9.624367237
624,5.1997919999998885,-26.751861575,12.718646525,11.218040450000004,-0.311084017,-1.277646482,6.9060025215,27.82296562,38.77371597,10.1343121535
625,5.208125000000109,-26.463012695,12.945313930000001,11.225715649999998,-1.759464085,-0.965505511,11.276981831499999,33.117112160000005,23.557572365,12.65512371
626,5.216457999999875,-26.108060835000003,13.229190825,11.215789799999996,-1.6593272684999998,0.565167606,7.551906585999999,41.557527539999995,30.702559475,13.729757785
627,5.224791000000096,-25.674037935,13.498312474999999,11.225105249999999,-0.8577465415000001,-0.931179285,5.1351950165,50.488750460000006,28.21786213,14.744105335
628,5.2331239999998616,-25.200182915,13.78259897,11.247932450000008,-1.7940074204999998,-0.8601253034999999,9.232810974500001,54.91607666,29.30988121,16.732169149999997
629,5.241457000000082,-24.681805609999998,14.080692294999999,11.291900600000005,-2.9069771765,-0.7065617295000001,10.490268233,59.59871864,29.91644573,19.3928833
630,5.249789999999848,-24.12220478,14.415557865,11.316139199999995,-3.5674182175,-0.92816177,12.000911715,65.13420868,35.07492256,18.847362519999997
631,5.258123000000069,-23.53684902,14.775993345,11.355590800000002,-2.7941598890000003,-1.090938449,14.06673813,67.71400833000001,37.354595185,21.331160545
632,5.266456000000289,-22.928967479999997,15.097298625,11.410758950000002,-2.6252241735,-1.6690843105,11.355506420000001,69.939785,32.551092145,20.76777458
633,5.274789000000055,-22.254926685,15.45882702,11.474624649999996,-3.6566929815,-1.00810799,9.5160551065,77.44765853999999,36.740604399999995,23.43173981
634,5.283122000000276,-21.55169201,15.771521095,11.553268450000004,-0.5355909165,-1.3812125325,11.1008124355,80.55056381,31.07095623,22.107614515
635,5.291455000000042,-20.81905365,16.098546980000002,11.62672425000001,-3.7218049765,-2.3530704975,8.142164707,84.075336455,33.059552195,22.030618670000003
636,5.299788000000262,-20.0701828,16.435376169999998,11.680999749999998,-1.906358838,-0.45116813450000004,10.844631669999998,86.74445343,35.336076735000006,19.654530525
637,5.308121000000028,-19.304049495,16.810959814999997,11.732109050000005,-4.1018518205,-1.632941127,13.462865355,88.75286865,39.985483169999995,20.68450165
638,5.316454000000249,-18.52497864,17.17520046,11.771263099999999,0.675405622,-0.6584234685,10.420032978,90.81682968,39.540605545,18.095434185000002
639,5.324787000000015,-17.708114625,17.578019145,11.818740849999998,-3.869318247,-0.6488964485000001,9.977009773999999,94.88235092,43.78390312,20.192229275
640,5.3331200000002354,-16.831720349999998,17.94810486,11.9079895,-2.2450292115000003,-0.5199259965,11.420337674999999,100.602035545,39.02736473,22.60348034
641,5.341453000000001,-15.93212843,18.364561085,12.002029399999998,-2.9183751344999997,-0.9263049959999999,9.9680070865,102.97992325,44.45619011,24.406093595
642,5.349786000000222,-15.01520157,18.78661442,12.118270850000002,-2.682629824,-1.9716820715,7.5956449505,104.29310225,44.930101394999994,25.93298531
643,5.358118999999988,-14.093292235,19.191431045,12.248184199999997,-2.713005781,-3.2006379364999997,12.48199892,104.0950775,42.858350755000004,26.51193428
644,5.3664520000002085,-13.184155465,19.65688515,12.365051250000008,-3.8457243445,-2.422121525,10.7408442475,103.13576125,50.80854416,25.70485592
645,5.374784999999974,-12.280123230000001,20.12978649,12.47746275,-2.5192688705,-2.855938792,8.812586071,102.4298744,52.110984805,24.91804123
646,5.383118000000195,-11.39561844,20.530550005,12.60492705,-2.1224116685,-2.844970226,13.035421849999999,99.52460859499999,43.77425194,23.588170050000002
647,5.391450999999961,-10.5030427,21.06540966,12.687767050000005,-1.333246544,-2.039857626,8.1542963985,102.12531665,60.82688332,21.307467459999998
648,5.3997840000001815,-9.6396842005,21.37263012,12.831420899999998,-0.43049417399999995,-2.7942845825,8.3238704205,96.065502165,33.13458824,21.95156479
649,5.408116999999947,-8.781819343999999,21.833543775,12.937179549999996,-4.189781904,-3.2911775115,11.654864786000001,96.829013825,52.30368233,20.46098518
650,5.416450000000168,-7.9602339265,22.193078045,13.107360850000006,-2.737449646,-2.2717553975,14.591331480000001,89.637020115,39.57441711,24.695142745
651,5.424782999999934,-7.1532542705,22.656872749999998,13.207641600000002,-2.4025380015,-1.7366437915000001,11.89999533,90.920886995,53.351614,18.01441002
652,5.433116000000155,-6.355522155999999,22.943655015,13.3914032,-3.069078922,-2.9523802994999997,9.494336365,85.887393955,31.430176735,23.91862583
653,5.4414489999999205,-5.5417020325,23.361450195,13.518440249999998,-2.2623723745,-1.3572141525,13.139907359999999,90.33208084,48.05735397,18.804262165
654,5.449782000000141,-4.7408273219999995,23.67774963,13.721977249999995,-1.8169321415000002,-2.621188521,4.825179577,85.064395905,35.44242287,25.388373375
655,5.458114999999907,-3.9567106965,23.977773665,13.874954250000002,-0.017592102500000012,-2.0232977869999997,14.260914799999998,85.34816742000001,34.271004675,19.14092922
656,5.466448000000128,-3.1889594795000002,24.2803936,14.066124000000002,-4.513026476,-3.0710673335000003,6.3721785545,81.45650481999999,34.585741045000006,22.841669085
657,5.4747809999998935,-2.400178671,24.643857955,14.226341250000004,-1.0865272285,-2.464062333,8.7829654225,85.36425018,42.355506895000005,19.273034095
658,5.483114000000114,-1.6453996895,24.913689615,14.439262400000004,-2.644358993,-2.452211976,17.060525894999998,78.56944275000001,31.18789196,24.008826255
659,5.49144699999988,-0.856129676,25.257989885,14.610450749999998,-1.6712889075000001,-0.8263789565,8.158657074,84.67488098000001,40.54628754,19.171865465
660,5.499780000000101,-0.0295419515,25.58504486,14.819519049999997,-2.5076372625000003,-1.402355969,10.622473715,87.12753677500001,38.71773338,22.644871709999997
661,5.508112999999867,0.764758021,25.81819153,15.005790699999991,-2.327884376,-2.8395543095,10.9173092825,84.294296265,27.75369263,19.629693985000003
662,5.516446000000087,1.6612583994999999,26.216881755000003,15.2295685,-3.187395692,-1.5031926635000001,10.29270363,94.506053925,47.990077975000005,22.796896935
663,5.524778999999853,2.4861049655,26.393984795,15.425842250000002,-0.103495397,-2.5301288365000003,12.92627525,87.21707153,21.649445534999998,19.999443055
664,5.533112000000074,3.3518971205000003,26.62874508,15.634079,-2.6719119549999997,-2.1520951395,10.8280015,91.445610045,28.92093658,20.57919312
665,5.541445000000294,4.2151525020000005,26.825954435,15.82430269999999,1.2923561335,-2.175178707,9.682193757,91.996570585,24.60858631,18.449297905
666,5.54977800000006,5.043530703,26.887386319999997,15.990127549999997,-0.559527159,-3.454874277,11.1267023075,89.120697025,8.427099706,16.782870289999998
667,5.558111000000281,5.8774075505,26.965952870000002,16.16828154999999,-3.489530921,-1.6590422395,15.044959545,89.061676025,10.851647855,17.746307375
668,5.566444000000047,6.656792402000001,27.02542496,16.354538000000005,-1.533190608,-4.9501795765,9.92052412,82.07890320000001,8.913815973,18.69681168
669,5.574777000000267,7.411607742,26.98150921,16.511993450000006,2.4945465325000002,-1.9092636705000001,8.5111809975,80.665016175,-3.5159337070000003,17.020445825
670,5.583110000000033,8.090321541000002,26.830825805,16.666915899999992,-3.351044476,-4.661335230000001,14.51433754,71.73581314,-16.033022879999997,18.548802375
671,5.591443000000254,8.8037519455,26.7511282,16.826622,-2.845826626,-1.947324693,13.754569530000001,75.65048981000001,-7.293788433,17.993846894999997
672,5.59977600000002,9.480398178,26.687673565,16.98463439999999,-3.0848053695,-1.672067821,13.679050445,71.36574173,-5.1793192625,17.61093903
673,5.6081090000002405,10.068397045000001,26.487641335,17.0890045,0.7830346525,-5.593412161,7.4579285365,63.62057686,-22.09895992,14.779288765
674,5.616442000000006,10.669442175,26.289204595,17.203407299999995,-3.169359088,-2.064285755,11.24678564,64.72608948,-21.562379835,16.064683915
675,5.624775000000227,11.22607994,26.153578760000002,17.31671145,-0.846556798,-1.4499547775,14.976094725,59.4596653,-14.00630331,14.73422432
676,5.633107999999993,11.72307539,25.896249769999997,17.3863602,-4.767658948999999,-4.2050435545,14.28249693,54.67250252,-29.120279314999998,13.18549299
677,5.6414410000002135,12.27512169,25.791007045,17.542602549999998,-3.1921887399999997,-2.687272787,7.6804289815,56.743988035,-9.188399078,18.796727179999998
678,5.649773999999979,12.72000885,25.508089065,17.583381650000007,3.0831108095,-2.405897319,4.771260857,49.948324205,-32.545766830000005,11.330052375
679,5.6581070000002,13.16785145,25.281401635,17.67041015000001,-6.337023258,-2.2037740945,16.348168848500002,47.957689285,-24.7372303,14.962796685
680,5.666439999999966,13.6220088,25.217363355,17.778755200000006,-3.9244633909999997,-5.0354304315,13.158797265,47.63941002,-5.105895191,12.895763395
681,5.674773000000187,13.974100114999999,24.937369345,17.825256299999992,-1.060421467,-1.328380942,15.947507380000001,38.56446457,-31.76472855,12.592761995
682,5.6831059999999525,14.33944416,24.860700604999998,17.89956665000001,-3.148526311,-5.1620936395,1.5991526205000002,38.780437469999995,-7.2952973839999995,9.772799015
683,5.691439000000173,14.639976975,24.56385708,17.920524600000007,0.488011956,-2.0209962125,17.07684231,33.69673061,-34.25701904,10.798696045
684,5.699771999999939,14.98215914,24.607159615,18.02680205,-9.296603680499999,-2.6989538074999997,11.858590839,34.452022555,7.6366045475,9.567702770499999
685,5.70810500000016,15.212635514999999,24.34456539,18.06964875,4.713739872,-3.1619900465,5.614895104,24.18393898,-29.547493935,12.385440825
686,5.7164379999999255,15.476484775,24.31274605,18.12374115,-7.9000759125,-2.2768954040000002,11.257954834000001,27.705472945,-2.466486335,6.406335831
687,5.724771000000146,15.669440269999999,24.16640091,18.192390450000005,-0.7537011505,-3.156229496,15.746908665000001,18.44763374,-15.23923111,11.620103355000001
688,5.733103999999912,15.926196574999999,24.194717405,18.274299600000006,-6.473767996,-2.607456088,8.3877129575,25.488836290000002,5.3589434625,7.3893461225
689,5.741437000000133,16.102237705,24.023472785000003,18.346656800000005,1.9212080839999999,-3.1616414785,9.950300484000001,16.247934815,-17.905293465,12.951521395
690,5.749769999999899,16.284942625,24.03989506,18.410354600000005,-5.0899233815,-1.5993026495,13.870249272,17.524363515,3.489287436,5.8456254004999995
691,5.758103000000119,16.466983794999997,23.973538400000002,18.49884795,-2.913249612,-1.4363090995,11.6886782645,16.207446575,-5.2432681325,11.22252941
692,5.766435999999885,16.638699535,24.018362045,18.603767399999995,-1.4412979785,-2.9069924355000003,6.6453208925,14.17250681,8.077533722,9.169827461
693,5.774769000000106,16.75236416,23.850653645,18.627090449999997,-1.3153855205,-0.883221775,9.3686599715,11.1974410995,-18.875849719999998,7.910070181
694,5.783101999999872,16.955669405000002,23.95384121,18.756950349999997,-6.242200136,-3.7049237489999998,11.9164037695,16.79451275,15.62989855,9.733651161000001
695,5.791435000000092,17.097881315000002,23.84153748,18.77368165,-0.609403759,-0.356236145,14.809854510000001,14.938604354999999,-12.683155535000001,5.3754887579999995
696,5.799767999999858,17.26439381,23.9151144,18.871757549999998,-3.9887193439999997,-3.42113924,4.6825469735,13.90445471,11.260706899999999,7.350384951
697,5.808101000000079,17.372504235,23.79288769,18.874732949999995,1.525769001,-3.3915228844999996,14.831894875,11.5258526785,-14.24011707,4.359217763
698,5.816433999999845,17.52028847,23.904055595,18.957374549999997,-6.417475939,0.26634183499999997,12.9425601935,12.42402935,15.09300804,4.3366131785
699,5.824767000000065,17.644747735,23.855566025,18.996757499999987,-1.4390266535,-1.9914193155,3.4000742435,11.722146514999999,-4.573121786,5.5575540065
700,5.833100000000286,17.783802985,23.89022446,19.054862999999997,0.44009168449999997,-4.744600773,8.068060875,12.539713859999999,5.5463475585,4.479373455
701,5.841433000000052,17.880230904999998,23.731588365,19.04813385,-2.5841707585,-0.6637079715,11.413094999999998,10.619594575499999,-18.677914145,4.8167393205
702,5.8497660000002725,18.032438274999997,23.835643765,19.098350549999992,-3.0941411255,-1.5458541215000001,14.179856299999999,14.5175457,13.223668100000001,1.0743575395
703,5.858099000000038,18.14010239,23.767703055,19.129806499999987,-3.571088433,-3.0910499095,18.25070286,10.103583335,-7.0083575245,5.494440555500001
704,5.866432000000259,18.22722721,23.81746769,19.201149,1.7885305585,-0.7259473465,5.6013953684999995,5.672138691,7.763028978,5.249490976500001
705,5.874765000000025,18.281385425,23.70218277,19.19719694999999,-5.3441911935,-2.457880974,12.286825416500001,5.419775009,-13.599261283,3.6153796910000002
706,5.8830980000002455,18.372965815,23.74948978,19.266716000000002,-1.3292664915,-3.2665290835,10.04908657,6.317527056,7.4357423774999996,5.140616894
707,5.891431000000011,18.46764469,23.6768074,19.274734500000008,-4.5393400195,-0.6015663745,7.897675037499999,9.6872086525,-8.3236477375,3.2775405644999998
708,5.899764000000232,18.5070467,23.61344433,19.30800624999999,2.229789376,-2.115773857,11.029063225,1.797831416,-6.406781137,5.550624132499999
709,5.908096999999998,18.56380558,23.549392705,19.30342865,-4.5429625510000005,-1.8229063745,11.239300728,5.769229173499999,-7.771776794,1.6608976125
710,5.916430000000219,18.64402199,23.522928235000002,19.342544550000014,-1.7144331635,-0.7106052935,15.894956109999999,6.4295511245,-1.9910964370000002,4.7667391299999995
711,5.9247629999999845,18.71141529,23.53961468,19.379089399999998,-5.376531601,-1.289200783,8.926971673499999,5.0596244335,2.8584908845,2.856159925
712,5.933096000000205,18.7542963,23.414883615,19.375099149999997,1.9451155665,-3.550513029,8.7813774345,4.0088399645,-14.669321060000001,4.0641796590000006
713,5.941428999999971,18.805853845,23.448674205,19.3942337,-5.2853138445,-1.6053210495,9.036046503,4.0066366195,4.194529891,0.3816585545
714,5.949762000000192,18.88048935,23.35883236,19.40917205000001,-1.1461107735,0.365115948,14.03314209,6.934319972999999,-10.0244979865,4.720083475
715,5.9580949999999575,19.001820565,23.473683360000003,19.467903150000012,-5.468566418,-3.465476036,9.405649661,10.4760527605,14.809957505,1.3260173499999999
716,5.966428000000178,19.060840605,23.360871315,19.4759064,3.130159855,-1.087867275,8.6296942225,5.382710934,-12.863619804999999,4.924626112
717,5.974760999999944,19.1140728,23.3959198,19.4757843,-3.0379413365,-3.0379655359999997,7.256706953,5.110225439,3.6460905075000003,-1.7057480809999999
718,5.983094000000165,19.18779373,23.340444565,19.51630399999999,-3.7760763170000002,-2.1628319025,15.40161896,5.6335121395000005,-5.174171865,6.094517231
719,5.991426999999931,19.279851915000002,23.411783215,19.53087615000001,-4.187617421500001,-0.9614053665,14.353574755,9.064898014,8.287838699,-1.625549972
720,5.999760000000151,19.404637335,23.43987751,19.607101450000002,-4.1213601825,-1.152744651,9.698704241,10.036921023000001,5.608334064499999,6.4863388534999995
721,6.008092999999917,19.461655620000002,23.443224905,19.578994749999993,3.1731067895,-2.1908441785,8.812756298,6.8786325455,-0.9760055539999999,-3.3784474135
722,6.016426000000138,19.552197454999998,23.47746277,19.63990785,-7.0868570805,-2.2815529105000003,14.419814587500001,6.6815700535,5.762454362,4.644994974
723,6.024758999999904,19.612941745,23.530236244999998,19.66812895000001,-0.11466982999999997,-0.1044368895,15.671092035000001,4.651218653,6.685603976,0.482719488
724,6.033092000000124,19.733010290000003,23.64928913,19.764282199999997,-6.328867435499999,-2.291070521,3.6211723085000003,8.48947525,16.659970285,4.8314287665
725,6.04142499999989,19.76317024,23.607124329999998,19.746368399999994,3.4101805685,-2.3234733345,5.4759213319999995,3.1996339559999996,-5.7484681605,-0.4615748975
726,6.049758000000111,19.856423380000003,23.652254105,19.78876495,-5.739019394,-1.1478781995,13.6914238905,7.8617458345,6.3232653139999995,2.238268137
727,6.058090999999877,19.923145294999998,23.634994505,19.814636250000007,-1.857772231,-2.279668093,16.786530495,5.5032119755,-1.2961314615,3.073292017
728,6.066424000000097,20.028354645,23.735974315,19.873168950000007,-2.1371379495,-0.745216161,6.1367321015,8.4821486475,13.231067655,1.579943955
729,6.074756999999863,20.050783154999998,23.6257267,19.837715150000008,1.8058986065,-2.4092786905,12.56443691,3.1239064935,-14.082739830000001,0.556424528
730,6.083090000000084,20.09908104,23.693753245,19.879524200000006,-3.5281792875,-2.429652214,10.6682367325,2.4829864500000003,8.8925774095,1.2001870275000002
731,6.09142299999985,20.16033745,23.613186835,19.868652350000005,-4.4952993395,-0.581687212,12.588276385,6.6261281965,-9.8014864905,1.901581764
732,6.09975600000007,20.27381134,23.741326335,19.947738650000005,-2.0314698595,-1.9622947575,5.483075380500001,8.4904882905,17.07875109,2.519589901
733,6.108089000000291,20.316616055,23.565200805,19.885040250000003,0.6824240535,-1.2556595805000001,8.648684026,6.889841795000001,-22.52681351,0.556770444
734,6.116422000000057,20.408273695,23.606090545,19.919899,-2.235553503,-3.171411395,12.044149399999998,8.0126776695,5.579287052,1.565189898
735,6.1247550000002775,20.43735504,23.432800295,19.889572150000006,-1.3288468865,-0.127447873,18.530488015000003,3.6917615830000003,-20.962665555,3.825096965
736,6.133088000000043,20.5322628,23.55342293,19.956405650000008,-6.0752875804999995,-2.4304763675,10.248069288,6.881464243,15.78008318,1.502576172
737,6.141421000000264,20.51930237,23.395041465,19.918495199999995,-0.2953996655,-1.781631708,15.92616892,-0.9969192745000001,-19.572401045,2.4504827259999997
738,6.14975400000003,20.536038400000002,23.409864425000002,19.93447875000001,-1.4661577344999999,-3.6018105745,4.1007477045,-0.06667381499999991,1.928905595,0.7028226255000001
739,6.1580870000002506,20.523846624999997,23.18204117,19.868583700000002,-1.765888244,-0.8478654619999999,13.596464635,0.4299089905,-28.454443935,2.4919916395
740,6.166420000000016,20.549057005,23.18543339,19.865730299999996,-2.663155198,-1.037638545,15.268435,1.8415547605,-0.0841300490000001,-0.7608132065
741,6.174753000000237,20.538302424999998,22.999894140000002,19.811546300000003,-3.7121213675,-1.7840362189999999,11.1468133905,0.01859575499999999,-23.252069470000002,1.9089336395
742,6.183086000000003,20.545709610000003,22.97154236,19.83141330000001,-1.497676909,-1.708114028,10.062066080000001,-1.374619901,-2.773163259,2.918786645
743,6.191419000000224,20.47454071,22.778646469999998,19.738250750000006,-1.292850703,-1.337513089,7.00204134,-5.42962575,-25.591256145000003,-1.835101068
744,6.1997519999999895,20.46844864,22.721877095,19.7748184,-2.1071072820000003,-3.1723843809999996,11.913969994999999,-3.7501357795000003,-5.3208646774999995,5.850874662
745,6.20808500000021,20.4298954,22.63738823,19.708244300000004,-4.6550331115,0.454600185,16.70533848,-2.7655632499999996,-12.375194551,-3.6571305990000003
746,6.216417999999976,20.432173730000002,22.61923313,19.78514095,-4.7416770459999995,-2.21909976,13.04561615,-4.5924088955,0.5773704649999999,8.417435169
747,6.224751000000197,20.43225193,22.610266685,19.767707799999997,-0.99522385,-2.2661771775000004,4.268360615000001,-0.42937780200000003,-1.9861469269999998,-1.7378938195
748,6.2330839999999625,20.428951265000002,22.581162455,19.820358249999998,-4.071935892,-0.9378423545000001,10.32761669,-4.132838488,-1.5893571675,6.365490437
749,6.241417000000183,20.403692245,22.539692879999997,19.813674899999995,2.320136368,-2.8065586685,8.7200026505,-3.9712245465000002,-5.225284696,0.7339823245
750,6.249749999999949,20.41031456,22.58930969,19.893112200000004,-8.6874525545,-2.1033120755,13.683217048,-4.1435575485,8.2993779175,5.868907213
751,6.25808300000017,20.370319365,22.596554755,19.89687345,0.968334526,0.21841633300000002,15.76707506,-6.2164411545,0.656556919,-0.2194499225
752,6.266415999999936,20.395726205000003,22.732089995000003,20.011444100000006,-9.003875255499999,-3.3014398815000003,4.007478237,-3.548219681,19.312045095000002,5.9097757335
753,6.274749000000156,20.361976625,22.70128918,20.000114449999998,5.193620205,-0.5064885615000001,9.9555368435,-4.7775864605,-4.2071191075000005,-0.19788274150000001
754,6.283081999999922,20.331444740000002,22.76711941,20.042442300000005,-7.8257510665,-2.863544643,10.957232000000001,-6.916541815,8.6858963965,1.33418791
755,6.291415000000143,20.325858115,22.795944210000002,20.069854700000008,2.465168178,-0.298218399,11.186696766499999,-3.171164036,3.996224046,1.3423460569999999
756,6.299747999999909,20.31079483,22.870318415,20.10108185,-9.1765658875,-2.4778925775,16.27172327,-4.553103447,9.217635155,-0.17179465300000002
757,6.308081000000129,20.303616525000002,22.95666504,20.183151249999995,4.4693323375,-0.5499332809999999,7.0922625065,-5.9418053625,12.56347132,4.6020014289999995
758,6.316413999999895,20.254008295,22.98138237,20.15011595,-5.7732155325,-1.9169468285,10.054757116000001,-5.699865103,1.166786015,-4.763767242
759,6.324747000000116,20.250823025000003,23.05706024,20.25510405,2.123962164,-1.20059561,9.306893825500001,-6.546430111,12.232855319999999,7.429327488
760,6.333079999999882,20.24464512,23.083175654999998,20.21297455,-6.640474557999999,-0.9354271814999999,10.15629196,-0.03848546750000004,0.9836249350000001,-5.751260519
761,6.341413000000102,20.305849074999998,23.16603184,20.3232498,-0.90130195,-0.1221460845,14.175636765,0.9156641885000001,13.243335720000001,7.6641447545000005
762,6.349745999999868,20.34543705,23.235760685000002,20.300125100000002,-5.3792071345,-0.5936567185,11.99219704,4.5574706795,6.610143900000001,-5.605233907500001
763,6.358079000000089,20.415405274999998,23.278198245,20.396514850000003,-0.6165758370000001,-1.384455144,10.1089620615,2.5876848695000003,8.1743547905,7.8760256769999994
764,6.366411999999855,20.459981915,23.37406635,20.368484500000008,-0.852087885,-0.6029432715,3.2979294059999997,5.383939743,9.3516490475,-7.221594334000001
765,6.374745000000075,20.526863095,23.359204294999998,20.4093704,0.1379913835,-2.475435853,9.4713075165,4.8440425395,-0.39241027800000006,4.5353527069999995
