,time,Euler_X,Euler_Y,Euler_Z,Acc_X,Acc_Y,Acc_Z,Gyr_X,Gyr_Y,Gyr_Z
0,0.0,-0.39788751299999997,6.5362067225,32.3987808,-1.6581174134999999,1.283574641,8.34363842,54.833374025,42.01867676,6.621870756
1,0.0041665000001103,0.135639719,6.9504089355000005,32.45285035,-2.835608721,0.612410437,10.634520533,61.601160050000004,49.54549217,6.2282640935
2,0.00833299999999325,0.7221206425,7.402321339,32.52098085,-2.069933057,1.143601775,10.8921923645,67.69401169,54.131126405,7.4234774115
3,0.01249950000010355,1.374991238,7.8496792315,32.59017565,-1.8142651915,0.5587086605,8.6662197115,75.57365417,53.681314470000004,6.913002014
4,0.0166659999999865,2.0812853575,8.33795619,32.65539929999999,-2.348070383,1.136419982,11.997238639999999,81.99004364,58.64431572,5.685181378999999
5,0.0208325000000968,2.820304632,8.856461525,32.73857495,-2.3981950285,0.480109878,11.46871376,85.53359603999999,62.43955803,6.874723673
6,0.02499899999997975,3.6049387455,9.338521480499999,32.81971359999999,0.007481873,0.0718010965,7.320069313,90.94429016000001,58.141778945,6.0599811075000005
7,0.0291655000000901,4.4205050465,9.8680782305,32.905990599999996,-2.510543704,-0.6812688705000001,10.542091368000001,94.47934723,63.961431505,5.409558296
8,0.03333199999997305,5.2343583105,10.400125504,33.0079651,-1.0954888760000001,-0.06339469549999999,12.440088750000001,93.843811035,64.47989082000001,6.3507897855
9,0.03749850000008335,6.06263566,10.912356854999999,33.107650750000005,-1.894075692,-0.793814212,11.699861045,95.51795959500001,62.181970594999996,5.316743135499999
10,0.0416649999999663,6.9158859249999995,11.44076967,33.21305085,-2.4355052114999998,-0.7188798935,8.709924698,98.27559661999999,64.25388336500001,4.8786745069999995
11,0.0458315000000766,7.741482496,11.97904539,33.321777350000005,-1.591481328,0.39216896149999997,12.875844955,94.763374325,65.549419405,4.1015536785
12,0.04999799999995955,8.5660505295,12.508556365,33.43386459999999,-1.6119601129999999,-1.4507977365000002,13.070757865000001,94.43230057,64.611972805,3.7051928039999997
13,0.05416450000006985,9.407738209,13.045963765,33.55908585,-1.663990259,-1.472182751,5.270809054000001,96.023365035,65.8407135,4.081843257
14,0.0583309999999528,10.211744309,13.592926980000001,33.6813278,-1.4923326675,-1.3556744455,9.7299196725,91.42577362,66.962848665,2.5833401085
15,0.06249750000006315,11.001257895,14.151746750000001,33.805553450000005,-2.0664589255,-1.413935035,7.219803811,89.52119446,68.43077087500001,1.5708249360000002
16,0.0666639999999461,11.711017135,14.738406659999999,33.96312715,-0.9691157339999998,-1.4526926279999999,18.027732375,78.78141403000001,72.479278565,3.7894341945
17,0.0708305000000564,12.390780450000001,15.30303383,34.0873413,-1.793859184,-2.479052067,10.3343336605,76.05992508,69.12579345500001,-0.37569374450000004
18,0.07499699999993935,13.01976156,15.891278269999999,34.2452698,-1.4076888410000001,-3.0420223474999997,10.703559396500001,68.70700073500001,72.730171205,1.9684208035
19,0.07916350000004965,13.605869295,16.454352375,34.361866,-2.0700791035,-1.9974114895000001,7.1359467505000005,64.790618895,68.70575714,-2.781958103
20,0.0833299999999326,14.139931205,17.03643036,34.52838514999999,-2.231905937,-2.3483794925,12.120954515000001,56.666131975,72.25033188,1.5157969
21,0.0874965000000429,14.619680405,17.578320505,34.656318649999996,0.020972132500000018,-0.993911982,5.3277629615,51.34598732,66.4917717,-2.2698199155
22,0.09166299999992585,15.02268076,18.143809315,34.81175235,-1.791645527,-2.9628561735,16.542215345,40.96439552,69.995147705,-0.518429335
23,0.0958295000000362,15.391668800000001,18.66742134,34.95273589999999,-1.124083191,-1.4205235355,8.579697609,37.295072555000004,64.706508635,-1.2864890100000002
24,0.0999960000001465,15.70102835,19.222844119999998,35.09717560000001,-2.229485363,-1.998112023,16.650018695,29.848288535000002,68.451869965,-2.4012959005
25,0.10416250000002945,15.996380330000001,19.706682205,35.23085784999999,0.1631724834999999,-2.358222604,3.307082951,28.443411825000002,59.847944260000006,-1.6230651139999999
26,0.10832900000013974,16.253850935000003,20.224981309999997,35.373909,-1.052673161,-1.633324921,10.39417982,23.379296305,64.0806694,-2.107944846
27,0.1124955000000227,16.44834709,20.651288035,35.488243100000005,1.032869458,-1.1056795865,8.583197596,16.89317179,52.56929779,-2.399163842
28,0.11666200000013305,16.62682152,21.104779245000003,35.62653735,-2.082742691,-1.6218820809999999,12.996675966999998,13.879154205,56.43281746,-0.9024562835
29,0.12082850000001595,16.75798607,21.45794201,35.72662355,1.435139507,-1.209210366,8.110898258,9.701734541,43.669610025,-1.8384906650000001
30,0.1249950000001263,16.868325235,21.804170605,35.8277931,-1.5495596884999998,-1.7493406535,7.065839767,7.1472858189999995,42.88794136,-1.4875876904999998
31,0.12916150000000926,16.91767025,22.127168655,35.93104555000001,-0.3927602765,-1.9966416955000001,17.121592525,-0.3768684265000001,40.29161263,-0.6167337665
32,0.13332800000011955,16.945840835,22.398766515,36.00099945,-1.1867533625000002,-0.54504478,8.979810714500001,-1.440424323,33.294600485000004,-2.3736925125
33,0.1374945000000025,16.996855735,22.684105875,36.08996965000001,-1.774475694,-0.05764126799999997,11.51911211,0.3990203145,35.49445343,-0.8586219545
34,0.1416610000001128,17.000749585,22.921329495000002,36.15041735,-1.0998292859999999,-1.4840188619999999,10.8621325515,-4.002405286,29.030810359999997,-2.285278559
35,0.14582749999999575,17.021140099999997,23.123167995,36.224388100000006,0.14753219499999998,-0.486521259,8.8618779165,-2.656222701,25.420271875,0.4257600455
36,0.1499940000001061,17.014035225,23.31136608,36.268913250000004,-1.198024571,0.075546965,13.527326105,-4.603565097000001,22.887999535,-2.237436533
37,0.15416049999998904,17.003829005,23.45335007,36.325817099999995,-1.0041208414999998,-1.3009272815,10.008928774000001,-5.5849037169999995,17.99478817,0.6630886644999999
38,0.15832700000009936,17.015718460000002,23.602087975,36.372150399999995,-1.2549758855,-0.1765924225,7.80042696,-2.414795458,18.4191038625,-0.621939659
39,0.1624934999999823,17.0001545,23.72988129,36.4175186,-1.7449516805,-0.5392328424999999,12.38115072,-5.705521345,15.9908320925,-0.074928194
40,0.1666600000000926,17.001457215000002,23.818795205,36.449871099999996,-0.34891438500000005,-0.2777905315,7.17268157,-3.032635808,11.0996241585,-0.014772996500000003
41,0.17082649999997554,17.012639999999998,23.914888384999998,36.500041949999996,-1.512726784,-0.804662274,12.450389865,-2.733282685,12.508842465,1.5667333605
42,0.17499300000008586,17.014767650000003,23.97717476,36.528389,-0.09036684049999999,0.6294796764999999,11.502768515,-2.767656684,7.915721416,0.45221294349999996
43,0.1791594999999688,17.03300476,24.03017998,36.55381010000001,-1.9764914514999998,-0.168939139,8.675409317,-0.6779384315,6.7720142,0.5048310885
44,0.18332600000007915,17.061876295,24.097906109999997,36.57705685,-1.0562456845000001,-0.7395317105,12.84682703,0.685789153,8.3782697935,-0.284356471
45,0.1874924999999621,17.087867735000003,24.1221323,36.59845735,-1.3305817245,0.3679347855,7.9734368325,0.439111322,3.3394044640000002,1.061959736
46,0.1916590000000724,17.13440609,24.18191719,36.623420700000004,-1.1976637245,-0.5808441040000001,12.70611906,2.7323731185,7.526589929,0.21088841599999997
47,0.19582549999995535,17.152394295,24.19730568,36.642868050000004,-1.3434581755,-0.9418901805,12.33702755,-0.448127508,2.2654323555000007,1.1159867945
48,0.19999200000006565,17.200680735,24.2276926,36.6547928,-1.916673809,0.642881018,9.783615112500001,3.5998511315,3.736306669,-0.089425739
49,0.2041584999999486,17.236734390000002,24.262701989999996,36.674594850000005,-2.0268256365,-0.8446192895,11.279901505000002,1.7043138444999997,4.5283231715,0.459308088
50,0.2083250000000589,17.285706519999998,24.26556873,36.68710324999999,-1.0627758205,-0.147891715,9.5169579985,3.6423574684999998,0.6010446550000004,0.912840098
51,0.21249149999994185,17.345222475,24.29354954,36.70189285,-1.745066494,0.275737852,11.088555815,4.7815755605,3.567844987,0.220679432
52,0.2166580000000522,17.39861965,24.30164337,36.708335899999994,-1.799102366,-0.4322532715,13.23222637,4.455327511,1.0032008885,0.046925283
53,0.22082449999993514,17.47879982,24.31223297,36.72720335,-1.618401423,0.200343106,7.494390964500001,7.0686705115,1.7124723195,1.2892670035
54,0.22499100000004546,17.55970001,24.35304451,36.75242994999999,-2.575784653,-0.3098391145,13.92779064,6.837502718,5.3685007095,0.835971862
55,0.2291574999999284,17.62670517,24.348467825,36.763416250000006,-0.6528458595,-0.393302083,7.4560921195,5.8602809905,-0.27900958099999995,0.9662969705000001
56,0.2333240000000387,17.726014135,24.377893444999998,36.7979889,-2.3178380725,-0.14972490449999998,11.51708174,8.6015310285,4.382181885,2.258343518
57,0.23749049999992164,17.77169704,24.372148515,36.801307699999995,-1.084868744,-0.508182138,13.05561972,3.6678571105,-0.6634397500000002,0.174580291
58,0.24165700000003196,17.871564865,24.387547490000003,36.8431969,-1.7473189515,-0.4126977995,9.185135838999999,8.314625502,3.033232690000001,3.5439605715
59,0.2458235000001423,17.950312615,24.405704495000002,36.847839349999994,-1.6770337524999999,0.038453400000000026,10.90906954,7.5774986745,2.1141290679999996,-0.558147073
60,0.24999000000002525,18.04438019,24.388385775,36.871662150000006,-1.8983818295,0.35867509249999996,8.1870274545,8.5021853435,-1.3018755915,2.831795096
61,0.25415650000013557,18.12839985,24.40373802,36.87215425,-0.8554823994999999,-0.842010319,11.594284535,8.431848049,1.6562293175,-0.8449752479999999
62,0.2583230000000185,18.214183804999998,24.405155184999998,36.891082749999995,-1.704110861,-0.20786221700000002,12.764019965,7.737625598999999,0.6780664620000001,1.5916045310000002
63,0.26248950000012883,18.2991724,24.401581765000003,36.8828735,-1.804914176,0.696097508,9.2207345965,8.9838533405,-0.796833158,-1.0358973
64,0.2666560000000118,18.41538143,24.416853905,36.90142825000001,-1.9700600504999999,-0.480087271,10.78794718,11.415656564999999,2.2507935165,1.042902831
65,0.2708225000001221,18.519099235,24.42208862,36.908595999999996,-2.1575725075,-0.4868989435,9.526544334,10.459548470000001,0.7343277930000003,0.19465539199999998
66,0.27498900000000503,18.648593905,24.43183708,36.9427452,-0.8684908969999999,-0.06540869149999998,9.8064813635,12.2507782,2.1749253289999997,2.897559762
67,0.27915550000011535,18.735951425,24.45053768,36.956935849999994,-1.6631538865,-0.7810172200000001,14.81727314,8.134992599499999,2.5137758265,0.3714256880000001
68,0.2833219999999983,18.849315645,24.42122078,36.97579954999999,-1.7631440165,0.5744705535000001,6.532663822,11.0745101,-2.7880144134999996,2.818514466
69,0.2874885000001086,18.95774841,24.476813315,37.00285720000001,-2.360164404,-0.6885667365,14.232445715,10.044161796000001,7.1615235815,0.29261708249999996
70,0.29165499999999156,19.056153295,24.43940544,37.02513505,-0.4912145135000001,-0.16270339500000003,7.117062807,9.093925475999999,-3.5762214665,3.444244027
71,0.2958215000001019,19.151251790000003,24.47663021,37.04242324999999,-2.2419461370000002,-0.990365505,13.159939765,8.9497551915,4.736515044,0.0361096115
72,0.2999879999999848,19.22213364,24.440565104999997,37.043026000000005,-0.9804458620000001,-0.038606554000000015,11.11113882,6.846327542999999,-4.1860654345,1.119995326
73,0.30415450000009514,19.30111599,24.45667267,37.047287000000004,-2.3652614355,0.06910908250000003,9.956163408,7.672290563500001,1.877345085,-0.473991379
74,0.3083209999999781,19.381638525,24.444191930000002,37.056922899999996,-0.9414955825000001,-0.6728760865,10.43616724,7.5682706835,-1.1855039595,1.152749628
75,0.3124875000000884,19.44194603,24.447759625,37.051780699999995,-2.9008978604999998,0.09568825400000003,11.44331026,5.8875341415,0.11559081050000009,-0.981780782
76,0.31665399999997135,19.51390076,24.423333165000003,37.0620766,-0.384097919,-0.46120804549999994,10.2578606595,6.514180183500001,-2.5052835345,1.7198742624999999
77,0.32082050000008167,19.583003995,24.420662880000002,37.0464516,-2.455741942,-0.138467029,10.6487636545,7.463444710000001,-0.9727777244999999,-1.8092679975000001
78,0.3249869999999646,19.638245585,24.39117813,37.051040650000004,-1.542500198,0.05294231549999999,12.099805355,4.7857768535,-3.282406686,1.317878157
79,0.32915350000007493,19.705738070000002,24.380008699999998,37.039196000000004,-1.546634786,-0.140721783,7.752952337,7.095221281,-1.7960126404999999,-1.0486341715
80,0.33331999999995787,19.75598431,24.38114071,37.04263304999999,-1.8689102530000001,-1.015237093,15.252978800000001,4.2424412965,0.140546799,-0.03853663400000001
81,0.3374865000000682,19.805430415,24.324051855,37.02679824999999,-1.4858214260000002,0.7597544975,5.7357513905,5.115733147,-7.130727887000001,0.3822604095
82,0.34165299999995113,19.84669399,24.319442745000003,37.015762349999996,-2.1153735295000002,-1.4070578815,14.05267525,3.9030268195,-1.0417308805,-1.24251461
83,0.34581950000006145,19.87061214,24.25567913,37.0056953,-0.347268497,-0.263589829,10.835168361000001,1.7390334905,-7.6700887685,1.194955379
84,0.3499859999999444,19.898584364999998,24.223580364999997,36.981960300000004,-2.9634989800000002,0.349036783,9.456093787,2.958009541,-4.6171402955,-1.380633175
85,0.3541525000000547,19.904901504999998,24.1774168,36.960662850000006,-0.9410978555,-1.240292519,12.29353523,0.17722490399999996,-6.100862982000001,-0.676318422
86,0.35831899999993766,19.90090752,24.11399651,36.92208480000001,-2.9266169965,0.029887333500000002,8.1136238575,-0.16631978749999998,-8.705474017,-1.6632350980000001
87,0.362485500000048,19.895820620000002,24.066428185,36.90285875,-0.45532757049999995,-0.2890200545,12.24952841,-1.2807501105,-6.1800489425,-0.364522636
88,0.3666519999999309,19.858024595,24.00601959,36.85926820000001,-2.4683817625,-1.0272713605,11.344210145,-4.001110077,-8.550723789500001,-2.3450732825
89,0.37081850000004124,19.830594065,23.952260015,36.83974075,-1.402046859,0.154416792,12.887160305,-3.9450279475,-6.891420364,-0.141922072
90,0.3749849999999242,19.78446388,23.903645515,36.78745655,-2.837699771,0.146504521,7.5398221015,-4.581900358,-7.5387313365,-3.7259366509999996
91,0.3791515000000345,19.732679365,23.860022545,36.76725770000001,-2.6463310125,-1.46298033,12.86509943,-6.8419716355,-5.7741404769999995,-0.643583253
92,0.3833180000001448,19.674583435,23.809197425,36.72851565,-1.067412488,0.2137274425,9.263543128,-6.6808207035,-7.282716751,-2.2546165585
93,0.38748450000002777,19.617098805,23.789048195,36.7177315,-2.9383368495,-0.245606832,13.5099473,-7.980103016,-2.7714349035000003,-0.6137939765
94,0.3916510000001381,19.53303146,23.74677753,36.679511999999995,-1.450125098,-0.5087662935,11.094796179,-9.843289852,-6.2919979105,-2.5968550445
95,0.395817500000021,19.483643530000002,23.726212500000003,36.6589966,-2.9940479995000002,0.5087946655,6.786441326,-6.5227046015,-3.174814702,-1.573572397
96,0.39998400000013135,19.398833275,23.709549905,36.6398964,-1.9732792975,-0.5813863575,14.223074435000001,-10.8671751,-2.68997669,-1.6728660165
97,0.4041505000000143,19.315903665,23.670825954999998,36.608551049999996,-1.9240097704999999,-0.31682820600000006,8.320279598,-10.025695323499999,-5.622539996,-1.9901368615
98,0.4083170000001246,19.24877167,23.694154734999998,36.6160927,-2.028591633,-0.7109528185,15.291488645000001,-10.0208530435,2.8133850095,-0.47495839
99,0.41248350000000755,19.1416502,23.640515325000003,36.5611267,-1.7101148365000003,1.2275122855,7.163244009,-11.81518364,-8.1656920895,-3.9172884224999995
100,0.41665000000011787,19.07937622,23.668601035000002,36.554412850000006,-3.3650074004999997,-0.954381198,11.989220620000001,-8.7269880755,2.8448007105000004,-2.076968908
101,0.4208165000000008,18.97689724,23.641766545,36.518608099999994,-1.0775328055,-0.2088652865,10.244078397,-12.204943660000001,-4.434293745000001,-3.0479284525
102,0.42498300000011113,18.903860090000002,23.658218384999998,36.5058861,-2.9432048799999997,0.7044636015,9.283054827499999,-9.7128062255,1.3180894850000016,-2.2087291479999998
103,0.4291494999999941,18.791363715,23.66519642,36.4845619,-1.1842633485,-1.599147171,14.79107857,-14.110284805,-0.06906223499999875,-2.867271304
104,0.4333160000001044,18.683924675,23.658012395,36.435611699999995,-2.6234744635,0.9861253050000001,6.9285461905000005,-12.10334444,-2.6423201560000003,-5.0846705435
105,0.43748249999998734,18.589140895,23.70370293,36.4372063,-2.1906730905000003,-0.4209805475,14.635264395,-13.06814146,5.145537076999999,-1.9285476805
106,0.44164900000009766,18.459786415,23.68787098,36.381347649999995,-1.7455220815,-0.09014737600000002,5.8018655775,-14.421203140000001,-3.851639271,-5.530191898
107,0.4458154999999806,18.38491726,23.73522091,36.398139949999994,-2.2785226105,-0.7108033895,12.788482665,-11.39170265,5.872237801000001,-0.33251124049999997
108,0.4499820000000909,18.24086571,23.728884694999998,36.33752439999999,-1.360023618,0.9272387025,10.739378452,-15.976285935,-2.9164223700000003,-6.4497318265
109,0.4541484999999738,18.154923439999997,23.75404358,36.334293349999996,-2.9876244665,-0.22667947449999998,7.819197893,-11.7419991515,2.656056405,-1.5388973955
110,0.4583150000000842,18.033471104999997,23.780444144999997,36.30275345,-1.4346892835,-0.11019527899999992,13.890296459999998,-14.665615559999999,1.8311324150000008,-4.6461427215
111,0.4624814999999672,17.93864727,23.76817131,36.285759000000006,-1.9829098585000002,0.578784883,5.036066055,-12.145556925000001,-2.0792174350000003,-1.5860722065
112,0.4666480000000774,17.839788435,23.816069605000003,36.28067014999999,-1.557026625,-0.6094477775,16.85900354,-13.225235940000001,5.196432354,-2.642403841
113,0.4708144999999604,17.725123405,23.780272484999998,36.23501205,-1.9167349340000002,1.138040513,5.419859648,-13.159546854999999,-5.7252693175000005,-3.771684289
114,0.4749810000000707,17.6600523,23.836475370000002,36.24546434999999,-2.486275956,-0.7052187025000001,14.22053814,-9.8992099755,6.6714845895,-1.254803002
115,0.4791474999999536,17.559658050000003,23.797091485000003,36.20015335,-1.0613332395000001,0.45889125799999997,6.693660259,-11.483490944,-6.12029934,-3.6683173179999997
116,0.483314000000064,17.51461983,23.832585335,36.21062090000001,-2.8619397875,0.0016023144999999933,10.825450417999999,-7.4794929025000005,4.310096264999999,-0.4386439475
117,0.4874804999999469,17.40308571,23.804174425,36.16384505,-0.5412305145,-0.3325932025,12.383757592,-12.76784563,-4.905586715,-4.2683070899999995
118,0.4916470000000572,17.347320555,23.795826915,36.1482353,-3.1841570734999998,1.019048065,6.74461174,-7.50380826,-1.5652437199999998,-1.580590844
119,0.4958134999999402,17.26053238,23.79257965,36.11969375,-1.5862136035,-0.25760854,15.97760868,-10.6728596705,-1.42026043,-3.2551025745
120,0.4999800000000505,17.20108223,23.74148178,36.09679795,-1.5716808439999999,-0.05188061299999999,3.6305941345,-7.604317665,-6.700976374,-0.8493743834999999
121,0.5041464999999334,17.135163310000003,23.75431633,36.0832138,-2.8276065894999998,-0.401558813,18.21472549,-8.882786751,0.9181480405000002,-2.2255825995
122,0.5083130000000438,17.064052580000002,23.69192982,36.050086949999994,-0.58196485,1.0081055165000001,4.4908196925,-8.532486916,-8.327867508,-1.585431606
123,0.5124794999999267,17.012075425,23.698669435,36.0247383,-4.0379663704999995,-0.3892762955,13.556334015000001,-6.6306934355,-0.15584325799999998,-3.2140998840000004
124,0.516646000000037,16.949986455,23.629309655,35.9952202,-0.5074847935,0.025044362999999993,8.370971205,-7.636232138,-9.0147395125,-0.998737603
125,0.52081249999992,16.89678955,23.611328125,35.96549225,-3.1862176655,0.5230698285,12.04447031,-6.5671193599999995,-3.1275045870000007,-2.7985093594999997
126,0.5249790000000303,16.825071335,23.54302788,35.933040600000005,-0.358729072,-0.646218598,10.965419769,-8.661159992,-8.986526487499999,-1.3767398000000002
127,0.5291455000001406,16.777340889999998,23.504750254999998,35.8910141,-3.86545074,0.30060338799999997,9.9757976555,-5.327466726500001,-5.8468401414999995,-3.3965629340000003
128,0.5333120000000235,16.71831417,23.428679465000002,35.85844805,-0.9530314505,-0.151903585,9.368186952,-7.145630598,-9.8822700695,-1.1506814065
129,0.5374785000001338,16.674640655,23.385282515,35.83352659999999,-2.9606144425,0.1057077535,9.7325034125,-5.6596198079999995,-5.890566586,-1.414072514
130,0.5416450000000168,16.591092109999998,23.31110668,35.798686950000004,-1.1557146015,-0.1367417075,13.69394064,-9.9951636805,-9.735559584,-1.488033831
131,0.5458115000001272,16.551436425,23.26553059,35.7816887,-3.3404849765,-0.06243477799999997,9.1526851665,-5.556075096,-5.890453340500001,-0.504728697
132,0.54997800000001,16.47786331,23.20721245,35.750587450000005,-1.4346716255,-0.05145719649999997,12.380914690000001,-8.9893062135,-7.796307563,-1.6761575340000001
133,0.5541445000001204,16.445402145000003,23.14026928,35.73064039999999,-3.55088377,1.17256172,4.154833436,-4.554046511999999,-8.442248347000001,-0.09606619549999999
134,0.5583110000000034,16.362209319999998,23.11018181,35.7057953,-1.709946215,-1.5584328475,17.37964821,-10.444975855,-4.350908275000001,-1.9812232255
135,0.5624775000001137,16.319687844999997,23.04325962,35.68695065,-2.6742458344999998,0.632844985,5.4468512535,-5.8255493640000005,-8.4054889685,-0.008010745499999972
136,0.5666439999999966,16.249361995,23.058458325,35.676525100000006,-2.3212827445000004,-0.21240907150000002,18.09399891,-9.570934294,1.3130106899999996,-1.971547365
137,0.5708105000001069,16.1960392,22.983801845,35.65410995,-2.2129335405,0.259288311,0.4334592225,-6.971818685500001,-9.4089878195,-0.1726783515
138,0.5749769999999897,16.130232810000003,23.007732395,35.644569399999995,-3.166019179,-0.5967544615,17.069776055000002,-9.0606513015,2.3481915000000004,-2.1402872505
139,0.5791435000001002,16.052511215000003,22.930994990000002,35.61734009999999,-1.5903620125000002,0.8982209715,5.1565674545,-9.688766478,-9.7982025135,-0.6611997035
140,0.5833099999999831,15.98483086,22.953182220000002,35.61503605000001,-3.2407982349999997,-0.896980673,17.585762975,-9.6147451405,2.3722367585,-1.2818644044999998
141,0.5874765000000934,15.91308832,22.890735630000002,35.59278485,-0.9453004225,0.053864419499999996,2.8627253770000003,-9.2183589935,-8.000542762,-0.6523115335
142,0.5916429999999764,15.835962775,22.899921415,35.5815201,-3.8112651105,0.5364167245,12.416638375,-10.327250001500001,0.6026964189999999,-1.7919719815
143,0.5958095000000867,15.742531775,22.855501175,35.55543900000001,-1.1512322720000001,-0.28151992699999995,9.146143197,-11.64500761,-6.035304187,-1.6741915045
144,0.5999759999999696,15.65624142,22.858595845,35.539882649999996,-3.2980772254999997,-0.22964640900000002,12.481702805000001,-11.229781630000002,-0.22739672649999987,-2.052212745
145,0.60414250000008,15.581706525000001,22.82434082,35.53508755,-1.2188966945,0.25444115700000003,8.3805680275,-10.371294495,-4.2226475475,0.255956709
146,0.6083089999999629,15.476103304999999,22.806828494999998,35.49810409999999,-2.8350304365,-0.212549612,9.0895581245,-12.561286925000001,-3.2385874985,-3.6872080565000003
147,0.6124755000000732,15.369389055,22.764322280000002,35.4728546,-1.5598495899999998,0.1380394585,10.484407903000001,-13.27265978,-5.7828764915,-1.6576256154999998
148,0.6166419999999562,15.230540755,22.72318649,35.42194369999999,-2.4013611675,-0.0618159,12.86151218,-15.91821432,-6.3702117205,-4.460656047
149,0.6208085000000665,15.130920884999998,22.654864315,35.41336445,-1.4521377685,-0.445633635,7.0780773165,-13.193779469999999,-8.283132910500001,0.922298312
150,0.6249749999999494,14.979383944999999,22.60764599,35.36224745,-2.429480493,0.2986498435,11.608479023000001,-17.451446535000002,-7.064326452,-4.3377594945
151,0.6291415000000598,14.84935141,22.525562285,35.340332049999994,-2.292933166,0.5960895104999999,6.1650464535000005,-16.229159355,-10.267765521000001,-0.11474525899999999
152,0.6333079999999427,14.680704595,22.488020895,35.295989999999996,-3.296374798,-0.8343259989999999,17.168606755,-19.827046395,-5.7341977335,-3.9466234445
153,0.637474500000053,14.55577183,22.40490532,35.28030395,-1.6549091265,1.0398836435,4.0159367325,-15.911331655,-10.212176442,0.5328789355
154,0.641640999999936,14.403098584999999,22.39746952,35.240756999999995,-2.8386968374999997,-0.04947108750000001,16.127168175,-18.13958454,-2.0872983950000004,-4.3675870895
155,0.6458075000000463,14.291397575,22.33116055,35.21824645,-1.847392261,0.788003251,3.3089846375,-14.020685194999999,-8.451367973,-0.757380903
156,0.6499739999999292,14.162985325000001,22.30931854,35.18357085000001,-2.8534525635,0.468366608,17.362425805,-15.449613095,-3.6146236065000004,-3.41855371
157,0.6541405000000395,14.076994419999998,22.24357319,35.179702799999994,-1.2091465590000001,0.8107732085,4.595646262500001,-11.7968688005,-7.8803353309999995,1.181847155
158,0.6583069999999225,13.9789381,22.207144735,35.14695355,-3.2294055220000004,-0.107587457,12.566511155,-11.897070885000002,-5.2493305205,-2.777377546
159,0.6624735000000328,13.89862776,22.162947655,35.155292499999995,-0.6684841065,0.1315101385,9.852769851,-11.672358514999999,-5.053889095500001,1.825052917
160,0.6666400000001431,13.816361905,22.094233510000002,35.1120071,-3.420867264,1.0231696065,6.9497356415,-9.530879974000001,-9.282153964,-2.987273693
161,0.670806500000026,13.732420925,22.073851585,35.11867899999999,-1.3056007025,-0.409117229,14.831197265,-12.03272486,-2.3312356495000004,0.945831418
162,0.6749730000001364,13.667675495000001,22.02951145,35.0655556,-4.148113966,0.8703537585,4.88848269,-6.991893053,-6.6934553955,-4.7698323725
163,0.6791395000000193,13.61008358,22.01931095,35.0780716,-0.2888051865,0.134638668,14.58779097,-9.129389285999999,-0.9937493805000002,1.2933782335
164,0.6833060000001296,13.55619812,21.98830414,35.017814599999994,-3.726915002,0.9156981115,6.866522074000001,-5.387262821,-5.3157862425,-5.9561936855
165,0.6874725000000126,13.54499912,21.98423481,35.02605820000001,-2.0712621215,0.2761799095,9.297997949500001,-3.3553367855,-0.39309525450000005,0.6907263395
166,0.6916390000001229,13.49771547,21.96256161,34.9823685,-2.8290252689999997,1.005842686,12.35054207,-5.355027675500001,-3.7929245235,-4.4661495685000006
167,0.6958055000000058,13.50864744,21.985146524999998,35.0103149,-3.144684434,0.2640601245,10.8294773115,-1.5777474645,3.2301678665,2.09836936
168,0.6999720000001162,13.48872089,21.991322515,34.9628868,-2.9658485655,0.9995161295,9.6441378605,-1.9136266709999998,-0.6379537559999999,-5.6628468035
169,0.7041384999999991,13.506114485,22.02815056,34.98915485,-2.5579284429999998,0.395062268,12.374817844999999,-0.7190489770000001,4.8421100375,1.5155113935000002
170,0.7083050000001094,13.50111246,22.04067802,34.94885635000001,-3.1676545735,0.5182667970000001,8.6636743545,-0.43798428749999996,0.29080438650000007,-5.053932071
171,0.7124714999999924,13.501634595,22.06997204,34.947311400000004,-2.339415416,0.039775192499999945,12.397373675,-1.4992204535,3.239156604,-1.291232854
172,0.7166380000001027,13.48344088,22.113257405,34.90846635,-3.0391418635,-0.13092046950000003,9.565925599,-2.0851204545,3.9173583990000003,-5.7605524065000004
173,0.7208044999999856,13.48271608,22.11559486,34.89945605,-2.006125152,0.736914795,6.3851311205000005,-1.308074385,-0.09796786300000004,-1.33572495
174,0.724971000000096,13.449709895,22.157906529999998,34.86852645,-2.666674599,0.42164540300000003,12.398112775,-4.220982909,4.010503530499999,-4.881420493
175,0.7291374999999789,13.463590145,22.18406963,34.87442394999999,-1.9491207449999999,0.018274992500000004,8.723679304000001,-0.23111088600000002,3.0677595135,-0.38579526550000004
176,0.7333040000000892,13.46253157,22.192394255,34.8624077,-1.817887701,0.974692389,9.333697319,-1.241925299,0.535088301,-1.884285584
177,0.7374704999999722,13.48470402,22.216261865,34.872131350000004,-2.505675912,-0.20536410049999998,8.009603739,0.5776586085,2.9001654535,0.07079136400000002
178,0.7416370000000825,13.509034634999999,22.267726895000003,34.89680485,-2.7284759285,0.2855371535,9.686101437,0.15253925299999993,6.5138281585,0.886393338
179,0.7458034999999654,13.527397635,22.28270912,34.928012849999995,-2.2309401035,-0.09306228150000001,8.714435577,-0.860151574,2.422267884,2.6368703845
180,0.7499700000000759,13.535009385,22.368252755,34.96948245,-2.6128724215,0.2886932045,12.86512041,-2.636998296,10.928584576,1.7209825515000001
181,0.7541364999999587,13.5506916,22.43485546,34.998889899999995,-3.8049767015000002,0.5165654125,8.0542554855,-1.0959949195,8.393056509500001,0.9955039025000001
182,0.758303000000069,13.57230377,22.498581885,35.044406900000006,-1.784089925,0.255754888,8.966730118000001,-1.1491955145,8.4902110085,2.775213003
183,0.762469499999952,13.577080725,22.57150173,35.066074400000005,-2.8503863815,0.33397734199999995,10.782168389999999,-2.0654999315,8.9277269845,-0.036506712
184,0.7666360000000622,13.582672599999999,22.64692402,35.09202574999999,-2.5231307745000002,0.21999117700000004,9.9907674805,-2.177376419,9.342087985500001,0.335514516
185,0.7708024999999452,13.603899,22.685894965000003,35.109832749999995,-2.2498718425,0.9033292980000001,5.9897072315,0.08372676400000001,4.8687289655,0.5084747674999999
186,0.7749690000000555,13.597760675,22.76013374,35.125999449999995,-2.384054184,-0.2321151345,10.031587841,-3.139101505,8.9477827525,-0.6952983964999999
187,0.7791354999999385,13.620605470000001,22.81645393,35.14480205,-1.7242119905,0.6429471375,9.0016269685,0.228478981,6.918084837,0.130575031
188,0.7833020000000488,13.62443495,22.841038705000003,35.159999850000005,-0.963426594,0.2813230825,9.0456080435,-1.905308619,3.1317049265000003,0.593846813
189,0.7874684999999318,13.642092705,22.879349705000003,35.15594865,-2.2925482395000003,0.06972362100000001,8.918131351500001,0.6640107335000001,4.222052783,-1.8273453709999998
190,0.791635000000042,13.665034295,22.88915634,35.17167665,-1.736318946,0.8242212535,9.327582358,0.36737865199999997,1.4209817645,1.0764895079999999
191,0.795801499999925,13.67972183,22.88546085,35.1681709,-2.3964166045,0.7185202965,10.896863460999999,0.27931678300000007,-0.664388597,-0.5890826435000001
192,0.7999680000000353,13.69707584,22.88882065,35.18601605,-2.1694713685,0.0026803315000000216,12.48758602,-0.40640199200000005,0.7285648585000001,1.4869063125
193,0.8041345000001456,13.7152071,22.855460165,35.1673775,-2.590092704,1.3122288585,7.071501254999999,1.3990686535,-4.51925385,-1.3729804904999998
194,0.8083010000000286,13.732626915,22.856801035,35.18203735000001,-2.4390764755,-0.1666003055,12.535241605,-0.24267564700000002,0.405518174,1.202101648
195,0.8124675000001389,13.747569085,22.786281585,35.16208265000001,-1.5252017675,0.5040619675,6.809174776,1.0701436715000001,-8.8846309185,-0.4536921605
196,0.8166340000000218,13.75329828,22.758881565,35.16795344999999,-2.479475029,0.2375114595,14.64757681,-1.2368408965,-3.1733604074999997,1.080767095
197,0.8208005000001322,13.746418479999999,22.685723305,35.13599394999999,-2.344184458,0.442813352,6.6164724825,-0.9970405699999999,-9.5096817015,-1.6764515635000001
198,0.8249670000000151,13.75054073,22.615677835,35.1418495,-2.5374664664999997,-0.23716965299999998,13.974834444999999,-1.4190734405,-8.146428107,2.310685575
199,0.8291335000001254,13.72590065,22.55268288,35.10321805,-2.2188265325,1.2952732445000001,6.613914728499999,-2.8426042495000003,-8.5008151525,-2.711574435
200,0.8333000000000084,13.719646455,22.47743702,35.11263275,-3.1391499045,-0.261231005,11.628222465,-2.816721231,-8.659303856,2.8622374534999997
201,0.8374665000001187,13.6793437,22.418815615,35.096263900000004,-2.049033433,0.5570427325,10.1819472305,-5.7619754075,-7.405943871,-0.46699886
202,0.8416330000000016,13.657700535,22.38030052,35.1165314,-4.057129264,0.7792270145,8.225426197,-5.1516507865,-4.096722600500001,2.9977878330000003
203,0.845799500000112,13.60727787,22.35312271,35.111988049999994,-2.0869719385,0.402668193,9.751668931000001,-7.518355608,-3.428345202,-0.08945773350000001
204,0.8499659999999949,13.557212830000001,22.361197475,35.13750075000001,-2.8083050255,0.33486971249999997,12.423828605,-8.8045990455,1.4675481319999997,2.226235747
205,0.8541325000001052,13.48883009,22.350418095000002,35.127178199999996,-2.7293242215,0.8917497915,8.221611739,-9.4061760895,-1.66600728,-1.16396223
206,0.8582989999999882,13.41991472,22.37233257,35.13382334999999,-2.910485506,-0.21778389799999998,8.2012996655,-10.215381862000001,2.5937422515,-0.2011038175
207,0.8624655000000985,13.315574170000001,22.415631294999997,35.138980849999996,-2.7559468750000002,0.6006091610000001,12.373955725,-14.418895245000002,5.0436227879999995,-0.9907972810000001
208,0.8666319999999814,13.211076259999999,22.45512867,35.150279999999995,-3.317923546,-0.116632193,9.546508789,-14.70313692,4.765497148500001,-0.17418320450000002
209,0.8707985000000918,13.102675915,22.521985055000002,35.16610334999999,-2.465699673,1.7604320045000001,11.147264005,-15.40623665,8.071688949,-0.4694706425
210,0.8749649999999747,12.993221285,22.59941864,35.18439864999999,-3.161588788,1.3164976240000001,11.189824102500001,-15.616888045,9.369190929,-0.4374721645
211,0.879131500000085,12.901323314999999,22.645771025000002,35.20755005,-1.8221248979999998,0.441207975,7.544041872,-13.767140865,5.8566441535,0.9114761724999999
212,0.883297999999968,12.82462883,22.709189415,35.2104111,-2.0719974635,2.0637308955,7.906057837,-10.976765633,7.3506720065,-1.6991334555
213,0.8874645000000781,12.741393089999999,22.745140075000002,35.227787000000006,-1.330028087,1.2874269785,12.147719859999999,-12.462558269999999,4.492161855,0.5757313070000001
214,0.8916309999999612,12.707309245,22.807499885,35.23145290000001,-3.077300906,0.5820289705,8.2373931405,-5.9057085515,7.250878751999999,-1.5555783509999999
215,0.8957975000000715,12.71182966,22.840662955,35.265377050000005,-2.101028502,2.351718545,7.3205778595,-2.700444996,4.5661609174999995,2.4456858635
216,0.8999639999999545,12.701956745,22.89039421,35.27400204999999,-2.2863289115,1.0592665675,14.950979234999998,-3.2318124325,5.8923763035,-0.69964008
217,0.9041305000000648,12.713565825,22.9128561,35.29753495,-2.51047349,0.9487090410000001,9.199250939,-1.3779302835,3.0608888865,1.5935961605000002
218,0.9082969999999478,12.752250195,22.961045265000003,35.29686735000001,-2.8964327575,1.0268680455,7.9594540595,3.038380444,5.4828432199999995,-1.6433006225
219,0.912463500000058,12.804327489999999,22.95186424,35.3257523,-0.9273896214999999,1.456706285,7.531967163000001,3.2235773805,-0.509358406,2.9978902339999998
220,0.916629999999941,12.8469491,23.02562332,35.31815335,-3.3997881415,0.6795943824999999,13.210743425,3.8253457545,8.3065949685,-3.082763195
221,0.9207965000000512,12.919255255,23.0571661,35.35155485000001,-2.282100797,0.882817477,9.0370104325,5.441642642000001,4.368744849,2.3949058055
222,0.9249629999999343,12.98748541,23.13125229,35.351402300000004,-4.703780174,0.28827653649999996,9.62624979,6.549919963000001,8.523164272499999,-2.3072410825
223,0.9291295000000444,13.06516218,23.19086075,35.3892517,-1.543996334,2.258885443,9.040309429,5.867760658,7.765571356,2.0997784735
224,0.9332959999999275,13.121022700000001,23.2806921,35.4005623,-1.973555505,0.16747412099999998,10.941459176999999,4.5247677565,10.641933682,-1.5358295145
225,0.937462500000038,13.203991890000001,23.31019974,35.427833549999995,-0.96917361,0.20146337150000004,5.735121608,6.9942239530000005,3.9922989605000003,1.780214995
226,0.9416289999999208,13.28195286,23.364187245,35.42819595,-2.29010427,0.801301986,6.336639881,7.693428754999999,6.1763490115,-1.7460969094999998
227,0.9457955000000312,13.341997625000001,23.372709275,35.460979449999996,-2.110828817,0.8342672879999999,13.609025475,3.981348753,1.6828867195,2.932778716
228,0.9499620000001414,13.38936281,23.433670995,35.46318815,-2.9405725,0.773040384,11.435761455,3.929044485,7.035590411499999,-1.7660630345000001
229,0.9541285000000244,13.472168445000001,23.45000172,35.47965620000001,-2.458887577,1.629326701,6.8464951515,7.4886033535,2.182326473,0.971932247
230,0.9582950000001346,13.56411791,23.471111295,35.4970856,-0.7626701,1.246423781,9.1041040405,8.5513391495,2.772356987,0.9496734440000001
231,0.9624615000000176,13.655363560000001,23.488763810000002,35.50700380000001,-2.8500391245,0.9419012965,7.924417019,8.8106567855,2.1735602315,0.228856801
232,0.966628000000128,13.761398790000001,23.533498765,35.524265250000006,-1.5699775814999999,0.06996788099999998,10.052973270999999,10.2480397215,5.526745200000001,0.2597667945
233,0.9707945000000108,13.862376690000001,23.536631585000002,35.53483585,-3.035580039,0.6652058515,8.429611921,9.943229437,0.49968910200000005,0.690956831
234,0.9749610000001212,13.948065280000002,23.59954071,35.54510880000001,-2.4603978395,0.3991993515,10.9879841785,8.1426510795,7.458878519,-1.027297288
235,0.9791275000000041,14.040800095,23.613904955000002,35.555172000000006,-2.592280149,0.6210122555,9.212128639,8.9800312515,1.7951294185,0.30832497799999997
236,0.9832940000001145,14.14122057,23.61693096,35.573818200000005,-0.1429512765,0.580002546,8.6951785085,9.506878613,0.7133886814999997,1.596445918
237,0.9874604999999974,14.207079884999999,23.60550308,35.57439045,-2.5544178485,0.41582216299999997,9.511651039,6.200977087,-1.4581346514999995,0.031076486999999993
238,0.9916270000001078,14.287753585,23.59296894,35.57811735000001,-1.232000917,-0.44132776549999997,7.303798437,7.8670027255,-1.4973764420000002,0.489680141
239,0.9957934999999906,14.347110749999999,23.513770105,35.58584595,-0.9692012969999999,1.0713039635,10.7281746855,5.0748595,-9.142742278,2.7995465995
240,0.999960000000101,14.381866935,23.479727744999998,35.563316349999994,-3.7433472869999997,0.5335035025,12.459364415,3.6115301250000003,-4.7115924335,-1.66822952
241,1.004126499999984,14.41461372,23.39435959,35.542530049999996,-1.850652844,0.630918801,11.909823415,3.2487947345,-10.636609196,-0.03710859999999999
242,1.0082930000000943,14.43433714,23.28783035,35.5049057,-2.344223246,0.6271926835,7.8954713345,2.5131922959999997,-13.554275991,-1.1283329125
243,1.0124594999999772,14.43772125,23.219231604999997,35.47439574999999,-3.221992254,0.6203701195,13.970701219999999,0.1842624095,-8.954289911,-1.5553606155
244,1.0166260000000875,14.435010909999999,23.090861320000002,35.4307022,-1.8207583725000003,0.8195013105,5.0290361645,0.085922968,-16.260418415,-1.1405124665000002
245,1.0207924999999705,14.42865181,23.02547741,35.41743090000001,-2.66583176,-0.09020397100000002,15.358066560000001,-1.8001044689999999,-8.109019043,0.19636516299999998
246,1.0249590000000808,14.40963602,22.885232925,35.37491225000001,-2.241639376,1.8208391664999999,5.3493993285000005,-1.954026908,-17.606934545,-0.6888501645
247,1.0291254999999637,14.39499092,22.81671047,35.353462199999996,-3.5414370295,0.7013092935,10.838249206499999,-2.4069572985,-8.7007782435,-0.5659978985
248,1.033292000000074,14.35152054,22.715177535,35.329826350000005,-1.438462734,0.22627666800000001,8.619817495500001,-5.7882300615,-12.592206239,0.13688880949999999
249,1.037458499999957,14.304456235,22.651525495,35.31007765,-3.7309547665,0.35075734550000004,11.334613325,-6.377497673000001,-8.0851308695,-0.5194440335
250,1.0416250000000673,14.228187080000001,22.567478180000002,35.286846149999995,-2.2290273904999998,1.8349203465,8.7702994345,-9.7554140085,-10.54822796,-0.3762284815
251,1.0457914999999502,14.13557005,22.545269015000002,35.25755310000001,-4.294678687999999,-0.46869225800000003,11.221745012500001,-11.410028934,-3.5242056869999994,-2.794103861
252,1.0499580000000606,14.035503864999999,22.478530884999998,35.264377599999996,-2.0767799015,0.459796611,9.9496064185,-13.99323845,-7.722770421,2.328821123
253,1.0541244999999435,13.90022993,22.47963619,35.22673035,-4.198653936,0.7973913850000001,9.258706807,-16.156605244999998,-1.0230010749999998,-4.3954164984999995
254,1.058291000000054,13.758500575,22.44515896,35.24938585,-1.3469139934999999,0.8560864029999999,12.463966845,-19.71374607,-3.5575180045000003,3.078217268
255,1.0624574999999365,13.610311035,22.456050875,35.21589660000001,-4.2476179599999995,0.8184254765000001,5.480688095,-17.905058859999997,0.24837470049999988,-4.22997427
256,1.066624000000047,13.48636961,22.434681895,35.240997300000004,-0.8825009109999999,1.4503018855,6.3461942675,-17.681920055,-1.9814729765,2.972852707
257,1.07079049999993,13.329737665,22.445345875,35.2168083,-2.452526271,0.673080489,12.1955781,-19.35175133,0.4796715275,-3.2345793245000003
258,1.0749570000000404,13.202757835,22.434848785,35.2329979,-2.828551173,1.245670259,9.9197535515,-17.637085435,-0.9550527185,1.7053707835
259,1.0791234999999233,13.070737365,22.467479705000002,35.20183945,-4.293857813,0.98227337,8.573620558,-16.073563575,2.8839842085,-4.582835913
260,1.0832900000000336,12.956662175,22.441908835,35.235671950000004,-1.6690027189999999,1.8462229965,10.8021230695,-16.89620304,-2.2853792905,4.0186179875
261,1.087456500000144,12.787998675,22.488759995000002,35.19359205,-3.3932222725,0.4402063265,12.276453015000001,-19.980520249999998,4.2989025115,-6.1396956445
262,1.0916230000000269,12.67304039,22.47045803,35.2072258,-1.072747469,1.031183988,6.309757471,-16.06616211,-1.9517220855000001,1.6466115714999998
263,1.0957895000001372,12.535794735,22.46535587,35.159904499999996,-2.3166621325,1.6846314965,8.6037111285,-15.97050333,-1.885227293,-5.3272237780000005
264,1.0999560000000201,12.398197175,22.4381609,35.151630399999995,-2.5684462784999997,0.744450748,10.3450570115,-17.783968925,-3.5267478225,-0.512470506
265,1.1041225000001305,12.23929548,22.43042183,35.093975050000005,-3.2315671445,0.21032759550000002,11.84451866,-18.09338856,-2.413962841,-6.3791880605
266,1.1082890000000134,12.091492174999999,22.363581654999997,35.07315065,-2.3180424719999997,2.0135261415,8.2901124955,-18.43655777,-8.471449852,-0.8964346125
267,1.1124555000001237,11.887300965,22.35717678,34.995449050000005,-3.199722588,-0.0866476595,10.726144789500001,-22.620952605,-2.6870624425,-8.610216140999999
268,1.1166220000000067,11.71641493,22.295895575,34.967338600000005,-1.4258194789999998,0.5777524115,6.222508191999999,-20.874215125,-7.976827146500001,-1.8636669515
269,1.120788500000117,11.47706604,22.235262875,34.8817024,-1.897669077,0.9877933265,10.313930989500001,-26.498200415,-9.1831839065,-8.1952290535
270,1.124955,11.251354215,22.163811685,34.829158799999995,-2.094173491,0.2254576535,11.05082655,-26.355427745,-9.697594883499999,-4.3495566844999995
271,1.1291215000001102,10.999361995000001,22.087207794999998,34.730094900000005,-3.2503124475,0.7037039105,7.615286827,-27.42551613,-11.28770256,-9.361626148
272,1.1332879999999932,10.726128105,21.995629309999998,34.66827395,-2.021422088,0.8595743964999999,13.847778795,-31.659261705,-12.231550689999999,-5.012620926
273,1.1374545000001035,10.41963005,21.92331028,34.56405255,-4.1196464299999995,0.5339904275,10.335576773,-33.77245426,-10.801260469999999,-10.140693664499999
274,1.1416209999999865,10.108135225,21.838542935,34.479129750000006,-2.1047036055,0.008647053999999987,6.8617589475,-35.236618039999996,-11.83653784,-7.8217835425
275,1.1457875000000965,9.755659103,21.772069934999998,34.38520815,-2.807488561,0.408628583,10.826277730000001,-39.777479174999996,-9.8061046605,-9.265169144
276,1.1499539999999797,9.3833112715,21.710639,34.291481,-2.3068766595,0.37041823549999997,8.174888611,-42.176469804999996,-9.14693594,-9.406318187499998
277,1.15412050000009,8.978569031,21.646757125,34.17082975000001,-2.3065263035,0.21760363899999996,9.804964063,-44.88733482,-9.856787204,-12.38532686
278,1.158286999999973,8.5568475725,21.60191345,34.0754738,-2.7380001545,0.39138798750000003,11.49073315,-48.04754448,-7.083389639,-10.0287504215
279,1.1624535000000833,8.1151413915,21.547509195,33.94903179999999,-3.076197505,0.6210715769999999,8.926881790500001,-49.098392485000005,-8.646272660000001,-13.338119984999999
280,1.1666199999999662,7.645678520000001,21.49643612,33.8338127,-3.2652316089999998,0.46569724349999997,10.417280672,-52.919570925,-7.977522609999999,-12.23565817
281,1.1707865000000766,7.149892092,21.46043873,33.699745199999995,-3.2342061995,0.30228384599999997,10.882897854,-55.27114487,-6.355203867,-14.623016835000001
282,1.1749529999999595,6.653965712,21.408790590000002,33.59754945,-2.916207075,0.4002616625,8.9254479405,-56.68662262,-7.666542292999999,-10.9089427
283,1.17911950000007,6.1040501595,21.348086355,33.4427948,-2.7564132215,0.7659632270000001,9.091758489,-60.890678405,-9.304083108,-16.711771965
284,1.1832859999999525,5.561850548000001,21.31034279,33.33666995,-2.5787414315,0.18485354999999998,9.307742596,-62.082595825,-5.8549354075,-11.662650585
285,1.187452500000063,4.98737669,21.225400925000002,33.1955948,-1.410612464,-0.6328809745,6.8879630565,-64.47306061,-11.7421116825,-15.101188660000002
286,1.191618999999946,4.3702681065,21.155050279999998,33.069713549999996,-2.3282215595,0.157866223,11.095624447,-70.24896240000001,-9.704753878,-13.682483675
287,1.1957855000000563,3.732314229,21.073607445,32.906803149999995,-2.489084184,-0.0028085560000000176,8.542675495,-71.186340335,-11.181063654999999,-17.831140515
288,1.1999519999999393,3.056535363,20.95313644,32.78236390000001,-1.9645995200000002,-0.748960182,10.860215663999998,-77.39248276000001,-15.39940262,-13.386803624999999
289,1.2041185000000496,2.3056817055,20.847589495,32.60204315,-2.878186822,-0.29007123,12.570659639999999,-84.06783676500001,-13.740106104999999,-19.937767030000003
290,1.2082849999999326,1.5498633384999998,20.718383785,32.45649335,-3.7954411805,0.02084398250000008,8.941262245,-86.145206455,-16.18819761,-16.11270952
291,1.2124515000000429,0.710388273,20.564414975,32.28201675,-1.26801312,-0.5138077435,11.144331455500001,-95.03396988,-19.002812385,-19.561411855
292,1.216617999999926,-0.1391636505,20.39685917,32.12374115,-2.5374538895,-0.5708263065,7.6978957655,-96.959194185,-20.337781905,-18.013936045
293,1.2207845000000361,-1.055485606,20.168896675,31.933559400000007,-0.3311243655,0.22172847399999998,9.7962603565,-103.72795865,-27.274558065,-22.02923107
294,1.2249510000001465,-2.008908272,19.96435356,31.76283265,-3.6551109555,-0.931871668,12.474367619999999,-109.0323257,-24.16518021,-20.21438217
295,1.2291175000000294,-2.9880045655,19.66735649,31.596000650000008,-1.2357113659999999,0.778165966,8.135602951,-112.39081955,-34.929590225,-20.703774455
296,1.2332840000001397,-4.028278112500001,19.407247545,31.406307199999993,-4.235019445500001,0.11685729050000004,15.302433494999999,-118.8676529,-29.985332489999998,-23.644493105000002
297,1.2374505000000227,-5.0600230695,19.07775402,31.257259350000005,-1.313187361,0.19028189750000002,6.380841732,-119.59786224999999,-38.22260475,-20.30031204
298,1.241617000000133,-6.146324396,18.721115115,31.086486799999996,-0.9920476375,0.3428769935,13.065525529999999,-125.3649292,-40.842473985,-23.793643
299,1.245783500000016,-7.2381842135,18.352947235000002,30.946540849999998,-2.8283390400000004,0.27421148100000003,10.775296211,-127.37158965,-42.168787005,-21.2963028
300,1.2499500000001262,-8.3353328705,17.934713365,30.784137749999992,-2.4835293665,0.8404955565,6.622340679,-127.2402725,-47.36105156,-25.471107485
301,1.2541165000000092,-9.451714516,17.51996803,30.68014145,-1.972441107,0.23710826049999997,14.768589500000001,-131.84659575,-47.47937393,-19.772207260000002
302,1.2582830000001195,-10.570190905,17.080078125,30.538131749999998,-4.0350911620000005,0.9090678545,11.685224535,-130.8143463,-49.298877715,-25.52749729
303,1.2624495000000024,-11.66351223,16.615468025,30.454483049999993,-2.420716703,1.3318899275,8.535066366,-129.96903229999998,-53.00099182,-20.50897789
304,1.2666160000001125,-12.784041405,16.139883994999998,30.351173400000008,-2.1783449055,0.9026532620000001,15.043953415,-132.61372375,-53.40248108,-24.02643013
305,1.2707824999999957,-13.896651745,15.67835474,30.282180750000002,-2.9343502220000004,0.9445883485,12.918028355,-132.93115999999998,-52.1992321,-20.859465595
306,1.274949000000106,-14.97156143,15.18498516,30.187698350000005,-2.3475061354999998,1.068851322,8.232566118,-127.62105945,-54.756320955,-25.66513252
307,1.279115499999989,-16.013926505,14.692958834999999,30.16706085,-3.2322692870000003,1.7474747305,9.8192324655,-126.1313591,-56.404706954999995,-18.411354064999998
308,1.2832820000000993,-17.08904743,14.205921175,30.082073200000004,-3.606136918,2.262596533,16.117535115,-128.1205559,-53.355184555,-26.436481475
309,1.2874484999999822,-18.12454605,13.75045395,30.065624199999995,-3.5038034920000003,0.7228747904999999,14.655895229999999,-125.45722194999999,-51.662778855,-18.688865665
310,1.2916150000000926,-19.10917568,13.27353287,30.016063699999997,-4.0551393035,1.9224267005,7.393856049,-118.43159865,-52.533906935000005,-24.076864245
311,1.2957814999999755,-20.037794114999997,12.830722810000001,30.021869650000006,-1.5208486615,1.97454983,6.6878087520000005,-113.26283265000001,-50.44174957,-17.492331505
312,1.299948000000086,-20.94357681,12.33727455,30.008995050000003,-3.4387066365,2.3771493435,13.568324565000001,-110.03884885,-55.08322716,-22.471793175
313,1.3041144999999685,-21.797987935000002,11.899781705,30.037597650000002,-2.850848913,3.184899926,13.93340206,-104.90517805,-50.259582519999995,-16.330850125
314,1.308281000000079,-22.591210365000002,11.43801737,30.070800750000004,-3.2203657625,3.387280583,12.822549819999999,-97.66878127999999,-52.925439835,-17.647968295
315,1.312447499999962,-23.315130234999998,11.01722956,30.118965149999994,-2.437565267,1.554152131,10.025051119,-89.654697415,-48.85434723,-14.79974842
316,1.3166140000000723,-23.92195797,10.5826449385,30.193260200000005,-1.8656361105,2.696368873,9.3085370085,-76.167137145,-51.433452605,-13.198846815
317,1.3207804999999553,-24.473643305,10.203013898,30.2492752,-4.6091799735,4.0726962085,12.95647573,-69.059494015,-44.411590575,-12.969641685
318,1.3249470000000656,-24.943582534999997,9.7943243975,30.34311675,-0.8646243514999999,2.639681339,9.4098453505,-60.013519285,-49.33370018,-10.753504275000001
319,1.3291134999999485,-25.35475731,9.438014031,30.391555749999995,-3.8581373694999996,2.0188817974999997,10.042747021,-51.981042865,-41.285573955000004,-13.312374115
320,1.3332800000000589,-25.68932915,9.067368984,30.511787400000003,-2.281677723,2.355301857,12.128188609999999,-44.13243675,-46.417182925000006,-6.6418204305
321,1.337446499999942,-25.985370635,8.7888665195,30.537689249999993,-5.0928697585,1.7556034624999999,13.12588406,-37.657993315,-31.566373825,-12.130314349999999
322,1.341613000000052,-26.215344430000002,8.467531681,30.656707750000002,-1.3039371370000001,1.866027296,12.280414105,-31.416946414999998,-40.982925415,-4.613493442499999
323,1.345779499999935,-26.391222,8.2274110315,30.66658019999999,-4.050740719,2.993771672,11.152738572,-22.944929119999998,-26.497550009999998,-12.046107769999999
324,1.3499460000000454,-26.495355605,7.9603390695,30.77937695,-2.8361606000000004,1.5970256775,11.978726864999999,-16.074157239999998,-34.80689621,-2.60220474
325,1.3541124999999283,-26.570064545,7.772104025000001,30.752197250000002,-4.7435064315,2.417146206,13.199623585000001,-10.1652445775,-18.915098190000002,-13.30865145
326,1.3582790000000386,-26.588025090000002,7.571469306999999,30.835407250000003,-3.7476674315,0.8955638705,7.520298958,-5.1850414275,-26.10313988,-2.248738885
327,1.3624454999999216,-26.58798599,7.427872658,30.793910950000004,0.014725029499999986,1.1355557145,7.005158186,-1.005781695,-13.347272875,-12.45625687
328,1.366612000000032,-26.56119442,7.2586967945000005,30.839778900000006,-5.8011851315000005,1.5457423925,13.846342085,0.8216153140000001,-20.739662175,-4.529033661
329,1.3707785000001422,-26.532371519999998,7.1687772275,30.7903595,0.6116414665000001,1.28739354,12.59574127,2.5724508765,-7.174612164,-10.414890287999999
330,1.3749450000000252,-26.494096759999998,7.0123960975,30.8257179,-5.6056709285,0.7968044955,10.246291162999999,2.3718019725,-18.81369972,-4.938566923
331,1.3791115000001355,-26.452424049999998,6.907183647,30.789367700000007,2.308086157,0.4077927025,8.8495259285,3.8998829725,-9.522542713,-9.8340871355
332,1.3832780000000184,-26.39879131,6.768859148,30.831451450000003,-6.599394083,0.295534005,9.9421973235,4.111508369,-17.23387766,-3.2257037755
333,1.3874445000001285,-26.36817169,6.6735436915,30.784221649999992,0.402105717,1.208496526,14.926177979999999,2.710120499,-7.8982656,-10.4513914595
334,1.3916110000000117,-26.339258195,6.5716826914999995,30.830810550000002,-6.868835211,0.22630411399999997,12.539085865,1.1086482705,-13.56020355,-0.7800239924999999
335,1.395777500000122,-26.307459835,6.456830263,30.784389499999996,3.042340398,-0.18923279649999997,6.611155987,2.8283176945,-10.0498108885,-11.4025502195
336,1.399944000000005,-26.274675369999997,6.336715936499999,30.84850695,-4.9029335975,-0.3364272715,7.556888580000001,1.3791030050000002,-16.450989725,0.14110273149999997
337,1.4041105000001153,-26.26872444,6.2150468825,30.800266250000007,0.8111263515,0.5530597555000001,9.8463239655,-0.302113473,-10.694956303,-11.95305061
338,1.4082769999999982,-26.281910895,6.111430645,30.848541250000004,-7.227738142,-0.12250950900000002,14.791065695,-3.9230585994999996,-13.842309235,-0.6656628845
339,1.4124435000001085,-26.335515975,6.0259833335,30.792854300000002,-0.42365103999999987,0.974745676,15.408784865,-7.3834454995000005,-6.394799709000001,-10.83016157
340,1.4166099999999915,-26.398280145,5.904718399,30.836006149999996,-3.2536435725,-0.69763726,10.71053839,-9.7533016195,-15.470709325,-2.1774796845
341,1.420776500000102,-26.464043615,5.796199799,30.804592100000008,-0.43981659400000006,-1.026733756,9.272237300499999,-9.176020145,-10.13833523,-9.485721588499999
342,1.4249429999999845,-26.54196358,5.677092313499999,30.849842099999996,-1.3805933445,0.2986001875,8.8790285565,-11.547721383999999,-15.348555565000002,-1.8728494640000002
343,1.429109500000095,-26.64395523,5.5550312994999995,30.831542950000006,-3.275941372,0.05384737250000002,11.795348165,-13.736062525,-12.264766218,-8.842101814500001
344,1.433275999999978,-26.75760841,5.477630138,30.851924899999993,-3.0465871095,-0.33476501700000005,11.713880539,-15.52075958,-9.5400891305,-2.3251779079999997
345,1.4374425000000883,-26.889974594999998,5.366179943,30.85620495,-2.7434779555,0.9185714130000001,14.085432050000001,-17.6402874,-12.311052325,-5.9119086265
346,1.4416089999999713,-27.01338482,5.282493353,30.866531349999995,-1.7999796570000002,-0.2313802125,8.7125651835,-16.545330525,-9.6608359815,-3.777755171
347,1.4457755000000816,-27.123217585,5.168953419,30.912147549999993,-0.6888624130000001,0.30131244650000005,7.575358391,-15.38173771,-14.756608485000001,-1.6809159514999998
348,1.4499419999999645,-27.232332229999997,5.0877585409999995,30.9012222,-3.3414362665,0.5489953905,8.8408379575,-14.620865345,-8.220710516,-5.9387511015
349,1.4541085000000749,-27.344822885,5.012320042,30.958019300000004,-2.2684209345,0.503273055,12.863740445,-15.837340355,-11.302222488,1.551333606
350,1.458274999999958,-27.46636963,4.959318638,30.908184050000003,-4.636803269,0.605518937,14.65804863,-15.71760273,-3.0512325765,-8.5445649615
351,1.462441500000068,-27.575292585,4.913004637,30.975650750000007,-1.302173689,0.2653428525,13.19138813,-15.472552775,-8.8035888675,4.252988577
352,1.466607999999951,-27.670677185,4.846893072,30.91238020000001,-2.950142622,0.7361924945,5.5764615535,-12.447754381,-3.6689011154999998,-10.710927964
353,1.4707745000000614,-27.7394495,4.800152778499999,30.99303435000001,-0.19073614449999998,-0.49061663450000004,8.355750084,-10.757685186500002,-9.5972833635,5.600028038
354,1.4749409999999443,-27.822509765,4.769629955,30.922782899999994,-3.7716176509999997,0.960110426,11.257099629999999,-10.935063360000001,0.5289402010000002,-9.470838548
355,1.4791075000000546,-27.916030884999998,4.7354052069999995,30.97558215,-1.8604055645000002,1.1580752135,13.9758358,-13.438587665,-6.7315111135,3.3326045275
356,1.4832739999999376,-28.020941735,4.72886467,30.900932350000005,-5.2982896565,-0.4488313235,14.472224235,-13.544515610000001,3.3483445645,-8.582640171
357,1.487440500000048,-28.094716075,4.690189242000001,30.9317322,-0.49670660499999986,0.015172496499999993,8.1011486055,-10.8023324015,-5.978952527,0.737645507
358,1.4916069999999308,-28.166534425000002,4.6879116295,30.875289950000003,-3.1200018524999997,1.390644729,7.9163458349999996,-9.762508869000001,2.7961655855,-6.412153244000001
359,1.4957735000000412,-28.239343644999998,4.6715204715,30.88680645,0.6127581595,-1.3977154795,8.8765823855,-10.490541937500002,-2.5349197390000002,-0.04720062050000001
360,1.499939999999924,-28.322259905,4.655299186500001,30.853927600000006,-3.5460876225,0.20315086850000003,10.8793687795,-11.335208895000001,0.004155933499999986,-4.7152223585
361,1.5041065000000344,-28.40508938,4.6685218815,30.84047315,-3.3796468374999997,1.0456088485,12.229129794999999,-11.492685795,2.0101474374999997,-0.9916616824999999
362,1.5082730000001445,-28.48219109,4.6782175305,30.8122635,-2.9800288675,-0.7981416880000001,13.149688245,-10.688577654,2.4841455815,-2.744437456
363,1.5124395000000277,-28.551188465000003,4.701219797,30.774623899999995,-3.841865778,1.5901253819999999,14.466167930000001,-9.5754737875,4.424372911500001,-2.9664874670000003
364,1.516606000000138,-28.61072445,4.729646206,30.76097105000001,-0.7402158085,0.1122527665,9.361871717500001,-8.7025403975,3.6299859285,-0.133719137
365,1.520772500000021,-28.644571305,4.7420721055,30.7225342,-2.411105633,-0.5209052565000001,6.981122494,-5.3578068615,3.3620607255,-3.6533842090000004
366,1.5249390000001313,-28.65587997,4.767827272,30.709766349999995,-0.35241220149999997,0.34891748450000004,7.9208276269999995,-2.9070492985,3.2964370255,-0.188840963
367,1.5291055000000142,-28.68045616,4.7770450115,30.704525000000004,-2.590928793,0.9945069400000001,14.090561865,-4.5967690945,1.122819193,-0.350024894
368,1.5332720000001245,-28.713440894999998,4.783709764499999,30.68175889999999,-2.459939718,0.36027339099999994,13.08279276,-5.4172313215,1.8609253765,-2.3350960020000002
369,1.5374385000000075,-28.727719305,4.7902982235,30.675441750000005,-3.457780242,-0.14228945999999998,13.973278045,-3.331528187,0.905847367,-0.6130190790000001
370,1.541605000000118,-28.725749014999998,4.8059237,30.673664100000003,-2.2214895785,0.43758986899999996,11.025767328499999,-1.44943279,1.599628061,0.3839701565
371,1.5457715000000005,-28.711723325,4.784719705500001,30.658950800000007,-2.5079392195,-0.03744271399999999,8.3193018435,0.16745945799999995,-1.5384423065000001,-3.097286224
372,1.549938000000111,-28.68491173,4.7623560430000005,30.6874123,-1.218363762,-0.05758446449999999,7.948051691,1.2423161569999999,-4.135149598,1.364342332
373,1.554104499999994,-28.671596530000002,4.7367084025,30.683269499999994,-0.8366814965,0.7238132655,10.741203786,-0.028463661500000015,-2.6125946640000004,-2.2455358505
374,1.5582710000001043,-28.671689985,4.7066385744999995,30.70901105,-2.1037192344999998,-0.7880619915,13.607227805,-1.953354508,-4.7927823064999995,0.640003778
375,1.5624374999999873,-28.64936638,4.6900351045,30.713943449999995,-2.012824893,-0.7899381295000001,9.456183194000001,0.9344649315,-2.179604769,-0.7705530825
376,1.5666040000000976,-28.605375289999998,4.654743433,30.73566055,-2.9572139980000003,0.7887029345000001,8.693220855,3.365736246,-5.110564709,-0.079231247
377,1.5707704999999805,-28.580515865000002,4.6265249255,30.754665399999993,-2.8110028505,0.14826843149999996,14.29581547,1.0895078185,-4.210250318,0.04307670899999999
378,1.5749370000000908,-28.574804305,4.6005119085,30.768646249999996,-3.364652276,-0.08709654200000005,14.766559605,-1.126142621,-3.6906909945,-0.356274806
379,1.579103499999974,-28.541446685,4.5739756819999995,30.776844000000004,-1.658587128,0.37841115900000005,9.625284674,2.223802388,-3.416337192,-0.9927949604999999
380,1.583270000000084,-28.502735135,4.537953377,30.795738200000002,-2.8416707515,-0.31657467,12.676066875,2.7717419860000003,-5.0261406895,-0.41042974600000004
381,1.587436499999967,-28.463517189999997,4.4874577525,30.811447150000006,-1.982809901,0.17873100949999998,10.779036045,2.8778108355,-6.372642755499999,-1.570972443
382,1.5916030000000774,-28.433463095,4.4385354515,30.843105299999998,-1.7722916605,0.21225765350000003,11.651819705000001,1.637454152,-7.1165702355,0.20112297699999998
383,1.5957694999999603,-28.399169925000002,4.402568221,30.857460000000003,-2.327252507,-0.8022445140000001,13.132247925000001,2.288504187,-4.762813568,-0.8772107365
384,1.5999360000000706,-28.349856375,4.363401651,30.887844100000002,-2.384069264,-0.023062065500000006,7.761551142,3.9399433134999997,-6.013249159,0.6339074280000001
385,1.6041024999999536,-28.314780235,4.3098239895,30.929191600000003,-2.2151089905,-0.043079927500000004,10.4773578655,2.127275348,-8.1575849055,0.9709077180000001
386,1.608269000000064,-28.29252911,4.2720812555,30.95544435,-2.7355796100000003,-0.08351841599999998,13.121994019999999,0.7435556055,-5.627754449999999,0.28551542750000003
387,1.6124354999999468,-28.264181135,4.237560868,30.992511750000006,-1.0364439189999999,0.184112705,10.01869726,1.3839242755,-5.9011609555,1.6108151670000002
388,1.6166020000000572,-28.243211745,4.196124792,31.014503500000004,-3.3971341845,-0.764721677,12.596542835,0.606577337,-5.77397418,-0.3680637925
389,1.62076849999994,-28.199393275,4.16036582,31.041217800000005,-1.5224620105,-0.102758393,7.983590126,3.3442458509999997,-5.4454581735000005,0.4537241495
390,1.6249350000000504,-28.181684495,4.1141246554999995,31.073993700000003,-2.0719251035,-0.10367676650000002,10.135218857,0.15278303650000002,-6.894136190499999,0.5024040195
391,1.6291014999999334,-28.19443035,4.10425961,31.075256349999997,-3.7642416955,-0.08501148250000001,18.59729767,-3.2119100095000004,-1.2668092845,-0.7594748809999999
392,1.633268000000044,-28.202035905000002,4.1254929305,31.072692849999996,-2.7025185824999998,-1.069978848,11.051049232,-2.5850337715,2.2401952145,0.6000646725
393,1.6374344999999266,-28.197400090000002,4.1303668025,31.06803510000001,-4.8174141645,-0.002623085000000004,8.328634739,-1.112464696,0.6279138325,-0.5471072645
394,1.641601000000037,-28.208690644999997,4.1837637425,31.03348160000001,-3.3391548395,-0.451001823,9.2422707075,-2.756834584,7.449132204,-0.9485335425
395,1.64576749999992,-28.246894840000003,4.233513713000001,31.019256600000006,-1.157959551,0.1602292435,11.3979909435,-6.131959676499999,5.913341999,0.9913862645
396,1.6499340000000302,-28.28783417,4.322638631,30.961933149999993,-2.7820368405,0.4318509105,11.777412895,-6.1134274005,12.51799917,-1.310872674
397,1.6541005000001405,-28.31787968,4.420948982,30.9199562,-1.1113976835000001,-1.0775291025,7.8849151135,-4.909161627,12.614974974999999,0.839429915
398,1.6582670000000235,-28.332653999999998,4.497000098,30.8822975,-2.158236146,-0.375297144,8.4232640265,-3.1364762785,10.02157068,0.028169274499999952
399,1.662433500000134,-28.377147675,4.597681642,30.821537049999996,-2.686502099,-0.19471143199999996,11.780035498,-6.450780153,13.93219948,-0.9919370715
400,1.6666000000000165,-28.432411195,4.7197595835,30.762187949999998,-2.8594397305,-0.47980022450000004,14.39401102,-7.754237890500001,16.11228132,0.389931984
401,1.670766500000127,-28.479756355,4.8176317215,30.7030678,-4.06518352,0.5462671514999999,11.979273317,-6.8227758405,13.542927741,-0.9542073015
402,1.67493300000001,-28.51020527,4.9117724895,30.637340550000005,-2.084854662,0.008515775000000003,8.528529643999999,-4.6710767745,13.52375507,-1.8493097425
403,1.6790995000001203,-28.550065994999997,4.988408327,30.612083450000007,-0.5321622345,0.1470090895,11.413157941000001,-6.1950473785,9.369419815,1.4044287205
404,1.6832660000000033,-28.58594704,5.0653595925,30.555942549999997,-1.8177697954999998,-0.184974682,12.506378175,-5.419512152999999,11.167655943,-1.8139235975
405,1.6874325000001136,-28.59714794,5.0967242719999994,30.547405249999997,-1.8184849170000001,-0.7186515925,4.9459080695,-2.9484032985,3.639168024,0.5724332855
406,1.6915989999999965,-28.620025634999998,5.1426165105,30.535408050000008,-1.11149779,-0.188959337,12.253502368,-4.3301119805,5.3704981805,1.0422688055
407,1.6957655000001068,-28.657868385,5.14748621,30.520839700000003,-3.1397632360000003,-0.11130642899999998,13.786165239999999,-6.098467588,1.194500327,-1.581448436
408,1.69993199999999,-28.662239075000002,5.169999837500001,30.522892,-2.552838504,-0.1467889845,7.7791731355,-2.277131021,2.1029606464999997,1.1744639275
409,1.7040985000001,-28.685029985,5.1364331245,30.530094149999996,-0.9331585470000001,0.08283722399999999,13.27566385,-4.4899196625,-4.101223469,-1.512763977
410,1.708264999999983,-28.707107545,5.136020899,30.543357849999992,-3.5620279315000003,-0.61933437,14.292529585,-4.5090532305,-0.9556863455,1.0304991305
411,1.7124315000000934,-28.712319375,5.080177784,30.540279400000003,-2.6573295595,0.04946705699999998,7.6276955605,-2.273647487,-5.8536721465,-3.8773421050000003
412,1.7165979999999763,-28.728196145,5.063241243,30.583644900000003,-1.812000871,-0.22385516750000004,14.494960305,-4.0582044125,-4.4279971125,3.233771801
413,1.7207645000000866,-28.757447239999998,4.999988556,30.579849250000002,-3.347374797,-0.158961294,12.326989175,-5.171809316,-6.5883278845,-4.384056449
414,1.7249309999999696,-28.75266552,4.968357563,30.616035450000005,-2.9957349300000002,-0.21618820699999997,6.9948921205,-1.5093060135,-5.5624256135,1.6303846165
415,1.72909750000008,-28.762870785,4.9060630795,30.648643500000006,-1.618700564,-0.0734352305,13.055953505,-3.256325081,-8.582063196,-0.5134437679999999
416,1.7332639999999628,-28.780875205,4.8652436735,30.67346575,-3.518504858,-0.053286164999999996,10.6187443725,-4.12101078,-5.876559496,-0.09223049850000009
417,1.7374305000000732,-28.76326084,4.813537836,30.700046549999996,-1.9293600915,-0.7039190529999999,6.3064157965,0.13536492,-7.121141672,-0.5350749340000001
418,1.741596999999956,-28.772364619999998,4.775756359,30.746349350000003,-2.0407175420000003,0.196846202,12.87597227,-3.247424364,-6.7928192615,2.3339309095000003
419,1.7457635000000664,-28.784171105,4.751810312,30.7548714,-2.3564290555,-1.1468997005,11.170210362999999,-3.2055828925,-3.1616417765,-0.8270899055
420,1.7499299999999494,-28.764565464999997,4.7400307655,30.787670149999997,-3.3530867100000004,-0.13160283849999999,7.7990150455,0.3329530955000001,-3.2823102475,2.422786355
421,1.75409650000006,-28.76422691,4.734952927,30.817276,-1.885262847,-0.187628105,11.665126799500001,-1.960814502,-2.389539182,2.474066317
422,1.7582629999999424,-28.769166945000002,4.756161213,30.810314150000004,-3.486363888,-0.8147380355,13.138400555,-2.205065458,2.4756095725000002,0.1592757105
423,1.762429500000053,-28.745464325,4.783913374,30.822154999999995,-3.4296168089999997,0.0379341245,9.233980179,1.0069404615,2.086964622,2.5088630315
424,1.766595999999936,-28.719631194999998,4.818948269,30.824386599999997,-2.417426169,-0.11780840149999994,10.936583517999999,1.3690743745,3.4035298825,1.9192361830000002
425,1.7707625000000462,-28.70157051,4.855762004500001,30.817337050000006,-3.104935229,-0.11535190499999999,13.479654785000001,0.5450260490000001,4.1261327265,1.0453040900000001
426,1.7749289999999291,-28.64475822,4.89844203,30.807098400000008,-3.886817098,-0.224218592,8.7011361125,5.1954379085,4.926808896,1.0498570649999999
427,1.7790955000000395,-28.60077858,4.938574791,30.811676049999996,-2.0204009415,-0.15851788249999998,12.598237995,3.531933963,3.8114620445,2.452537298
428,1.7832619999999224,-28.553569795,4.977701425499999,30.797454800000004,-3.6316666605,-0.1975157705,12.801686765,4.1117123365,4.781985521499999,0.41590479
429,1.7874285000000325,-28.476021765,5.03145957,30.77469635,-3.0071953535,-0.39460045099999996,7.837429285000001,7.830591917,6.8144881725,0.3533548515
430,1.791595000000143,-28.414811135,5.0626921655,30.77830505,-1.9124580025,-0.194108695,13.143770695,5.627730012,2.9330731335,1.828779757
431,1.795761500000026,-28.35550022,5.105786800000001,30.755687699999996,-2.8716458675,-0.555654675,12.55309248,5.653395176,5.6829664705,-0.25689148900000003
432,1.7999280000001363,-28.271250725,5.1372735505,30.735572800000007,-3.4607964754999996,-0.5251900110000001,8.7161102295,8.6334199905,4.309224009499999,-0.6606872085
433,1.8040945000000197,-28.200045585,5.182811259999999,30.751167300000006,-1.9719662665,-0.41297918899999997,12.644711495,6.6740326885000005,3.780392289,3.8911225799999998
434,1.8082610000001296,-28.136591915,5.216725825999999,30.719745650000007,-4.489780903,-0.481635228,11.389178274999999,6.2590568065,5.203443050000001,-1.7257976830000001
435,1.8124275000000125,-28.056878089999998,5.2757456304999995,30.724407199999995,-2.5349098445,-0.5244473515,8.0296506885,7.8020718095,5.8327596185,3.4920789005
436,1.8165940000001228,-28.002036095,5.32471776,30.714519499999994,-2.711278677,-1.1431886405,13.841370105,5.000347853,5.5873622895,1.3803384155
437,1.820760500000006,-27.941357615,5.402891636,30.707927699999992,-3.505961299,-0.2999839185,8.533669471,5.641216039500001,8.500674010000001,3.3703855275
438,1.824927000000116,-27.878705025,5.448717833,30.6811752,-1.927184403,-1.1580304,7.751353264,6.129909276999999,6.198312521,-0.5876867475
439,1.829093499999999,-27.832995415,5.547252178,30.692047099999996,-2.48584342,-0.545659669,14.475365159999999,3.6741064784999997,9.6923644565,6.337590218
440,1.8332600000001091,-27.775972365,5.6144218445,30.63880535,-2.787539959,-0.46431851399999996,7.583287239000001,5.759168982499999,9.942102907999999,-2.202991128
441,1.8374264999999923,-27.71685791,5.713248253,30.644329100000007,-2.8290474415,-0.719240673,10.7488667985,5.346972585,10.032368185,5.7695178985
442,1.8415930000001024,-27.669198989999998,5.809535026500001,30.585742949999997,-2.5535148975,-0.800697729,14.61778975,4.718552351,13.326550484999999,-1.1607348325
443,1.8457594999999856,-27.595514295,5.892998457,30.598785400000004,-3.4590105415,-0.45280539200000003,6.586937189,6.965382814,7.9979572285,5.6910231115
444,1.849926000000096,-27.55681801,5.9829747675,30.5368462,-2.3792240025,-1.2808952925,11.883153914000001,3.7202121615,12.838370325,-1.894378066
445,1.8540924999999788,-27.505365375,6.082173586,30.532821649999995,-2.852779567,-1.087055549,10.2123265285,4.5087075235,10.622980593,4.743897915
446,1.8582590000000887,-27.47461796,6.1392593385000005,30.478054050000004,-2.2917748095,0.04009780299999999,9.5315875985,2.6829375625,8.9384336465,-2.972890735
447,1.862425499999972,-27.436657905,6.24406147,30.457363149999992,-1.824027598,-1.7186965345,11.399113660000001,3.151857674,12.142377854,3.271693945
448,1.8665920000000824,-27.394074439999997,6.303134679499999,30.39653775,-2.2467460635,-0.2084918025,8.124359131,4.173596263,9.4803409555,-3.513850808
449,1.8707584999999651,-27.364009855,6.3776040080000005,30.394622799999993,-2.2120419145,-0.5271714780000001,12.690389154999998,1.9855901,7.8826144935,3.569471955
450,1.8749250000000757,-27.312651635,6.456595898,30.3347359,-3.392617822,-0.605079759,9.413335323,5.228711486,11.548128604999999,-2.32792449
451,1.8790914999999584,-27.259153365,6.5257794855,30.3445053,-2.8714313805000002,-0.35535401099999997,9.1346817035,4.5937601925,6.688042879499999,4.506824851
452,1.883258000000069,-27.22663307,6.5870821475,30.299865750000002,-2.251754761,-0.978782773,15.48467636,2.8120844365,8.8208642005,-1.7011694904999999
453,1.887424499999952,-27.132400515,6.6477277274999995,30.330326050000004,-2.5386617775,-0.766024649,3.8958408835,9.1801435945,4.660728037,6.2218263149999995
454,1.8915910000000624,-27.0879364,6.6912395955,30.302078249999994,-1.563739598,-1.033141762,12.65474129,4.0371620655000005,6.0278488395,-0.9593683035
455,1.8957574999999447,-27.032380105,6.739420414,30.31377415,-2.794973433,-0.830580801,8.694238186,4.8175007105,4.3581860065,3.538850307
456,1.8999240000000555,-26.975549695,6.7664568425,30.312679300000006,-2.124465227,-1.140610337,10.769062521,5.1433000565,2.7972601655,1.012114495
457,1.9040904999999384,-26.9412384,6.8496348860000005,30.29779815,-3.8410810235,-1.9619089365,12.250620365,2.635397792,9.54474807,2.6119220855
458,1.9082570000000487,-26.90470886,6.873824835000001,30.295364350000007,-2.6536949275,0.12969121300000003,8.8381600395,2.6983827355,2.566098094,0.717461079
459,1.9124234999999317,-26.884454724999998,6.9639856815000005,30.26624295,-3.5426249504999996,-1.956765115,14.94857788,1.186681867,11.059766289999999,1.466690153
460,1.916590000000042,-26.81989193,6.9989264015,30.287906649999996,-2.0861101745,-0.517573133,5.5840959545,5.673028469,2.424483418,3.858336568
461,1.920756499999925,-26.81396389,7.0483460425,30.255969999999998,-2.5261824725,-0.8169181045,14.529313565,-0.45818749049999996,6.849195540499999,-1.0537122490000002
462,1.9249230000000357,-26.761870385,7.082657576,30.280101750000007,-2.1838691235,-1.7890253660000002,6.867757797,4.150428057,2.229559362,4.081052184
463,1.9290895000001456,-26.748525615,7.125318527,30.273811349999995,-2.043337107,-1.032257542,13.915147305,0.05569171949999996,4.749833704,1.3000826535
464,1.9332560000000285,-26.73066902,7.1694390775,30.279075649999996,-3.724983215,-0.784590304,9.347897766,0.32297629100000014,4.294835083000001,2.6041610840000002
465,1.9374225000001388,-26.718425755,7.2165238855,30.263813050000003,-3.733562946,-1.025398284,9.7062792765,0.04750798649999999,5.7049057485,0.583242476
466,1.941589000000022,-26.712935445,7.291940451,30.261600500000007,-2.6308661105,-1.7949605585000001,13.340950970000002,-1.0414043665000001,8.050209283000001,3.496202469
467,1.945755500000132,-26.692355155,7.310915232,30.254440300000006,-3.0357877015,-0.3403897435,6.981239796,0.902178198,2.260430634,-0.07360887549999995
468,1.949922000000015,-26.699073795,7.3983130455,30.243160250000003,-1.9319834415000001,-1.4277841445,11.972824095,-2.329460889,9.8181667305,3.1732963325
469,1.9540885000001251,-26.678261759999998,7.4121160505,30.22655485,-2.1063539385,-2.0780530575,4.0822092295,1.0615052655,2.213940859,-1.3579386475000002
470,1.9582550000000083,-26.705159185,7.483861446500001,30.226715100000007,-2.4867686035,-0.059987083,16.84919071,-4.8933179375,7.525206268,3.546060443
471,1.9624215000001184,-26.69844246,7.532014370000001,30.18882755,-3.7589052914999996,-2.0496171115,5.895195364999999,-0.3234887125000001,7.0355007655,-1.7618369459999998
472,1.9665880000000016,-26.70857716,7.609838009,30.179714199999992,-2.64257288,-0.8608952165,12.928298950999999,-2.7460832745,8.674210905999999,2.8876850605
473,1.970754500000112,-26.705952645,7.668688059,30.13045505000001,-3.5545465945,-0.6442408265,11.774777414999999,-0.6277088675,8.788234622000001,-2.3937659265
474,1.9749209999999948,-26.701942445,7.7364840505,30.1296654,-2.382452667,-1.7154337765,9.5463967305,-1.1776592135,7.1535444265,3.2340022325
475,1.9790875000001047,-26.67241478,7.804518699500001,30.079849249999995,-2.1577579975,-0.35697676250000004,7.495056391,2.6381127835,9.802286623,-1.960436821
476,1.983253999999988,-26.655879974999998,7.841273308,30.071441650000004,-2.1137435435,-1.5003465415,10.883006575,0.448422015,4.2329441,0.7482686485
477,1.9874205000000984,-26.637037275,7.9397516249999995,30.016807550000003,-3.6810488704999997,-1.0955445615000001,13.89697647,1.476923764,13.32017326,-0.8400574329999999
478,1.9915869999999811,-26.589250565,7.989994049,30.014228800000005,-1.9910313039999998,-0.717460595,5.265682459,4.0798351765,5.3724575045,2.0896861555
479,1.9957535000000917,-26.560230255,8.0821685795,29.953590400000003,-3.750979781,-1.6135444045,16.415159225,2.8037988545,12.96230364,-1.8302143215
480,1.9999199999999746,-26.502327915000002,8.1282417775,29.952442150000003,-2.4882276505,-0.534918904,3.632328868,5.2675544025,4.851592183499999,2.0111271145
481,2.004086500000085,-26.473875045,8.214480877,29.899002100000004,-2.1021882595,-1.7290730475,14.023901460000001,2.649434209,11.9396672255,-1.403839469
482,2.008252999999968,-26.402003285,8.23802948,29.906913750000008,-1.6369059685,-2.0003684760000002,4.899466991000001,6.7823042870000005,1.9561913609999997,1.764769733
483,2.012419500000078,-26.378338815,8.326129675,29.874633800000005,-2.3510362805000002,-0.832889706,13.3264308,1.74940145,11.0178512355,0.9251607805
484,2.016585999999961,-26.32810116,8.3476216795,29.8749695,-2.2051711674999996,-1.417847812,7.646527767,4.2957760095,2.139858246,0.8473956585
485,2.0207525000000714,-26.308763505,8.423422813,29.843784300000003,-4.1224437955,-1.686931789,16.51375389,1.198548019,9.6382400985,0.3787769675
486,2.0249189999999544,-26.27470779,8.4541110995,29.850124400000006,-2.4737273605,-1.6952960190000002,4.682853937,2.2361613515,2.8153703225,1.9716431499999998
487,2.0290855000000647,-26.28429222,8.5318570135,29.806213350000007,-1.5806200500000003,-2.313077867,13.98602104,-2.02143693,10.5177957995,-0.8799386025
488,2.0332519999999477,-26.277111055,8.522708416,29.802562700000003,-1.4586434659999998,-0.9561197164999999,5.692087412,-0.7983508945000001,-0.9454915525,-1.2127188150000001
489,2.037418500000058,-26.3063097,8.5883688925,29.780128500000004,-2.7622269205,-1.8906931285,16.283442020000003,-4.7497373225,8.086325405,0.766582817
490,2.041584999999941,-26.304907795,8.557152748,29.80462265,-1.7747349739999998,-1.177374035,1.8784315139999999,-1.9951312545,-4.7984939165,0.6102207454999999
491,2.0457515000000517,-26.346941945,8.610759973499999,29.77074435,-3.8269102275,-1.633580327,17.300557135,-6.1150536535,7.3919873235,-1.082931578
492,2.049917999999934,-26.39260483,8.5768163205,29.7929039,-1.3313500285,-1.388089657,3.4106376175,-7.5849127769999996,-4.9697253705,0.2081797045
493,2.0540845000000445,-26.457214360000002,8.621054172500001,29.764320400000003,-2.0068587065,-2.3823510409999997,14.74323845,-8.9041368945,6.1073952915,-1.009521246
494,2.0582509999999274,-26.510610579999998,8.555968523,29.80233765,-0.5341794495000001,-0.553857893,5.732928753,-8.767370224,-9.1578085425,0.2169910255
495,2.062417500000038,-26.580273625,8.580131292499999,29.798374149999994,-3.5206248159999998,-2.0244674685,12.61298132,-9.9992728215,2.651835501,0.54098545
496,2.0665839999999207,-26.654524805,8.5070106985,29.84621425000001,-0.9519239070000001,-1.6717484594999998,7.6721023345,-11.42402792,-10.542618631,0.8031856865
497,2.070750500000031,-26.73169231,8.5228967665,29.825321199999998,-4.883214474000001,-0.970624387,14.892090320000001,-10.6269011505,2.6646161095,-1.690681018
498,2.0749170000001413,-26.813015935,8.4569563865,29.87187575,-0.38920853650000004,-1.0278677045,7.2536201479999995,-12.222836495,-9.710624995,1.0314853935
499,2.0790835000000243,-26.875386235,8.455816269,29.8740959,-3.2948216795,-2.578390479,11.296333788,-9.271753311000001,-0.3910593999999996,-0.162202187
500,2.0832500000001346,-26.961753844999997,8.366590977,29.9308586,-0.842402071,-0.0373060825,10.4882354745,-12.968569755,-12.756406007,0.823856622
501,2.0874165000000175,-27.05558681,8.3546259405,29.94140244999999,-4.421271801,-1.7555335165,12.230877398,-13.184456825,-1.9986362460000002,0.128615454
502,2.091583000000128,-27.14085388,8.2939162255,29.999691000000006,-1.727618277,-2.033483684,10.0433518895,-12.86641979,-9.795395612499998,2.504932046
503,2.095749500000011,-27.22447014,8.2951323985,29.996242500000008,-5.2598547935,-0.39184255349999997,11.90165901,-11.737829685,0.16674089500000022,-0.6314359755000001
504,2.099916000000121,-27.329068185,8.263650894000001,30.040664650000004,-2.1780463455,-1.4636238815,10.293922899,-14.937230110000002,-5.9331886745,2.6196969745
505,2.104082500000004,-27.41536903,8.27808547,30.039825449999995,-3.7980459925,-1.5356588365000001,10.012332915,-12.09559536,1.433736325,0.373666942
506,2.1082490000001144,-27.50039959,8.241544008,30.08044435,-1.643288076,-1.1178052425,10.0667471875,-12.53060198,-6.273654458999999,1.9220542905000002
507,2.1124154999999973,-27.5891552,8.296205044,30.06601715,-3.6905317305,-0.772811353,8.8493962285,-12.125333309999998,6.457536289999999,1.1799200774999998
508,2.1165820000001077,-27.6574707,8.2909333705,30.08168789999999,-0.9357415585,-1.5574507715,10.079520223,-10.1113991725,-1.5802509800000002,1.015732527
509,2.1207484999999906,-27.733407975,8.3524475095,30.047687550000006,-4.826410532,0.2773346085,14.231904029999999,-10.222733022,8.2598628995,-0.47748141
510,2.124915000000101,-27.769738195000002,8.386533022,30.046295199999996,-1.867941618,-1.569137901,6.9404609205,-6.022816658,3.54290998,1.4225763085
511,2.129081499999984,-27.832862855000002,8.4571881295,29.99058914999999,-3.9018307925,-1.8626424075,12.339004515,-8.2903428055,10.43180895,-2.230385482
512,2.133248000000094,-27.864800455,8.5001780985,29.9792366,-1.7818497045,-0.17224425100000001,6.7802414895,-5.34510231,5.037417234,0.883934535
513,2.137414499999977,-27.936454775,8.5790719985,29.938148500000004,-2.7524009945000003,-2.5955572125,14.99231529,-9.523566247000002,10.493463278,-0.21314252449999999
514,2.1415810000000874,-27.94448662,8.637284994,29.918346399999997,-1.6391370895000001,-0.16420376300000006,5.6038722995,-2.3267141875000004,7.1211290335,0.8599403575
515,2.1457474999999704,-27.970599175,8.710025310499999,29.8892708,-2.8284834625000004,-0.879551545,10.835529327,-4.2411797045,9.170089303000001,0.710077837
516,2.1499140000000807,-27.972242355,8.786288261500001,29.856689450000005,-2.6063280105,-2.1012762785000003,8.7325515745,-1.3379214405000002,9.744272708,0.545941919
517,2.1540804999999636,-27.985246655,8.851773739,29.838317850000003,-1.786070168,0.12712452900000001,12.612082480000002,-2.8489053245,7.804666640500001,1.4241517185
518,2.158247000000074,-27.97263813,8.918203831,29.816349049999992,-3.1931090955,-0.9468987864999999,6.135897875,0.16024982899999984,8.112104414500001,1.107431829
519,2.162413499999957,-27.993616105,8.9584884645,29.805740400000005,-1.924370259,-2.5532993075,13.034940245000001,-3.9507529735,4.7026393425,0.820155084
520,2.1665800000000677,-27.97793484,9.0137057305,29.790832500000008,-2.3305774925,-0.432484269,6.4316658975,0.41584710799999997,6.530665635000001,1.2154595255
521,2.17074649999995,-27.96981621,9.035042762500002,29.80171585,-0.949190572,-1.673469543,13.747356889999999,-0.8280251024999998,1.4960198400000007,2.0017144085
522,2.1749130000000605,-27.920934674999998,9.0782766345,29.78256224999999,-3.435936093,-0.7501531094999999,4.5406161545,4.4656244515,5.497924567,0.09845466149999998
523,2.1790794999999434,-27.89700508,9.110233307,29.787666299999998,-1.284050185,-1.3645887375,14.089372155000001,1.181098133,2.9469761850000005,1.9830288290000002
524,2.183246000000054,-27.83964348,9.120188713000001,29.774978649999994,-3.4484004675,-1.503469914,7.5128793715,5.331771016,1.6127424250000004,-1.0996193885
525,2.1874124999999367,-27.81617451,9.1425147055,29.773445149999993,-2.8035488725,-1.2038414775000001,16.40612221,1.249533087,2.2934160200000004,0.7507853655000001
526,2.191579000000047,-27.75897789,9.1474781035,29.779296849999994,-2.2376404704999997,-1.7115365265,2.5937157275000002,4.954191387000001,0.059290885000001126,0.5598056764999999
527,2.19574549999993,-27.73493385,9.165719986,29.766475649999997,-2.462311238,-2.0627387765,16.5680604,1.538576782,2.4835247999999996,-0.6622689924999999
528,2.1999120000000403,-27.677381515,9.152451515,29.77751155,-1.5319449605,-0.4686194585,6.2739133835,4.943893671,-2.1664204599999994,0.08541707699999998
529,2.2040784999999232,-27.628123285,9.192490578000001,29.7631874,-2.8309140205,-1.523292601,14.171984675000001,4.5533152815,4.8874981395,0.3858912845
530,2.2082450000000335,-27.54353237,9.1485085485,29.795150749999998,-1.1775218244999999,-1.7587243915,3.0490065815,7.823279381,-6.582385301,0.578728065
531,2.212411500000144,-27.49284077,9.183684349,29.770233149999996,-4.4247219265,-1.024919212,17.26556683,4.884058237,4.9528963565,-1.001939267
532,2.216578000000027,-27.46125126,9.141213894,29.806591000000004,-0.812282562,-2.4905792475,3.8712734875,1.419457585,-6.663466454,1.1344032885
533,2.220744500000137,-27.44056225,9.1666398045,29.776344299999998,-4.1522121425,-2.140977025,14.819386004999998,1.3400854765,4.20918095,-2.1060280799999997
534,2.22491100000002,-27.413043975,9.134654045000001,29.805190999999994,-0.6804223355,-0.6174652725,5.890972376000001,1.131105393,-5.140016318,0.926185299
535,2.2290775000001304,-27.380262375,9.165589809,29.786605799999997,-3.7683953045,-2.29223752,8.739180088,2.5109639164999997,4.162733555,-0.5731379655
536,2.2332440000000133,-27.380366325,9.1301646235,29.806671100000003,0.0667733405,-1.967754006,12.030406472500001,-1.9538746475,-5.030905725,-0.193393901
537,2.2374105000001236,-27.360697745,9.126574516,29.784133950000005,-4.0083031655,-1.0976020100000001,6.2700316905,0.992404759,0.7003135699999987,-2.8913999795
538,2.2415770000000066,-27.374926565,9.1334490775,29.79845050000001,-1.76905337,-2.1025495530000002,14.98506403,-3.540516615,-0.21008396499999904,1.5380201935000002
539,2.245743500000117,-27.347424505,9.1331281665,29.788578050000005,-3.915896833,-1.4443153145,3.4849755765,1.6759465340000002,0.35989951999999903,-1.3786355555
540,2.24991,-27.356055259999998,9.1592874525,29.76337435,-2.2598513665,-0.47471387649999996,16.68178177,-2.144616127,3.9995555849999995,-1.550468296
541,2.25407650000011,-27.325077055,9.1682248115,29.75256730000001,-3.4169438035,-1.5553023815,2.3962829709999998,2.1435787675,1.395163535,-0.974135101
542,2.258242999999993,-27.317047119999998,9.227566718999999,29.716907499999998,-1.752789855,-1.7402850985,17.13278198,0.05817657700000001,8.103816746,-0.8231202515
543,2.2624095000001034,-27.28140163,9.22166872,29.711994150000002,-2.1604535580000004,-0.8351850660000001,3.3814849855,2.626829922,-0.5106258410000004,-1.173401028
544,2.2665759999999864,-27.28171253,9.2938933365,29.67640685,-2.3863124250000003,-2.7706857325,15.841206075,-0.9826964139999999,9.478063507,-0.112344056
545,2.2707425000000967,-27.253999710000002,9.285108088000001,29.677318549999995,-2.511969745,-0.9411613050000001,5.412980914,1.59814891,-1.1356903314999998,-0.721104816
546,2.2749089999999796,-27.247792245,9.3525261895,29.63579560000001,-4.2353179455,-1.239043921,16.16202307,-0.13264983900000005,9.289284706,-1.00093378
547,2.27907550000009,-27.22672176,9.3601555845,29.6364212,-1.7036144880000001,-2.3461855055,2.0851906534999998,0.867362097,0.6237261295000001,0.1497343775
548,2.283241999999973,-27.207767490000002,9.437590597,29.608135199999992,-2.276000127,-1.908772498,12.910805225,1.0799795985,9.646060823,0.9413360655
549,2.2874085000000832,-27.232787135,9.4042987835,29.599216449999993,-1.3322987110000002,-1.0368053915,10.041866779,-4.42758739,-3.228821752499999,-3.1059181689999997
550,2.291574999999966,-27.22100544,9.44563055,29.58823780000001,-2.441470921,-2.510000706,8.43915391,-0.13624849549999998,4.8571729685,0.7847305165
551,2.2957415000000765,-27.237277985,9.445229531999999,29.586605050000003,-2.410253763,-1.768346727,13.26993275,-3.493347049,-0.11552715499999877,-0.5364838095000001
552,2.2999079999999594,-27.210160254999998,9.442532064,29.591934199999997,-3.0780425075,0.16857577899999998,5.3123800755,1.3543595224999998,-0.7205209749999995,0.08363682049999999
553,2.30407450000007,-27.217790604999998,9.469363691,29.5659523,-2.865107149,-2.6022237539999997,17.32152653,-1.991122901,4.10894251,-1.6004291769999999
554,2.3082409999999527,-27.19078827,9.44848871,29.5954666,-1.8716350794999999,-1.3296915889999998,4.6482167245,0.8710441585,-3.9706888199999995,1.6279387175000002
555,2.312407500000063,-27.198128699999998,9.497142793,29.557811699999995,-4.1690893025,-1.5521097780000002,15.199366095,-1.756726861,7.071881413,-1.6300007105
556,2.316573999999946,-27.175141335,9.4764432925,29.588870999999997,-0.4085973500000002,-1.9606330995,4.879514694,0.43823392699999997,-4.0412475015,1.7995154265
557,2.3207405000000563,-27.166017535,9.536139967,29.54579545,-4.4156591595,-0.8166170420000001,12.642480375,0.2602220770000001,8.549468994,-1.598661363
558,2.324906999999939,-27.1619215,9.5368251805,29.573818199999998,-0.33402895900000007,-2.507884562,7.5486098534999995,-1.7003113029999999,-1.5971560475000004,2.6473717690000003
559,2.3290735000000495,-27.13947296,9.591197013999999,29.533519700000006,-4.866642236500001,-1.0728315115,11.761422635,1.730421424,7.834995986,-1.5938717125
560,2.3332399999999325,-27.157642365,9.623609067499999,29.544380149999995,-1.7471141815,-1.8150336145,7.7710905055,-3.9807471034999997,2.7123508449999996,2.5800966025000003
561,2.337406500000043,-27.16751099,9.7003402735,29.503066999999994,-3.6473032235,-2.8798416849999997,7.3718168735,-2.1433540585000004,10.279214859,-0.478000376
562,2.341572999999926,-27.192252160000002,9.733773231,29.509101899999997,-0.13852763199999996,-1.6044620310000002,12.071490285,-4.682116538000001,3.0837316500000007,2.12806952
563,2.345739500000036,-27.193814275,9.756741997999999,29.495487250000004,-2.0618149045,0.269832462,2.8142233494999997,-1.646694362,3.0379698295,-0.50324288
564,2.3499060000001464,-27.209812165000002,9.8243303315,29.4944115,-2.1842815515000003,-3.461201191,14.52350521,-3.559302807,7.11655736,3.2579514979999997
565,2.3540725000000293,-27.2192173,9.8306179045,29.498458850000006,-1.8931517825,-1.2095205785,5.505706787,-2.859393835,0.2983486649999998,0.43183038749999997
566,2.3582390000001396,-27.22798538,9.904704572,29.492286650000004,-4.428542375499999,-1.983014643,10.707364084,-2.6836099625,8.090087414500001,3.0900638105000002
567,2.3624055000000226,-27.28345203,9.948129655999999,29.47790525,-1.1865172089999998,-2.333140135,12.925078395,-7.9615976805,5.253103258,0.5360804645
568,2.366572000000133,-27.304079055,9.995984554,29.478362999999995,-2.8850411324999996,-1.5348024365,4.858462095,-4.251348555,4.930965898000001,2.3487489225
569,2.370738500000016,-27.33262825,10.0499639495,29.47077945000001,-2.3458708225000002,-0.8187574369999999,13.53768921,-4.9097881315,6.011579039,1.8404598835000001
570,2.374905000000126,-27.34606171,10.0712604515,29.482116700000006,-2.7987840774999997,-0.8936124520000001,8.971638203000001,-3.5127232074999997,1.4987144175,2.0311574785
571,2.379071500000009,-27.349988940000003,10.1078414895,29.483017000000004,-1.666793108,-2.7287831305,9.540743826,-2.216566324,3.7010973689999993,1.7767825125
572,2.3832380000001194,-27.361942295,10.138961313,29.481193549999993,-2.89874351,-1.9463772174999998,13.890023710000001,-3.0301387909999997,3.2593162055,1.1869253815
573,2.3874045000000024,-27.37865639,10.131266596,29.49497985,-2.6690381165000003,-1.000176817,6.5446879865,-3.9789148570000004,-1.7208922505,0.6871274115
574,2.3915710000001127,-27.386687275,10.145105838500001,29.492626199999997,-2.69295609,-2.7614222765,11.307594301,-2.6216299535,1.4490420814999998,0.18535101450000002
575,2.3957374999999956,-27.385344505,10.129393102,29.518444050000006,-1.7603329269999999,-0.80116114,11.0378794665,-2.072550312,-3.2262924909999997,1.5025823115
576,2.399904000000106,-27.40117645,10.0922985075,29.515438099999997,-3.605113149,-1.8204232455,10.813258649,-3.488479614,-3.94623211,-2.6990487575
577,2.404070499999989,-27.374054905,10.0571870785,29.559665649999992,-1.8551536499999999,-1.568401575,7.259091615999999,0.5867325515,-6.2930541049999995,2.3723652365
578,2.408237000000099,-27.374712945,10.030709745500001,29.55930325,-2.9928697945,-2.732935667,10.2743449215,-1.7289992575,-2.9585918785,-1.83664304
579,2.412403499999982,-27.384020805,9.988742352,29.604621900000005,-1.834624529,-1.130584687,8.132314919999999,-3.741010785,-7.0868451595,2.104094386
580,2.4165700000000925,-27.390613555,9.9387993805,29.609436050000006,-1.3314377965,-2.8057273625,8.5842559325,-2.5852446555,-5.7369611265,-2.585257411
581,2.4207364999999754,-27.3672657,9.899452207,29.654106099999993,-3.6687114239999996,-0.52197285,11.4157714835,0.17559194549999999,-6.7715710405,2.1835750345
582,2.424903000000086,-27.368496895,9.864346026,29.658729550000004,-2.9253536465,-1.913480699,11.884328845,-1.864306595,-4.1521127215,-1.7907553015
583,2.4290694999999687,-27.333483700000002,9.834333418,29.70748900000001,-2.5885777475,-2.244117856,7.4973390105,1.465621069,-5.995365261,3.1368734835
584,2.433236000000079,-27.314080235,9.809241293,29.70973585,-2.3913946150000003,-2.115162313,12.919186115,0.6290279030000001,-2.9527263644999997,-1.486176491
585,2.437402499999962,-27.2832489,9.783257007500001,29.755966199999996,-3.416341424,-1.6322010754999998,5.6306355,1.087682962,-5.43133235,3.0922402145000003
586,2.4415690000000723,-27.27797985,9.757053375,29.7569389,-2.361335874,-1.381169677,10.4164645655,-1.075215131,-3.0014760495,-1.6728273034999999
587,2.445735499999955,-27.258253095,9.758042812,29.7786293,-1.8237815499999999,-2.1386231185,12.766444204999999,0.20526611800000005,-1.2174123525,2.000151545
588,2.4499020000000655,-27.255078315,9.737139702499999,29.77589795,-2.4344661235,-1.6351266500000001,10.791769505000001,-1.1805924174999998,-2.2401771545000004,-1.777077377
589,2.4540684999999485,-27.218042375,9.751565456,29.797870650000007,-2.9220848680000002,-1.929536134,8.170451164,2.264951676,0.19986152650000033,2.774073124
590,2.458235000000059,-27.194173810000002,9.768818854500001,29.789711000000004,-2.1390235425,-2.173941374,7.9161474705,1.3674355150000002,2.1282171009999997,-0.249373786
591,2.462401499999942,-27.189471245,9.7877869615,29.806896199999997,-3.7230137585,-2.4839158054999997,11.8991880395,-1.4475756880000001,0.9430971144999998,2.509157777
592,2.466568000000052,-27.167783735,9.8158330935,29.8001785,-2.8026872425000002,-0.651013136,7.171711445,1.038926169,3.204026822,0.49762053
593,2.470734499999935,-27.145030024999997,9.883495807500001,29.7939911,-4.538193940999999,-2.4962452649999998,12.76044893,1.1603184935000002,7.4065351485,2.722434759
594,2.4749010000000453,-27.1434536,9.9166364675,29.768070199999997,-3.1722391845,-1.54768163,13.343224525,-0.9243216065,4.7793540944999995,-1.2480023505
595,2.4790674999999283,-27.112854005000003,9.975217820000001,29.756244650000006,-2.3718432185,-2.1187081935,8.030964136,2.192937136,6.7442607745,1.6291165945000001
596,2.4832340000000386,-27.068595885,10.0041255975,29.736289949999993,-2.532584727,-1.5967943075,10.764549735,4.026762366,4.0103695395,-0.8553745300000001
597,2.4874004999999215,-27.05864334,10.056860448,29.717468249999996,-3.41981411,-3.1123511795,8.975557327,-0.05622971050000003,6.491313605,0.5619059355
598,2.491567000000032,-27.02484417,10.0808906575,29.70447920000001,-0.5191421509999999,-1.7588462235,5.3750863075,2.6075931785,3.116298318,-0.389547728
599,2.495733500000142,-27.00991917,10.127288341,29.692710899999994,-2.512138635,-2.2624209525000003,10.713576318,0.3478349,5.4405276775,0.9551035465
600,2.499900000000025,-26.98041248,10.160640715500001,29.680992100000005,-3.3077925445,-1.5771789845,12.413677695,2.116363168,4.0389422175,0.24877183149999998
601,2.5040665000001354,-26.959098814999997,10.2163963315,29.67745205,-3.1089094875,-1.2217680215,9.5291767135,0.9879154859999999,5.9962291704999995,2.3264771105
602,2.5082330000000184,-26.93277836,10.245206357499999,29.666686999999996,-2.161662102,-3.484380722,10.70287323,1.652227193,3.50923395,0.09941521250000002
603,2.5123995000001287,-26.92459774,10.285429476000001,29.658439650000005,-2.2235047519999998,-2.0178380015,11.80832672,-0.477058411,4.588118789,0.9796676339999999
604,2.5165660000000116,-26.930524825,10.3049516675,29.641796099999993,-4.229941845,-1.8779332640000002,7.472043991,-2.0485239625,2.825173259,-1.0269898474999999
605,2.520732500000122,-26.936460495,10.342766285,29.634597799999995,-1.5095700175,-2.429487705,9.527251483,-2.229309261,4.2762708665,0.9636586605
606,2.524899000000005,-26.940301895,10.361705782,29.610427850000008,-2.110462725,-1.1094115675,10.97946119,-1.6731667375000001,3.1694737670000004,-1.8476829825
607,2.529065500000115,-26.959104535,10.372056482000001,29.598239900000003,-2.164276123,-2.9060266015,9.683481691,-3.6296018365,1.603124857,-1.0554347185
608,2.533231999999998,-26.97434902,10.3878269215,29.584762600000005,-3.864467025,-1.7913577555,10.3454647045,-3.2319530845,2.254078463,-0.894769341
609,2.5373985000001085,-26.985972405,10.404724599,29.577033999999998,-2.161980689,-1.0370660205,7.2051301,-2.9229811430000003,2.0685228110000002,-0.2258470655
610,2.5415649999999914,-27.005472185000002,10.4311089495,29.5587158,-3.3827515244999997,-2.417723417,13.72167969,-3.6162434815,3.6487607655,-0.8272373154999999
611,2.545731500000102,-27.01875019,10.4379672985,29.550472250000006,-3.766889453,-1.4154716729999999,8.8826208115,-3.0696612595,1.0194784405000001,-0.826885015
612,2.5498979999999847,-27.044981954999997,10.492049691999998,29.511501300000006,-3.6531820295,-2.012150824,9.5200238235,-4.009575963,7.718569039,-1.481553078
613,2.554064500000095,-27.063054084999997,10.586007593000001,29.46302415000001,-3.7878984209999995,-3.7324681285,10.195861341499999,-2.793348074,12.491361139999999,-0.30025650549999994
614,2.558230999999978,-27.1122303,10.7373776435,29.368633249999995,-4.7981762885000006,-0.8881211874999999,9.829458475000001,-5.444000244,21.084087845,-1.9779831765
615,2.5623975000000883,-27.12552452,10.93923664,29.287200899999995,-1.5863343030000001,-0.9624478144999999,6.911896467,-1.4996246695,25.78679419,2.1691812275
616,2.566563999999971,-27.137566569999997,11.19822073,29.172622650000008,-2.5386125594999998,-2.677475393,5.997571945500001,-0.462073207,33.65784931,1.8222116825
617,2.5707305000000815,-27.136639595,11.445132255,29.092662800000006,-1.7736382185,-0.9386959395,8.394754885,0.3236810455,30.505300525000003,4.8073222635
618,2.5748969999999645,-27.12075615,11.72633171,28.98272705,-2.4971311089999997,-0.202942446,7.754100561,2.8516488075,35.77422714,3.54921484
619,2.579063500000075,-27.070370675,12.029719830000001,28.889411950000003,-3.740242362,-2.382139564,8.361149787999999,6.6666257385000005,37.24959755,6.492819786
620,2.583229999999958,-27.011268615,12.370153904999999,28.789726249999994,-1.697835386,-0.656437725,10.0650949455,7.9718039035,41.544340135,7.820923328500001
621,2.587396500000068,-26.900481225,12.692854885,28.710212749999997,-2.7410808205,-0.256936375,5.857401848,13.61510229,38.594880105,8.921747208
622,2.591562999999951,-26.7753582,13.033339975,28.621143349999997,-1.493587315,-1.868245721,13.89126778,15.759636399999998,41.00271988,8.806689739
623,2.5957295000000613,-26.595477105,13.310781955,28.579814899999995,-1.3683508935000002,0.88600922,5.607125282,21.01517677,31.7669096,10.301790711999999
624,2.5998959999999443,-26.3582449,13.61229467,28.521511099999998,-1.841285139,-0.9108531175,10.0072698615,28.36632347,35.27178669,9.71141243
625,2.6040625000000546,-26.061344145,13.879394529999999,28.508304600000002,-2.48318094,-0.5847632275,13.076321605,34.352269175,29.28150177,12.43330288
626,2.6082289999999375,-25.69330978,14.147443769999999,28.503734549999997,-1.3602638539999998,0.5603321195,8.810638667,42.603523255,29.0195179,13.22709751
627,2.612395500000048,-25.249480249999998,14.417993545,28.521049499999997,-1.472058564,-0.594252251,6.2737832065,51.04768181,28.297610284999998,15.444856640000001
628,2.6165619999999308,-24.771982195,14.712425230000001,28.53866575,-2.8123582005,-0.8741425275,8.963471413,55.079675675000004,31.000513075,16.455031395
629,2.620728500000041,-24.257855415,15.031615734999999,28.57094570000001,-4.0702283385,-0.848543331,12.17985106,59.03181648,33.144234655,18.96209621
630,2.624894999999924,-23.708130835,15.354271415,28.59869765,-3.3996239900000003,-1.5336554050000002,11.92325926,63.39884949,33.916675565,18.342107775
631,2.6290615000000344,-23.11717796,15.69989252,28.65224455,-2.9469959735,-1.3430263995,14.087943554999999,67.48774719,35.45466614,21.828827855
632,2.6332280000001447,-22.492551804999998,16.03047514,28.704345700000005,-1.944832504,-1.6037839054999998,11.74551773,71.55659865999999,34.086948395,20.58030319
633,2.6373945000000276,-21.818737985,16.374931815,28.76730729999999,-3.6164562699999996,-0.6687241495,7.985900879,77.069511415,35.391506195,21.97998047
634,2.641561000000138,-21.124360085,16.70910454,28.837436700000005,-1.2432359155,-1.526002109,11.78633642,79.25177002,34.2114296,21.845381735
635,2.645727500000021,-20.390836715,17.04446411,28.903865800000005,-3.271906972,-1.7244495149999999,10.183173182,84.03242874,34.774332045,21.062093734999998
636,2.649894000000131,-19.654358860000002,17.39316082,28.959400199999997,-2.3604478835,-0.8490412235,9.3668112755,84.709846495,36.986886975000004,19.96710491
637,2.654060500000014,-18.908396725,17.766942025,28.9973793,-3.7356407640000002,-2.025277257,11.958125115000001,86.46781921499999,40.745506285000005,18.586895945000002
638,2.6582270000001245,-18.127893450000002,18.143464084999998,29.045814500000006,0.23360161499999998,-0.8866730924999999,10.874789715,90.16765975999999,40.941555025,19.254034995
639,2.6623935000000074,-17.310637475,18.53867054,29.088066099999992,-4.053835273,-0.7566593215,10.681417944,94.79586029000001,43.556472775,18.689673425000002
640,2.6665600000001177,-16.43609428,18.92477703,29.173221600000005,-3.116410494,-1.312097609,13.814126015,99.980419145,41.377941129999996,22.369755745
641,2.6707265000000007,-15.53202534,19.34138966,29.262718199999995,-2.8943396805,-1.1650422215,10.6002097115,103.29083255,45.113239289999996,23.18943977
642,2.674893000000111,-14.59699011,19.748827935,29.397552449999992,-3.0994240045000003,-2.327604413,8.556626558,105.07658,43.10766411,27.104911805
643,2.679059499999994,-13.691668985,20.20283604,29.502624499999996,-3.317522049,-3.307159424,11.1783375755,102.6762085,49.776124955,24.452690125
644,2.6832260000001042,-12.76894665,20.61734867,29.646320350000003,-1.9911120835,-2.3320995570000003,7.396041631999999,102.9956436,44.58061409,26.79954052
645,2.687392499999987,-11.887070175,21.11345291,29.732326500000006,-3.6819770335,-2.2028183935,11.620456695000001,100.486999505,55.93943787,21.80806923
646,2.6915590000000975,-10.998133185,21.54135895,29.863796250000007,-0.8276301325,-2.7354001995,9.183857202,99.250957495,47.266668319999994,24.227122305
647,2.6957254999999805,-10.1236267105,22.023210525,29.9460106,-2.3949952125,-2.6321760415,10.98561573,99.59032442,55.00881958,19.31944561
648,2.6998920000000908,-9.256200313499999,22.42024708,30.088706950000002,-1.0622904149999999,-2.3899376395,9.882587433,95.933906555,44.15335655,23.25314045
649,2.7040584999999737,-8.419614315,22.844605445,30.187675449999993,-4.05706048,-3.19473362,9.428305149,94.144004825,48.47919083,18.351097105
650,2.708225000000084,-7.6011998655,23.2399292,30.35388185,-2.0464349985,-3.1186984779999998,12.122488975,88.72625350999999,44.26698112,24.42485714
651,2.712391499999967,-6.7976181505,23.647042275,30.462390900000003,-2.3766933085,-1.746313095,12.812222004999999,89.551456455,46.824705124999994,17.6825428
652,2.7165580000000773,-6.0016109945,24.00919533,30.6288414,-3.198772311,-3.2065660955,11.184839245,85.78347397,40.996797564999994,22.626960755
653,2.7207244999999602,-5.2047970295,24.356241224999998,30.764316549999997,-1.7400630265,-1.398688614,9.9146599765,87.27082443,39.85007572,18.52840519
654,2.7248910000000706,-4.401050091,24.68674278,30.962394749999994,-2.548827648,-2.6039669510000003,8.5226585865,84.90398407,37.55685425,24.54138756
655,2.7290574999999535,-3.6309887175,25.030506135,31.116237650000002,-1.4634838405,-2.2111809255,13.009734153499998,82.964691165,39.831136705000006,19.245046615
656,2.733224000000064,-2.848268986,25.325699805,31.301742600000004,-2.5049274565,-2.7772805695000002,6.5470290185,82.77885055499999,34.07453728,21.78278923
657,2.7373904999999468,-2.076518178,25.66896248,31.4658089,-2.6650068165,-2.2935647965,7.542006493000001,82.45062256,40.243570325,19.21507835
658,2.741557000000057,-1.3202793595,26.000828745,31.6684494,-2.005617261,-3.2180190084999998,16.023044585,78.47849274000001,39.004146575,22.68433571
659,2.74572349999994,-0.521417029,26.309297559999997,31.850589749999997,-1.1904972495,-0.266296068,6.8125486375,84.542877195,36.55321312,19.894182205
660,2.7498900000000503,0.29893019249999997,26.636460305,32.04687885,-3.363820553,-1.8206028345,13.013755320000001,86.27020264000001,39.062753674999996,20.846627235
661,2.7540564999999333,1.1157853605,26.91576481,32.2452507,-1.4149899485,-3.298507452,9.0499897005,85.60924149,33.635130884999995,20.45414066
662,2.7582230000000436,1.9729636309999998,27.222260475,32.45646669999999,-2.73287338,-2.283623934,7.924318075,89.659564975,37.21913338,21.323580745
663,2.7623894999999266,2.8036522865,27.45788765,32.6564407,-1.490198739,-1.412134409,15.14389753,86.982189175,28.990457534999997,19.748933795
664,2.766556000000037,3.6623544695000003,27.67629719,32.8486824,-1.861919135,-2.0355133415,10.95761776,90.702869415,27.163695335,18.624992374999998
665,2.770722500000147,4.538896083999999,27.855442044999997,33.0459099,0.27827590700000004,-2.688048482,10.674873351999999,92.481220245,22.795143125,19.03854084
666,2.77488900000003,5.378832817,27.96818924,33.21344375,-0.653754115,-2.905306935,12.19897318,89.70218658499999,14.865475655000001,16.161231995
667,2.7790555000001405,6.1853246685,28.023643489999998,33.38492204999999,-2.8103545905000002,-2.884470463,11.30904293,85.450054165,8.3019633295,17.087358475000002
668,2.7832220000000234,6.9579696655,28.0438509,33.5544701,-0.6674380599999998,-4.6562311645,8.8403100965,81.49398804,4.307579873,17.273181915
669,2.7873885000001337,7.712002039,28.01325226,33.725071,-0.8058519365000001,-1.810119867,13.654487135,79.18774414,-1.4783277065,18.066362384999998
670,2.7915550000000167,8.409964085,27.929203035,33.8760452,-1.5875989795,-4.4445364475,12.347392085,73.583969115,-7.899115976999999,16.87640953
671,2.795721500000127,9.111079216,27.807436945,34.032596549999994,-1.8865305185,-2.169664323,8.6174967265,73.68273163,-12.058438779,18.322433474999997
672,2.79988800000001,9.749032018000001,27.69427776,34.166442849999996,-2.9867936375,-2.905331373,12.015240195,67.420858385,-11.222577453,15.972312455
673,2.8040545000001202,10.359680175000001,27.544135089999997,34.292511000000005,-1.7367990015,-4.3463231325,12.33916187,64.584051135,-15.54311466,15.986806390000002
674,2.808221000000003,10.952940940000001,27.365167614999997,34.394760149999996,-1.682726711,-0.795708865,7.650650023000001,63.86772919,-19.248266219999998,14.32110596
675,2.8123875000001135,11.50185728,27.185176849999998,34.5080185,-1.8117447500000001,-3.1516766545,13.379442695,57.972122195,-18.976643085,15.757100105000001
676,2.8165539999999964,12.003795625,26.99257183,34.5779915,-4.0263551475,-3.7866270545000003,14.779552935,54.733926775,-21.25737381,11.652888295
677,2.8207205000001068,12.536557195,26.8028574,34.709724449999996,-2.586521238,-2.6898372175,7.02379775,55.129663465,-19.399147273,18.346513745
678,2.8248869999999897,13.008404255,26.63064003,34.780159,-1.101354599,-1.7895176410000002,13.589692589999999,51.13828087,-18.633051871,11.549643995
679,2.8290535000001,13.451699255000001,26.394664765,34.86322405,-2.21729207,-4.01993072,5.5337815280000004,47.073190685,-25.67142677,14.80716896
680,2.833219999999983,13.868824485000001,26.24914646,34.940280900000005,-4.263281703,-4.6927850245,11.0029835725,44.306936265,-15.1589743175,11.922786235
681,2.8373865000000933,14.223952295,26.058460235,35.007854449999996,-2.1507241725000004,-0.588149963,17.348773,37.361143115,-20.5801310555,12.22669554
682,2.8415529999999762,14.602667805,25.889954565,35.05739595000001,-2.8461068865,-4.015057087,4.084318097500001,41.18629837,-18.397339582,9.9336042405
683,2.8457195000000866,14.9139533,25.757208825,35.13053510000001,-1.641697407,-3.1453586815,16.353626730000002,31.82882595,-13.5378069875,11.255147935
684,2.8498859999999695,15.2039609,25.61405659,35.16823194999999,-5.107040937,-2.482194722,6.083783865,31.21006775,-15.675313709500001,8.184580325999999
685,2.85405250000008,15.47578716,25.54446125,35.267536150000005,-0.7926123139999999,-3.560690999,16.786904335,25.785313605,-5.35849619,12.16193342
686,2.8582189999999628,15.72893524,25.38151169,35.284027099999996,-3.063530505,-1.9610253575,1.238880828,27.87188053,-18.495117665,6.69921875
687,2.862385500000073,15.927251815,25.333010674999997,35.38002015000001,-4.070484698,-3.833331704,18.47042751,17.186544415,-2.9067378064999994,11.224892615
688,2.866551999999956,16.144871715,25.211987495000002,35.42121885,-3.4936531040000003,-1.5884539485,2.5370807650000002,22.354341505,-12.8627851005,8.044976711
689,2.8707185000000663,16.348776819999998,25.216182705,35.53454205,-2.2828173635000004,-2.275777817,19.270668030000003,16.991650104999998,3.7755489349999998,11.271615506
690,2.8748849999999493,16.530991555,25.13424206,35.587032300000004,-1.4299762845,-2.020806432,5.1822633745,17.518876075,-7.953286588,7.9441173075
691,2.8790515000000596,16.683208465,25.13595867,35.673576350000005,-5.3871810435,-2.4825639725,16.998506544999998,12.1937937735,2.7353826760000004,8.6075179575
692,2.8832179999999425,16.863718990000002,25.109372135,35.764843,-1.6242774725,-2.431980431,6.577574253,15.35849142,-0.3345160484999994,10.118701459
693,2.887384500000053,17.012764930000003,25.068741795,35.8223648,-1.3509067895,-0.958836287,14.032086849999999,13.272712229500002,-2.989394185,6.9999375345
694,2.891550999999936,17.2042923,25.03737736,35.90964125,-4.5939081905000005,-3.5015791655,4.288967848,16.901289939999998,-0.9444422700000006,9.908230305
695,2.895717500000046,17.32610798,25.015971184999998,35.952404050000005,-1.666500181,-0.447491154,15.305311679999999,10.772337915,-1.2179770445000004,4.8280156850000004
696,2.899883999999929,17.480743410000002,25.016981125,36.0201569,-4.810839891500001,-2.795096278,7.4807794095,13.474000929999999,2.1772184355000004,6.7104067805
697,2.9040505000000394,17.620230675,25.011104585,36.072975150000005,1.020831138,-3.1047846674999997,12.844586845,12.3631386735,0.9166398049999991,5.288188934500001
698,2.9082169999999223,17.76486397,25.01745796,36.11284255,-5.1725051405,0.09728616449999994,12.9968528735,13.694603919999999,1.9048490549999997,3.6306140425000004
699,2.9123835000000327,17.892728804999997,25.012947085,36.159965549999995,-1.93948251,-2.7947567700000002,5.682737112,11.28569746,0.9092092514999996,4.688135743
700,2.916550000000143,18.040300365,25.00997925,36.20645525,-0.9012806265,-3.1777717475,8.9789972305,13.70154476,1.0805439949999998,4.6258165835
701,2.920716500000026,18.157496455,24.93552494,36.2273369,-0.616319701,-1.105177939,10.0147357,11.3180370355,-7.930639983999999,4.5318388935
702,2.9248830000001362,18.268995285,24.956728935,36.2629204,-4.319667816,-2.579276353,8.2864317905,9.9321413035,3.493585587,2.606415689
703,2.929049500000019,18.34174061,24.911967275000002,36.291564949999994,-2.2779825325000003,-2.5643913745,16.021107675,5.6193801165,-4.2644382115,4.301501393
704,2.9332160000001295,18.457463265,24.942629815,36.36339955,-2.000440627,-0.19420734050000005,13.2033948915,8.600032092,5.8222893165,5.951109648
705,2.9373825000000124,18.5368824,24.85895252,36.367736799999996,-1.2461960909999998,-2.5814652445000004,7.7866368295,7.6408808225,-9.514795392,3.2648935315000003
706,2.9415490000001228,18.626081465,24.86999702,36.424427,-4.2465461495,-3.7481684685000003,13.73819494,6.1928699015,3.0872261515,5.132901192
707,2.9457155000000057,18.6942873,24.799532890000002,36.42655560000001,-2.5198009315,0.598003924,5.1537411214999995,6.4198759795,-8.079063177,2.5905089974999997
708,2.949882000000116,18.746015545,24.80489445,36.47866439999999,-1.0711226465,-2.5087268355,17.233746529999998,1.922963381,2.291149199,4.8254919055
709,2.954048499999999,18.813703535000002,24.718013765000002,36.47808835,-1.9186033905,-2.5449584720000002,5.7255854605,6.4828224185,-10.027296065,2.9474815724999996
710,2.9582150000001093,18.857728005,24.69445133,36.508190150000004,-3.1024026875,-0.874154359,15.240041255000001,2.1272818444999997,-1.7569634314999998,3.7061755654999997
711,2.9623814999999922,18.9166317,24.639707565000002,36.515716600000005,-4.9012681245,-1.4585698845,7.9791595935,5.0462865830000005,-6.0870388165,2.6024193760000003
712,2.9665480000001025,18.976950645000002,24.611177445000003,36.54588315,0.37174326199999996,-2.778475821,13.259125234999999,4.0614062545,-2.30962968,3.862857461
713,2.9707144999999855,19.05673027,24.601475715,36.55142975,-4.8607726095,-0.4593904315,8.082885743,7.644645928999999,-1.03771615,0.632044107
714,2.974881000000096,19.123039245,24.57284546,36.59359740000001,-0.6548382939999999,-1.0384857355,11.8333296765,4.179962038999999,-1.8810009965000005,5.10607028
715,2.9790474999999788,19.214079855,24.597999575,36.603153250000005,-5.1487169265,-2.535406709,7.99334383,8.8256952755,3.0561456700000003,-0.276921779
716,2.983214000000089,19.29181385,24.558832170000002,36.64717865,1.67943006,-1.3268509805000002,11.78301239,5.4585859775,-2.9908804884999998,5.7190191745
717,2.987380499999972,19.37094116,24.570587160000002,36.64097215,-3.7932703495,-2.1533347364999997,8.6268904215,8.157775164,0.9736677410000001,-1.415788531
718,2.9915470000000823,19.451351165,24.526669505,36.68424605,-0.8940631150000001,-3.0748820305,9.3537812235,5.82817328,-3.5397533174999998,5.850701332
719,2.9957134999999653,19.510238649999998,24.567586894999998,36.68750000000001,-5.252767086,-1.2080982325,12.603170395,5.263968885,4.6141680495,-1.6013507245
720,2.9998800000000756,19.61528492,24.562747005,36.746459949999995,-2.6012632845,-0.7439572215,8.9704086765,8.0203425885,1.4701357485,5.9433221815
721,3.0040464999999585,19.692177774999998,24.649211880000003,36.76609799999999,-1.685190916,-1.4350787999999999,15.476317405,6.577352047,10.359345435,-1.824783653
722,3.008213000000069,19.78225136,24.64188957,36.798843399999996,-2.7411923110000003,-2.6596935985,7.621912479500001,7.5247194770000005,0.24099797,3.3348581790000003
723,3.012379499999952,19.844848634999998,24.7411623,36.85117340000001,-3.4457531274999997,-1.1998096185,19.206354140000002,3.2288091185,13.007903097,0.9851811825000001
724,3.016546000000062,19.94728756,24.7623806,36.8943863,-4.0063316229999995,-1.9265919325,4.333643317,8.5009179115,3.8609571470000006,3.2903283835
725,3.020712499999945,20.012452125,24.83023739,36.92940899999999,-0.08577346799999996,-1.374661975,11.53434181,4.3825582265,8.8213226785,0.4201952965
726,3.0248790000000554,20.097708705000002,24.82076454,36.947322850000006,-2.6036291645,-1.0660059155000001,6.7999358175,7.688484906999999,-0.5320014954999999,1.916790247
727,3.0290454999999383,20.15032673,24.848789215,36.983081850000005,-2.1738667485,-3.0361789464999998,15.44532776,2.854091585,4.3596776705,2.1424898504999996
728,3.0332120000000486,20.230526925,24.85693264,37.00974655,-2.467932224,-0.265490487,5.857928276,6.657345772,1.789239405,2.118348837
729,3.0373784999999316,20.27028179,24.84762764,37.013240800000005,-0.465668321,-2.281193316,14.25195503,2.9271506075,-1.0524764050000002,0.372232549
730,3.041545000000042,20.348941805000003,24.83930874,37.03411865,-3.017688155,-1.8550125955,10.492988587500001,6.747398138,-0.2757627965,2.1878207925
731,3.045711499999925,20.41673088,24.816738125,37.033844,-2.63545835,-0.9658271964999999,11.134487629999999,6.4934654235,-2.6879005415000004,0.548868358
732,3.049878000000035,20.51979351,24.833363535,37.0679741,-3.666946769,-2.1123121974999997,8.5935392405,9.029225349499999,3.0391898149999994,2.530738354
733,3.0540445000001455,20.57945728,24.77827835,37.0560379,0.415984392,-0.733121157,9.7729859365,6.091169357,-6.7821736349999995,0.7087589055
734,3.0582110000000284,20.659607885,24.750454904999998,37.067504899999996,-2.862643957,-2.470109582,10.647551536999998,7.412939787,-2.8151636124999997,2.065288782
735,3.0623775000001388,20.695410725,24.6733408,37.08008195,-0.332805678,-1.71889469,15.703124520000001,1.993492335,-8.308129547,4.1567690375
736,3.0665440000000217,20.74544716,24.649552345,37.08002855,-5.7037751675,-2.4318419095,7.9193806645,4.3994125725,-2.800539015,0.769874528
737,3.070710500000132,20.734923365,24.578562735,37.07942965,-1.5334529575,-1.979025781,15.941740515,-2.8942041400000003,-8.123744724,2.581787586
738,3.074877000000015,20.76566124,24.504758835,37.058986700000005,-1.5421326755,-2.2504385115,8.50419569,3.0838651660000003,-9.2036528595,0.77648291
739,3.0790435000001253,20.77397156,24.39142704,37.03598405,-1.5924796165,-0.18925625049999997,12.413452150000001,0.4695529935,-13.741699935000002,2.0712838175
740,3.083210000000008,20.77554226,24.302757265,37.00434495,-2.7815140485,-2.1197687985,12.90579033,0.1309971805000001,-11.303880097499999,0.27054423099999997
741,3.0873765000001185,20.753557205,24.186344145,36.968578300000004,-3.616206765,-2.1384374495,12.295445915,-2.5289577845,-14.581832169,0.9311739725
742,3.0915430000000015,20.74269009,24.115981105,36.9660225,-3.3795728685,-1.090060115,12.431252005000001,-2.8000977635,-8.1290320775,2.442419887
743,3.095709500000112,20.70562649,23.983026504999998,36.903633150000005,-1.104871303,-1.717032194,8.907383919,-3.0562095495,-17.4711606525,-1.113617897
744,3.0998759999999947,20.70310211,23.928233145,36.93691635,-3.2860531809999998,-3.3888274430000003,10.576904299999999,-3.5613011125000003,-4.992765188,5.423802137
745,3.104042500000105,20.66328621,23.83392429,36.87478635,-2.903955579,0.873791054,11.5047688495,-3.409178734,-13.121049406,-2.7219742535
746,3.108208999999988,20.64437866,23.799588205,36.930130000000005,-4.622116089,-3.4759490490000005,13.12700224,-6.576993465499999,-1.8478558059999999,6.8336360455000005
747,3.1123755000000983,20.653942105,23.76278019,36.91973495,-2.1857134105,-0.735058725,5.6100268365,0.012839152999999999,-4.659166336,0.17358148099999993
748,3.1165419999999813,20.63189793,23.749757770000002,36.96183394999999,-3.6540335419999996,-0.4490775615,10.451540229999999,-6.3153572085,0.030320822999999997,4.55353272
749,3.1207085000000916,20.633707049999998,23.74766922,36.9972801,0.1824587580000001,-2.51416415,9.809953212,-3.151498556,1.0152522325000002,3.385407686
750,3.1248749999999745,20.63673115,23.76123047,37.0378952,-5.2325077055,-1.6772679689999999,8.0045285225,-3.2278290985,2.9567664565,3.2897643445
751,3.129041500000085,20.60286808,23.792154315,37.08356475,-0.7693990765000001,-1.5382024349999999,16.79458809,-7.9278883935,5.1200294495000005,3.044623509
752,3.133207999999968,20.61033726,23.866001125,37.126281750000004,-7.248722553,-2.21225369,6.1886885165,-2.7769297365,9.8056014475,0.9959788319999998
753,3.137374500000078,20.601718905,23.8969698,37.1856575,2.2705521584999997,-0.6395639700000001,11.554740429999999,-5.583558321,5.6513212925000005,4.428016931
754,3.141540999999961,20.573478695,23.9818697,37.194602950000004,-6.2939958575,-2.0710564255,13.28139019,-5.449985980999999,9.740511893,-2.9858645945
755,3.1457075000000714,20.5766983,24.00381565,37.259304050000004,1.8353104889999998,-1.160460949,6.079146862,-4.423002243,4.8399509195,5.373251914499999
756,3.1498739999999543,20.513925555,24.069927215,37.243415799999994,-7.3848910355,-2.1336850524999997,13.984536644999999,-8.373627186,6.6770169735,-4.7211524845
757,3.1540405000000646,20.5242939,24.112567905,37.346050250000005,1.4476413129999999,-1.2019957305,8.658430338,-5.415528774,8.617219450499999,8.433359144
758,3.1582069999999476,20.468416214999998,24.164396285000002,37.300666799999995,-4.7483979465,-0.8725943415,10.012031076,-6.1159625055,3.947666228,-7.166018486
759,3.162373500000058,20.50357914,24.23075676,37.419452650000004,-0.21249878399999989,-1.685957611,12.218674661000001,-3.25283587,11.88929844,9.080838204
760,3.166539999999941,20.497606275000003,24.265872955,37.373924249999995,-3.586224556,0.056241951999999984,8.134583473,-0.12205827250000001,2.068138361,-6.4854226115
761,3.170706500000051,20.55563545,24.35081768,37.48807145000001,-3.0567802189999997,-1.8412882235,14.88712883,-0.2976438475,13.799530025,7.805350065
762,3.174872999999934,20.56328678,24.39674282,37.45560835,-3.4864423275,0.21996713,8.7034001365,0.8832495215,3.7819290165,-5.5826096535000005
763,3.1790395000000444,20.63337517,24.493163109999998,37.5512352,-3.00721848,-1.610603094,17.7381959,2.0468338725,14.376900195000001,5.388569832
764,3.1832059999999274,20.696959495,24.545090675,37.524963400000004,-1.0005143285,-0.1788934915,2.547380805,7.293833255500001,4.690517187,-5.1978969575
765,3.1873725000000377,20.802729605,24.611242295,37.58839035,-0.6115787925,-2.1795833705,12.167954445,7.8941416715,9.7473969455,3.3114212755
766,3.1915389999999206,20.896401405,24.65629673,37.54581835,-2.8088398275,0.0984188915,4.6104257104999995,11.731886387,3.270753533,-6.566697359
767,3.195705500000031,21.02638149,24.727013585,37.60622785000001,-1.8862151799999998,-2.651795983,14.03776264,10.9388179775,10.1534345145,2.7709743380000003
