,time,Euler_X,Euler_Y,Euler_Z,Acc_X,Acc_Y,Acc_Z,Gyr_X,Gyr_Y,Gyr_Z
0,0.0,-19.951348623333335,25.54720115666667,-46.46795146666667,-3.064723690333333,1.030555457,9.076910735333334,45.32577133333333,43.200354260000005,18.177440963333336
1,0.0027776666666666666,-19.48631096,25.876971559999998,-46.39264426666666,-1.3099075753333334,0.9408771246666667,8.195280235,51.38795852333333,33.89846420333333,20.654032393333335
2,0.005555333333333333,-19.01646105333333,26.343345006666667,-46.375783266666666,-4.597197850333333,0.14428213366666665,8.812112332666667,54.903191883333335,51.72672398666666,20.06566619666667
3,0.008333,-18.444866816666664,26.725443523333336,-46.26387533333334,-1.5807004196666667,2.1528353693333333,11.021001495666667,62.05309804,39.02206739,25.717386879999996
4,0.011110666666666666,-17.85188992666667,27.164779663333334,-46.200495399999994,-2.7064555286666665,-0.3126126133333333,10.438917477,67.23131052666666,47.47541427666666,22.570061366666664
5,0.013888333333333334,-17.151807146666666,27.589036943333337,-46.061787933333335,-2.678198155,1.560164889,10.021418730333334,75.90234629333332,43.50009409333333,29.068773269999998
6,0.016666,-16.41815758,28.063107173333332,-45.9619446,-2.249021868,1.1354177696666665,9.237061816999999,81.88755544,50.95799001333333,26.223948793333335
7,0.019443666666666668,-15.599104243333334,28.453931806666663,-45.76556396666666,-1.1318402886666667,0.32413842266666665,12.107656478333332,86.69890086000002,38.745597839999995,32.54879252
8,0.022221333333333333,-14.747326213333332,28.912209196666666,-45.60958863333334,-2.2874892946666665,0.7302728293333333,7.707658608666667,92.67495219,48.332641599999995,29.901018143333335
9,0.024998999999999997,-13.795212746666666,29.30183156,-45.37017313333333,-1.8614823816666668,1.2608338396666667,9.093269665333333,99.78136952,38.576939900000006,35.49517313333333
10,0.027776666666666668,-12.83212598,29.71654510666667,-45.17643736666667,-2.797190507333333,0.35603847133333333,10.723555722999999,103.60851539999999,43.26246516,30.802637740000005
11,0.030554333333333333,-11.774609883333333,30.040927883333335,-44.894734699999994,-1.2523392039999999,0.6180379386666667,10.018161136666667,109.65973660000002,31.169316609999996,36.61217244666667
12,0.033332,-10.698945046666665,30.346193313333334,-44.65255736666666,-1.2153188536666668,-0.1736495816666667,9.263905844333332,113.88547770000001,30.594715116666666,31.39159965666667
13,0.036109666666666665,-9.554706573333334,30.63433583666667,-44.35371396666667,-1.9914496739999998,0.8560681443333333,10.418338777333334,118.7165629,27.98641840333333,36.19197845333333
14,0.038887333333333336,-8.385655403333333,30.846642813333336,-44.07082110000001,-0.4814267953333335,-0.456407209,8.629571755666666,122.33978016666667,20.178666433333333,32.38153521
15,0.041665,-7.169621308666667,31.087287903333333,-43.7569478,-3.780288344,-0.24589091533333332,10.045545577333334,126.13136036666667,23.675725936666666,35.5965627
16,0.044442666666666665,-5.943199316333334,31.200354893333337,-43.440602600000005,1.8132624626666665,-1.1238239603333333,10.885563850333334,126.99125163333333,9.271982271333334,33.428581873333336
17,0.047220333333333336,-4.709939956666666,31.305664700000005,-43.10946656666667,-4.6637202103333335,-0.615603129,10.807045140333335,127.024676,8.801477591333333,34.71975009
18,0.049997999999999994,-3.4747316043333334,31.402418773333334,-42.79106396666666,0.451009075,-0.6644368766666666,9.226804098333334,127.76013693333334,8.816461244333333,32.95631345
19,0.052775666666666665,-2.2356359163333335,31.3883845,-42.45976003333333,-3.5133643049999996,-0.673414091,10.126798629666668,127.61723073333333,-3.9974714316666664,33.52101771333333
20,0.055553333333333337,-1.0063714583333334,31.354274113333332,-42.131764700000005,0.8623169263333333,-1.122003923,10.716222445333335,126.4518814,-5.481567780333333,33.061611176666666
21,0.058331,0.20431227233333335,31.269763310000002,-41.816940300000006,-4.199018637333333,-1.9425482353333334,11.070990246666668,125.241127,-10.931023280666665,31.891595840000004
22,0.061108666666666665,1.408411582,31.168860753333334,-41.49934643333333,0.015628516666666686,-0.8045757363333333,10.928482373333333,124.22772726666666,-12.151105560333333,32.37618319333333
23,0.06388633333333334,2.572478612333333,30.990174613333334,-41.2082189,-3.3597442703333336,-1.9957277376666667,12.342344599999999,121.2835261,-21.012487410000002,30.357753116666668
24,0.066664,3.699205716333333,30.774272919999998,-40.90820566666667,-0.5470274286666666,-1.886352857,12.173131622999998,116.20327503333333,-24.62697474333333,31.867860793333335
25,0.06944166666666667,4.77432251,30.5817496,-40.640729300000004,-4.568651179333334,-1.6527307036666665,10.453468958333334,112.25808463333333,-21.619371416666667,28.94149081
26,0.07221933333333333,5.8257068,30.330266953333336,-40.359781899999994,0.6701146563333333,-2.0728673536666666,12.743821459666664,108.58279929999999,-27.816264469999997,31.335791906666667
27,0.074997,6.788052081666667,30.041098276666663,-40.147237133333334,-4.400323947333333,-3.1238900026666667,12.134606679666666,102.22221626666668,-32.62768618333333,25.3881073
28,0.07777466666666667,7.739157676666667,29.797084806666664,-39.89259846666667,-1.0885526536666668,-2.263027072,11.21362877,98.44871521,-26.208068210000004,29.62247467
29,0.08055233333333334,8.594353358000001,29.476086933333335,-39.72941333333333,-4.326048295,-2.927139203,11.408238411666666,92.52410125666665,-36.32697804666667,22.001970293333333
30,0.08333,9.415402094666668,29.23188909,-39.51862336666667,-1.684064448,-1.8945345483333333,10.931091306666666,85.69053650000001,-25.94885444666667,26.00703620666667
31,0.08610766666666668,10.160128276,28.90781339,-39.40490213333333,-2.49187541,-2.548967520666667,12.355156263666666,82.30610402666666,-36.90944162666667,18.035515466666666
32,0.08888533333333333,10.868240673333332,28.610994976666664,-39.260294599999995,-3.3186949096666667,-1.8025651773333333,11.509538651,76.19300333666666,-32.705191926666664,21.103633246666664
33,0.091663,11.520872116666666,28.344981513333334,-39.162918100000006,-3.4306821823333333,-3.363556862,12.70717939,72.30592600333334,-29.882579803333332,15.93279616
34,0.09444066666666667,12.136955893333331,28.06265258666667,-39.04390969999999,-1.9528423149999998,-1.7826499143333334,9.903653777666667,66.77433268333333,-31.093251546666668,18.925475756666668
35,0.09721833333333334,12.679762520000002,27.77565829,-38.974510200000005,-2.5910418036666667,-3.4071932633333333,12.260020256666666,60.78909429,-32.670699436666666,14.251255673333333
36,0.09999599999999999,13.187448183333332,27.504858016666663,-38.866437266666665,-3.0642104150000002,-2.3061263166666666,12.456870716,54.48714828333333,-29.561224616666667,18.118309973333336
37,0.10277366666666667,13.637912433333334,27.294558839999997,-38.788647966666666,-4.455275376666666,-1.881625374333333,9.450784048333334,49.33304469,-23.241975786666668,13.598015466666666
38,0.10555133333333333,14.069396656666667,27.049547833333335,-38.69864906666667,-1.1664939523333333,-2.008360068,11.228101095666666,46.440133413333335,-26.709805803333335,16.01597182
39,0.10832900000000001,14.430904706666666,26.8459568,-38.63536070000001,-5.090922196666667,-1.6797759533333334,12.484726745333333,39.491794586666664,-22.581732433333332,12.239841460000001
40,0.11110666666666667,14.78191312,26.68432808,-38.54303483333333,-2.2589588959999998,-1.8534514903333335,8.046173888666667,36.755470276666664,-16.78789393,14.141312280000001
41,0.11388433333333332,15.100448290000001,26.475933713333333,-38.48864493333334,-1.6027775210000001,-2.278464357333333,11.516837439999998,34.87206014,-23.274158476666667,11.760023433333332
42,0.116662,15.346488953333335,26.28523572333333,-38.432731633333326,-3.4788923263333333,-2.5629920963333332,11.381326436999998,26.130334853333334,-20.975402516666666,11.470165571333334
43,0.11943966666666667,15.57316812,26.158348720000003,-38.36581169999999,-3.84838899,-1.7763460476666666,10.931664149333335,23.237203596666664,-13.371203422666667,10.683666546333333
44,0.12221733333333333,15.760077156666668,25.93737983666667,-38.32453663333333,-0.5751316146666667,-2.066819191,9.689090411666667,19.865504583333333,-24.804253263333333,11.097776415333334
45,0.12499500000000001,15.921957336666665,25.819894789999996,-38.27051033333333,-4.963068247,-1.8834623496666667,9.006547211333332,16.155985196666666,-12.541580675666667,9.141395568333335
46,0.12777266666666667,16.062174796666667,25.665175753333333,-38.226308200000005,-0.84042569,-2.165625294,9.879355033333333,14.14878591,-17.053242047,9.371309915
47,0.13055033333333335,16.15124639,25.46280606666667,-38.199984199999996,-2.594914128333333,-2.2129219173333334,11.886134465666666,8.890625478333334,-23.15759595333333,9.163374581333333
48,0.133328,16.241850533333334,25.38610140333333,-38.15277606666667,-3.9976207020000003,-1.5181547003333336,8.968060811333332,8.053625107,-7.892038028000001,7.154001235666667
49,0.13610566666666665,16.295621873333335,25.181605020000003,-38.13439433333334,-0.8231519313333333,-1.992243409,11.905432065,5.097206116,-23.612994513333334,8.460673173333333
50,0.13888333333333333,16.3155454,25.071777343333338,-38.109110533333336,-5.647785504666667,-1.4683006603333333,11.729263700999999,0.7280842463333332,-12.358830132666666,6.033549547
51,0.141661,16.33284441666667,24.988702773333333,-38.07392626666667,-0.2659572460000001,-1.4773206113333333,8.240529496,-0.11758215233333331,-9.065861123333333,6.138076305333333
52,0.14443866666666666,16.31285858,24.79856491,-38.086540199999995,-4.8136074540000005,-1.215680579,11.618337868666666,-2.1560625236666664,-22.81279309333333,4.787179390666666
53,0.14721633333333334,16.313931146666665,24.806999206666664,-38.038187666666666,-1.8022675363333336,-1.3408839306666664,12.058272044333334,-2.707143108,1.837437431,4.468467553333333
54,0.149994,16.24198214666667,24.602655413333334,-38.084482799999996,-2.4249187313333334,-1.570862452,11.219665208666669,-6.6912607363333345,-25.444071453333333,1.6819128593333332
55,0.15277166666666667,16.201478960000003,24.568762460000002,-38.0567474,-3.9582068126666665,-0.6828723896666666,8.808662733,-6.6445134480000005,-3.6707861806666666,3.771769364666666
56,0.15554933333333334,16.14044444,24.424715043333332,-38.10335033333333,-0.0434227386666667,-1.3940911493333334,10.077168257666665,-5.3770186503333335,-18.510974387333334,-0.43875046599999995
57,0.158327,16.049655596666668,24.335641223333337,-38.12474313333333,-4.927102248,-1.758682270666667,9.858589327666667,-10.251409848666666,-11.49190688,0.43609128399999997
58,0.16110466666666667,15.96134281,24.270243963333332,-38.14935303333333,-2.0815920279999998,-1.4140536586666668,9.348437308,-9.734760602666666,-8.817402204666667,-0.7639021676666667
59,0.16388233333333332,15.855933503333333,24.137645086666666,-38.19582366666667,-2.4561477896666664,-1.0564573953333334,10.979319095000001,-10.802963256333333,-17.311880110666667,-0.8153481183333334
60,0.16666,15.774683953333332,24.133281706666665,-38.208732600000005,-3.484535575,-1.3537281553333333,10.451819261333334,-9.481760181,-1.387642542,-1.5578452746666667
61,0.16943766666666668,15.64499887,24.05009142333334,-38.252782200000006,-3.4111602706666666,-1.2664659223333334,8.514957745999999,-13.793526333333332,-11.526026090333334,-2.217070281666667
62,0.17221533333333336,15.532929106666666,24.082101823333332,-38.26807913333334,-3.1319866973333332,-1.1521761216666666,11.040259997,-13.092984196666668,2.7433023453333334,-2.985711256666667
63,0.17499299999999998,15.399463016666667,24.036690393333334,-38.31138863333334,-3.087243676,-1.5117281676666667,10.241045314666666,-14.253018696666667,-7.084695079333333,-3.397865772
64,0.17777066666666666,15.245206833333334,24.08980751,-38.336855566666664,-2.762662291333333,-0.8645929296666667,9.538108350333333,-17.653576216666664,4.865622677666667,-4.707343220666666
65,0.18054833333333334,15.024883586666666,24.094139100000003,-38.415809633333325,-4.214906533333333,-3.1066425243333335,7.651642006,-22.979039509999996,-2.3693985946666665,-8.766092776333332
66,0.183326,14.759405449999997,24.143870670000002,-38.474151600000006,-1.9340426323333333,-3.0963481263333335,11.743997893666666,-29.332665759999998,3.623772858666667,-8.035111745333333
67,0.18610366666666667,14.395516393333333,24.125411986666666,-38.60719806666666,-1.6147835653333331,-3.1227670113333335,10.660222054333333,-37.56754938666667,-6.4239460636666665,-13.81808885
68,0.18888133333333335,13.997812906666667,24.238248823333333,-38.7072576,-3.462096254,-2.8984525599999995,10.633412677,-43.12360127666667,9.941760938666667,-14.247372946666667
69,0.191659,13.450339,24.208492913333334,-38.88697560000001,-1.9893130760000002,-4.4306960103333335,10.285907506666668,-57.23882039666666,-8.711147546333333,-18.541835786666667
70,0.19443666666666667,12.846514383333334,24.369829813333336,-39.0323766,-5.217563867666667,-2.8485395513333334,10.112940948,-65.63924153333333,14.695169446666666,-20.17760086
71,0.19721433333333335,12.099215826666665,24.30416425,-39.2780609,1.5364232263333333,-4.5987999440000005,9.291920107000001,-77.9206899,-14.103449443333332,-24.864146549999997
72,0.19999199999999998,11.262061753333334,24.331859586666667,-39.504587799999996,-5.514602025333333,-3.2916544276666664,12.213465849333334,-89.60756175,-2.2661817859999998,-25.15345192
73,0.20276966666666665,10.349705378,24.44360478666667,-39.766983033333325,-3.763937195,-2.7497062286666663,9.895502407666667,-96.87088521333332,7.186471282,-31.004158653333334
74,0.20554733333333333,9.311579704333333,24.398686726666664,-40.040359466666665,0.41932477566666676,-3.4436368940000004,9.624925333333334,-111.33633426666667,-10.911989850333333,-28.808301290000003
75,0.20832499999999998,8.150137106666667,24.34197553333333,-40.38430786666667,-4.307707866,-3.797553221333333,9.911784749333334,-122.75537106666667,-13.020010629,-36.38115946333333
76,0.21110266666666666,6.9453886350000005,24.45008405,-40.655509933333335,-3.5094257196666665,-2.8406631946666665,10.438592434666667,-131.45448813333334,8.440270344333333,-31.334885279999998
77,0.21388033333333334,5.596083482333333,24.37872378,-41.022257466666666,-1.2277118763333332,-3.765468756666667,11.265302479666666,-144.18390909999997,-13.524754126,-39.28216298666667
78,0.21665800000000002,4.149216016,24.301692966666668,-41.32270556666667,-2.0937536556666667,-4.189845164666667,8.946451583333333,-159.05515033333333,-12.486704826,-32.13884735
79,0.21943566666666667,2.639118075666666,24.34603246,-41.68692526666667,-6.113874991666666,-1.4416161776666667,11.066218695000002,-163.6836344666667,2.3095006543333336,-40.38849894
80,0.22221333333333335,1.0478291513333333,24.236857096666668,-41.98507943333333,1.569258719666667,-3.244028171,8.746692338666668,-176.5078430333333,-14.619829617,-32.48081143666666
81,0.22499100000000002,-0.6464387226666667,24.05770047333333,-42.34959666666666,-3.3645085093333336,-2.8472007710000002,11.017809668666667,-185.90096026666666,-22.264194173333333,-40.06847
82,0.22776866666666665,-2.3485737246666667,24.07750193,-42.658075933333336,-4.33147645,-0.47480404366666656,12.005006473666667,-189.44326779999997,2.7585746446666666,-33.98583539
83,0.23054633333333333,-4.135103782333334,23.803876243333335,-42.98257193333334,1.6813769736666666,-1.6324326396666666,10.849347288333332,-199.1024831,-31.433733619999998,-37.79710134
84,0.233324,-5.984586874666667,23.65531858,-43.31535339999999,-5.888315677666667,-2.005797754,8.501731276333333,-206.12384033333333,-15.000784716333333,-38.115325926666664
85,0.23610166666666665,-7.8109680809999995,23.473926543333334,-43.615895566666666,0.058123998333333336,-0.0027472080000000196,10.249656360666668,-205.27264916666664,-18.300620716,-35.87791125333333
86,0.23887933333333333,-9.643419901,23.20016416,-43.91011046666667,-6.151482105333334,0.061448663666666604,11.610627413000001,-206.17841593333333,-28.043163936666662,-37.12102762999999
87,0.241657,-11.45518875,23.04993947666667,-44.18609113333333,0.4706863563333334,0.1306683816666667,10.025782029333334,-204.90168256666666,-12.759620635,-33.71132914333334
88,0.24443466666666666,-13.265418373333333,22.627273560000003,-44.417750033333334,-2.559844971,0.3448116083333333,9.254789669333334,-206.6206614,-44.526515960000005,-36.299059553333336
89,0.24721233333333334,-14.966451326666666,22.437046686666665,-44.64574176666667,-1.428330481,2.453444322,11.107447008333333,-194.1520233,-16.617077508666668,-30.467034023333337
90,0.24999000000000002,-16.585587183333335,22.001325606666665,-44.80722553333334,-3.500693639,1.6874868473333333,9.890865524666667,-187.41566976666664,-46.057843526666666,-31.422392526666666
91,0.25276766666666667,-18.113530479999998,21.73132578666667,-44.952209466666666,-1.518088887,3.884437561,10.909206073666667,-177.17933656666665,-26.59357452333333,-25.774238586666666
92,0.25554533333333335,-19.54041163333333,21.32142067,-45.0556081,-3.5706073046666664,1.6653337476666668,9.366843701333332,-166.97666930000003,-43.31640879333333,-27.14247195
93,0.258323,-20.838471093333332,20.936092376666668,-45.121129333333336,-0.31352990866666663,4.181175232,12.20822716,-153.35553996666667,-41.456600189999996,-23.140702566666665
94,0.2611006666666667,-22.052793503333334,20.51131821,-45.18660483333334,-4.377915303,2.7567867436666664,8.187729359333334,-143.48257446666665,-45.43464660666666,-25.575294496666668
95,0.2638783333333333,-23.13814481,20.06127675333333,-45.19259133333333,-0.602415383,2.8362049263333335,12.832545916666668,-130.20703633333332,-50.035419463333334,-21.948067346666665
96,0.266656,-24.1152153,19.592613856666663,-45.21639503333333,-4.1775483289999995,3.173785527666667,6.751845240000001,-116.6850942,-50.940138499999996,-25.413436253333334
97,0.2694336666666667,-24.968855539999996,19.126810073333335,-45.204539000000004,-1.09864671,2.8538626829999996,9.140969435666667,-103.29758199999999,-52.02072398000001,-22.236394880000002
98,0.2722113333333333,-25.718010583333335,18.65600014,-45.204040533333334,-4.8376898766666665,3.028208096666667,12.374184926666667,-90.22386932333332,-51.48588307666666,-24.69488462
99,0.274989,-26.344966253333336,18.192859013333333,-45.15667213333333,-0.04463652799999999,3.4445857206666664,6.790456207333334,-77.45253753666667,-52.88824208666666,-19.857720693333334
100,0.27776666666666666,-26.866549813333332,17.743842443333335,-45.155487066666666,-6.810839494,2.4975041946666665,9.204034488333333,-62.97463099,-48.715723669999996,-24.43682607
101,0.28054433333333334,-27.26961771666667,17.30752627,-45.097798633333326,-1.2557519676666666,3.5807725589999997,13.439620655333334,-50.851648966666666,-50.2331988,-18.26898384333333
102,0.283322,-27.612466813333338,16.862586976666666,-45.074015300000006,-5.4747994743333335,1.9095524153333334,11.389191310333333,-42.42825317333334,-49.16330464999999,-22.51094055333333
103,0.2860996666666667,-27.84288470333333,16.482784906666666,-45.0207062,-2.8293499946666665,2.3062392076666667,11.079659781333334,-29.847874960000002,-43.80648295,-16.040525116666668
104,0.2888773333333333,-27.99950345666667,16.06975905,-44.967971799999994,-3.8762458166666662,2.0466241440000004,12.806641579999999,-21.005568186666668,-47.143957773333334,-18.220046996666667
105,0.291655,-28.110944113333332,15.711649893333336,-44.90424093333334,-2.0542507170000004,1.3788265586666668,8.269778886333333,-15.847766876666668,-41.97238922,-13.980160396666667
106,0.2944326666666667,-28.142438886666667,15.38783137,-44.881530733333335,-4.653209050333333,1.118351489,10.473363874,-4.961693048666667,-36.064136506666664,-16.33118502333333
107,0.2972103333333333,-28.13250605,15.041369436666665,-44.80544026666667,-2.5983675323333335,1.3513024646666665,12.652002332333334,-1.5731307666666667,-41.42815018,-12.150944706666666
108,0.299988,-28.106167476666666,14.793124836666669,-44.785715733333326,-4.809841155666667,0.5816268426666666,8.371028819666668,2.082895785333333,-27.916497546666665,-12.247094472
109,0.30276566666666666,-28.01356570333333,14.504973093333334,-44.73914083333333,-2.807558616,0.8511873583333333,10.361433190666666,9.310196558,-33.67211024,-11.817726453333334
110,0.30554333333333333,-27.92820485333333,14.287309013333333,-44.7137502,-4.613424062666667,0.5475417969999999,11.887219746333335,9.035204728666665,-25.017880756666667,-9.874580063333333
111,0.308321,-27.827508926666667,14.083090783333333,-44.712239600000004,-3.8866936366666667,-0.4551480513333334,9.950917004666666,11.624568303666665,-22.335940679999997,-11.622906683333333
112,0.3110986666666667,-27.70118205,13.907171886666667,-44.70617676666666,-3.9094778696666665,0.5629995466666666,10.000815548666667,14.548483846666665,-19.609097163333335,-9.431606452666665
113,0.31387633333333337,-27.58889707333334,13.76035563,-44.72892253333333,-3.8283931413333327,-0.6342840790000001,10.78807799,13.727162363333335,-14.99355157,-10.837119419666665
114,0.316654,-27.471743266666664,13.65447108,-44.7544047,-3.2858056623333334,-0.15408987533333335,11.636395456,14.29839929,-10.496352513666666,-8.701588949333333
115,0.31943166666666667,-27.348461150000002,13.540039063333333,-44.79426066666667,-4.672859589333334,-0.6317780616666666,9.461384137666668,15.527371723333331,-10.670232135666666,-10.741884229999998
116,0.32220933333333335,-27.23037465333333,13.496950149999998,-44.84527586666667,-2.6254262126666665,-0.3387648973333333,10.431978228333334,15.100927673333333,-2.459957679,-7.899684110999999
117,0.32498699999999997,-27.13908895,13.424180983333335,-44.8985087,-3.3558017413333334,-1.1361943083333335,11.256965003333335,12.059637703333332,-5.5506408206666675,-9.78698476
118,0.32776466666666665,-27.022778193333334,13.386535326666667,-44.949584933333334,-3.2322123049999996,-0.6600526769999999,8.453943571,14.890216189999999,-1.862522840666667,-7.695572693999999
119,0.3305423333333333,-26.95049222,13.365503630000001,-45.0229034,-3.126406431,-1.251606027,10.827372709666667,10.289059959333335,1.0174658296666668,-9.075922489
120,0.33332,-26.88930702,13.323939959999999,-45.0664113,-2.2602279186666667,-0.7976813913333333,11.418357692,8.148461183,-2.669225693,-7.1430896126666665
121,0.3360976666666667,-26.82441775,13.294360476666668,-45.13160193333332,-2.8808956146666667,-1.5414332149999999,9.386660098,9.105237960666665,-0.34168978533333316,-8.745199997
122,0.33887533333333336,-26.813617070000003,13.28812758,-45.193934133333336,-3.3468427656666666,-1.6476534606666666,10.473499139333335,2.598956863333333,2.057877540333333,-7.103233178333333
123,0.341653,-26.80220858333333,13.251644766666667,-45.244364399999995,-2.4883379936666667,-0.6034589706666668,10.312074344000001,2.3100027636666667,-1.8682168823333332,-7.557681242666668
124,0.3444306666666667,-26.7975235,13.258308730000001,-45.30880226666667,-3.5100093683333333,-0.06709997833333332,11.123525303333333,1.8901172083333335,3.5731858613333336,-6.704086780333334
125,0.34720833333333334,-26.811687473333336,13.245832446666668,-45.35973103333333,-3.227798382333333,-1.2857175666666667,9.744403679666666,-0.7325502633333333,0.7269959896666668,-6.288546323666666
126,0.34998599999999996,-26.823966343333336,13.22735246,-45.403020233333336,-1.8586262663333333,-0.8307864766666665,6.793805281333333,-0.7244218189999999,-0.22390242433333332,-5.904230594666667
127,0.3527636666666667,-26.869871139999997,13.205372173333332,-45.4393107,-2.3760070800000004,-1.3924369416666666,11.256508192666667,-4.947863419666667,-1.0535476056666666,-5.278850317000001
128,0.3555413333333333,-26.91794904,13.149274826666668,-45.461110399999995,-2.711143176,-1.333540857,8.950156689333333,-5.613236824666667,-5.390187343,-5.677844047666667
129,0.358319,-26.967477796666667,13.114035923333333,-45.48840333333334,-1.827119191666667,-0.9759722076666666,8.944413662,-5.639055569666667,-2.9394855099999995,-5.072647651
130,0.3610966666666667,-27.036189396666668,13.074026106666667,-45.5201772,-4.349431991666667,-0.4463717366666667,14.303240774999999,-7.815232437,-3.1572452386666665,-5.765316645333333
131,0.36387433333333336,-27.110979716666666,13.047422410000001,-45.53819783333333,-1.8605685233333331,-0.8707703846666667,7.041121959666666,-8.94220845,-2.4963040946666664,-3.6609363553333334
132,0.366652,-27.179242453333334,13.022540413333333,-45.57589213333333,-3.455853542,-0.714090397,10.859841664666668,-7.645341078666667,-1.2102813136666668,-5.588466962000001
133,0.3694296666666667,-27.270594916666667,12.97305457,-45.57496643333334,-1.6194816033333332,-0.7585328320000001,11.387998900666666,-11.404709815666669,-5.944001674666667,-2.9446769556666665
134,0.37220733333333333,-27.376203536666665,12.921209970000001,-45.58786013333333,-3.1086959840000006,-1.6729617516666666,6.777851739333333,-12.83648681666667,-5.412224769999999,-4.491247972
135,0.37498499999999996,-27.465878169999996,12.861049016666668,-45.5804952,-1.3007535636666667,-0.8940998716666666,11.145871796333333,-11.399194080000001,-7.404294967666666,-2.8658277193333332
136,0.3777626666666667,-27.59100024,12.804376919999997,-45.59450786666667,-4.312812725666666,-1.241612077,10.523257891333333,-15.11707623666667,-5.864555200000001,-4.899444739333333
137,0.3805403333333333,-27.709702176666667,12.75970745,-45.590474433333334,-2.430733323,-0.4666543996666666,10.443416276,-14.746864953333334,-5.57823054,-2.360399166666667
138,0.383318,-27.817111333333333,12.695239383333336,-45.60366823333334,-3.1222248076666665,-0.07548847799999998,10.521077472666667,-13.077970503333333,-6.7202335993333335,-5.268537839
139,0.38609566666666667,-27.935366309999996,12.64706707,-45.590901699999996,-2.3561970296666668,-1.2060034673333333,6.274404208,-14.924934703333333,-6.420375506,-1.679914137
140,0.38887333333333335,-28.04005241333333,12.54173533,-45.57530723333333,-2.0685660293333332,-0.906013471,12.258647916666666,-13.485381763333335,-12.609520276666666,-4.613205989333333
141,0.39165099999999997,-28.149737676666664,12.477362313333336,-45.54855853333334,-2.666799376666667,-0.9243304136666666,7.133765139666667,-14.302014986666668,-8.885789236333332,-1.1889873226666667
142,0.3944286666666667,-28.257397336666667,12.362771353333335,-45.53532916666666,-2.0312482516666663,-1.0172852923333333,10.865525561666667,-13.747347516666666,-13.484733741333335,-5.355182568
143,0.39720633333333333,-28.350522360000003,12.278217316666668,-45.507685333333335,-4.244303782666667,-0.3294069966666667,12.507437385000001,-12.282683053333335,-11.079522131666666,-2.2701774836666666
144,0.39998399999999995,-28.462286000000002,12.21483453,-45.507008866666666,-2.3588977656666668,-0.5422922920000001,8.899150532333334,-13.96107165,-7.340892156,-3.7835090956666666
145,0.4027616666666667,-28.533318199999997,12.12690671,-45.480102566666666,-3.451419751,-0.5471404493333334,11.236604054666666,-9.610339005666667,-11.393644966666665,-2.560719649
146,0.4055393333333333,-28.62536812,12.068141940000002,-45.490035999999996,-3.0044813156666668,0.018098977,9.498912015666667,-11.338487625666666,-6.228199799666666,-4.698816458333333
147,0.408317,-28.714681623333334,11.99678898,-45.45511880000001,-2.859136343333333,-1.0096612176666666,10.702637516333333,-11.986606283333336,-10.088402748,-0.8074205916666667
148,0.41109466666666666,-28.755568823333334,11.909707706666666,-45.44313556666666,-1.5679928463333332,-0.10661006833333332,9.594467163666666,-5.750767866666667,-10.425136087,-4.1206351916666675
149,0.41387233333333334,-28.82968012666667,11.849581720000002,-45.42238873333333,-4.149075110666667,-1.2843657336666667,9.278882503666667,-9.818188984666667,-8.110171954,-1.6432002783333335
150,0.41664999999999996,-28.890382130000003,11.725961366666667,-45.38597613333334,-0.912036799,-0.9693229596666667,12.762134553333333,-8.680884520333334,-15.64227136,-3.7205237546666665
151,0.4194276666666667,-28.939162573333334,11.677520116666665,-45.36696369999999,-4.362826506666667,-0.5239967056666667,8.693998337666667,-6.770700614000002,-6.778427840333333,-1.1845004359999998
152,0.4222053333333333,-28.992225646666668,11.577451706666666,-45.347524033333336,-1.850810776,-0.9459727109999999,10.315701484333333,-7.346364657,-12.243790624666666,-4.017307361
153,0.42498300000000006,-29.020177203333333,11.51179759,-45.32829286666666,-4.66026179,-0.6942907373333335,11.848398687,-4.256134356,-8.597329299333333,-2.1816884676666666
154,0.4277606666666667,-29.0648702,11.46075535,-45.32389323333333,-1.949022214,0.195412375,8.456878662333333,-6.019674300999999,-6.2557606696666666,-2.7042613826666666
155,0.4305383333333333,-29.080759686666667,11.39658165,-45.30294800000001,-4.163343350000001,-0.8906197546666667,11.433798153333333,-2.832746466333333,-8.543982188,-1.8986167013333333
156,0.43331600000000003,-29.076630273333333,11.339510603333332,-45.29211936666667,-1.746606628,-0.22411872433333327,8.134123961333332,-0.3078275323333333,-7.226485093333333,-2.480431636
157,0.43609366666666666,-29.109924953333334,11.300291063333333,-45.27629596666667,-4.567481756,-1.1689540746666667,10.16623656,-4.7668135959999995,-5.630739211999999,-0.9526403843333334
158,0.43887133333333334,-29.110293073333334,11.22886149,-45.24719236666667,-0.397781583,-1.6614487166666667,9.879995981333334,-1.286799431,-9.753522079333333,-1.5070179803333332
159,0.441649,-29.119162876666667,11.202933313333332,-45.25196839999999,-4.912624041333333,-0.530893763,9.281197069666666,-1.3653454086666665,-3.0613749823333336,-2.3044060073333337
160,0.4444266666666667,-29.130212783333334,11.151497206666667,-45.22775266666667,-2.250865022333333,-0.8186972040000001,11.773277757999999,-2.397338827,-7.386850595666668,-0.781054775
161,0.4472043333333333,-29.129051846666666,11.13344002,-45.234074899999996,-2.6920584043333338,-0.9445868133333333,8.962586244999999,-0.16971131133333342,-2.1448337336666667,-2.030410488333333
162,0.44998200000000005,-29.11501121666667,11.105207443333335,-45.2283071,-3.393724084,-0.3577417533333333,10.881977560333333,1.0165989993333333,-3.928856668666667,-1.2597209413333335
163,0.45275966666666667,-29.130062103333334,11.095104536666668,-45.233194966666666,-3.629838387,-1.705091596,11.323494751666667,-2.1234114963333335,-1.3934569953333333,-1.4199123383333332
164,0.4555373333333333,-29.123577753333336,11.075508756666665,-45.22921246666667,-1.692721267333333,-0.5595423083333334,9.125989755333334,0.11251909033333334,-2.9495690959999994,-0.9076618353333333
165,0.45831500000000003,-29.120869956666667,11.050459863333332,-45.2367147,-3.5076654753333334,-1.0016752293333333,9.592468898,0.07030685766666656,-2.8113843676666668,-2.5598394869999996
166,0.46109266666666665,-29.154050190000003,11.03508504,-45.234074899999996,-2.4007742403333334,-2.558088302666667,10.165158589666667,-4.638810237333334,-2.4220694006666665,-0.8405609726666666
167,0.46387033333333333,-29.17522621,11.01758544,-45.23687743333334,-2.2854082586666666,-0.704819858,10.105915227666667,-2.858945409,-2.2885804173333337,-1.5937730273333333
168,0.466648,-29.187885283333333,10.99749851,-45.22880556666667,-2.890529314666667,-0.8819533633333333,9.964198429333335,-2.3426948386666666,-3.228256225666667,-0.5813918513333334
169,0.4694256666666667,-29.224252700000005,10.993424736666666,-45.24453736666666,-3.6308600106666664,-1.5607731143333334,8.040629228,-4.375282923333333,-0.14042989399999994,-2.119573712333333
170,0.4722033333333333,-29.23659897,10.96235752,-45.23430886666667,-2.506050586666667,-0.6563802559999999,13.057874359000001,-2.3288292786666664,-4.505586742999999,-1.0013842383333333
171,0.47498100000000004,-29.27269109,10.96068732,-45.25234986666666,-2.976837118,-0.9563121396666667,7.963262718,-4.320024093,0.24784755733333333,-2.240455627333333
172,0.47775866666666666,-29.316672006666668,10.91775004,-45.25157163333333,-3.0029098986666667,-1.651969393,8.816938400666666,-5.895957628666667,-5.189030846,-2.6956808566666663
173,0.4805363333333333,-29.34998258,10.902094203333334,-45.25499976666666,-1.2365312973333333,-0.9478491343333334,9.726303736,-4.332122644,-2.0541720586666665,-1.584167838
174,0.483314,-29.37964948,10.84509436,-45.24623106666667,-3.228656411,-1.611893177,9.942555108999999,-4.312314510333333,-7.1003474393333335,-2.6959536076666666
175,0.48609166666666664,-29.410724003333332,10.816727956666668,-45.228714000000004,-1.9370255073333336,-1.403471361,11.148649852666667,-4.567611813666667,-4.592005173666666,-0.19551347200000002
176,0.4888693333333333,-29.437263490000003,10.769998546666669,-45.227706899999994,-3.7197957040000005,-0.09963042433333331,10.212309518,-3.788529396,-5.609693527,-2.8352870143333333
177,0.491647,-29.459198633333333,10.729791326666666,-45.20751953333333,-2.4524979593333334,-1.7695817546666668,9.430991646666667,-3.5079719823333337,-5.984745025666666,-0.6269383033333333
178,0.4944246666666667,-29.50306447666667,10.695510231333335,-45.2059021,-3.7478291193333333,-1.6968731483333332,9.122955638666665,-5.900021235333333,-4.324327469,-2.089528203
179,0.4972023333333333,-29.52904701,10.633609453333333,-45.1847636,-1.2370803156666665,-0.4612074996666667,10.784091474666667,-4.005853231,-8.305848120666667,-1.8206301926666668
180,0.49998000000000004,-29.572460813333336,10.612047194666667,-45.18927513333333,-3.9904766083333336,-1.9474984406666664,8.054641882666667,-5.740913868,-2.65444989,-1.9520734646666666
181,0.5027576666666667,-29.592610043333334,10.552503266333334,-45.15227253333334,-1.8745143013333336,-1.6647274493333335,11.678688047333333,-3.600469271,-8.983078796333333,-0.024252434333333312
182,0.5055353333333333,-29.619290033333332,10.568744660333335,-45.1499583,-3.837820053,-0.6272791823333334,11.521084148,-3.9372324946666666,0.8792043526666667,0.9766153183333334
183,0.508313,-29.64708964,10.567529362,-45.1285044,-3.308217287,-1.3006697493333335,7.618199984333333,-4.160413503666667,-1.9983717599999997,1.8674401046666667
184,0.5110906666666667,-29.643862403333333,10.636716525333332,-45.13084410000001,-5.359508991000001,-0.9696189463333335,9.382966518333333,-0.2190870840000001,6.668008963333333,3.652086099
185,0.5138683333333333,-29.65075175,10.751971883333333,-45.127319333333325,-2.7733413776666667,-0.1361945566666666,10.986201286666665,-1.30249693,11.198528926666668,6.906401793
186,0.516646,-29.641040803333336,10.918073653333336,-45.149144500000006,-5.330848137666667,-0.20819734099999998,10.941715238999999,1.0424016713333335,17.960240043333332,7.334254901333334
187,0.5194236666666666,-29.594348906666667,11.124015810000001,-45.155888866666665,-3.9781992833333333,-0.6200755796666666,7.5379021963333335,5.395761570666667,21.26058705333333,11.219732601333334
188,0.5222013333333334,-29.55170568,11.424760183333333,-45.192082766666665,-3.6883122126666663,-0.044060011666666656,9.217197258666667,5.303553104333333,32.83801905333333,13.821747143333333
189,0.524979,-29.50994301,11.745784760000001,-45.24448143333334,-4.744598706666666,-1.3346306086666668,11.849428175333331,5.918330351333334,35.92695363333333,13.367053986666667
190,0.5277566666666667,-29.402640023333333,12.138614016666667,-45.288930266666675,-3.719012022,0.4326687553333333,10.608339307666668,13.402309417333333,43.00352223666667,18.274616876666666
191,0.5305343333333333,-29.271863940000003,12.590275446666666,-45.364064533333334,-3.3566255566666663,0.5108002386666667,6.045394738333333,17.194646836666667,50.944484710000005,18.56355095
192,0.533312,-29.0905234,13.072365123333332,-45.44154356666667,-3.2039144040000003,-0.26085136833333333,11.251616794666667,23.24507459333333,54.37036005666667,19.838865279999997
193,0.5360896666666667,-28.82870992333333,13.561405500000001,-45.50852963333333,-3.5153635739999998,2.8319755393333335,11.6889232,32.90075747,54.512406666666664,21.28642718
194,0.5388673333333334,-28.485099153333334,14.062571206666666,-45.5682119,-1.8661000730000001,0.8361925183333333,5.694757302666666,42.34195582,55.59130604999999,22.18450864
195,0.541645,-28.045459743333335,14.581209503333334,-45.628774,-3.42021811,1.5590559643333333,7.743332544333334,54.157095590000004,57.53012720666667,22.976455686666668
196,0.5444226666666666,-27.51424407666667,15.06238683,-45.65589396666666,-0.47697689166666674,0.96723032,13.113046806333335,64.01130930666666,52.073717753333334,23.491411846666665
197,0.5472003333333334,-26.892878853333333,15.51960818,-45.67274473333333,-4.111286561,1.0507713356666668,6.481897116,74.70977020333333,49.06663640666667,23.072137193333333
198,0.549978,-26.162065506666664,16.02786096,-45.675053933333324,-1.5077039003333332,2.1898819606666664,8.292912325,87.19542694333335,54.17087554666667,26.41419983
199,0.5527556666666666,-25.329423270000003,16.408267976666668,-45.615885399999996,-1.5402284863333335,1.2238571443333333,10.081672987666666,97.51529692999999,37.543628693333325,25.66787783
200,0.5555333333333333,-24.39587084333333,16.928214389999997,-45.58963523333333,-3.848989009666667,1.4355040093333333,9.438887121,110.59894053333333,54.841147106666675,28.365452446666666
201,0.558311,-23.334393180000003,17.319035850000002,-45.47038270000001,-0.45566992,1.1625235673333334,9.297366776333334,122.65990956666667,36.751173656666666,31.09468968666667
202,0.5610886666666667,-22.17411613666667,17.737906140000003,-45.33922323333332,-2.9457774956666665,2.893386205,9.568170707333334,134.05501303333332,40.042077383333336,32.687515260000005
203,0.5638663333333334,-20.89226277666667,18.16455904333333,-45.21208193333333,-3.7908149559999997,1.6489626416666665,9.059385460333333,148.6774953,41.6898524,31.960578283333334
204,0.566644,-19.503040950000003,18.538906100000002,-45.027181000000006,-1.4342867733333335,1.386903008,10.818805058333334,159.14483133333331,34.27221234666667,34.87352879666667
205,0.5694216666666666,-18.060433703333334,18.868617376666666,-44.841649399999994,-2.8810725606666665,0.6458224206666666,8.800639469333333,165.525767,30.069968543333335,32.37956937333333
206,0.5721993333333334,-16.53297869333333,19.228942873333335,-44.6423187,-2.9995030963333336,-0.6868273093333332,9.579003653,174.93187966666667,33.94364420666667,34.05945714666667
207,0.574977,-14.939166386666665,19.51559003,-44.402125033333334,-2.1230559746666664,1.001241962,12.293438276666665,181.19555156666664,25.134576796666668,35.1395874
208,0.5777546666666666,-13.30019824,19.754833223333332,-44.157043466666664,-1.2520132463333333,-0.2082190886666667,10.643190701666667,186.26279196666667,20.45824813666667,33.547173816666664
209,0.5805323333333333,-11.616294543333334,19.99689229333333,-43.90331013333334,-4.141327142666667,-0.9568547206666667,9.544289589,191.28624979999998,21.579992293333333,33.89977137333333
210,0.58331,-9.876020751,20.170984906666664,-43.622329699999995,0.0296471916666667,-0.42613354833333333,12.052363710666668,196.63979593333332,13.987292924666667,34.70326487333333
211,0.5860876666666667,-8.130002975666667,20.260330836666665,-43.31686653333333,-3.5631750026666666,-0.2549867333333334,11.476182778666667,196.4586690333333,4.595119317333333,35.3323555
212,0.5888653333333334,-6.339907487333334,20.431250253333335,-43.020489999999995,-1.7171741030000003,-0.6858718643333334,11.966140112333335,201.9219614333333,15.567722322,35.07583491
213,0.591643,-4.567491531333333,20.40044085,-42.68942010000001,-1.1642008620000002,-2.541095733666667,11.952943167333336,198.36035159999997,-7.820892253333333,36.34114964666667
214,0.5944206666666666,-2.7860251266666665,20.49492073,-42.369094866666664,-4.435997685,0.048385779,12.992795306333333,199.85100303333334,8.385261694666667,36.32886505333334
215,0.5971983333333334,-1.0396418966666667,20.414464313333337,-42.0292562,-0.10502426866666663,-3.4311434426666665,10.242655278666666,194.90054826666665,-11.534821192333332,37.52065277
216,0.599976,0.6942027233333334,20.430149713333336,-41.70171103333334,-4.473890145666666,-1.8718969820000002,14.868525186666666,193.79827880000002,1.159822345,36.48085403333334
217,0.6027536666666666,2.3537985083333335,20.328732173333332,-41.381159466666666,-0.9917209046666667,-2.3622227509999996,9.602738381666667,185.32996113333334,-11.815608341666668,36.01831563333334
218,0.6055313333333333,3.9868572553333337,20.252052943333332,-41.0885824,-4.816672325333333,-2.7713671526666666,14.822308543333333,183.2807312,-7.984588781666666,33.027673719999996
219,0.608309,5.560196241,20.141420999999998,-40.79146323333333,-0.7918090623333334,-2.1648651756666664,11.427269936666667,176.0921529,-11.060684042333333,34.12188720666666
220,0.6110866666666667,7.061875979,19.98726209,-40.55449166666667,-3.3875933486666665,-3.038613796,7.849338690333333,169.89460243333335,-16.057512283333335,28.200248083333335
221,0.6138643333333333,8.490550995,19.802057263333335,-40.31719463333333,-1.2972957293333331,-4.278533617666667,16.130541644999997,161.32151793333335,-19.010010403333336,29.196475983333332
222,0.616642,9.820265451,19.63970756333333,-40.13017526666667,-3.8074300290000003,-3.451462427666667,14.592857360000002,151.51831563333334,-16.484740256666665,23.614741006666666
223,0.6194196666666667,11.056332589999998,19.43461736,-39.95058946666666,-2.205929368666667,-3.17219766,11.243259586666667,140.72405496666667,-21.140560153333332,24.11609586
224,0.6221973333333334,12.18009917,19.280618033333337,-39.79305016666667,-3.697165171,-5.365653038333334,10.632284797999999,128.088267,-15.11345323,20.846054076666665
225,0.624975,13.202073733333334,19.010965346666666,-39.66044873333333,-0.23518741099999993,-4.295834461666667,11.422434013666667,116.9799067,-28.880100886666668,21.433109283333334
226,0.6277526666666667,14.13417371,18.871439616666667,-39.537289933333334,-7.130023002666667,-3.4636716046666667,13.165370465,106.50601196666666,-13.522869746666666,17.412592253333333
227,0.6305303333333333,14.96571477,18.62283198,-39.42345936666667,1.6569049953333332,-4.174527486333333,12.288503605666667,94.95899200333334,-26.24040699,19.65384547
228,0.633308,15.70814578,18.421649300000002,-39.34424336666667,-6.130503495666666,-3.6780634723333336,11.639958064333333,85.53065490333334,-21.446001686666666,14.96409162
229,0.6360856666666667,16.376743953333335,18.22454071,-39.23381803333333,0.42630392300000003,-2.905942758,10.993694622,75.62518564999999,-19.869451843333334,18.28910764
230,0.6388633333333333,16.929243723333332,18.05088043,-39.162546799999994,-6.715224265666667,-4.582140445666667,11.676202138,63.085741680000005,-18.174235026666665,13.641056696666666
231,0.641641,17.4014651,17.847207386666668,-39.05592346666667,1.6774809360000003,-3.3453520933333336,9.778829258666667,52.30985768666667,-20.373062766666667,18.509778339999997
232,0.6444186666666667,17.783606846666668,17.66760063,-39.00469970000001,-7.420457204333334,-3.3711090883333337,12.369340102999999,43.46645736666667,-19.329569816666666,11.937297503333333
233,0.6471963333333334,18.132336933333335,17.55084737333333,-38.87863923333334,0.7459673486666666,-2.936350822666667,10.721178532333333,36.86090469333334,-9.495639958666667,17.704839706666665
234,0.6499739999999999,18.356000266666666,17.361540156666667,-38.85574343333334,-5.323176384,-3.203277508333333,9.344482103999999,25.489849093333333,-21.30374082,9.418504715
235,0.6527516666666667,18.57008934,17.214446703333333,-38.74628193333334,-0.26200270666666664,-2.093617598333333,11.962002115333334,21.370635349999997,-13.385993005666668,17.18535169
236,0.6555293333333333,18.721786499999997,17.162513413333333,-38.669718399999994,-6.481242497666667,-2.653014501,11.803516386666667,14.971792856666667,-3.6263620949999997,10.191569327333333
237,0.658307,18.815998713333332,16.977338793333335,-38.58983356666666,1.5630454816666666,-2.532490889,10.58845202,8.03680865,-18.706445693333333,15.490015983333334
238,0.6610846666666667,18.856608073333334,16.93734550666667,-38.5121638,-6.709275563333333,-3.063185692,9.468282142,1.6545987523333334,-2.1914048193333335,9.890344621333334
239,0.6638623333333333,18.882113773333334,16.839915910000002,-38.385286966666676,-0.08585925899999995,-1.2641397713333336,12.453256290666666,-1.7827085256666664,-6.964734574,17.269178073333332
240,0.66664,18.843662260000002,16.79025618,-38.311228400000005,-4.322061936333333,-2.5868539013333334,9.283144950999999,-7.654653390333333,-3.4428308810000003,9.755998929666667
241,0.6694176666666666,18.79199537,16.661806106666667,-38.22947693333333,0.3733115793333333,-2.6371966603333337,8.286052544999999,-9.456394671,-12.174407006000001,13.567065560000001
242,0.6721953333333334,18.75749906,16.63416894,-38.148646,-5.661523819,-0.5665697106666667,12.036403338666666,-7.364691258666667,-0.7074313760000001,9.679693061666667
243,0.674973,18.71521632,16.53065872,-38.07035320000001,0.05747187133333339,0.013599574666666664,10.497796694666667,-8.188957690333334,-9.488232138,12.188745500000001
244,0.6777506666666667,18.663101833333332,16.495229406666667,-38.011250833333335,-4.4839027719999995,-2.560957551,7.489781459333334,-8.709711233666667,-2.3968692023333333,7.6361039480000015
245,0.6805283333333333,18.601297380000002,16.346447946666668,-37.969802833333326,0.44099704466666684,-0.41174322366666666,12.992483138333334,-9.266781171333333,-16.009569803333335,9.915978115333333
246,0.683306,18.547148386666667,16.329082803333332,-37.92418416666667,-5.7279116310000004,-1.2039600609999999,8.221446990666667,-8.450419268,-0.8468999863333337,5.4921239213333335
247,0.6860836666666666,18.53405316666667,16.21763102,-37.876942933333325,-0.12072209533333329,0.051121629999999994,9.531157176666666,-3.6127177876666665,-11.567818325333334,9.102562585333333
248,0.6888613333333334,18.519795733333336,16.133891743333333,-37.86481729999999,-5.068078478333334,-0.6871108213333333,11.163349152,-2.508227268666667,-9.650787350333333,4.283191442333333
249,0.691639,18.51264445,15.985250473333332,-37.82884723333333,1.704288741,-0.7677996656666667,8.234965326,-2.5127442676666667,-16.21071561,9.276910780666666
250,0.6944166666666667,18.522763566666665,15.912183126666667,-37.853192666666665,-6.363528251666668,-1.1964671416666668,10.213570278666667,1.5820292333333335,-9.730118114333331,0.05099339300000002
251,0.6971943333333334,18.573900856666665,15.728760716666665,-37.82311506666667,1.960112512,-0.09653609999999997,12.059747219999998,4.692671298666667,-20.377799353333334,9.967618308
252,0.6999719999999999,18.619766236666667,15.663636846666668,-37.84940846666666,-7.074142456,-0.4127132559999999,10.76135095,5.944761912,-8.903553008666668,-0.4737141329999999
253,0.7027496666666666,18.706048329999998,15.497997919999998,-37.813552866666676,1.5917737683333335,-0.07229102666666669,10.594503243,8.749198277666666,-18.115947726666665,9.965012549666666
254,0.7055273333333334,18.776485443333335,15.36270682,-37.87777453333333,-5.272154649333333,-1.380755068,10.332903226,10.068093301,-18.30732886,-1.9838658573333332
255,0.7083050000000001,18.851127623333337,15.205766359999998,-37.84636943333334,1.1536549973333334,-1.6783369429999997,9.801352500333332,7.569347222666667,-17.26245689,9.211348692333333
256,0.7110826666666666,18.931812920000002,15.072261173333333,-37.92039236666667,-5.330559651000001,-0.24893498433333336,11.786285877,11.51242987,-18.471228916666664,-3.027565976333333
257,0.7138603333333333,19.051359813333335,14.926963486666665,-37.89070636666666,-2.2378886936666667,0.099487924,10.609706878,13.091070810666666,-15.972438813333332,8.633063474
258,0.716638,19.135104496666667,14.811385153333333,-37.94986980000001,-2.995908499,-1.4418887893333334,8.699265638666667,11.360980032333332,-15.886219026666668,-2.0769605636666664
259,0.7194156666666666,19.215939203333335,14.66830794,-37.959744799999996,-2.396738489666667,-1.5833070276666668,10.293747980333334,9.661732036333333,-17.199120836666665,4.262978951333333
260,0.7221933333333334,19.298198696666663,14.50166575,-38.034439066666664,-0.7683596813333334,-1.2833147046666666,9.720309892666664,11.607118924,-22.28764979,-1.7781537376666667
261,0.724971,19.389085133333335,14.387653349999999,-38.05318703333334,-4.933819254,-0.44961712733333337,10.698483784666669,11.164604503,-14.239999453333335,2.208288669666667
262,0.7277486666666667,19.479378383333334,14.258070313333333,-38.09912873333333,-0.9711104633333334,-0.5205884576666667,11.329009053666667,11.643821716666665,-16.984651246666665,-0.013563235333333404
263,0.7305263333333333,19.56179619,14.167705220000002,-38.131980866666666,-6.464639504666667,-1.1749057373333331,11.401194255000002,10.571522394,-12.105631829000002,-0.26288787499999994
264,0.733304,19.621426263333333,14.047439893333333,-38.15320586666666,1.935181498666667,-1.3950621683333333,8.234888316000001,7.240902265,-14.977765720000003,2.2984082509999997
265,0.7360816666666666,19.66078758333333,13.986863456666667,-38.21668753333333,-7.511977672666666,-2.907043814666667,9.868933042,6.2511598269999995,-9.943951448666668,-4.787826836
266,0.7388593333333334,19.72080739333333,13.892190936666665,-38.20033013333333,2.0626744526666667,0.10335697699999997,11.321069718333332,6.209647019666666,-10.591906868,5.481033106000001
267,0.741637,19.752390543333334,13.881107646666669,-38.258412633333336,-8.438255787333333,-0.9448285203333332,11.372362297333334,5.130929747,-4.154766361666667,-6.2138187883333345
268,0.7444146666666667,19.797988253333333,13.810506503333334,-38.21674856666666,2.631487171,-0.8985350329999999,7.906933564333333,3.819138606333333,-6.8711732229999996,7.2607784273333325
269,0.7471923333333333,19.815886813333336,13.764742533333333,-38.307484933333335,-6.993850549333334,-1.7568101289999998,9.830307960333334,4.357899507,-9.369320234999998,-8.382711569
270,0.7499699999999999,19.851621626666667,13.681139626666665,-38.26505023333333,2.183447376,-0.510391116,11.921387989666668,2.6301723123333334,-8.284540651666667,7.942057452
271,0.7527476666666666,19.85987536,13.682505606666666,-38.355242366666666,-7.512641271,-1.74179552,8.976995944333334,3.151144624,-4.0417730013333335,-10.244200705999999
272,0.7555253333333334,19.896985373333333,13.623530389999999,-38.284337366666676,2.2575054813333337,0.30333597500000004,10.638325533666666,2.0916628840000002,-4.400713642333333,9.960536163666665
273,0.7583030000000001,19.902580896666667,13.56698386,-38.41049703333333,-5.456888437333333,-1.8751536606666666,11.443055787333334,3.74671038,-12.021011987666666,-11.853972272999998
274,0.7610806666666666,19.945176443333335,13.473683676666667,-38.3463923,0.035565922666666694,0.12968109299999994,11.990842182,3.022556881,-8.499495506333334,10.724455615333333
275,0.7638583333333333,19.94295501666667,13.447362900000002,-38.45038603333334,-4.997119108666666,-1.0020673073333333,9.632086437333333,2.1066004933333335,-7.7445513413333344,-10.661607942000002
276,0.766636,19.982568739999998,13.419089953333334,-38.38304643333334,-3.0322736303333335,-0.648033629,8.123247307,2.6393296716666668,-1.0198737096666666,8.462347187333334
277,0.7694136666666668,19.987482070000002,13.375892640000002,-38.477742500000005,-0.9858473143333333,-1.7494722403333334,11.190634568,2.623436133333333,-9.286387442,-8.975111961
278,0.7721913333333333,20.006950376666666,13.303501763333335,-38.4482193,-3.613084671333333,-0.6690554223333333,9.565206208,1.332986514,-7.521609942,6.058054923333333
279,0.774969,20.010524750000002,13.26583322,-38.524096166666666,-0.37266230233333336,-0.07929083700000002,9.642706870666666,1.9040813246666666,-7.915670870666666,-7.121472042000001
280,0.7777466666666667,20.047192253333332,13.223425863333333,-38.506767266666664,-7.0313754059999996,-0.8942687313333332,10.999641257999999,3.7475043140000004,-4.597755760000001,3.6039667110000004
281,0.7805243333333333,20.0605011,13.217169126666667,-38.54046373333333,1.1356589000000001,-0.8077417216666666,13.096400896333334,1.8755300243333333,-2.6916126410000003,-3.8064762756666677
282,0.7833019999999999,20.065163296666668,13.170463243333336,-38.564765933333334,-6.609100657999999,-1.3446598103333331,9.101692198666667,1.068331917,-6.767444292666667,-0.8655834193333339
283,0.7860796666666667,20.061859766666668,13.153164859999999,-38.571667966666666,3.1699945130000002,-0.8766844073333333,7.903230031333334,-0.821136872,-2.8539213340000003,-0.3993555690000002
284,0.7888573333333334,20.05877431,13.160439806666666,-38.62426503333334,-8.535362760333333,-1.6845715840000002,10.780301887666667,0.8789524136666668,-1.8359134196666667,-6.1900436889999995
285,0.791635,20.09320513333333,13.16473325,-38.58700816666667,2.0053329466666665,0.916800802,12.82569949,2.575170179,1.357204338,3.5686437306666665
286,0.7944126666666667,20.10140228666667,13.178313253333334,-38.66018676666666,-7.136738976666666,-0.7044672766666666,9.942535876666666,2.728471458,-1.9784050583333335,-8.785000484
287,0.7971903333333333,20.113452910000003,13.150556246666667,-38.62550863333333,2.437669754,-0.9475362053333334,7.663078308,0.037845214333333356,-2.3451670009999996,4.6096192
288,0.7999679999999999,20.09285482,13.137515386666665,-38.72072853333333,-6.058192571666666,-1.3853902966666667,10.700902622666666,-0.23256439966666664,-5.844294727333334,-10.010847410666665
289,0.8027456666666667,20.115481696666667,13.124608359999998,-38.6695455,0.004955361333333445,-0.20428152866666668,11.751593593333332,0.8987778623333332,-0.005707681333333344,5.844361782
290,0.8055233333333334,20.093863166666665,13.113093376666667,-38.76157886666667,-4.607214133,-1.9682089883333334,9.517876943333333,-0.4372308653333334,-5.606470267,-9.921581268666666
291,0.808301,20.04479917333333,13.065175056666666,-38.73656209999999,0.7887246213333334,-1.5762815473333334,10.024805863666666,-6.931203683666666,-4.997768999333334,4.404423316333333
292,0.8110786666666666,19.929295223333334,13.018615403333333,-38.8708115,-3.4504302940000002,-2.283531824666667,11.591572283666666,-10.618598938,-11.202305635333333,-13.045967101333334
293,0.8138563333333333,19.814513523333336,12.982602753333333,-38.8778534,-2.9329759679999996,-0.9790576546666667,11.650167308333332,-13.913013456666667,-4.943941036999999,0.41627446799999984
294,0.816634,19.61050924,12.953602473333333,-39.003776566666666,-1.8687308233333333,-2.854801972666667,9.247409262666666,-21.457194646666665,-8.827831785333332,-12.934454917666665
295,0.8194116666666668,19.359998063333332,12.852892876666667,-39.089416500000006,-1.3399302563333333,-1.8123490413333334,10.184328080333332,-28.130793253333334,-15.33456548,-5.69706424
296,0.8221893333333333,19.038548786666667,12.79038302,-39.24306996666667,-4.245678583666667,-2.9734663166666664,13.278297782333334,-34.87461598666666,-13.54394754,-14.591416676666668
297,0.824967,18.642057416666663,12.743723553333334,-39.3336843,-0.9913993576666664,-2.2369230983333335,10.263866267333334,-45.52636337333333,-9.32247448,-8.543552557666667
298,0.8277446666666667,18.130626680000002,12.600224813333332,-39.54785663333333,-2.4145127140000002,-4.326526800666667,9.699071965,-56.130495706666665,-24.82429567666667,-18.526202516666668
299,0.8305223333333333,17.54885864,12.550772666666667,-39.65741473333333,-3.1780064306666667,-2.0284280776666668,14.881507079,-67.30702209333333,-10.180626076000001,-10.654968581
300,0.8332999999999999,16.84881083333333,12.485895473333334,-39.845280966666664,-2.978850365,-3.895169258333333,8.324797948333334,-79.47427877,-14.495579082666666,-18.8642718
301,0.8360776666666667,16.08434296,12.321861263333334,-40.01216376666667,-0.4073545136666666,-1.7726433276666667,11.503865562000001,-87.86106618333334,-25.028415043333336,-13.446686106666666
302,0.8388553333333334,15.251372976666667,12.362018586666666,-40.165890999999995,-6.303799311333333,-3.20142893,10.512606303,-96.33198549000001,-0.7867271106666666,-18.761330283333333
303,0.841633,14.30010732,12.182871816666667,-40.349321999999994,2.3362150193333333,-4.429356575,9.957161504666667,-109.9073766,-26.879510876666668,-15.633162816666664
304,0.8444106666666666,13.25788371,12.15977605,-40.51269023333333,-7.5459906263333325,-1.5830070973333337,16.187413015666667,-121.28298696666666,-7.814492026333333,-17.955446879999997
305,0.8471883333333333,12.109182673333335,12.110109646666666,-40.66698453333334,1.1804098286666667,-4.162332852666666,7.381210803999999,-134.35997516666666,-10.399042130666666,-16.728050550000003
306,0.8499660000000001,10.85924816,11.939261753333334,-40.85295613333334,-4.705100953333333,-2.4116985796666666,12.502579293333332,-145.68233743333334,-24.98556995333333,-17.252267836666665
307,0.8527436666666667,9.545133909666665,11.989134470000002,-40.98694356666667,-1.7456399996666665,-2.256199598333333,9.305200975666667,-154.77505493333334,2.4834661456666676,-16.903118770000003
308,0.8555213333333334,8.127015908666666,11.760565759999999,-41.18204496666666,-1.587874651,-3.6149934133333335,4.873889962,-165.709788,-31.19462649333333,-18.44404475
309,0.858299,6.678405444,11.825407666666665,-41.31953176666667,-6.104968984666667,-0.912013928,19.370793026666668,-170.8531697666667,5.036832652,-17.25570424333333
310,0.8610766666666666,5.114553610333334,11.590591113333334,-41.4940338,2.808148701999999,-2.0461774666666668,4.828321299,-183.7742869,-30.729112623333332,-17.64978409
311,0.8638543333333333,3.5487562816666665,11.629565556666668,-41.64886473333333,-9.060138704333333,-2.0083732409999997,10.666688084333332,-184.55410766666668,2.683483123333333,-18.67179235
312,0.8666320000000001,1.894077738,11.452798206666666,-41.81775666666666,4.958226402333333,-1.7321244479999998,10.798101979999998,-194.86004133333336,-22.72500276566667,-18.97720146
313,0.8694096666666667,0.20314134666666664,11.407955489999999,-42.004328433333335,-10.689884824333333,-1.6985996563333332,15.356983189,-198.9091339,-6.404210407000001,-21.958730063333334
314,0.8721873333333333,-1.5399036013333334,11.324232736666668,-42.160878499999995,4.69860812,-1.0003497203333334,2.211192129666667,-205.7155355,-10.416919073333332,-19.04534022
315,0.874965,-3.294079780666667,11.174304643333334,-42.36205546666667,-8.440593403,-0.9664044826666668,13.829556226,-206.24225363333335,-17.610193628666668,-24.51474635
316,0.8777426666666667,-5.03039217,11.195949236666666,-42.5150884,2.6086215576666665,-0.16140019933333338,14.244924464666667,-205.1303151666667,3.2847688589999997,-17.943924586666665
317,0.8805203333333332,-6.801378886333333,10.877550759333333,-42.68263243333334,-5.541768947333334,1.0226327876666665,9.915718713333332,-209.11197916666666,-36.601329803333336,-23.787599563333334
318,0.883298,-8.548290888333334,10.954433441666666,-42.8221156,-0.8769138656666667,1.4255148173333332,7.081409891333332,-206.7608693666667,10.733677863333334,-15.2315375
319,0.8860756666666667,-10.281696636666666,10.667130788,-42.97900896666667,-2.546577096,-2.1679656106666667,6.762437818333333,-204.96377056666668,-31.625712713333332,-24.27665837666667
320,0.8888533333333334,-11.927054083333331,10.591170946,-43.0888977,-2.3299936456666663,3.0782941976666667,14.966087184666668,-195.2286122666667,-7.032026410666667,-14.477259633333333
321,0.891631,-13.52645302,10.422912914666666,-43.250671399999995,-3.2563278673333333,2.4163276753333336,15.10993703,-188.94847613333332,-16.160412472333334,-23.482544259999997
322,0.8944086666666666,-15.084679286666669,10.190441130333333,-43.32531230000001,1.2709624566666666,1.0748127600000001,7.659490903333334,-185.63517763333334,-25.468446733333337,-15.494258243333334
323,0.8971863333333333,-16.609932263333334,9.993280728999999,-43.44130959999999,-4.686483701,1.0679514206666667,4.023566981333333,-181.14870706666667,-19.67324860966667,-20.001574199999997
324,0.8999640000000001,-18.035481136666668,9.790876390333333,-43.51965333333334,-2.366910736,1.1378333569999999,10.688201268333335,-169.67927039999998,-21.034135503333335,-16.183435123333336
325,0.9027416666666667,-19.349827449999996,9.589901289666667,-43.58520000000001,-3.31137981,2.0514579413333336,14.631000201666666,-156.93163553333332,-21.00488217666667,-15.446107545666665
326,0.9055193333333333,-20.595546083333335,9.324499131666668,-43.62357583333334,0.238329987,4.034048914666667,12.31854423,-149.02492273333334,-29.035502750000003,-15.249568303333334
327,0.908297,-21.751330693333333,9.068858464,-43.620803800000004,-2.6457633176666664,2.530067285,8.946850937,-139.23730723333333,-29.35586802333333,-11.086102486333331
328,0.9110746666666666,-22.809987383333333,8.803532442333333,-43.62897236666666,-1.065674265,1.8651443326666666,8.192736784333333,-127.20596316666668,-29.767377853333333,-13.058558463333332
329,0.9138523333333333,-23.75342433,8.583891550333334,-43.61051433333333,-4.445340315666666,3.258777538666667,7.0480559666666664,-113.99844613333333,-25.695247016666666,-8.695784251666666
330,0.9166300000000001,-24.560729343333332,8.324931939333332,-43.574747699999996,-0.9453511433333333,1.9287092686666665,11.420010248333334,-97.86268360999999,-30.76027171,-9.016375541666667
331,0.9194076666666667,-25.28677495333333,8.113516171333332,-43.5341797,-5.047391494333334,3.0222533143333337,11.689897694333332,-88.27258046333334,-25.65449778,-6.624731064
332,0.9221853333333333,-25.933663686666666,7.875555833,-43.48346966666667,-0.9225096703333334,1.7894397976666665,11.556790828666665,-78.85173034333333,-29.0629158,-7.0052421890000005
333,0.924963,-26.481184006666666,7.6609292033333345,-43.43263756666666,-3.4420647619999998,2.659131089666667,9.343479951333334,-66.98968633,-26.39190546333333,-6.287645658
334,0.9277406666666667,-26.939857483333338,7.4063692093333335,-43.35411073333333,-0.7267187436666666,2.8244154456666664,10.409428597666667,-56.619925179999996,-32.169403073333335,-5.525091648333333
335,0.9305183333333332,-27.30766995666667,7.182392120666667,-43.2905426,-4.493884961,1.7021130720000002,10.586470284999999,-45.57144546666667,-27.98721122666667,-5.846698840666666
336,0.933296,-27.613835653333336,6.964614709333333,-43.21764629999999,-1.754118522,1.5037744443333334,7.9788163506666665,-38.142419176666664,-27.864227296666666,-4.510427077666667
337,0.9360736666666667,-27.848334633333337,6.761592864666667,-43.15956116666666,-2.9718311626666662,0.9794973926666667,8.744557379333331,-29.44765345,-25.399872463333335,-5.541156093333334
338,0.9388513333333334,-28.01676051,6.5503155390000005,-43.113983166666664,-2.489544153,0.8817936676666666,11.484705607,-21.201030093333333,-25.61046600333334,-7.290574232666667
339,0.9416289999999999,-28.114524203333332,6.371110280333333,-43.050704966666665,-3.1703709759999996,1.7988333306666666,12.370734216666667,-13.004273733,-23.13648732333333,-3.761166652
340,0.9444066666666666,-28.173538206666667,6.161209742333334,-43.0147934,-2.338754097666667,1.4326384763333335,13.38259411,-7.962579169333332,-24.905979156666664,-8.325412591333333
341,0.9471843333333334,-28.19907252333333,6.007575988666666,-42.96229553333334,-3.56789875,0.8479122023333333,8.611891586666667,-4.154476563,-19.82079379,-3.5010701016666665
342,0.9499620000000001,-28.197513580000003,5.838671207333333,-42.93552906666667,-2.834048112,-0.3144843580000001,8.102483112333333,-0.5742586850000001,-20.060995736666666,-6.956081867333334
343,0.9527396666666667,-28.137601216666667,5.707732677666667,-42.9043579,-2.8755949336666666,-0.13818157733333333,12.846940676333332,6.428917884666667,-16.218436876666665,-4.433043877666667
344,0.9555173333333333,-28.063659666666666,5.554110209333333,-42.8818461,-2.588729779,0.23127883200000002,13.104228972333333,8.182811895,-18.202442169999998,-6.541583379333333
345,0.958295,-28.00919469333333,5.457101822000001,-42.87258403333334,-3.70637544,-0.7688456773333333,8.985614935666666,6.021310964,-11.407511076666665,-4.805739879333333
346,0.9610726666666666,-27.936370216666663,5.349391301333333,-42.882522599999994,-2.9315715630000003,0.009578946000000014,9.660267193666664,8.407234034333333,-11.525729495333335,-7.347730954333334
347,0.9638503333333334,-27.844632466666667,5.2584400176666675,-42.88186646666666,-3.3240567050000003,-0.5761106806666666,14.468118985333334,10.64438216,-10.295887311666668,-5.332453409666667
348,0.966628,-27.772678376666665,5.179714521,-42.90325419999999,-2.6225245,-0.2731403163333333,9.866345086333334,8.390456675666668,-7.850623607,-6.892872333333333
349,0.9694056666666667,-27.717720666666665,5.129296143666667,-42.943684899999994,-3.5483661493333334,-0.35988243433333333,7.825715224,6.624507586333333,-3.721266428333333,-7.405114491666667
350,0.9721833333333333,-27.657750446666665,5.040554682333334,-42.9666977,-2.3647385836666666,-1.6268814803333331,11.840548196,7.037990570000001,-8.824007591333332,-7.604615847000001
351,0.974961,-27.61300023,4.970646381666667,-42.992551133333336,-1.9428147673333334,-0.34919025133333337,11.146207490666667,5.226303498,-6.611158370999999,-6.965642452333334
352,0.9777386666666666,-27.592725116666667,4.891815185666667,-43.03852333333333,-2.172639151333333,-1.5924728713333334,11.422856333333334,2.4278455969999997,-6.514251868,-9.499812760666666
353,0.9805163333333334,-27.585417426666666,4.847400347333333,-43.06609853333333,-3.2916430633333333,-0.3645083706666667,11.538292567333334,0.8105840286666665,-3.805972338,-5.666488091666667
354,0.983294,-27.609853106666666,4.784065564333333,-43.10825856666667,-2.549500227,-1.3025936686666666,10.648488837,-3.01865081,-5.089510281666667,-8.212654114666668
355,0.9860716666666667,-27.648760480000004,4.774831295333333,-43.15579733333334,-4.769446373,-1.122036571,9.375254791000001,-4.566723426333333,1.0419061183333334,-5.860652287000001
356,0.9888493333333334,-27.707222623333333,4.738496065333333,-43.1811371,0.061441461333333315,-1.2083531196666666,12.497922103,-7.236350695333333,-3.1094274619999998,-4.997990628
357,0.9916269999999999,-27.790974296666665,4.693899234,-43.21200563333333,-4.065248966,-1.2850981353333333,11.78374799,-10.146316529333333,-3.631215334,-6.071953296666667
358,0.9944046666666666,-27.90556462666667,4.722695350666666,-43.248703,-1.988782803,-0.928742831,7.628078859333333,-13.894645689999999,4.415707412,-2.4873862066666668
359,0.9971823333333334,-28.032191593333334,4.734906196666667,-43.29044593333333,-3.958547473,-1.182402715,10.216089248000001,-15.167450269999998,3.0201750483333334,-4.004970074
360,0.9999600000000001,-28.15522066666667,4.746540546666667,-43.32000729999999,-2.3705413940000004,-0.7215409749999999,11.481025536666666,-14.927120526666668,2.234569400666667,-2.7361770073333336
361,1.0027376666666667,-28.28661156,4.720498959333334,-43.341491733333335,-1.559587091,-1.7896896203333335,8.652414004,-15.943256696666667,-2.149530093,-4.076578855666667
362,1.0055153333333333,-28.462063473333334,4.723627806,-43.38028459999999,-2.3628808656666664,-0.14779160433333333,11.241514046333334,-21.15639813333333,1.849728306,-4.124273697666667
363,1.0082929999999999,-28.620772043333332,4.765002568666667,-43.44106036666667,-4.528051296666667,-1.2663894296666667,10.410843532,-18.824160889999998,7.218666235333333,-4.288170496666667
364,1.0110706666666667,-28.764823279999998,4.782856702666667,-43.47608946666667,-1.04660665,0.20735287133333333,9.719794592666666,-17.400211016666663,3.2070269190000005,-2.9016199510000003
365,1.0138483333333335,-28.931497573333335,4.790099462,-43.50730896666666,-2.765432914,-0.6986716983333334,10.297042209333334,-20.13178444,1.9491714636666664,-3.1781258586666663
366,1.016626,-29.091035843333334,4.8038999239999995,-43.525548333333326,-0.49762245,-1.7884255646666667,10.767299013666667,-19.460723876666666,1.8256893019999998,-1.371053606
367,1.0194036666666666,-29.23990758333333,4.788804372333334,-43.53375753333333,-4.256446361666667,0.4643221596666667,11.787406683333332,-18.157231646666666,-1.7194973826666669,-2.006999592
368,1.0221813333333334,-29.40513547,4.821206569666667,-43.545791633333344,-2.3521256446666667,0.23403721800000002,9.980026407,-20.22678693,3.420001467,0.36260356499999996
369,1.024959,-29.54130172666667,4.834910710666667,-43.5678355,-3.4406943319999996,-1.3691223153333334,8.657967328666667,-16.53348478,2.1114417116666666,-1.799541275
370,1.0277366666666665,-29.662052156666665,4.841532707,-43.566670733333325,-1.2854931453333334,0.250977695,12.2021246,-14.952078186666668,-0.06517970566666668,0.282516594
371,1.0305143333333333,-29.798609416666668,4.829843362,-43.571375499999995,-3.3967430593333336,-0.7408536723333334,8.475119431333333,-16.78206316666667,-1.555970649,-1.5085806846666667
372,1.033292,-29.900404613333333,4.847884813666666,-43.584376,-0.9858233956666668,-0.5106021166666667,8.189419589,-12.55021318,1.986674721,-0.548157533
373,1.0360696666666667,-29.96053632,4.847200552333334,-43.5890147,-4.532323916666667,0.5519268416666667,14.178253175333333,-7.562966665,-0.40820111833333333,-0.7957276553333333
374,1.0388473333333332,-30.03026008666667,4.870549678666667,-43.59917703333334,-1.6167426953333333,-0.5499904243333333,10.674576441,-8.763838686,2.3449319996666667,0.08209361633333334
375,1.041625,-30.081558866666665,4.872160752666666,-43.605234766666676,-3.5366013446666664,-0.45491229466666666,6.532336235,-6.527561505666667,-0.08464201300000014,-0.8495857516666666
376,1.0444026666666668,-30.121255876666666,4.859910647,-43.603220666666665,-0.7031250346666668,-1.183658282,14.578195253333334,-5.254867235666667,-2.0952017306666666,-0.7480595096666667
377,1.0471803333333334,-30.171604159999998,4.829842567333333,-43.59133403333334,-3.5506816703333333,-0.8152696389999999,9.215368906666667,-6.606838445,-4.448010384666667,-0.9119564889999999
378,1.049958,-30.231156666666664,4.810066382,-43.58907573333334,-0.7418280843333332,-1.28752174,8.440914311333335,-7.662417729999999,-2.904547562,-1.1575841443333335
379,1.0527356666666667,-30.27071762,4.786643346,-43.5807139,-5.580865462666666,-0.47413268666666664,14.004765352666666,-5.225521723333333,-3.5454072950000004,-0.8377691110000001
380,1.0555133333333333,-30.31419372666667,4.796870072666667,-43.580398566666666,-0.6064813039999999,-0.2390259876666667,10.025263468666667,-5.752727111,0.3004122973333332,0.45530578966666674
381,1.0582909999999999,-30.36144828666667,4.8051238063333335,-43.5941976,-5.1280047096666665,-0.26549290866666664,7.474435330333333,-5.959916433,1.0709356466666666,-1.22688361
382,1.0610686666666667,-30.386003493333334,4.796211878666667,-43.577362066666666,-0.4195485809999999,-1.4798263313333333,10.606509366,-3.5754953223333334,-2.680759986,1.0313742356666666
383,1.0638463333333334,-30.41312345,4.7970172563333335,-43.557235733333336,-2.9417316116666665,-0.5510980886666667,11.536827723333333,-3.9148716480000005,-1.747924288,1.7892314000000002
384,1.066624,-30.444906873333334,4.801897684666667,-43.555892933333325,-1.3306899726666668,-0.87912785,9.236900805,-4.329160134,-0.3593590260000001,0.34709850933333336
385,1.0694016666666666,-30.462153116666666,4.809887250333333,-43.526992799999995,-4.825275262,-0.9416229723333333,11.541324854,-2.7454963103333334,-1.537767748,3.1738343836666663
386,1.0721793333333334,-30.49805832,4.837165196666667,-43.52803036666666,-0.708911126,-0.5980170566666666,12.008452733333334,-4.846841017666667,2.0958933036666667,1.4477293789999999
387,1.074957,-30.516332626666667,4.8828398386666665,-43.536402366666664,-5.7941559153333335,-0.3625850626666667,10.887624424,-2.512017846,4.614557822666666,1.6245145003333334
388,1.0777346666666667,-30.541266760000003,4.925989787,-43.53671773333334,-0.854795863,-0.741000692,8.640898227666668,-3.5068366133333337,3.67663304,2.5069421133333334
389,1.0805123333333333,-30.594702403333333,4.987174034333333,-43.558319100000006,-3.7866913476666664,-1.789483030666667,9.062792459666667,-6.6418015163333335,7.018727302666666,1.2024988033333333
390,1.08329,-30.61762428333333,5.005432605666667,-43.56140643333333,-1.1419081886666669,-1.3839054903333334,12.608955700000001,-3.212610165333333,1.2670209803333332,0.7284902283333333
391,1.0860676666666667,-30.64492352666667,5.0793135959999995,-43.5761312,-3.783550501,-0.032341599666666665,10.646677972333334,-3.579828739,7.912997940666667,2.6723418233333334
392,1.0888453333333332,-30.68953704666667,5.127149899666666,-43.598820999999994,-1.4592525016666666,-1.4663608869999998,10.000855447000001,-5.606615066333333,5.521251728999999,0.5433590613333332
393,1.091623,-30.720071156666666,5.189925193666666,-43.61299640000001,-4.873030344666667,-0.7596495750000001,12.312295276999999,-3.955068535666667,6.725816011666667,2.0714191200000003
394,1.0944006666666668,-30.744884490000004,5.264524777666666,-43.644210833333325,-1.3282380796666668,-0.42991005400000004,8.565663655333333,-3.171875119333333,8.781312306666667,1.30858016
395,1.0971783333333334,-30.78230603333333,5.3319389023333335,-43.67000326666667,-3.9479995569999997,-1.0579870343333333,10.410932223333333,-4.610874057,7.915354252,1.1815419096666666
396,1.099956,-30.822029113333333,5.3970395726666665,-43.69034323333333,-1.2734374106666666,-1.0146828890000001,8.023400148666667,-5.105442365333333,7.142470359333333,1.8222309746666667
397,1.1027336666666667,-30.84796588,5.471597194666667,-43.73288976666666,-2.815361380666667,-1.1212147473333334,9.159055233666665,-3.0121191343333336,9.668512183999999,-0.057717362999999966
398,1.1055113333333333,-30.846342086666667,5.513990242999999,-43.72993976666667,-2.4317281743333337,-0.8471769490000001,14.249852501000001,-0.3845637690000001,3.380097369333333,2.8156191506666666
399,1.1082889999999999,-30.884167986666668,5.616057554666667,-43.78505453333333,-2.697541832666667,-0.737307002,8.743929229,-4.315601944666667,13.273836457,0.35303676633333336
400,1.1110666666666666,-30.890804293333332,5.669325351666667,-43.7836609,-3.120155334333333,-0.6156472313333333,11.052097477333334,-1.3649738633333335,4.580346266333334,3.3696724573333334
401,1.1138443333333334,-30.900067646666667,5.779866695333333,-43.839197766666665,-3.5663777986666667,-1.0221318883333332,10.790849686666666,-0.8664912576666666,14.169937766666669,0.8061654983333333
402,1.116622,-30.90394465333333,5.888171037,-43.84739683333333,-2.4725637833333334,-0.627500544,10.104682604666666,-0.9104496236666667,10.834251084333333,5.7811848323333335
403,1.1193996666666666,-30.89581998,6.013342062666666,-43.88191223333333,-2.9048158726666666,-0.5436842836666668,7.712299188,0.9561453263333334,14.38298448,3.8556005160000004
404,1.1221773333333334,-30.84882036666667,6.177874247333333,-43.90086366666666,-3.5726874669999997,-0.239514927,10.078048228666667,5.330418586666667,17.300184883333333,8.111236890333334
405,1.124955,-30.741137186666666,6.348042488,-43.91605123333334,-1.9813964166666667,0.7606540766666666,12.867603620000002,12.739732424666668,17.85303783666667,8.600445111666666
406,1.1277326666666667,-30.59096336333333,6.5371373493333325,-43.91838580000001,-2.7684443793333333,1.1792531806666666,7.322779179,17.43795267666667,18.875551859999998,11.186794278999999
407,1.1305103333333333,-30.347114563333335,6.754149913666666,-43.9352366,-2.330233176666667,1.1794526676666666,9.701646963666667,29.096364976666667,22.845347723333333,11.170134226666667
408,1.133288,-30.01551628333333,6.971468925666667,-43.91496276666667,-3.5452745753333335,1.6489170690000001,10.232691448,38.967904409999996,20.546770096666666,15.09386476
409,1.1360656666666666,-29.59006309666667,7.187956969000001,-43.898564633333336,-0.26964149866666665,1.14312619,9.235581715666667,50.36190923,20.95737902333333,14.26683013
410,1.1388433333333332,-29.098671593333336,7.411957264333334,-43.88038633333333,-4.774246057,1.979145924,9.036794662333334,58.13994852666667,21.597632723333334,14.929207483333334
411,1.141621,-28.47687594,7.610856533333333,-43.836847966666674,-0.270959119,1.6504340173333334,11.176135858999999,73.51537831666667,17.81093629,15.706536293333334
412,1.1443986666666668,-27.758944193333335,7.800001939,-43.79318236666666,-4.913354556,2.5419766503333334,9.701091923666667,84.89135233666667,16.836310066666666,15.0866216
413,1.1471763333333334,-26.947127660000003,8.000354767,-43.740610800000006,-0.9653498429999999,1.7745467823333332,10.303521791666668,96.13022103333333,17.86979579666667,16.26060327
414,1.149954,-26.0624911,8.181121031333333,-43.68314106666667,-4.149580558333334,0.43071588866666666,8.533417066333334,104.6271718,15.654623033333332,15.568874039999999
415,1.1527316666666667,-25.056231816666667,8.376228650333333,-43.62905883333334,-1.0834885636666667,1.9874978066666669,11.998314062666665,119.40357463333333,17.73585542,15.559105236666667
416,1.1555093333333333,-23.975282033333333,8.526418685333333,-43.54706826666666,-4.02189223,1.781584819,8.777031420666667,127.73659263333336,11.657406486666666,16.072297733333333
417,1.158287,-22.771963753333335,8.722202301666668,-43.456471766666674,-1.0105669596666667,1.3479580086666667,11.576315243000002,142.31739296666663,16.69690196,18.8561821
418,1.1610646666666666,-21.49869855333333,8.867744288333334,-43.35943096666667,-4.665990670666667,1.381942386333333,9.202771662333335,150.46855163333333,11.187630335666668,16.879467646666665
419,1.1638423333333334,-20.10654259,9.068031946,-43.24224346666667,-0.9450179236666667,2.5466082096666667,11.127480822999999,164.48871866666667,16.91802788,21.192864099999998
420,1.16662,-18.63801511,9.194211642666666,-43.116984033333345,-2.856825828666667,1.420375804,7.734989484,173.28043619999997,8.753197987333333,18.535421369999998
421,1.1693976666666666,-17.014849343333335,9.363244376333334,-42.967404666666674,-1.9956065216666667,1.628490249333333,12.40152486,191.51032003333333,13.265288033333334,22.745274223333336
422,1.1721753333333333,-15.351563136666668,9.478071529333334,-42.8166224,-2.936899900666667,1.2960738539999999,10.405018328,196.0777283,7.654581229000001,20.473605473333333
423,1.1749530000000001,-13.620869319999999,9.621669133333333,-42.66346483333333,-1.9714945156666666,0.7285854966666667,13.415984791666668,204.24026996666666,11.531999906666668,21.534860613333336
424,1.1777306666666667,-11.844521843333334,9.725436211,-42.4993617,-2.805210351666666,-0.009600346333333324,8.916519164999999,209.36501566666666,7.280316351333333,21.000136056666665
425,1.1805083333333333,-10.015744845333334,9.786911327666667,-42.306755100000004,-0.6688655813333334,-0.41530559966666664,12.81144142,215.12725323333333,2.314217408333333,23.428813933333334
426,1.183286,-8.156840801333333,9.846751532333334,-42.13301343333334,-3.2863651116666666,0.5614426533333334,14.330705963333335,218.97575376666668,3.2159527936666663,20.919638950000003
427,1.1860636666666666,-6.327860673333333,9.901881854333334,-41.93868763333334,-3.038127025,-1.866355181,8.664978663333335,215.11028033333332,3.0430883566666664,23.30537351
428,1.1888413333333332,-4.504629453000001,9.914117814333332,-41.751836133333335,-0.23338017866666658,-1.9103957016666666,10.327318192,214.406484,-1.2552885140000003,21.582189560000003
429,1.191619,-2.672348896666666,9.897321063666668,-41.588506066666675,-2.8933703106666666,-1.2449026503333334,15.394788106666667,216.10243223333336,-3.8393243746666665,18.813991546666667
430,1.1943966666666668,-0.879146248,9.89476967,-41.4146525,-2.069135586333333,-1.3635005853333333,14.19637267,211.13139343333333,-1.604212046,20.010231656666665
431,1.1971743333333333,0.8598471656666667,9.861907957333335,-41.268803899999995,-2.6907259326666666,-1.5610049566666666,9.357516129666667,205.25181576666668,-4.554037968333334,16.920748393333334
432,1.199952,2.5382522743333333,9.844840685666668,-41.128891,-3.348647992,-2.4159266153333334,9.173113821333333,198.09207153333332,-2.233125369,15.99090958
433,1.2027296666666667,4.181075493666667,9.785675684666666,-41.01100923333333,-1.6741363406666665,-3.3293557963333336,12.457416536666665,194.28959656666666,-6.875748317666667,13.981602986666667
434,1.2055073333333333,5.7641221683333335,9.766718546999998,-40.890213,-3.910362084333333,-2.8661196233333333,14.165860494333335,187.06622313333332,-1.713910719,13.921615283333333
435,1.208285,7.245846907333333,9.713278135666668,-40.77221426666667,0.3716098666666667,-2.639827529333333,12.732143082333332,174.96037803333334,-5.392183740999999,14.246016183333333
436,1.2110626666666666,8.632512251666666,9.670462924666667,-40.69175973333333,-4.643793662666667,-4.384260336333334,11.636134626999999,164.28397623333333,-4.427775184333334,9.911870319666667
437,1.2138403333333334,9.946526846666666,9.634454727666666,-40.5705185,-0.421414251,-2.4374156793333337,11.795636811333333,154.8197225,-2.561000863333333,14.518209773333334
438,1.216618,11.156711256666668,9.593554814666668,-40.50823976666666,-4.326118469333333,-3.1554346879999997,11.368956247666667,143.4695333,-4.111792245666667,7.933360099666667
439,1.2193956666666665,12.2987477,9.538037935,-40.3969396,0.224766642,-3.383678992666667,12.468495847333335,134.37323,-4.454240163333334,13.919275283333334
440,1.2221733333333333,13.326132776666668,9.534882226,-40.328498833333335,-5.372799078666667,-4.572570721333332,11.413337073333333,121.4175771,0.8134483496666666,7.853449503666667
441,1.2249510000000001,14.237638156666668,9.427300452999999,-40.23773956666667,2.009420474666667,-4.051772833,11.055510679000001,107.13836416666668,-10.589275516999999,13.18281333
442,1.2277286666666667,15.041205723333334,9.468320527666668,-40.16571046666667,-5.779174486666666,-3.955180088666667,11.888301850333333,94.50377655,6.305988470666667,6.878761609666667
443,1.2305063333333333,15.736252466666665,9.339187782333333,-40.1015345,1.0704585116666667,-3.631144921,9.342820168333333,81.76656086999999,-13.538763840000001,11.095476468666666
444,1.233284,16.37215106,9.370300453333334,-40.0319341,-4.896450360333334,-2.411774198333333,11.810971734333334,74.44848887,5.262071014000001,6.7910203933333335
445,1.2360616666666666,16.9259847,9.273686726666666,-39.974205000000005,0.958746652,-3.179835717,7.4714663130000005,64.93858464333333,-9.760647137333335,9.510769844333334
446,1.2388393333333334,17.39103254,9.247796058333334,-39.94632466666666,-3.596914395666667,-3.3613355953333333,12.805519936333333,54.71974436666667,-2.6074672543333333,3.930860837333334
447,1.241617,17.759288153333333,9.208278019,-39.88026683333334,0.34741341099999995,-3.323582490333333,11.49671332,42.54874674333333,-2.7678136823333332,8.543144066666665
448,1.2443946666666668,18.061842600000002,9.086247920666667,-39.89280953333333,-2.84366413,-1.8706117073333335,11.342053256333335,36.023333233333325,-15.040178777,2.827025532666667
449,1.2471723333333333,18.34640312333333,9.106205940666667,-39.8104426,-2.968086878666666,-1.6490709783333333,9.289162477333333,32.257478713333334,4.712094305333333,8.219125746666668
450,1.24995,18.56635984,8.965658507333334,-39.81700643333333,-0.45927500699999985,-2.5024987856666665,7.909549554000001,26.019154866666668,-16.87140973,4.350500265333333
451,1.2527276666666667,18.777800876666664,9.012906232666667,-39.72818246666666,-3.4700074196666666,-1.0937519373333333,12.660683314333333,23.30685552,8.126899084,7.897500515
452,1.2555053333333335,18.960322063333333,8.872613908333333,-39.725504566666665,0.7296793460000001,-2.0369891326666667,7.002524297333333,21.395156223333334,-16.432528020333333,5.484169483333333
453,1.258283,19.129601160000004,8.760382335666668,-39.68922680000001,-1.85911721,0.005670169999999993,11.817063529999999,19.211733499999998,-11.944387275666665,8.205733935
454,1.2610606666666666,19.285588583333332,8.736060778666667,-39.654467266666664,-3.797526359666666,-2.2374745209999998,10.620560167666667,17.65943718,-1.993702213,4.683526198
455,1.2638383333333334,19.409585316666664,8.561170737,-39.649251299999996,2.298412223666667,-1.2173468269999999,9.894938786666666,14.349269229999999,-20.20677566666667,7.213002364
456,1.266616,19.55056127,8.486118475666666,-39.64359793333333,-5.613886038333333,-0.712526838,11.958031017333333,16.384975116666666,-8.891318479333334,3.4258068406666666
457,1.2693936666666665,19.6939284,8.333636601666667,-39.626294466666664,1.616113893666667,0.1488294006666667,10.904903411333331,16.492830596666668,-17.159001983333336,7.745752970333334
458,1.2721713333333333,19.813215256666666,8.192927201333333,-39.64552306666666,-4.768705368,-2.411901315,8.752734660666666,14.206579843333335,-17.26752980666667,3.375364701
459,1.274949,19.963644023333334,8.070976257333333,-39.62591296666666,1.0650473436666665,0.3220049466666666,9.160554409666666,17.284754753333335,-13.583679514333333,6.8676536876666665
460,1.2777266666666667,20.139158883333334,7.938077291,-39.6350911,-4.633666277,-0.5060933216666667,11.503758111000002,20.795242306666665,-15.94499175,4.281298160333333
461,1.2805043333333332,20.297147113333335,7.749975681333333,-39.62985483333333,1.9454646509999998,-1.2368560033333333,11.513868966333334,18.415091829999998,-21.57995796333334,8.070722738999999
462,1.283282,20.436534246666668,7.6303294500000005,-39.65460206666666,-6.8631745969999995,-0.7732186716666668,10.015283902,16.757294016666666,-15.096129099999999,2.0408662626666665
463,1.2860596666666666,20.59381421,7.4834413526666665,-39.6226069,2.7673596143333334,-0.700338751,9.038985888333334,17.93095270666667,-15.786540666666667,9.429489771333332
464,1.2888373333333334,20.755767186666667,7.352845191999999,-39.67058053333333,-6.3534922599999994,-1.2735956413333334,9.367966972,19.780233383333332,-17.281500816666668,-0.010988444333333328
465,1.291615,20.938599906666667,7.1431337993333335,-39.65105946666666,3.5120542843333333,0.36713191866666667,12.50633812,21.211839676666667,-23.298203153333333,10.833743730666667
466,1.2943926666666667,21.121034623333333,7.036371072333334,-39.70525613333333,-7.640297095000001,-1.344425807333333,11.732769009999998,22.271425246666666,-14.87880643,-1.6092363990000003
467,1.2971703333333333,21.32078298,6.883103688333333,-39.6771698,2.6493728953333333,0.589439511,9.637833278666667,23.15301959,-16.544989266666665,9.455104828333333
468,1.2999479999999999,21.508934019999998,6.766717433666667,-39.73428343333333,-5.554424921333333,-1.7297319173333332,8.998411654666667,22.977363586666666,-16.091054281999998,-1.4384405613333335
469,1.3027256666666667,21.682959240000002,6.5958848,-39.72711436666667,1.6862418453333332,-1.3040813206666666,10.817684335666668,20.374858219999997,-19.356339453333334,8.046923637333332
470,1.3055033333333335,21.85737355666667,6.5402661963333335,-39.7633184,-7.88208882,-0.9102730156666666,13.269966761,21.034298576666668,-8.421704133,-1.7617861013333334
471,1.308281,22.03245417333333,6.433132012666667,-39.736117066666665,2.8085004093333334,-0.59910131,12.005013148666665,20.219640096666666,-11.323320704000002,7.4877018930000006
472,1.3110586666666666,22.185094833333334,6.394873937,-39.7711436,-6.602971076999999,-1.5156030256666666,9.132436116333333,18.39186287,-6.455120365666666,-2.4191327396666664
473,1.3138363333333334,22.3412323,6.275385061666667,-39.75742593333333,3.2862585583333335,0.20944700133333335,10.776105563333331,18.13730748333333,-13.260207015666667,6.648071289
474,1.316614,22.506863910000003,6.290169239,-39.77940619999999,-8.014351367,-1.3289393683333335,10.777543861666667,19.74879137666667,0.01768672466666669,-3.320993523
475,1.3193916666666667,22.6632061,6.244812488666667,-39.75361123333333,1.489686167333333,-1.2751110793333333,12.684498150333333,18.008638383333334,-4.453946589,4.632934108
476,1.3221693333333333,22.774213153333335,6.280957858000001,-39.76492306666666,-5.134012262333333,-1.2217806183333333,9.496159870333331,13.0744702,2.852845033,-3.199299713
477,1.324947,22.85853195,6.241952737333333,-39.78366853333333,1.2750612893333335,-1.4252775436666667,8.732646306333333,9.958546955666664,-5.796826799666667,-0.5410067836666667
478,1.3277246666666667,22.950960156666667,6.302608013333334,-39.76469933333333,-5.336910168333333,-1.0635886093333333,10.343461674666665,10.493005115,6.961117566333333,-0.9794074496666666
479,1.3305023333333332,23.031358083333334,6.332031091,-39.7592443,-1.4823928673333333,-0.8671451113333332,10.634662628666666,9.157930692999999,2.8872923453333335,-1.0860948563333332
480,1.33328,23.077255246666667,6.403166294000001,-39.730278,-1.6983227433333337,-1.65064466,7.299439428666666,4.782814463666667,8.555621465333333,-0.503883187
481,1.3360576666666668,23.106081643333336,6.406394958333332,-39.75219726666667,-1.0018215626666667,-0.7711425126666667,9.806841532333332,3.315383198333334,-1.285872867,-2.8603757223333335
482,1.3388353333333332,23.150451659999998,6.491352717000001,-39.7125244,-1.8524162523333334,0.018417821333333344,11.564274312999999,4.441812356333333,10.583534876666667,0.052142049
483,1.341613,23.18154335,6.517818133,-39.714286799999996,-2.4830927846666664,-1.0063296236666666,13.32218933,3.3314771650000004,2.222133040333333,-1.7536700963333332
484,1.3443906666666667,23.18432680666667,6.555692196,-39.6918513,0.8343857923333333,-0.9514172376666666,11.699909848333334,-0.34376444433333325,4.578719695666667,0.33813357333333327
485,1.3471683333333333,23.16041247,6.581417242666667,-39.7139257,-4.166221738,-1.322351257,9.423230011666668,-2.965894003666667,1.1828228633333333,-3.9235461553333333
486,1.349946,23.156042733333337,6.627776622666667,-39.672584533333335,0.8933468263333332,0.09873869033333338,9.815716106333335,-1.4344017009999999,6.405732472666667,2.041177432
487,1.3527236666666667,23.152648926666668,6.654729843000001,-39.69378663333334,-4.78165857,-0.7315849463333333,10.45151488,-0.534044067,1.3602863946666666,-3.909662485333333
488,1.3555013333333334,23.140223823333333,6.631095727333334,-39.67842866666667,2.556822717333333,-0.614524866,11.327649119,-2.050850729,-2.5192882219999997,2.5183019636666666
489,1.3582789999999998,23.117665606666666,6.646465937333333,-39.70288593333333,-5.151845296,-1.2990369893333333,10.65690581,-2.7840202646666667,-0.06819792600000014,-3.705701331
490,1.3610566666666666,23.110812506666665,6.648031711666666,-39.688631699999995,1.2277026080000002,0.49642488366666665,9.235098203333335,-1.3424377439999997,0.19739619899999994,1.2043811876666668
491,1.3638343333333334,23.108519873333336,6.662934779666666,-39.71028643333334,-5.518212398,-0.6917390326666667,10.279670714333333,-0.3771738706666667,0.014770984666666228,-3.389010946333333
492,1.366612,23.11634381666667,6.634462992333333,-39.72043863333334,2.7288259666666668,-0.5678948763333334,11.589855193333333,0.709710618,-4.249380191,-0.04178963333333333
493,1.3693896666666667,23.112696963333335,6.619200388666667,-39.762153633333334,-6.139971892000001,-0.4777292606666667,11.693973859666668,-0.2364406786666667,-4.250409204333334,-4.160341024333333
494,1.3721673333333333,23.10619545,6.608846028666666,-39.7633489,1.817527175333333,-0.6420432626666667,10.134419919666668,-1.1423478126666666,-1.8162411849999998,0.13335622333333333
495,1.374945,23.113791149999997,6.649949550333333,-39.79113006666666,-7.023123899999999,-0.55753545,9.238512674666666,0.9340829996666665,2.6191665333333334,-5.283405939333334
496,1.3777226666666669,23.140569686666666,6.638537407,-39.77661133333334,3.277229070666666,0.4314168143333334,10.914555547333334,2.606901407,-1.1975378989999996,1.894288063
497,1.3805003333333332,23.169843673333332,6.6527781489999995,-39.81719460000001,-6.705966313666667,-0.9069296223333332,11.022539137666667,3.693295638,-0.9496563276666666,-5.4406606360000005
498,1.383278,23.19852193,6.628686110333334,-39.7973226,2.834248463333333,-0.33784342799999995,10.947998046666667,2.8096255163333335,-2.3534153300000002,3.0471078953333333
499,1.3860556666666666,23.228513083333336,6.675682386000001,-39.82948556666667,-7.075930118333333,-0.83850196,9.437143801,3.649170756666667,3.0517311890000003,-6.041117429333333
500,1.3888333333333334,23.269042969999997,6.696629365333334,-39.78765613333332,2.3139777980000003,-0.514682998,10.194534619333334,3.935093562,3.6560993293333333,3.350030184
501,1.391611,23.32346217,6.7676882743333335,-39.8100993,-6.71173652,-0.9946667953333334,11.597937904333333,6.439004898,6.152970632,-6.137171268666667
502,1.3943886666666667,23.356315613333333,6.773112137999999,-39.76963296666667,3.374714930666667,0.36493906400000004,12.677726111333333,3.0434622963333333,1.8804438113333335,3.8852227726666673
503,1.3971663333333335,23.36211904,6.822132746333334,-39.82475026666667,-6.4369641936666655,-2.118614673666667,9.295191765,1.0752046246666667,2.172813256666667,-8.672716139666667
504,1.3999439999999999,23.364215213333335,6.845608711333334,-39.785731,2.283228,-0.1546999513333334,9.992130119666667,-0.5828263756666666,3.786506002,2.856294155
505,1.4027216666666666,23.341787336666666,6.951068560333333,-39.8434982,-7.623282114666666,-1.6689219176666665,12.021153130000002,-2.307689309,8.26300486,-11.632861931666667
506,1.4054993333333332,23.300197603333334,6.990573088333334,-39.816533400000004,2.9905541736666663,-1.5591346819999998,9.779754796666666,-5.640476941999999,4.997116167000001,0.7848205566666667
507,1.408277,23.202444713333332,7.065927505666667,-39.89914446666666,-5.316538175000001,-1.9459570446666667,8.923392297333335,-10.981509208333334,3.797935644666667,-12.938676993333333
508,1.4110546666666668,23.068600973333332,7.1057389576666665,-39.913289400000004,2.2904896736666664,-1.247853597,10.966309232333336,-16.103587146666666,3.092997515,-3.698974822333333
509,1.4138323333333334,22.918013256666665,7.214376926333333,-39.97372440000001,-7.132222811333333,-1.5187728403333332,13.003785453,-17.62213325333333,8.564794620666667,-12.016601244333332
510,1.4166100000000001,22.701594670000002,7.280028979000001,-39.98072559999999,3.034527858,-0.9252067013333333,11.369086585,-26.110092163333334,6.295083007666666,-4.152061343
511,1.4193876666666665,22.41081683,7.356071154333333,-40.069007899999995,-5.646160205666667,-3.914864937666666,8.145938396333333,-34.00912857333333,3.7667913436666676,-13.524229841333332
512,1.4221653333333333,22.076607386666666,7.421807607000001,-40.078755699999995,1.260433525,-1.2799573536666664,14.459515689333331,-40.19284820666667,6.241485835,-4.281868101
513,1.424943,21.61627197333333,7.554161866666667,-40.15219626666667,-5.171311140333334,-3.2402410506666666,12.613248188,-54.54492060333334,10.858057061666665,-14.376523813666667
514,1.4277206666666666,21.05870755333333,7.5731609660000005,-40.23118336666667,2.322850118333333,-4.303392966666666,8.407004355,-65.9320488,-1.9058952329999999,-9.791415373333333
515,1.4304983333333334,20.459049226666668,7.713002840333334,-40.29980976666666,-6.996602058333333,-1.3448165456666665,13.835831403999999,-71.31463623,12.171177546000001,-13.849658013333334
516,1.433276,19.734861373333334,7.781164010666667,-40.370554600000006,3.003811677333333,-2.7299482823333334,8.15249801,-86.00012461333334,4.187954506666666,-10.961104394333333
517,1.4360536666666668,18.91435623,7.837129433666667,-40.4796346,-4.471180725666667,-4.469265937666666,7.921409725000001,-97.13749438999999,1.4181099730000002,-14.718848863333335
518,1.4388313333333331,18.029637653333335,7.972506682333335,-40.542798366666666,-2.3121078806666664,-1.9668465853333335,14.921956696666667,-105.34567516666668,12.464290459333332,-12.390456834
519,1.441609,16.926209133333334,7.988662878666666,-40.65953063333333,1.4692626000000002,-6.617768287666666,6.218470712333333,-130.89433286666667,-2.932830412,-14.165168443333334
520,1.4443866666666667,15.722882910000001,8.046529292999999,-40.77469636666667,-3.446747119333333,-5.382803440333333,17.659349759666664,-142.73916626666667,2.1746861140000004,-15.304580373333332
521,1.4471643333333333,14.348123866666667,8.002477486666665,-40.90676626666667,3.4929335716666667,-1.5250158906666667,7.203701178333333,-163.20198059999998,-9.796821594999999,-14.129914283333333
522,1.449942,12.840745606666667,7.8811828293333335,-41.058395399999995,-1.8828180630000002,-5.000262022,15.962203820666668,-178.64483136666664,-18.971263253333333,-14.190138179999998
523,1.4527196666666666,11.263593673333332,7.749482949666667,-41.1888072,0.06578203066666664,-1.6675533453333333,11.274556159,-187.56840006666667,-19.306029640000002,-12.06316535
524,1.4554973333333334,9.615265529,7.491186459999999,-41.359970100000005,-0.26100782566666664,-1.2152903773333332,9.007598659,-195.35502623333332,-34.766965230000004,-14.62148571
525,1.4582750000000002,7.934899171333334,7.272781848666667,-41.50918070000001,-2.322318673333333,-0.8628512326666667,11.970264762333331,-199.76217653333333,-29.22325197666667,-13.722090403333333
526,1.4610526666666666,6.218327045333333,6.988631725333334,-41.6740443,-0.33224578733333326,-1.57744354,11.993428707666666,-203.82677713333337,-36.84848531,-15.403600693333333
527,1.4638303333333333,4.5432882306666675,6.596627553333332,-41.81284586666666,-1.2335728006666666,2.187545935,8.507897378000001,-199.47339883333333,-49.00236765666667,-12.258819263333335
528,1.466608,2.8670099576666668,6.402904033666666,-41.955663066666666,-4.770212015333334,-0.9790641466666669,11.132969221666665,-199.47504170000002,-24.933876673333334,-15.864638013333334
529,1.4693856666666667,1.1741288303333335,5.8971088730000005,-42.0690816,3.3651479880000004,0.1061522663333333,13.166568597,-202.1332601,-61.75050989666667,-11.658979416666668
530,1.4721633333333333,-0.5059037406666667,5.660667896333333,-42.20427196666667,-9.28197066,0.9111447930000001,14.471535286333335,-200.22721356666668,-29.111617406666667,-16.49965922
531,1.474941,-2.1876693963333333,5.330447037666667,-42.26873526666667,2.419233788666667,-0.07145141066666666,3.3494955676666667,-201.4776916333333,-40.031389870000005,-9.022888341
532,1.4777186666666668,-3.881949027333333,4.994540135,-42.39620716666666,-5.477645556,-2.238224069333333,11.033792812333333,-202.21924336666666,-40.078086856666665,-17.953579586666667
533,1.4804963333333332,-5.5003312426666655,4.743858814333334,-42.44328813333333,-0.6824454513333333,1.448268661666667,14.742522236666666,-194.1154938,-30.11269950666667,-8.298812073
534,1.483274,-7.112016678,4.507858912,-42.55759176666667,-5.9730491636666665,1.258097092,13.370273747333334,-192.62026466666666,-27.28362973333333,-17.255413370000003
535,1.4860516666666665,-8.723430792333334,4.310751279000001,-42.576380400000005,1.4078385233333333,0.4559897583333334,7.691556691333332,-193.56309509999997,-23.695133209999998,-5.822240114666667
536,1.4888293333333333,-10.300709406000001,4.061858336333334,-42.67241923333333,-4.331162333333333,-0.665038707,7.4261736869999995,-188.80378723333334,-28.20609855666667,-16.757260003333332
537,1.4916070000000001,-11.810973166666665,3.9347479343333336,-42.688217200000004,-3.435269872333333,1.1984109083333332,11.500698724333333,-181.41989133333334,-15.174995101666667,-5.011653541
538,1.4943846666666667,-13.254990256666666,3.813891013333333,-42.778747566666674,-3.8133093516666663,1.851916323,14.510393143333333,-172.98109946666668,-12.545789396666665,-13.833418369333335
539,1.4971623333333335,-14.665393193333335,3.744923591666667,-42.79626463333333,-2.6157095433333333,2.0003028313333333,11.891713142,-169.4306895,-8.087801138666666,-4.329238214666667
540,1.4999399999999998,-16.01886908,3.68211174,-42.8692627,-0.9638830423333333,1.9561026493333333,6.774407983333333,-162.30562846666666,-5.7325172423333335,-10.441655556
541,1.5027176666666666,-17.291299183333333,3.6230390863333333,-42.8784205,-2.903862327,1.3823093176666668,8.309217293666666,-152.92512003333334,-7.047873813333333,-3.347738411
542,1.5054953333333332,-18.48482895,3.6333611806666664,-42.94117993333333,-3.2643738389999997,2.2901757556666666,13.220274926666667,-143.19203186666667,2.693312486,-6.700260638
543,1.508273,-19.586664199999998,3.6754034356666665,-42.9788869,-3.427801122333334,2.9101608593333332,10.630916594666667,-132.2389679,5.661685387333333,-2.882377371333334
544,1.5110506666666668,-20.6253802,3.7635791303333335,-43.051322933333346,-2.375273078333333,2.3378719486666664,9.588332493666668,-124.56135813333333,12.124198596666666,-4.5258666666666665
545,1.5138283333333333,-21.59062767,3.8603602249999995,-43.102706899999994,-2.518608888,2.0951982140000003,7.903086344333334,-115.70063783333332,12.473094303333333,-1.833435575
546,1.5166060000000001,-22.459451676666664,3.942347685666667,-43.15135956666666,-0.1835969886666667,2.946737607333333,9.664489906666667,-104.36169686666666,10.519766489666667,-1.7926747006666666
547,1.5193836666666665,-23.23405456333333,4.022776921666666,-43.21514893333333,-4.494888305666667,1.101493925,11.550487836666667,-92.71081542999998,11.273757298666666,-3.5645189693333332
548,1.5221613333333333,-23.936595276666665,4.168676217333334,-43.25667316666667,0.14171298333333335,2.315439422666667,9.162396750666666,-84.44816843666666,17.26204586,2.3515978446666668
549,1.524939,-24.548992156666667,4.255404234333334,-43.352727233333326,-4.594055334666666,1.4260587793333332,8.612326144999999,-72.94233449333333,13.603589694333332,-6.466151506999999
550,1.5277166666666666,-25.063333509999996,4.385269244333333,-43.3677114,0.30500924600000007,2.551013350333333,11.911095303333333,-62.07991282,14.137488684,4.780558896666666
551,1.5304943333333334,-25.523800530000003,4.474844217,-43.473500599999994,-4.902242343,1.712784608,10.621147472333334,-54.63340504666667,14.508132617666668,-7.115436950333333
552,1.533272,-25.917542776666668,4.5840978623333335,-43.478246066666664,0.8123701913333333,1.478495876,8.062648455666666,-47.574034373333326,11.446582793333334,4.795925617333334
553,1.5360496666666668,-26.266260146666667,4.606354634,-43.5610555,-1.8196574849999998,0.0617530543333333,7.234071572666667,-41.48184077,6.128668626,-8.036962509333334
554,1.5388273333333335,-26.56301053333333,4.664111376,-43.5525462,-0.8523092666666666,1.2031329673333333,8.813861052666667,-36.07181167666667,5.062488635333334,3.7834404706666667
555,1.541605,-26.778468450000002,4.642189423333334,-43.60336813333333,-1.782575846,0.6047690906666666,13.464052516666667,-25.77859497,-0.24804850433333328,-6.897358258666666
556,1.5443826666666667,-26.96944300333333,4.662942091666666,-43.57851666666667,-1.977960249,1.0527901053333333,11.966113092666665,-23.55572319,0.1791164876666668,3.5727525156666666
557,1.5471603333333332,-27.13709704,4.614794174666667,-43.621653233333326,-1.7612740893333332,0.499260922,9.247543970999999,-20.14723905,-3.4249018830000004,-7.532889366
558,1.549938,-27.245972316666666,4.6289921603333335,-43.59189353333334,-2.320187489,1.1555999516666666,9.291162014333333,-13.70956453,-0.8128081163333333,3.782023549
559,1.5527156666666666,-27.312426246666664,4.541816313666667,-43.608540866666665,-1.2621243396666666,0.35969262799999996,11.711788495333332,-8.278091588,-9.019375882666667,-6.863318719333333
560,1.5554933333333334,-27.35461998,4.521729072,-43.5780589,-3.731696715,1.3760771553333333,11.721910796666664,-5.7221400739999995,-4.5259252986666665,1.9424937566666662
561,1.5582710000000002,-27.37881533,4.471645673,-43.58219403333333,-0.4373123296666666,0.152520746,10.056110065666667,-3.334781448333333,-5.734212319333333,-3.491878191333333
562,1.5610486666666665,-27.382492703333337,4.400067488333334,-43.54849243333334,-3.9536236126666666,0.20410994433333332,10.937628109666667,-1.1166269383333336,-10.191226165,-0.5690500336666666
563,1.5638263333333333,-27.369950613333334,4.345457554,-43.54600016666666,-0.02910304066666658,0.020747815333333308,11.238357225000001,0.9872495136666667,-6.578329324666666,-3.075757662333333
564,1.5666039999999999,-27.362097423333335,4.289872567,-43.525410933333326,-4.453966697333333,-0.3639976876666666,11.44917043,0.42358274766666665,-7.7606906890000005,-1.0527069173333334
565,1.5693816666666667,-27.359524406666665,4.211067915,-43.49852496666666,0.7640875180000002,-0.5511145196666667,9.899508158666666,-0.4377131463333334,-10.499691327666666,-1.815571308
566,1.5721593333333335,-27.340778349999997,4.156361818333333,-43.5140432,-5.293336868333333,-0.9649118483333335,11.118504206666666,2.0155843496666668,-5.694177469,-4.838149765333333
567,1.574937,-27.33277321,4.106574535333333,-43.4817759,-0.49087070400000005,-0.24739795899999997,12.683444500999999,0.24103410066666653,-7.695058822666667,0.38456782699999986
568,1.5777146666666668,-27.351292293333334,4.0522998973333335,-43.5053355,-4.509801785,-1.2045359016666666,8.569959323333334,-2.4507912993333334,-5.205772876666667,-5.700545946666668
569,1.5804923333333332,-27.35245514,4.038291374666667,-43.48593649999999,-1.525599656,-0.2107979256666667,11.373235065000001,-0.7239863476666667,-3.170824726333334,0.9946136473333332
570,1.58327,-27.37534777,3.9999360243333335,-43.5108439,-3.508629163,-1.3224674463333332,12.136904716333333,-2.9654197693333337,-3.433187077333333,-4.986173391333334
571,1.5860476666666665,-27.444440206666666,4.023218314,-43.49684143333334,-1.2984111306666666,-1.4541390736666668,8.357917628333334,-8.841824849666667,1.0966821673333333,2.474104821666667
572,1.5888253333333333,-27.52101516666666,4.002108892,-43.53265886666667,-4.321863889666667,-1.0815190723333334,11.612543267000001,-9.304581325,-0.9867374500000001,-5.174823284333333
573,1.591603,-27.587685899999997,4.058909098,-43.51665753333334,-0.610306243,-1.244684736,11.014113743333333,-8.559770901333334,4.548978328666666,4.523594459000001
574,1.5943806666666667,-27.696944553333335,4.088869174333333,-43.57904056666666,-4.27326107,-0.9216380713333333,12.146257399333335,-13.014139176666667,5.9195875723333335,-5.110813935666666
575,1.5971583333333335,-27.811588923333332,4.1831191379999995,-43.57145693333334,-1.943023006,-0.13754170866666668,10.130662917,-14.226215044666667,8.977399667,5.764203707
576,1.5999359999999998,-27.907066343333337,4.262735049,-43.651952099999995,-3.435868978666667,-0.833835542,8.142850558000001,-11.239772163333333,12.206013993333334,-4.227959136
577,1.6027136666666666,-28.007539750000003,4.382203817333333,-43.6447449,-1.6840835810000003,-0.5489197969999999,14.917943638333334,-12.476188976666668,11.656460763333333,7.187877019333333
578,1.6054913333333334,-28.132698056666666,4.478583335666666,-43.717107133333336,-2.9959362350000003,-0.28914094966666665,8.637585639666666,-14.893884977333334,13.525423050666667,-2.3869919776666673
579,1.608269,-28.24695015,4.610184908,-43.7291463,-1.7923314176666665,-1.3505809306666665,8.384706336999999,-13.9495395,13.994582493333334,5.896134853333333
580,1.6110466666666667,-28.358076093333334,4.675221046,-43.78070576666667,-1.8350632983333333,-0.925112307,14.797378857333335,-13.34077231,9.052602291,-1.9254225096666666
581,1.6138243333333333,-28.500586826666666,4.833114783333333,-43.8148956,-2.602504193666667,-0.3964125713333333,8.771387098666667,-17.15833346,18.003112156666663,5.116848746666667
582,1.616602,-28.622304279999998,4.934555530666667,-43.8832855,-2.4336954353333335,-0.5540780523333333,8.389416535666667,-14.407512346666666,13.85504373,-1.5198887186666665
583,1.6193796666666669,-28.70875867333333,5.067005634333333,-43.923772199999995,-3.2154430946666666,-0.19249794100000003,11.404515585333334,-10.324610074666666,15.660829546666667,3.0511051016666664
584,1.6221573333333332,-28.814060209999997,5.196059227,-43.984288533333334,-0.6791578183333332,-0.7028558653333333,10.294423421333333,-12.513655343333335,16.31209850333333,0.9384116676666667
585,1.624935,-28.91353162,5.287507057,-44.01335649999999,-2.4408965113333334,-0.7333472470000001,8.966643652333333,-11.990696110333333,10.673966567666668,1.938438892333333
586,1.6277126666666666,-29.003368376666668,5.3829317093333335,-44.05163063333334,-0.8584528763333333,-1.3019556206666667,9.258427777333333,-10.896318754333334,11.495362919666666,1.3430612386666667
587,1.6304903333333334,-29.10306358,5.457826137666667,-44.074452733333324,-2.7122270663333334,-0.480883752,13.414764723333334,-12.038867631666667,8.572540123000001,1.6872649986666666
588,1.633268,-29.193072636666667,5.549886703333333,-44.106597900000004,-1.2064090373333334,-0.707165738,7.607247510666666,-10.995181242666666,10.776030541666666,1.8386495213333334
589,1.6360456666666667,-29.27190844333333,5.632506370666667,-44.14415486666667,-4.202255726,-0.5894199956666667,12.051827429999998,-9.3578763,10.228525163,0.6487100523333335
590,1.6388233333333335,-29.35440572,5.735451221333332,-44.173950166666664,-0.6140229006666666,-0.40868600233333324,11.514112156666668,-10.117825665333333,11.751651764666667,2.764783601
591,1.6416009999999999,-29.44343376,5.828701972666667,-44.20850626666667,-3.7056523163333335,-0.9409911433333334,9.157287915666666,-10.619489353333334,11.159143130666665,1.6312556466666666
592,1.6443786666666667,-29.50831413,5.893119335333332,-44.23017883333333,0.37676686033333323,-0.24821762766666666,10.544726533333334,-8.094649950666666,7.252791700333334,1.3294856996666666
593,1.6471563333333332,-29.602579116666664,5.971475442333333,-44.26870220000001,-3.6594491800000006,-2.0093642473333335,10.45727539,-11.21014468,9.833580175,0.3636752366666665
594,1.649934,-29.682816186666667,5.994454860333334,-44.26621503333334,0.32988882066666664,-0.4816669423333333,9.802361171,-10.205177305333335,1.4816046953333337,1.448416849
595,1.6527116666666668,-29.769495646666666,6.042654514333333,-44.3025767,-4.194283564666667,-0.6055296263333334,12.488350550666667,-10.319204330333335,6.560370385333333,-1.1668608783333334
596,1.6554893333333334,-29.842025123333332,6.075045903666667,-44.29830933333334,-0.26633673166666666,-1.0496025086666667,9.456436474,-9.334652704,2.333931287333333,2.2254248659999996
597,1.6582670000000002,-29.92325719,6.132342497333333,-44.339233400000005,-4.842192331666666,-0.08121327566666664,9.100807826999999,-9.594722429,7.772952246666667,-1.0591700773333332
598,1.6610446666666665,-29.98534075666667,6.1599650383333335,-44.336822500000004,-0.3282731673333334,-0.8618774313333333,12.864591597333332,-8.056707222333332,1.911625555666667,1.7975560030000002
599,1.6638223333333333,-30.05564117333333,6.237449010333333,-44.37193296666666,-4.611817519,-0.6755219796666667,8.476852734666666,-8.347684542333333,9.531486193666668,0.77042073
600,1.6665999999999999,-30.10481389333333,6.254855633000001,-44.37532553333333,1.3852104343333334,-0.312094137,8.681266307,-6.4518977799999995,1.1916681909999998,0.5769862403333333
601,1.6693776666666666,-30.16554769,6.301988443,-44.40297443333333,-4.41925629,-1.7605350809999998,11.859169641666666,-7.2856319743333335,5.931143045333333,-0.264624963
602,1.6721553333333334,-30.22160848,6.318116347,-44.392308533333335,-0.08575177166666663,-0.7911211649999998,9.446244874,-7.443015336999999,0.22518312933333343,1.949175338
603,1.674933,-30.28427315,6.336488246666666,-44.416107166666656,-3.5126181046666667,-0.9877516283333333,11.369651797333333,-7.569327990333334,2.714900653333333,-1.583254536
604,1.6777106666666668,-30.32463963666667,6.356610457333333,-44.42071023333333,-0.8106615543333334,-1.5113979679999998,10.888141632666667,-5.387173503666666,1.5570936983333334,0.6116252443333333
605,1.6804883333333331,-30.39813868,6.382441044,-44.44816083333333,-4.903375148666666,-0.08147495,10.274951936666666,-8.790170988666667,3.7113113393333332,-1.4914274616666667
606,1.683266,-30.446929933333333,6.416473865666667,-44.47428386666667,0.05215752599999993,-1.6147580943333333,11.100587369000001,-6.126554250999999,4.306560515,-0.7909676233333333
607,1.6860436666666667,-30.508495333333332,6.4459595683333335,-44.48971556666666,-4.712871233666667,-0.5970185696666667,12.877112865333336,-7.522333620666665,3.364682037,-0.029264201666666656
608,1.6888213333333333,-30.567522049999997,6.4946796099999995,-44.52483113333333,-0.03845032033333329,0.05966956933333334,7.974730373,-7.230937323333333,6.3793582120000005,-0.817337513
609,1.691599,-30.613034566666666,6.4956339199999995,-44.517924,-3.0825675526666667,-1.9479753373333335,10.421311539333333,-5.946955204000001,-0.9373872083333333,0.4892105856666667
610,1.6943766666666666,-30.66369629,6.566227277333333,-44.559987400000004,-1.6175394853333334,-0.9982041916666667,9.906766255666666,-6.085315227666666,9.034892718666667,-0.09297965966666667
611,1.6971543333333334,-30.705301286666668,6.535493215,-44.53558346666667,-2.342937631,-0.21951466799999997,12.115382830333333,-5.708956877333333,-5.268434762999999,0.31045742800000004
612,1.6999320000000002,-30.735122046666664,6.643894990333333,-44.59503173333334,-2.3471259276666667,-1.571018159,9.978854338666666,-3.3508507213333334,14.017717996666667,0.4338368923333333
613,1.7027096666666666,-30.767358780000006,6.6254854199999995,-44.572896300000004,-1.7300778426666668,-0.616256073,9.624748387666665,-4.5707285403333335,-3.8626058149999998,0.812773918
614,1.7054873333333334,-30.792409263333337,6.735805829333333,-44.64594523333334,-3.1368398069999994,-0.6745284643333335,11.821370443333334,-2.5603268146666665,15.050389605333335,-0.8147804936666665
615,1.708265,-30.815250396666666,6.760656356666668,-44.63096110000001,-2.4732661046666666,-1.393221964333333,9.636086463666667,-3.3742230729999996,1.0374529759999997,2.7145884036666668
616,1.7110426666666667,-30.82092348666667,6.864343961,-44.684753433333334,-1.7225139536666667,0.08265837166666667,10.157906217333334,-0.4553230316666667,13.189796923666668,0.7793431976666666
617,1.7138203333333333,-30.812720616666667,6.903508981000001,-44.691248566666665,-2.333775123,-0.7815484006666668,9.634526094666667,0.6175163189999999,3.8187718386666667,1.3686283826666665
618,1.716598,-30.801767346666665,6.976360957,-44.71885173333334,-3.2081824940000003,-1.804768324,11.021840890333332,1.2050731383333333,8.397966305666667,1.609803776
619,1.7193756666666669,-30.77871004666667,7.047911008,-44.75039676666666,-1.2516867916666667,0.14786818633333335,11.345900774333336,2.768467327,8.690499940333334,0.7727859813333334
620,1.7221533333333332,-30.772270199999998,7.085844357999999,-44.77625019999999,-2.857556333666667,-1.6869790256666668,8.528138796666667,0.638482074,4.705212434000001,-0.38588666933333354
621,1.724931,-30.725959776666667,7.200050195333333,-44.8374176,-1.6694603663333336,-1.1019922866666667,9.802980662,6.01150918,14.893080948,0.365844488
622,1.7277086666666666,-30.691731773333334,7.205061117666666,-44.839818333333334,-1.516958157333333,-1.13262402,10.060021559333334,3.6151978573333334,-0.13584903866666664,-0.00025592266666674135
623,1.7304863333333333,-30.64394951,7.349219322333333,-44.92269386666667,-3.161663969333333,-2.0853356123333335,11.064123153666666,6.543167432333334,19.29696878,0.004375825666666684
624,1.7332640000000001,-30.596958796666666,7.334877173,-44.89328510000001,-0.8930134573333334,-0.6699993213333334,13.070299624,4.621525118666667,-4.035305341,1.9851459463333334
625,1.7360416666666667,-30.559686663333334,7.508458296333333,-44.995946233333335,-5.584054946666666,-1.253205001666667,7.922972064666666,5.688497861666666,23.53164959,-0.1742066543333333
626,1.7388193333333335,-30.491699856666667,7.535210291666666,-44.988611833333344,1.0990651450000002,-1.8528778553333332,10.126623790333333,7.397793928,1.5751903836666665,2.1073732673333336
627,1.7415969999999998,-30.465026223333336,7.6897266706666665,-45.07844543333334,-6.792435805333334,-0.6085518846666665,12.580000558666669,4.309195677666668,20.775455953666665,-0.008324747333333363
628,1.7443746666666666,-30.41230265,7.7949973743333345,-45.10838826666667,0.6427748996666668,-1.2296686570000002,10.04915738,6.137386004000001,11.968937953666668,3.0016220409999996
629,1.7471523333333332,-30.373870213333333,7.9226959546666675,-45.1630554,-4.807101925,-1.8734984796666663,11.044406412666667,5.176801204999999,15.881457647,1.9289233289999999
630,1.74993,-30.34038925333333,8.134197871,-45.220225,0.249608894,-1.368365039333333,8.743329684,4.31873401,24.599068326666668,6.682937303999999
631,1.7527076666666668,-30.301548643333334,8.272061189,-45.263483666666666,-4.671721696666666,-1.5793562133333332,11.720559915,5.055645664666667,16.249360719,3.6651590666666665
632,1.7554853333333333,-30.26969719,8.595170499,-45.33939106666667,-2.575650294666667,-1.4840326706666669,10.346892199000001,4.534784237333334,37.28729121,11.544154803333333
633,1.7582630000000001,-30.239013036666666,8.797901948333333,-45.37785339999999,-2.788402319,-1.2911688289999999,10.055610498666665,4.007989804,22.688959120000003,8.038964748333333
634,1.7610406666666665,-30.192061103333334,9.205739340333333,-45.48323059999999,-4.465962092333334,-0.7632003426666668,9.877795856333334,6.997456789,47.838506063333334,13.622756003333334
635,1.7638183333333333,-30.163366316666664,9.544050218333334,-45.55522156666666,-3.406982978333333,-1.6822686193333334,10.103546936666666,4.454023818333333,38.75473022333333,12.747848826666667
636,1.766596,-30.101884843333334,10.010727247333334,-45.66039023333334,-2.917322318,0.5546518416666667,9.706137019666665,8.950126012333333,54.01533889666666,16.994411470000003
637,1.7693736666666666,-30.04263242,10.491348266666668,-45.7661082,-3.5440990926666665,-0.367323082,8.438739616666666,8.954772632333333,55.543071743333336,17.80882899
638,1.7721513333333334,-29.94703038666667,11.001918793333331,-45.8711599,-2.556261221666667,-1.2332675453333335,10.676868278,13.293502808333335,58.64084879666666,19.45412254333333
639,1.774929,-29.80313428,11.59604772,-46.003743500000006,-3.298066775,0.17821968599999996,6.200344999666666,19.95243581,68.97172292,21.68315506
640,1.7777066666666668,-29.638446173333335,12.15973123,-46.12169393333334,-2.3736689293333337,-0.30725857866666667,12.259804087666666,22.21327972333333,65.02667999333333,21.023003896666665
641,1.7804843333333331,-29.424705506666665,12.803004263333333,-46.2539978,-2.104045470666667,0.7970085990000001,7.241662582666667,28.605289459999998,74.18773142333333,24.233955383333335
642,1.783262,-29.14061228,13.43151283,-46.40138753333334,-3.033610503,-0.334967335,9.274175644333333,37.63460668,73.67051951,21.28890355333333
643,1.7860396666666667,-28.780811943333333,14.08074093,-46.500320433333336,-1.9593008956666667,2.267683864,10.088407198,45.546169283333334,73.12186177333335,27.316454573333335
644,1.7888173333333333,-28.341305416666668,14.75329558,-46.645965600000004,-1.277330495,1.1505314706666667,7.860204935333333,56.55680847333333,78.42059834999999,23.17268753
645,1.791595,-27.800729113333333,15.367973326666666,-46.70855203333334,-2.472702463666667,1.0043834846666666,10.961419107333333,66.45835622333334,67.87163289333334,28.043646496666668
646,1.7943726666666666,-27.154853823333337,16.06933689,-46.81851196666667,-2.672004103666666,2.1926996113333335,7.908129691666667,80.58748372333334,80.08843740000002,26.76590029333333
647,1.7971503333333334,-26.397636413333334,16.691620193333332,-46.84052019999999,-0.5891245006666667,1.9528845346666668,11.024054844333335,91.21748860666668,67.19256083333333,31.070084256666664
648,1.7999280000000002,-25.54649671,17.30949783333333,-46.8771159,-2.4643512666666667,0.46367662133333337,9.952419598,102.91320293000001,67.99127705666668,28.019135793333334
649,1.8027056666666665,-24.583309173333333,17.970618566666666,-46.87439473333333,-1.8553102016666665,1.2519812186666666,7.242466847,115.02051290000001,71.10723877,33.5620931
650,1.8054833333333333,-23.511746090000003,18.532241183333337,-46.81836446666666,-0.3736692863333333,2.415054122666667,12.97772884,126.06047819999999,58.468065896666666,32.55533854
651,1.808261,-22.320672353333332,19.095518113333334,-46.71468099999999,-0.8400951223333334,1.1769305966666668,8.851106803,138.49142966666665,57.060493466666664,36.850325266666665
652,1.8110386666666667,-21.002697626666667,19.573120116666665,-46.58083596666666,-0.5095973263333334,1.75138249,10.440025647999999,152.18232726666668,46.99599711333334,34.935974120000004
653,1.8138163333333335,-19.59526888666667,20.06170081666667,-46.399587,-2.5394330026666667,1.4667085806666667,11.567423503333332,161.13284303333333,47.26945622666667,39.22928619333334
654,1.816594,-18.098633449999998,20.469158176666667,-46.190612800000004,-0.10579804066666665,0.719967107,11.445748647333332,170.2498932,38.005201973333335,37.763240816666666
655,1.8193716666666668,-16.514972686666667,20.82701556,-45.943278033333335,-1.8580043413333334,0.4820806436666667,9.990635553666666,179.1267904,32.114626566666665,38.955408729999995
656,1.8221493333333332,-14.876858396666668,21.09667206,-45.675460799999996,0.40935250133333323,0.05031975566666661,12.325943626666666,184.45002236666664,22.371408459999998,37.412577309999996
657,1.824927,-13.198738733333334,21.365725836666666,-45.3914388,-3.6489207149999996,-0.4912048576666666,10.607761064,188.66524249999998,22.99270566,38.356821696666664
658,1.8277046666666665,-11.45767403,21.57994207,-45.08450823333334,-0.04481132800000006,0.25946535666666665,10.936593850000001,194.7582397333333,17.126806256666665,38.768094383333334
659,1.8304823333333333,-9.686401050333332,21.691565830000002,-44.76946513333334,-2.2931146226666668,-0.7906042536666668,12.903331119999999,198.23988853333333,6.0986000696666665,36.69048945
660,1.8332600000000001,-7.910908222333334,21.828636803333335,-44.443628966666665,-1.1176144876666667,-1.199285219,10.885082562333332,197.96082053333336,10.083788235,38.00217310666667
661,1.8360376666666667,-6.116081556,21.89119402333333,-44.111668900000005,-2.2847690183333333,-1.5214528636666664,12.402674036666667,200.10710143333336,2.317102670666667,37.26881663
