,time,Euler_X,Euler_Y,Euler_Z,Acc_X,Acc_Y,Acc_Z,Gyr_X,Gyr_Y,Gyr_Z
0,0.0,21.68516922,17.128816604999997,-135.64403915,0.7393427659999999,-1.7309535745,10.955308436,13.03181505,8.837354896499999,-0.34229594449999995
1,0.0083329999999932,21.777513505,17.300121305,-135.57346345,-3.7103565935,-1.814688116,11.3139412395,8.838010788,21.315594675,-0.5341339629999999
2,0.0166659999999865,21.801550865,17.442416195,-135.5159073,1.4107029435,-1.344778925,11.2955322245,1.221690267,17.573388575,-0.612090908
3,0.0249989999999797,21.77006054,17.525857925,-135.48656465,-3.644220829,-1.900795102,8.28520775,-4.55177176,9.7665238385,-1.0209580809999999
4,0.033331999999973,21.743929865,17.757026670000002,-135.3898659,-0.7291954085,-1.387271941,12.660644535,-6.3281742335,29.150372505,-0.42984545249999995
5,0.0416649999999663,21.686905865,17.78208828,-135.38527295,-2.1151313185,-1.1784703730000001,9.5124559395,-6.710641384,2.2164192199999997,-1.02300065
6,0.0499979999999595,21.620029449999997,18.066982265,-135.27389145,-2.393791556,-0.6095927805000001,13.933048964000001,-11.755712509999999,35.748737335,-1.196768999
7,0.0583309999999528,21.50608921,18.12771034,-135.27004240000002,0.6011304255,-0.9217640500000001,8.090614437,-13.51623154,6.173294902,-2.651643753
8,0.0666639999999461,21.396385195,18.37888813,-135.17224885,-4.038571596000001,-0.579614803,10.508097411,-16.4550581,31.412800784999998,-1.0501850695
9,0.0749969999999393,21.273774145,18.463825225,-135.16687775,1.8313394185,-0.899657771,10.6455696835,-14.651737690000001,8.9560263175,-3.532735765
10,0.0833299999999326,21.16195488,18.650725365,-135.11231615,-3.5537314415,-1.3274214865,11.215824365500001,-15.1155777,22.437294960000003,-2.7423962355000002
11,0.0916629999999258,21.01886177,18.795532225000002,-135.06992725,0.06481599799999999,0.332308978,10.783545493,-18.48682308,17.184185980000002,-2.118305087
12,0.0999959999999191,20.86836624,18.92567253,-135.04273605,-2.786562264,-0.6684848815000001,8.3568525295,-18.7418623,14.978400232999999,-3.1234593395
13,0.1083289999999124,20.76486492,19.09737587,-134.99822615,-0.875236537,-0.5192011745,13.752666472,-13.85689306,20.29484415,-2.966393113
14,0.1166619999999056,20.66098213,19.213428495,-134.9695854,-2.1833405495,0.276090226,9.001869918499999,-13.188536169999999,13.4697566,-2.2833114859999997
15,0.1249949999998989,20.53096676,19.415963175,-134.91532899999999,-1.6065241095,-0.27930036950000003,10.900519845,-17.47540283,24.14833927,-3.1881552935
16,0.1333279999998922,20.428016659999997,19.483677865,-134.90554045,-1.021388352,-1.0061783495,9.583348750999999,-12.33992147,7.3052001,-2.1876673105
17,0.1416609999999991,20.346521375000002,19.687594415,-134.83937455,-1.329682052,1.1021503209999999,10.9665775295,-12.130173684999999,24.77810764,-1.8857276440000001
18,0.1499939999999924,20.234263419999998,19.753343585000003,-134.8351784,-1.3394481784999999,-1.376811504,6.942215204,-13.275636195,6.880106689,-2.6901161074999997
19,0.1583269999999856,20.15436363,19.932252885,-134.7816391,-1.7244387270000001,-1.184847921,13.356827735,-11.460012434,21.46644974,-2.1238627435
20,0.1666599999999789,20.05758953,19.981640815,-134.7740593,-0.04157578950000007,1.1377379895000002,10.40109301,-11.5017094635,5.1787443159999995,-1.5881146785
21,0.1749929999999722,19.957816125,20.139073375000002,-134.7307739,-2.1139503715,-1.234702885,10.43305969,-13.485952855,18.65576458,-2.2836254835
22,0.1833259999999654,19.87989807,20.173440929999998,-134.73004915,-0.470411457,0.317134798,10.4075345995,-8.934963466,3.2297503945,-1.66949749
23,0.1916589999999587,19.78096962,20.33169556,-134.69308469999999,-3.285556793,0.19176626200000002,10.8293504695,-13.12314558,18.510026930000002,-2.9265877005
24,0.1999919999999519,19.686074255,20.348089215,-134.69844435,0.40524830900000003,-1.213076621,9.080752372500001,-10.7074489575,0.9671999515,-1.6054683625000001
25,0.2083249999999452,19.61050606,20.487356185,-134.6716652,-2.699619889,0.8427569865,13.39994383,-9.9182133695,15.98531866,-3.190029979
26,0.2166579999999385,19.520904545,20.49335861,-134.6844597,-0.7919510900000001,-0.016914837000000002,8.4747979645,-9.775577307,-0.45408910550000003,-1.895370245
27,0.2249909999999317,19.47288513,20.599544525,-134.6597099,-1.759696901,-0.293269593,11.75647211,-6.523665905,12.17109394,-2.036793411
28,0.233323999999925,19.40656757,20.617087365,-134.6749649,-1.2363294360000001,0.8045006915,10.090233328,-6.8438041225,0.739207685,-2.708500743
29,0.2416569999999183,19.353585245,20.6908083,-134.6594124,-1.63062042,0.016513645500000007,10.4212851535,-6.720669984500001,8.152941704,-1.6899568735
30,0.2499899999999115,19.340380670000002,20.709539415000002,-134.6808624,-0.7630745175,-0.010064780500000009,10.048986912,-0.23365926699999995,0.6773618459999999,-3.3344094754999998
31,0.2583229999999048,19.31823444,20.774585725,-134.674675,-2.205128193,0.8249792755,9.880194423999999,-2.6414744855,6.8228063585,-2.346219063
32,0.2666559999998981,19.310656545,20.773083685,-134.7176781,-0.601124838,-0.191501021,11.332154273499999,1.395565912,-2.4169465545,-4.8280334475
33,0.274989000000005,19.33554745,20.835309985000002,-134.7099686,-1.8036623,0.306100927,10.2497100835,2.9528282284999996,6.562873124999999,-2.054472864
34,0.2833219999999983,19.354531285,20.80239296,-134.75933455,0.005675673500000089,0.629210159,9.9944071785,4.8348730799999995,-6.2058241370000005,-4.266839146500001
35,0.2916549999999915,19.40151119,20.86240959,-134.7568398,-2.6488170625,-1.0054295954999999,11.137680052,5.812152623999999,6.117691755499999,-2.5334531069999997
36,0.2999879999999848,19.42849922,20.823641775,-134.8013191,-1.056016952,0.364571482,9.277498962500001,5.621601700499999,-6.683656931,-3.4803663494999997
37,0.3083209999999781,19.488741875000002,20.863320350000002,-134.8050804,-1.5556591149999999,-0.261998832,12.02493477,7.65542984,3.5795382855,-2.4041393995
38,0.3166539999999713,19.54076481,20.83572769,-134.8367081,-1.6935200094999998,-0.6880307795,9.6181120875,8.0764126785,-4.950989127,-2.6162126065
39,0.3249869999999646,19.569834710000002,20.87909794,-134.85047915,-2.884425044,-1.111675173,10.9634070395,4.371536374,3.614046812,-3.604287624
40,0.3333199999999578,19.600071905,20.884594919999998,-134.873127,-1.6756882069999999,-0.5676397235,11.65852499,5.076184392,-0.8459228275,-2.9001780745000003
41,0.3416529999999511,19.582939145,20.990088465,-134.87472155,-3.2452971935,-1.1986032130000002,9.531087874,-1.7239409085,11.0948207395,-4.8446514605
42,0.3499859999999444,19.524403575,21.03810978,-134.90287014999998,-1.931506872,-1.936049342,10.112108708000001,-5.333223343,3.7630833089999998,-5.1855318545
43,0.3583189999999376,19.445502285,21.201644895,-134.9041519,-3.218099594,-1.2044621709999999,12.6475150575,-9.1207144285,17.677883145,-7.0952677725
44,0.3666519999999309,19.286294939999998,21.320822715,-134.93982315,-0.981302619,-1.4805859625000002,9.898144721,-17.09687424,11.583858014,-8.7251403335
45,0.3749849999999242,19.056421280000002,21.511489865,-134.96829985,-4.362856269,-2.2253996135,8.567267893499999,-26.023133275,19.789775849999998,-10.923246146499999
46,0.3833179999999174,18.77349281,21.720269205,-135.01460265,1.2728120535,-2.08577776,10.493010876500001,-31.454304694999998,21.424396514999998,-13.294132235
47,0.3916509999999107,18.38919544,21.84838867,-135.1272812,-3.474599004,-2.9609994889999998,10.0497500915,-40.783535,9.8014903055,-17.191146850000003
48,0.3999839999999039,17.932067875,22.173683165,-135.1784363,-1.091021784,-3.527457714,12.390393255,-52.033851625,34.690992355,-17.917972565
49,0.4083169999998972,17.350175855,22.27180481,-135.3430214,-1.5169911385,-1.4656569215,10.285343886,-62.055633545000006,4.9148334264999995,-21.376026154999998
50,0.4166500000000042,16.739316940000002,22.627511025,-135.4235573,-5.0516011715,-1.858617276,11.271558346,-69.075546265,37.57025337,-21.374187465
51,0.4249829999999974,16.03192234,22.863443375,-135.57624055,1.7579770680000002,-2.907334328,9.8609149475,-77.541427615,21.629198074999998,-24.599161145
52,0.4333159999999907,15.239974495,23.041244505,-135.73766705,-3.0467277765,-1.9616575835,10.219697714,-86.970428465,15.142035005,-23.16174412
53,0.4416489999999839,14.37609434,23.38281727,-135.87089155,-1.5021372885000002,-2.9053686855,11.316433905,-97.11871338,35.10257721,-25.09371853
54,0.4499819999999772,13.43443012,23.515569685000003,-136.06547165,0.862409882,-1.5655739235,9.792237046,-103.18770219999999,9.7318561075,-24.80347252
55,0.4583149999999705,12.444996355,23.79213619,-136.2228699,-5.5430316925,-1.245711848,10.659955145000001,-110.88786694999999,27.70391464,-24.694051745000003
56,0.4666479999999637,11.406172755,24.102542875,-136.39382555,-0.3332813379999999,-1.765066981,9.501284597,-115.83820345000001,31.98671913,-26.212055205
57,0.474980999999957,10.31549072,24.21197796,-136.60908125,-0.507237226,-1.6901105044999998,8.7142950285,-120.02479555,7.6898481845,-26.01519394
58,0.4833139999999503,9.194124222,24.50310135,-136.79771805000001,-2.6680910585,-2.0865505485,11.126629829999999,-124.78808975,30.337965965000002,-26.427316665
59,0.4916469999999435,7.994074583,24.597677230000002,-137.04585645,1.7947217075,-1.2127589435,11.7594887025,-131.31526945000002,6.4134152234999995,-28.860462185
60,0.4999799999999368,6.7761838435,24.738356590000002,-137.2713013,-4.3668358325,-0.08793282549999998,10.4425097685,-134.32949065,12.963203905,-26.849871635
61,0.5083129999999301,5.542526006999999,25.002742765,-137.52443315,-0.99311316,-1.1276351215,10.823985575,-134.8535156,27.9008646,-31.149858475000002
62,0.5166459999999233,4.2693498135,24.946933745000003,-137.8033638,1.7761612535000002,-0.762639254,8.478254555,-138.2399292,-9.9640352715,-30.005542755
63,0.5249789999999166,2.9533289675,25.09727478,-138.08753965,-3.146964073,-2.0127824545,11.45730078,-143.24349210000003,15.287444115,-32.379829405
64,0.5333119999999099,1.5988542435,25.05955601,-138.38150025000002,2.2116780874999997,-0.77798675,9.567737104,-147.0552063,-6.403187749500001,-32.044672015
65,0.5416449999999031,0.238254022,24.987246515000002,-138.6837578,-3.8953130245,-0.5941618310000001,9.514751613,-147.64989475,-9.9709458345,-33.119358065
66,0.5499779999998964,-1.1319123205000001,25.0738554,-138.991066,-1.137899965,-0.58252351,12.95348692,-148.3001709,10.039492133,-33.62087822
67,0.5583110000000033,-2.5141429905,24.81829834,-139.30760575,2.7841204404999997,-0.30636918550000003,7.7849279635,-149.4776077,-30.248200415,-35.757059095
68,0.5666439999999966,-3.9188445805,24.69697952,-139.62094495,-3.6900684835,-0.7158739565000001,9.1114022745,-152.407074,-13.314805029999999,-35.239912035
69,0.5749769999999899,-5.3289005755000005,24.52841377,-139.94509885,1.1126463115,-1.2574164270000001,13.0316729535,-152.75484465,-18.08345413,-37.292095185
70,0.5833099999999831,-6.7041385170000005,24.169612880000003,-140.2325058,-2.450489551,1.4117210805,11.314721346999999,-150.3054886,-40.14575386,-36.048088074999995
71,0.5916429999999764,-8.102459431,24.074186325,-140.5485649,-3.409354925,0.5537136495000001,11.604461430499999,-152.03083800000002,-7.6642076965,-36.210752485
72,0.5999759999999696,-9.464855194,23.697997094999998,-140.82989885,2.4426020385,-0.32546716900000006,8.557133792,-149.22563935,-40.481025700000004,-37.991649624999994
73,0.6083089999999629,-10.817206859999999,23.37353802,-141.102623,-3.6587086915,0.35954114800000003,11.3004931205,-148.85453795,-33.739587785,-36.72930908
74,0.6166419999999562,-12.176300525,23.10930252,-141.37615205,-0.262576565,-0.867435634,11.2119603165,-149.6883545,-25.71691227,-36.462841035
75,0.6249749999999494,-13.4491601,22.621377945,-141.56996915,-0.8135329785000001,1.115802914,8.8011889455,-143.43151089999998,-53.110570905,-34.277732845
76,0.6333079999999427,-14.73649931,22.3954916,-141.83477779999998,-3.7955893874999997,0.988584235,14.4292082795,-141.8393936,-19.75074768,-35.46782875
77,0.641640999999936,-15.90516663,21.873351095,-141.96240235,1.4238901885000002,1.1849931625,8.439600828,-134.21340179999999,-57.45000267,-30.65674782
78,0.6499739999999292,-17.061053275,21.563731195000003,-142.1616898,-5.006800294,2.3630087375,12.344761251500001,-129.397377,-29.95323849,-32.164779665
79,0.6583069999999225,-18.129272460000003,21.044612885,-142.2671738,2.040989235,1.0229391455,8.803995488,-123.26268005,-56.51457405,-30.440869335000002
80,0.6666399999999157,-19.15118408,20.648386005,-142.3995895,-4.073124765999999,1.393199086,11.6692390465,-116.61920549999999,-41.027938844999994,-29.57121563
81,0.674972999999909,-20.07329273,20.144864079999998,-142.49010470000002,0.8515329955000001,2.3419501780000003,8.746189116,-106.61138152500001,-54.26610756,-30.2838335
82,0.6833059999999023,-20.953990939999997,19.696136475,-142.5644989,-2.46151042,1.3218340275,10.648109436999999,-102.27916335,-48.18111992,-26.917609215
83,0.6916389999998955,-21.754453655,19.213165285,-142.63077545,-1.8573411705,1.2740390895,10.84928417,-93.108486175,-52.016727450000005,-28.481474875
84,0.6999720000000025,-22.4735527,18.72987461,-142.6464844,-0.6936761065,2.6458177569999997,10.0251278885,-85.37000656000001,-53.77057457,-23.637098315
85,0.7083049999999957,-23.13940525,18.32109356,-142.716095,-3.6220754384999996,0.8028463124999999,11.203289985,-76.89588546499999,-42.8563652,-26.665880205
86,0.716637999999989,-23.695953369999998,17.847525595,-142.70948794999998,-1.6332833765,2.238182783,10.300013543,-66.77725601499999,-53.26429367,-22.01598263
87,0.7249709999999823,-24.24934387,17.476705555000002,-142.7597809,-1.7810117600000002,1.7712134119999998,10.817961690499999,-64.31018829,-39.085647585000004,-23.739884375
88,0.7333039999999755,-24.704156875000002,17.07379246,-142.77391815,-3.6851443055,1.0573238805,11.721232178000001,-53.778642655,-44.122499465000004,-21.54096317
89,0.7416369999999688,-25.069986345,16.700798035,-142.7814255,-1.270713389,2.57598269,10.17592287,-43.349382399999996,-41.008514405,-20.018663404999998
90,0.7499699999999621,-25.415043830000002,16.35461855,-142.78707885,-2.11134696,1.848861098,10.4785633105,-40.98033714,-38.10264206,-18.30697918
91,0.7583029999999553,-25.68145943,16.04553461,-142.80287170000003,-3.0066472295,1.210066557,10.744556901500001,-31.103796959999997,-33.391986845,-18.009158135
92,0.7666359999999486,-25.866573335,15.723355770000001,-142.79634855,-2.9779337645,1.4874606135000001,10.812509535,-22.201176645,-36.028673170000005,-16.16054821
93,0.7749689999999418,-26.04123116,15.478402615,-142.80953215,-1.3001901525000001,1.644254327,10.469575884000001,-20.264380455,-26.52417278,-14.637809755000001
94,0.7833019999999351,-26.184412005,15.230366705,-142.8316116,-3.69996357,0.1082315445,10.6978211415,-16.199349405,-26.3876524,-15.495327475
95,0.7916349999999284,-26.26150608,15.015958305000002,-142.8416061,-1.7315973865,0.9994648399999999,10.444740772,-8.6325340255,-23.339776995,-12.813791755
96,0.7999679999999216,-26.35745144,14.810736655,-142.86351775,-2.825085759,0.621495873,9.769095899,-10.6107237355,-21.77901268,-13.203398705000001
97,0.8083009999999149,-26.408826830000002,14.65719366,-142.8989334,-1.9246665535,0.203710288,11.1954121595,-4.792367458,-15.445934775,-12.275146485
98,0.8166339999999082,-26.435448645,14.499944684999999,-142.92673489999999,-3.699728608,0.2589767875,10.386966706,-2.0609862805,-16.25339174,-11.42376089
99,0.8249669999999014,-26.45677948,14.355165005,-142.94471744999998,-1.012071535,0.383666486,11.0682559,-1.7600698474999998,-15.38090992,-10.008900167
100,0.8332999999998947,-26.491405485,14.28610897,-143.01076505,-4.452421546,0.031826273000000016,11.091243745,-1.922150284,-4.7888829705000004,-10.702326776
101,0.8416330000000016,-26.487158774999997,14.189907550000001,-143.03121950000002,-0.8240062745,-0.2021055075,9.765996933,1.4175752405,-10.0356271275,-7.6958556174999995
102,0.8499659999999949,-26.48970795,14.12211704,-143.09079739999999,-3.9742743965000003,0.23909974099999998,12.701725484,1.6774764059999998,-4.97430414,-9.9671344765
103,0.8582989999999882,-26.516215325,14.10195732,-143.14376835000002,-1.7061924335,0.25608354800000005,8.5321733975,-1.3335861225,-0.18388459100000001,-6.999468088
104,0.8666319999999814,-26.497122765,14.06953287,-143.21076205,-3.2185148005,-0.311250448,11.136991025,4.5021953585,-0.7999710440000001,-8.860688686
105,0.8749649999999747,-26.4815588,14.05928278,-143.25543979999998,-0.9869391025,0.7154117525,10.905934574,3.455475628,0.4541916475,-5.603971958500001
106,0.8832979999999679,-26.50009251,14.062344555,-143.3287659,-3.464351177,-0.846778251,8.255561588,0.1453799755,3.3657104369999997,-7.661973238
107,0.8916309999999612,-26.4693985,14.092497349999999,-143.37950135,-0.7719671429999999,-0.34960107500000004,11.618639945,5.48782444,5.0957093239999995,-4.078414201999999
108,0.8999639999999545,-26.468267445000002,14.1011858,-143.42917635,-3.0147709845,0.1188311765,9.725863935500001,1.7925036695,2.7485354545,-4.9083791375
109,0.9082969999999476,-26.482755660000002,14.144280909999999,-143.49308015,-2.0930532215,-0.7298544715,11.1050772685,0.435506031,7.1681816575,-4.7440509795
110,0.916629999999941,-26.46821594,14.20854998,-143.55165864999998,-2.2624847885,0.231007248,10.121227026,3.6987726690000002,9.138839245,-2.81820631
111,0.9249629999999344,-26.4811182,14.231595995,-143.60100555,-1.8190194365,-0.4194832445,10.284269096,0.17959409950000005,4.273049951,-4.3071554895
112,0.9332959999999276,-26.49033737,14.309482575,-143.66754915,-1.9374368190000002,-0.3074610085,10.3108844775,1.0875613685,11.025309561,-2.939547658
113,0.9416289999999208,-26.498111725,14.34262991,-143.71754455,-2.150757134,-0.259498641,8.946788072499999,0.8651849030000001,5.381083965499999,-3.8328566550000005
114,0.949961999999914,-26.510267255000002,14.365652085,-143.74295805,0.12672567349999997,-0.4057450965,9.1416761885,-0.5005277395,3.0006050635,-1.5895873305
115,0.9582949999999072,-26.531122205000003,14.41853285,-143.81069945000002,-3.0760712625,-0.725672651,11.012250425000001,-0.19409830900000002,8.431694028499999,-4.6205009225
116,0.9666279999999006,-26.531607625,14.437969205000002,-143.8287735,-2.185094118,-0.35563120649999996,10.0624208465,0.7387785915,2.2138960365,-1.0219439865
117,0.9749609999998938,-26.53762817,14.483381269999999,-143.87966154999998,-0.824286349,-0.20888063699999998,12.076365475,1.044811051,6.767467022,-3.2560112625
118,0.9832940000000008,-26.5526371,14.533318040000001,-143.91747279999998,-3.5680196285,-0.561358586,9.8292980195,-0.40883518399999996,6.531336308,-1.4754122939999998
119,0.991626999999994,-26.570653915,14.54055071,-143.94296265,-0.6952970475,-0.37031777200000005,9.555902481,-1.115230948,1.337761104,-2.662759781
120,0.9999599999999872,-26.59953022,14.58535719,-143.9779663,-1.7349838615,-1.3104269505000001,10.085325242,-2.1926232575,5.8251698014999995,-1.4184588345
121,1.0082929999999806,-26.6247015,14.58000946,-143.9925995,-1.356031761,0.3311788795,9.963103772,-2.2950932379999998,-0.5696989299999999,-2.224148184
122,1.0166259999999738,-26.6459074,14.594005585,-144.01589965,-2.9761050940000002,-1.28891933,10.303171155000001,-1.6368841825,1.9138836860000001,-1.854246497
123,1.024958999999967,-26.66509914,14.644506935,-144.04201505,-1.5965897445000001,0.7133979500000001,11.489626885,-1.206283331,6.0078383685,-0.400164828
124,1.0332919999999604,-26.66440487,14.64495182,-144.04709624999998,-2.2471364735,-0.0962423715,8.420141220000001,0.42144429650000004,-0.47903758249999995,-0.7098343075
125,1.0416249999999536,-26.664649965000002,14.69265938,-144.06499480000002,-1.3272838595,-0.135069698,10.671996595,0.806573093,5.278985262,0.31687377400000005
126,1.0499579999999469,-26.652420045,14.680855274999999,-144.05813595,-1.8165766595,-0.5372499525000001,8.4552931785,1.4877774119999998,-2.4272878765000003,-0.13948231900000002
127,1.05829099999994,-26.654884335,14.684849265,-144.04105375,-0.09725403799999999,-0.521201089,10.104349136,-0.5643711835,-1.1936872040000002,1.5940632909999999
128,1.0666239999999334,-26.64716816,14.67434454,-144.04061124999998,-3.2929873470000004,-0.9415792300000001,11.5727076505,1.1035572885,-2.060761273,-0.5848178195
129,1.0749569999999269,-26.65320778,14.67353439,-144.01940155,-1.5897654294999999,-0.42952993500000003,10.3066167825,-1.0909870265,-1.9581573005000001,1.764058828
130,1.08328999999992,-26.677392005,14.66830778,-144.0184021,-1.7683240775,-0.8989221155,10.086182596,-2.7485931514999997,-1.492093347,-0.252735667
131,1.0916229999999132,-26.68197918,14.639336105,-143.99305725,-1.0368756655,-0.410345733,11.238687517,-1.0594432354999999,-5.1869659425,0.672834709
132,1.0999559999999065,-26.7384758,14.63684988,-143.99533085000002,-2.4700279235,-1.488412976,8.5079066755,-6.5413053035,-1.02713719,-0.442710014
133,1.1082889999998995,-26.76470947,14.573253635,-143.95694735,-0.8013684300000001,-0.5231724025000001,10.180593968,-4.012617588,-9.590553284,0.1459499445
134,1.116621999999893,-26.801776885000002,14.57328987,-143.9477005,-2.0363320705000003,-0.5598246605,11.889830585,-4.447278023,-1.127782106,0.4050890804999999
135,1.124955,-26.832844729999998,14.51854086,-143.91814425,-2.9395393135,-0.4263480605,8.8470001215,-4.4159140585,-8.331895351,0.034899353999999994
136,1.1332879999999932,-26.84605312,14.501315115,-143.8962784,-0.8101601305,-0.08270780750000001,11.978106499999999,-2.127012491,-3.8698569835,1.2838114205
137,1.1416209999999865,-26.87973881,14.440562725,-143.86111449999999,-2.4507929085000004,-1.4676114325,8.689220430499999,-4.7715036865,-9.1307783125,-0.0493072269999999
138,1.1499539999999795,-26.917578695,14.369976040000001,-143.80941009999998,-0.016767293500000002,0.134451687,9.867229461,-5.9284284115,-11.094666959,1.3577531649999999
139,1.158286999999973,-26.94712734,14.289935589999999,-143.777153,-3.0235000850000002,-1.5934131440000001,10.17940283,-4.191757202,-11.034997463,-1.412125617
140,1.1666199999999662,-26.974480630000002,14.20953941,-143.71935274999998,-1.582821131,-0.28684563949999997,11.121295929,-4.8093159194999995,-12.479230885,1.4459622505
141,1.1749529999999595,-27.03865242,14.176232335,-143.71051784999997,-4.166912794,-0.3254360255,10.692098619500001,-7.649851084,-4.8004984855,-1.301017493
142,1.1832859999999528,-27.037557605,14.14649725,-143.65872195,-2.190640099,-0.7012710719999999,10.503779411,-1.2080314460000001,-6.734104872,3.5400480625000004
143,1.191618999999946,-27.070459364999998,14.15910053,-143.667305,-4.0804108385,-0.315738328,11.6104984275,-3.4118803140000002,1.033905804,-0.596414685
144,1.1999519999999393,-27.10815048,14.232633114999999,-143.64896395,-2.1200811264999997,0.2013890595,9.896100045,-4.884936332500001,5.9850938320000004,5.8445732595
145,1.2082849999999326,-27.10821438,14.26342058,-143.64198305000002,-2.793547392,-1.153236866,9.761765959,0.024845838500000106,2.189549476,1.9960790869999998
146,1.2166179999999258,-27.113161085,14.37973261,-143.63127135,-2.152496159,0.1491536495,10.130583285,-0.7219309359999999,10.9384527225,7.3947358130000005
147,1.224950999999919,-27.11449623,14.493470195,-143.63098145,-3.123329401,-0.760188993,10.8414688125,0.11612212649999998,11.3753151915,5.835237384
148,1.2332839999999123,-27.098978045,14.65295076,-143.61282345,-2.4870564935,-0.10145125500000002,7.916719436499999,1.4785951075000001,15.170835495,10.530315878
149,1.2416169999999056,-27.088002205,14.851323605000001,-143.6300354,-3.760103345,-0.677839167,11.117641450499999,2.0927288534999997,21.354578019999998,8.6550343055
150,1.2499499999998989,-27.032732965,15.12029171,-143.63848115000002,-3.0019677875,0.502583325,11.970807555,7.1571614745000005,28.359287260000002,13.56312132
151,1.258282999999892,-26.973033905,15.418850895,-143.67011259999998,-3.610676408,0.0698686765,8.209117531,8.369859455,32.86749935,12.582049132000002
152,1.266615999999999,-26.917702675,15.769756795,-143.7110214,-4.379454732,0.03874406199999997,9.090177536,8.1925082205,38.744627,14.788811684999999
153,1.2749489999999923,-26.79818535,16.190770625,-143.7607269,-2.0952556135,1.4951007965,10.925936938500001,16.205099105,46.92546654,17.296881674999998
154,1.2832819999999856,-26.63896084,16.656005385,-143.83818055,-4.7317023275,0.678249985,9.924519777,21.975628855,53.046447755,16.892262934999998
155,1.2916149999999789,-26.438872335,17.124514580000003,-143.87592315,-1.5941376090000001,1.6672002080000001,10.084682941499999,25.58733368,51.481718065,20.833266260000002
156,1.299947999999972,-26.16528797,17.660108565,-143.95574950000002,-2.5975096225,2.2189938425,7.7767723795,35.85774517,60.803915020000005,20.135245325
157,1.3082809999999654,-25.865806579999997,18.184740065,-144.0077133,-2.713009238,0.0584312215,6.9482507705000005,38.115844725,58.4321022,21.865546225
158,1.3166139999999589,-25.483065605,18.732511520000003,-144.06655884999998,-1.634159565,0.6910202205,13.192047595,48.43421173,61.396755215,22.042381285
159,1.324946999999952,-25.034893035,19.264128685000003,-144.10531615,-3.079542279,1.4431468695,8.668211936999999,55.54681015,58.82462692,22.8346262
160,1.3332799999999452,-24.52381992,19.800109865,-144.13296505,-0.5664732455,1.1307833045,8.2952384965,62.68402672,58.916494369999995,23.79426098
161,1.3416129999999384,-23.996108055,20.33550739,-144.1386261,-2.5847045185,1.760744214,8.631648778999999,63.79070282,58.100328445,25.402690885
162,1.3499459999999317,-23.361473085,20.859576225,-144.14505005,-2.149464369,0.07026380300000001,10.844253301,76.689411165,57.13741875,24.188748359999998
163,1.358278999999925,-22.667030335,21.383568765,-144.11533355,-2.852982044,1.1209717095,7.723981975,82.301944735,55.83061409,27.23219013
164,1.3666119999999182,-21.92959595,21.921583175000002,-144.08734894999998,0.07490144700000001,1.9042598604999998,9.065907955,87.53086852999999,57.839427945,26.905106545
165,1.3749449999999117,-21.12948513,22.41916561,-144.02938845,-3.7881076335,-0.7492099105000001,7.882557392,93.662261965,52.42989349,27.4827652
166,1.3832779999999048,-20.208768845,22.949294090000002,-143.95918275,-0.5358642525,1.5556100609999999,12.267309189999999,107.56147,56.08992958,29.16335106
167,1.391610999999898,-19.223464964999998,23.338953975000003,-143.8138199,-0.9110342564999999,1.9559890035,8.2848308075,111.6242714,37.864637375,30.476237294999997
168,1.399944000000005,-18.181359295,23.862232210000002,-143.6996994,-4.0398000475,0.804094225,9.509605645499999,119.93870545,54.80304909,31.335021975
169,1.4082769999999982,-17.00658989,24.215048789999997,-143.4943237,1.4549033120000001,1.510998726,8.5609568345,131.1767464,32.80935478,33.865476605
170,1.4166099999999917,-15.81027031,24.591871259999998,-143.28968809999998,-3.1787024735,0.7634572534999999,10.593486307,133.78661345,36.417661665,33.498623845
171,1.4249429999999847,-14.524983885000001,25.03392506,-143.07323455,-2.2898833755,0.1344720425,10.575846672,143.62171174999997,44.266363145,36.23418236
172,1.433275999999978,-13.154034615,25.256900790000003,-142.78562925,0.20683520999999994,0.293296829,8.615512131,150.25359345,17.852062224999997,35.976436615
173,1.4416089999999713,-11.77799034,25.626054765,-142.52484895,-3.9358464480000004,0.27785652899999996,11.947953700500001,151.97297665000002,36.390031815,36.75100708
174,1.4499419999999643,-10.316717621999999,25.853822710000003,-142.2286606,0.114890434,0.04303744450000001,9.868331193,160.13760380000002,19.97295666,36.229423525
175,1.4582749999999578,-8.8392438885,26.012695315000002,-141.90127560000002,-0.8808167575000001,0.2761363535,10.438425063,160.40001675000002,12.159790995,37.61979866
176,1.466607999999951,-7.340081215,26.188628195,-141.57484820000002,-2.645566702,-0.378525652,10.879068853,163.0643692,15.262339595,37.04553032
177,1.4749409999999443,-5.778616667,26.278479575,-141.2245064,-0.048737586,0.166177452,12.004363296500001,169.0950928,5.630623579,38.330556869999995
178,1.4832739999999376,-4.2132109405,26.26694107,-140.8772812,-1.36850439,-1.506471604,9.4845404635,169.62913515000002,-5.347131729,36.63525009
179,1.4916069999999308,-2.6636352535,26.314470290000003,-140.526474,-3.0323581099999997,-1.059999466,14.21321678,167.64546205,2.630017072,37.65763855
180,1.499939999999924,-1.094703972,26.20347691,-140.1901703,0.1429288985,-0.5448777825,9.8941328535,170.64048005,-15.213813779999999,35.29796791
181,1.5082729999999174,0.43203416450000004,26.120811465,-139.85513305,-3.5275433065,-2.567374766,11.4576013085,165.79893495,-10.908400539999999,35.633146284999995
182,1.5166059999999106,1.957219243,26.00487423,-139.5334053,-0.2916033715,-0.6220071165,12.244320389999999,166.2953186,-13.906592845,34.533597945
183,1.524938999999904,3.4288123844999996,25.788162235,-139.23623659999998,-3.5811214445,-2.15626961,10.9729485535,161.32946015,-25.242741585,32.864739415
184,1.5332719999998972,4.886517286,25.653015135,-138.9301224,-1.1064486205,-2.230757594,12.3541092875,159.25416565,-14.52424669,33.752521515
185,1.541605000000004,6.2723789215,25.39159107,-138.6658516,-2.9631700514999997,-2.64006114,9.9730277055,152.9410019,-29.210315705,31.125330925
186,1.5499379999999974,7.6394064425,25.20332527,-138.38578415,-1.449324727,-1.6889746185,14.857329844999999,149.93493654999997,-19.476223949999998,32.4613924
187,1.5582709999999906,8.9206814765,24.933931355,-138.15394595,-3.408022046,-3.5510801075,9.3548183435,142.27565005,-29.134469035000002,29.20757294
188,1.566603999999984,10.175481322,24.66479206,-137.9159851,-0.9626870160000001,-2.0109337565,13.041630744999999,138.88138579999998,-28.295113565,30.50551033
189,1.5749369999999772,11.35093212,24.4319458,-137.70377729999998,-3.9989066125,-2.4982112645,11.7180910135,130.74291995,-23.873295785,27.52561188
190,1.5832699999999704,12.482491495000001,24.12704945,-137.5069504,-0.554768354,-3.17136848,8.78866148,126.36802295,-32.10740471,28.23143387
191,1.5916029999999637,13.53794336,23.853269575,-137.3221817,-3.1559936405,-3.0144051315000002,12.6959338205,117.93911745,-28.220030785,26.73204136
192,1.599935999999957,14.50271082,23.56528187,-137.1422882,-0.5583391635,-3.1450260875,11.1343688975,107.35454175000001,-29.476192474999998,27.117401125
193,1.6082689999999502,15.39512253,23.23005676,-137.00216675000001,-3.73940742,-2.9739904399999997,9.998147488,100.732303605,-35.667879105,24.8771677
194,1.6166019999999437,16.251409535,22.987408635,-136.83460995000002,-0.5825561435,-2.9063461425,14.264300344999999,95.12503815,-23.70456791,25.30774975
195,1.6249349999999367,16.988620755,22.6000948,-136.7405357,-1.9463016990000002,-3.1652426719999998,10.459870338,84.398025515,-42.31085205,22.88941097
196,1.63326799999993,17.63096237,22.355324744999997,-136.6022568,-3.2653514145,-3.5239254239999998,10.102025749,71.03181076,-24.238601685,22.96765423
197,1.6416009999999233,18.183082579999997,22.008543015,-136.5321999,-1.7379863260000001,-2.488192916,10.8596532355,63.37295151,-37.971967695000004,19.801917080000003
198,1.6499339999999163,18.711299895000003,21.76697445,-136.42476275,-4.660742998,-2.6988321545,10.894379855,58.84896278,-24.458464625,20.071006775
199,1.6582669999999098,19.169348714999998,21.475221635,-136.35606385,0.08303070099999998,-3.2517751455,10.6749415375,52.249290465,-31.393468855000002,18.25229454
200,1.666599999999903,19.532992365,21.198147775000002,-136.3067436,-3.837917209,-3.1460219625,10.763991831,41.679500579999996,-30.242282865,15.885939595
201,1.6749329999998963,19.848501204999998,20.989188195,-136.22862625,-2.8677269225,-1.882805705,11.967916485,34.829795835,-21.435374260000003,16.32554245
202,1.6832660000000033,20.1019268,20.739060405,-136.17809675,-2.7772580385000003,-2.3846714495,8.908658146,28.43962479,-26.978204724999998,15.199720385
203,1.6915989999999963,20.31467438,20.591409685000002,-136.0969963,-2.990324557,-3.1067398195,11.195881844999999,22.456805225,-14.253482818,14.32748079
204,1.6999319999999898,20.465597155,20.33096123,-136.06726075,-0.998427689,-2.760855675,7.8947832585,16.99318314,-28.80248737,13.715387825
205,1.708264999999983,20.5683012,20.176288605,-136.01266859999998,-4.6913706065000005,-2.0950667265,13.52702236,10.424370766,-16.001732825,11.918219565000001
206,1.7165979999999763,20.646115305000002,19.97284317,-135.9556656,-0.7907835244999999,-1.8647733624999998,9.8140759475,7.16042614,-21.26411915,14.333299635
207,1.7249309999999696,20.710316655,19.850004195,-135.90065385,-4.4605439905,-1.217871867,11.520888805,5.7954978945,-12.364436867,10.661486147
208,1.7332639999999628,20.727428435,19.692351340000002,-135.8333702,-0.7550457715000001,-1.875142157,6.974270820999999,-0.4786022305,-15.690012455000002,13.524442669999999
209,1.741596999999956,20.710245135,19.52430248,-135.80346294999998,-3.0682042245,-1.5142361225,10.6960544565,-2.9690175055,-18.43160725,9.907979965500001
210,1.7499299999999494,20.68747902,19.39733791,-135.74734115,-1.571414709,-1.1999513505000001,9.892182112499999,-4.732044816,-12.7088317895,11.0258617415
211,1.7582629999999426,20.679449085,19.23199177,-135.7112732,-3.589303851,-1.4009211659999998,12.176331759,-2.120545432,-17.880964755,10.43498087
212,1.766595999999936,20.6323452,19.157497405,-135.65743635,-1.8868210909999998,-0.9918001595,10.740144730499999,-7.526648998499999,-6.8938486575,8.635668992500001
213,1.7749289999999291,20.570405960000002,19.01530838,-135.6240387,-2.8172945975,-1.6143821479999998,9.1796770095,-8.44645047,-15.406122204999999,9.1578478815
214,1.7832619999999224,20.478116035,18.92637062,-135.58343505,-0.8411145805,-1.3654697985,9.0597271935,-12.4247694,-9.0656027795,7.7991709705
215,1.7915949999999157,20.371279715,18.83237648,-135.5637207,-5.2668213845,-1.780258864,10.1944065075,-13.298127175000001,-10.558875561,5.6282236574999995
216,1.799927999999909,20.284682275,18.75437355,-135.52573015,-1.0005360319999999,-1.2792882620000001,10.1047287005,-11.6290879235,-7.968813419,7.0250315665
217,1.8082609999999024,20.1762867,18.732193950000003,-135.49986645,-4.788258195,-0.217895424,11.433895112,-13.67867708,-2.250492871,3.3037952185
218,1.8165939999998957,20.10225964,18.68451786,-135.45155714999999,-1.6145228745,-0.28195318599999997,9.283404350000001,-10.493058918,-4.205365062,6.75581336
219,1.8249270000000024,20.020339014999998,18.677845955000002,-135.4292145,-3.9516979455000003,-0.752839297,8.903244972,-10.378932950500001,-0.6474381085,2.2806594374999998
220,1.833259999999996,19.951539994999997,18.65379238,-135.3774071,-1.0062725545,-0.18809969,8.1065375805,-9.944272993,-1.4609340430000002,6.062512398
221,1.841592999999989,19.893419265,18.59441757,-135.3775101,-2.116567731,-0.315192953,10.401070595,-6.705929518,-7.4639573095000005,2.017025083
222,1.8499259999999824,19.858325005,18.57880592,-135.34323885,-1.6628508565,-0.666208744,10.753122567,-5.204140186,-1.1824491025000001,3.9190227990000004
223,1.8582589999999757,19.853394505,18.53114605,-135.3400116,-3.8332566025,0.0430828665,10.6418647775,-0.41888225099999987,-6.022028446,1.8943712115
224,1.8665919999999687,19.844182015,18.536024089999998,-135.30786135,-1.1254405975,-0.029589354999999984,9.4920511245,-2.092151403,1.105952218,2.999580622
225,1.874924999999962,19.862041474999998,18.535183905,-135.2949791,-5.142571926,-0.8329217435,9.712260246500001,1.94755286,-0.3655727505,1.017960906
226,1.8832579999999552,19.91996288,18.518849375000002,-135.27471925,-0.4061949254999999,-0.263433382,11.1396579755,6.43282938,-1.7748357060000002,2.509407401
227,1.8915909999999485,19.96378803,18.520032885,-135.27206425,-3.1083514985000003,-0.6158606225000001,10.812236311,5.4678258895,-0.5254759789999999,-0.131644368
228,1.8999239999999415,20.035443305,18.536491395,-135.26039505,-1.728958398,-0.5497723075000001,9.061618566,8.4159989375,1.596356094,0.263890654
229,1.908256999999935,20.071134569999998,18.55401802,-135.2732277,-3.9422791005,-1.4851890805,9.5853643405,5.061199665,0.7127799990000001,-2.478413999
230,1.9165899999999283,20.100429535,18.621630670000002,-135.27174,-2.728205562,-2.142003238,10.3102793695,3.7108305095,6.9832670685,-2.8774074615
231,1.9249229999999216,20.13707924,18.660147665,-135.2861252,-3.2592140435,-1.1598771810000001,11.774111271,5.1939845085,3.0220897195,-3.527804494
232,1.9332559999999148,20.133687969999997,18.788189889999998,-135.2884216,-3.51038456,-1.5380217434999999,10.425882818,-0.006755828999999991,13.62145996,-5.800383091
233,1.941588999999908,20.08193302,18.869626045,-135.31505205,-2.3139499425,-1.7127143145,9.207140922499999,-4.903756261,7.3743519785,-6.596370696999999
234,1.9499219999999011,19.96780777,19.056304930000003,-135.3619881,-2.44137305,-3.3276779655000004,9.7846288705,-11.518753527,18.461751460000002,-13.08663988
235,1.9582549999998944,19.77664089,19.109353065,-135.4635773,-0.760528594,-3.1406798365000004,8.136399982499999,-18.682122235,1.3090994955,-13.392191884999999
236,1.9665880000000016,19.485302925,19.345611575,-135.56777955,-5.437515497,-3.6882051230000004,12.2380834235,-30.51800823,21.98246193,-21.046450615
237,1.9749209999999948,19.10447979,19.499959945,-135.68556215,0.019511341999999987,-3.6028836965,10.760269641,-40.68557739,12.3157324815,-19.07025814
238,1.983253999999988,18.614912985,19.66585636,-135.85089115,-4.180216551,-3.9964056015,7.8750879760000005,-51.810346605,12.042278052499999,-24.543660165
239,1.9915869999999811,18.018439295,19.89156818,-135.97930525,-0.1633256525,-2.86048162,11.103236677,-66.028060915,20.39259243,-22.64974308
240,1.9999199999999744,17.32983494,20.02482414,-136.17594144999998,-4.7033076285,-3.923615575,8.363571525,-74.338146205,7.780245066,-26.30641842
241,2.008252999999968,16.530444144999997,20.357352255000002,-136.29219435,-1.1909436585,-3.1407432555000003,9.447110652500001,-90.74737167500001,33.600383755,-24.512031555
242,2.016585999999961,15.569028855,20.441223145000002,-136.5420189,-1.108400643,-3.65073669,11.672844411,-104.71246335000001,1.1828069685,-30.086396219999997
243,2.0249189999999544,14.587570195,20.78000927,-136.6549301,-4.546877146,-3.4011653665,13.116074325,-112.6680298,35.196016315,-23.197401045
244,2.033251999999948,13.412120340000001,20.95250511,-136.89453125,-0.5021840335,-4.1769390105,5.749506891999999,-130.62423325,12.8786616315,-31.291071895
245,2.041584999999941,12.150217535,21.143712045,-137.0735779,-1.56045714,-3.0945391655,13.1039386965,-143.40137485,17.182644370000002,-25.007237435
246,2.049917999999934,10.730937959999999,21.372360229999998,-137.30059814999998,-4.196413517,-6.2628321645,10.1325483315,-160.17552185,21.132914545,-30.600651745
247,2.0582509999999274,9.216124058,21.484245299999998,-137.53520965,1.8630857465,-1.2018932105,10.2124977135,-171.1967087,7.92510414,-28.515166285
248,2.0665839999999207,7.615997076,21.643316265,-137.79728315,-3.888760567,-3.148828149,13.953829285,-180.2150879,13.8891267785,-31.915152550000002
249,2.074916999999914,5.910304308000001,21.61909008,-138.07336425,1.595235378,-2.6683148145,5.5882436635,-192.1775055,-7.2752685545,-30.626680375
250,2.0832499999999072,4.1493189335,21.80352688,-138.3718071,-5.3783643245,-1.4145163895000001,15.031437157500001,-197.8304291,18.40250921,-35.292192455
251,2.0915829999999005,2.3146895169999997,21.582274435000002,-138.67090985,5.915690422,-2.638629794,7.172809837999999,-206.60796355,-29.153823855,-32.209800720000004
252,2.0999159999998938,0.432359502,21.569950105,-139.00881575,-8.78852129,-1.4335458575,12.534005046,-210.65659334999998,-3.129423976,-38.045225145
253,2.1082490000000007,-1.467907965,21.443710324999998,-139.3078041,5.2980047465,0.129791744,13.0762863185,-214.59243014999998,-15.607251882,-33.952720645
254,2.116581999999994,-3.4257850645000003,21.078873635,-139.65114595,-4.2049831155,-2.3891245725,5.8991162775,-219.58267975,-42.84363365,-41.005424500000004
255,2.1249149999999872,-5.3996634485,20.978425979999997,-139.96845625,-1.3666563745,-0.5567162335,12.799059391499998,-222.86986539999998,-10.022774456,-36.745862965
256,2.1332479999999805,-7.3139100075000005,20.495800015,-140.2743416,-1.7284811135,1.0681833025,11.087421415,-216.3454361,-54.49736786,-41.355272295
257,2.1415809999999738,-9.1953697205,20.305760385,-140.5673561,-3.7503733634999996,-0.14740073650000007,13.9773936255,-213.17852019999998,-18.57880974,-36.25368309
258,2.149913999999967,-11.034966945,19.731743809999998,-140.81384655,2.9097256660000004,2.329605222,6.794468166,-210.3097229,-63.65600586000001,-40.16369057
259,2.1582469999999603,-12.885062695,19.401836395,-141.0883522,-6.687774897000001,-0.22257685699999996,12.7174723155,-210.639534,-33.049103735,-38.91294861
260,2.166579999999953,-14.59896946,18.89018631,-141.29719545,0.06412446499999996,1.3640916345,12.727605103,-197.2244644,-54.776931765,-38.05849266
261,2.174912999999947,-16.291467665,18.46487999,-141.51169205000002,-3.499759734,2.80968678,11.200128553,-194.52303315,-43.44588089,-37.468452455000005
262,2.18324599999994,-17.903111459999998,17.971040725,-141.6927452,-1.8239822090000002,1.424803525,11.2974391,-186.43154145,-51.396827695,-37.40431595
263,2.1915789999999333,-19.394906040000002,17.39941311,-141.81221010000002,-0.8986290695000001,3.43511194,9.665886166,-174.36607365,-61.383062365,-35.28942585
264,2.1999119999999266,-20.818426135,16.921541214999998,-141.93719485,-2.536608696,2.5567170679999998,10.886528013500001,-166.25385285,-49.79137611,-33.28880024
265,2.20824499999992,-22.089090345000002,16.282798290000002,-141.9777832,-2.180726886,2.338947773,11.65800095,-150.7606964,-70.39413452,-32.759770395
266,2.216577999999913,-23.297270775,15.745845315,-142.00546265,-0.8757334355,3.6378005745,9.0127353665,-143.97743225,-59.141277314999996,-27.806512835
267,2.2249109999999064,-24.405123709999998,15.165379045,-142.02699280000002,-3.5386656524999998,1.7880257965,10.5142529025,-131.94428255,-63.46793556,-30.834063529999998
268,2.2332439999999,-25.326246265,14.58686447,-141.9804459,-2.3454429505000003,4.0496979955,13.238008494999999,-111.82048420000001,-66.221248625,-24.223193170000002
269,2.241576999999893,-26.136603355,14.00835991,-141.93840025,-3.3333905935,3.327302575,12.985711573,-98.20972441500001,-65.42719650000001,-26.134874345
270,2.24991,-26.879179,13.509698870000001,-141.87841795,-3.7918792370000003,3.5204343795,8.9654428985,-90.627643585,-57.597000124999994,-20.48513889
271,2.258242999999993,-27.518169399999998,13.009981629999999,-141.81821825,-4.182130337,2.4710967540000004,10.039530756000001,-78.06415558,-57.31396866,-21.555955885000003
272,2.2665759999999864,-28.03586292,12.59312534,-141.76060485,-4.801449894999999,2.5426701305,9.7700624465,-63.44268036,-48.346235275,-17.3728323
273,2.27490899999998,-28.414690014999998,12.202805040000001,-141.69217685,-2.476149738,3.1880701780000003,14.65381765,-46.954706189999996,-45.82232285,-15.489871025
274,2.283241999999973,-28.72414112,11.88762712,-141.63576890000002,-4.41971314,3.242738724,9.6666631685,-38.327409745,-37.323020935,-12.324443815
275,2.291574999999966,-28.943252565,11.586275579999999,-141.5809746,-2.2753912805,1.9940634364999998,10.498733284,-27.334263800000002,-35.552606585,-12.203112125
276,2.2999079999999594,-29.093811035,11.332193375,-141.52773285,-3.1936290859999996,2.0273756384999997,7.1277406215,-19.122103215,-30.609972955,-9.41632223
277,2.3082409999999527,-29.18065643,11.10142469,-141.49161529999998,-2.5087327960000003,1.07012099,9.4430530085,-10.9625444435,-27.02615261,-10.175033095
278,2.316573999999946,-29.19557953,10.914066315,-141.45428085,-2.8067935705,1.8963544365000002,11.1350731875,-2.4253748355,-22.684687615,-7.232932091
279,2.324906999999939,-29.146414755000002,10.743138309999999,-141.4505272,-3.951225519,1.3395745755,10.933919905,6.104719639,-18.892926215,-10.01095581
280,2.3332399999999325,-29.041910174999998,10.5955610295,-141.4391365,-1.8397374750000002,0.9639002795,12.459295275,12.544775485,-17.05265379,-7.548537493
281,2.3415729999999257,-28.932458875000002,10.467962744,-141.4563179,-4.072890878,0.98552306,9.2254195215,13.773439405,-13.16253996,-9.597434045
282,2.349905999999919,-28.788079265,10.354810237999999,-141.4851799,-3.2198301555,0.8891174715000001,9.4462797645,18.225375175,-11.142639639999999,-9.7069356465
283,2.3582389999999123,-28.60407257,10.282036303,-141.5202179,-2.0171046255,1.110508874,12.0899300555,23.10450745,-6.429503441,-8.223563671
284,2.366571999999905,-28.411313055,10.219372747,-141.58111954999998,-3.555933714,-0.45894958100000005,9.361042499500002,24.6726923,-4.0845449565,-10.035389424000002
285,2.374904999999899,-28.209674835,10.156640052,-141.63069535,-2.9693140985,0.3896562825,11.480316641000002,25.56014824,-4.626055479,-9.1267619155
286,2.383237999999892,-28.01430321,10.136826040999999,-141.71468735,-2.0736139415,0.205937475,10.9515147215,25.437713625,1.7223152815,-10.056366921
287,2.391570999999999,-27.825268745000002,10.139560223,-141.81713105,-4.1241909265,-1.571405709,9.978496554,25.159247399999998,5.189428985,-10.95801449
288,2.3999039999999923,-27.620561600000002,10.126540661,-141.90634154999998,-2.7486320735,-0.07182925949999999,11.41178036,26.70568943,2.634861469,-10.22985792
289,2.408236999999985,-27.428853035,10.1460042005,-142.01649475,-1.8961143495,-0.5087529885000001,11.514728545,25.592993735,7.3265864865,-10.848559380000001
290,2.416569999999979,-27.25597191,10.193155765,-142.14109804999998,-3.839654684,-0.5487285405,12.044671058,23.627408029999998,10.931574822,-10.68365383
291,2.424902999999972,-27.093236920000002,10.2216877925,-142.24559785,-2.8882302045,-0.475366447,8.198740004,22.061184885000003,7.908233880999999,-9.816393377499999
292,2.4332359999999653,-26.94859219,10.272244450999999,-142.35030365,-1.2603848874999999,-1.327242255,11.766452315,19.799736019999997,10.1691126825,-8.4438254835
293,2.4415689999999586,-26.81571579,10.3171391465,-142.45609280000002,-2.798968673,-1.1554872095,12.610116484999999,18.49826813,9.689234733,-9.1067533495
294,2.449901999999952,-26.71804619,10.3429298385,-142.53710934999998,-1.6788443325000002,-0.6029816825000001,7.851564884,13.713984964999998,6.1967945095,-7.3264596465
295,2.458234999999945,-26.684505465,10.36822796,-142.6106949,-1.293452144,-2.496793866,9.031516552,5.862036586,5.866966962499999,-6.800312042
296,2.4665679999999384,-26.648096085,10.381220343,-142.69028475,-4.118591666,-1.218094826,13.051891804499999,6.3296234605,4.72916913,-7.859523296
297,2.474900999999932,-26.639424325,10.4271326085,-142.7618637,-1.974660456,0.121680727,9.2082576755,2.868525982,7.947021962499999,-5.469715357
298,2.483233999999925,-26.690868379999998,10.466688158,-142.84555815,-2.55099535,-1.777610749,8.106915473499999,-4.140708089,7.801507473,-6.860568285
299,2.491566999999918,-26.73824692,10.480509759,-142.90917969999998,-1.9647034234999998,-1.117367357,10.5635626335,-3.9988946915,4.0897488595,-6.3647158145
300,2.4998999999999114,-26.771603585,10.4673852945,-142.9514313,-1.566119492,-0.11282231300000001,11.0064291935,-2.8570380954999997,-0.025281131499999998,-5.348745823
301,2.5082329999999047,-26.851347925,10.5089416515,-143.01197815,-2.318834424,-0.611081034,9.800199509,-7.97832942,6.9126877785000005,-4.5243005755
302,2.516565999999898,-26.93725586,10.5268568975,-143.05490875,-3.7931824924999997,-1.3366119865,10.6996095205,-9.1587738995,3.306637883,-3.6619715695
303,2.524899000000005,-27.030019760000002,10.535062791000001,-143.09256745,-0.9723680615000001,-0.5701711475,9.1124224685,-10.017875669999999,2.1263210775,-3.9090851544999996
304,2.533231999999998,-27.15636921,10.536366465,-143.12516785,-1.9915496115,-1.854302287,8.6860723495,-14.23438883,1.057330012,-3.5916731355
305,2.5415649999999914,-27.30226612,10.5401864075,-143.15940855000002,-3.0768021940000003,-1.009535402,9.8297924995,-16.4538908,1.4876494405,-3.784280062
306,2.5498979999999847,-27.43562603,10.5378413195,-143.1825104,-3.288015127,-0.31402220550000004,10.023239851500001,-15.30630636,0.13375747250000003,-2.7221595645
307,2.558230999999978,-27.571698185000002,10.580366613999999,-143.22401430000002,-2.0408142209999998,-0.36852282299999994,11.371765138,-15.115482329999999,6.0132694245,-2.3761882485
308,2.566563999999971,-27.694249155,10.5986394885,-143.2470932,-3.0010409355000003,0.0653320255,10.578268529,-13.99980259,2.3614599705,-1.61592564
309,2.5748969999999645,-27.81182003,10.5800914785,-143.25092315,-1.094490789,-0.780817747,6.6028897765,-13.691496845,-2.5380896475,-1.8393583144999999
310,2.5832299999999577,-27.94659519,10.576451779500001,-143.2613449,-2.2358665465,-0.592912912,11.6196537,-15.76604605,-0.6672123669999999,-1.4843453914999998
311,2.591562999999951,-28.059125899999998,10.5830416685,-143.2796631,-3.7756694555,-0.531330973,11.944778920000001,-12.77038717,0.9360655550000001,-1.9414436075
312,2.5998959999999443,-28.16412544,10.583308219,-143.28310395,-2.5666143894999998,0.211449206,8.4204497325,-12.33427334,-0.653726593,-0.5168313380000001
313,2.608228999999937,-28.276751519999998,10.606244566,-143.30244445,-2.0753264875,-0.5460317135,11.981626985,-12.798659805,2.7306954709999998,-1.094278723
314,2.6165619999999308,-28.3637352,10.6284961685,-143.3102493,-2.1309974790000004,0.42177918550000004,10.4048142445,-10.0716385855,1.9153492749999999,0.2712674139999999
315,2.624894999999924,-28.46299553,10.5927124,-143.2982483,-2.123888254,-1.3131251335,7.8646998405,-11.86850309,-5.22573328,-1.191958487
316,2.6332279999999173,-28.55676174,10.594187737,-143.28882595,-0.878076166,-0.1680669635,11.036473514,-11.286706925,-1.2374811769999998,0.8740920424999999
317,2.6415609999999106,-28.6248188,10.5815157865,-143.28585815000002,-3.877825379,-0.2004401425,11.1407084455,-7.9207866195,-2.278815448,-0.817029893
318,2.649893999999904,-28.69918728,10.5733232485,-143.2603531,-2.410575211,-0.45788002,9.415780306,-9.3018038285,-3.1783363820000003,1.9901047365
319,2.658226999999897,-28.762723925,10.575582026,-143.2610626,-2.7743418215,0.41849026800000005,10.973179816,-7.313613653,-0.49669849900000007,-0.33221667999999993
320,2.666560000000004,-28.79903793,10.6082606305,-143.25541685000002,-3.1204696895,-0.6347053495,10.0525057325,-4.292286515,2.2257938385,2.3136634529999998
321,2.6748929999999973,-28.847045899999998,10.593559741,-143.25297545,-2.7451155185,-0.210567806,9.1762075435,-5.502622485,-2.4579738375,-0.9994482395
322,2.6832259999999906,-28.881048205,10.629770757500001,-143.24771115,-1.162477553,-0.20465987549999998,9.268801452,-4.021312952,2.591180682,2.5300523045
323,2.691558999999984,-28.904636385,10.653820038500001,-143.2734451,-4.1281114815,-1.1804219485,10.768132212000001,-1.954737693,3.2237760719999997,-1.6694399715000001
324,2.699891999999977,-28.91428089,10.6896328925,-143.25816344999998,-2.3078147175,-0.0891112305,8.768673897,-1.284092903,1.9974299965000002,3.487256527
325,2.7082249999999704,-28.913722995,10.745973110000001,-143.2894287,-2.7261295915000003,-0.362203896,11.979536531499999,1.0368002355000001,6.9368474485,-0.35192041100000004
326,2.716557999999964,-28.880202295,10.848739625,-143.30986024999999,-3.802317262,0.03489279749999996,12.099503995,4.70403564,11.068341732,3.668836594
327,2.724890999999957,-28.852852820000003,10.933169365,-143.34755710000002,-3.1982553005,-0.20431017899999998,7.8785941610000005,4.428016186000001,10.2550117975,0.5930080115
328,2.73322399999995,-28.82419014,11.067251205,-143.37661745,-2.5426710249999998,-0.3871146515,10.1929249775,4.3028018475,14.866062639999999,4.5772328374999995
329,2.7415569999999434,-28.75575447,11.22105646,-143.42944334999999,-2.510197163,-0.380351186,11.66177559,9.7031502725,18.420305255,3.02585654
330,2.7498899999999367,-28.676241875000002,11.35619259,-143.442894,-2.8123267885,-0.12710611499999996,8.3493931275,10.118445397999999,14.108272079999999,6.17237854
331,2.75822299999993,-28.607696535,11.50711918,-143.45036315,-1.0363112614999999,-0.012951095499999999,8.6433620455,8.622067927,15.57570887,7.510499477000001
332,2.766555999999923,-28.487413404999998,11.69877243,-143.4739227,-3.7404495475,-0.32364806549999997,11.887728214,15.2393713,20.656196594999997,8.331016064
333,2.7748889999999165,-28.305238725000002,11.886697765000001,-143.45585634999998,-1.5675538775,1.688434482,9.661183835,21.695935249999998,18.07735777,12.1724519725
334,2.7832219999999097,-28.097095485,12.085694310000001,-143.44303895000002,-4.1977186205,0.351298999,10.5204768185,24.834747315,19.45650959,12.433475495
335,2.791554999999903,-27.826480865,12.34721184,-143.41922,-1.8567221165,1.8104974029999998,8.308510544,32.143024440000005,25.650966645,16.77893639
336,2.799887999999896,-27.48762798,12.599829195,-143.4007187,-4.0796849725,0.525675118,8.75206995,40.378683089999996,24.968547819999998,15.795059205
337,2.808221000000003,-27.061411855,12.909482005000001,-143.3701935,-2.0159323959999997,1.5511985345,13.10096836,50.606426240000005,30.639244079999997,19.792437550000002
338,2.8165539999999964,-26.589397429999998,13.224079135,-143.3622513,-4.906895876,1.6095157565,8.4593000415,56.64415741,32.3711071,17.697001455
339,2.8248869999999897,-26.03062439,13.58989811,-143.32927705,-1.2511965335,1.451854944,7.2772078515,66.39612198,36.901649475,22.49353695
340,2.833219999999983,-25.434004785,13.97367573,-143.34292605000002,-5.791442632500001,0.24157870550000002,9.8607583025,72.2431488,41.348207474999995,18.245628355
341,2.841552999999976,-24.72908783,14.36404228,-143.28804780000002,-0.5209054665,1.4660508635,11.4985430235,83.23174286,38.974283215,25.236438755000002
342,2.849885999999969,-23.964791295,14.806317329999999,-143.30461885,-5.072594643,1.8915779590000001,10.6831851025,92.45601654,48.348266605,19.77847767
343,2.8582189999999628,-23.169717785000003,15.230211735000001,-143.2454147,-0.081527926,0.7670933904999999,8.7767004965,93.85228347500001,43.128774645,26.20832634
344,2.866551999999956,-22.30016613,15.690596105,-143.24196625,-4.443432808,0.21811322850000003,8.4431686415,104.46879575,50.046617505,21.295710565
345,2.8748849999999493,-21.3940258,16.14244938,-143.17557525,-1.6806648375,0.6175527679999999,8.119481802,106.85912705,46.70800972,26.87597847
346,2.8832179999999425,-20.39163208,16.61255598,-143.1189041,-1.924592495,0.5207676215,13.516050335,118.63657764999999,49.69903755,25.614575385000002
347,2.891550999999936,-19.33050823,17.068152429999998,-143.0202789,-3.2002004384999996,2.3572245835,8.480215789,124.19462965,46.813131330000004,28.813473700000003
348,2.899883999999929,-18.212281224999998,17.522852895,-142.9158783,-1.9245099424999998,0.7811046835,10.86345005,130.7653122,47.120586395000004,28.26465416
349,2.9082169999999223,-17.025759694999998,17.98171139,-142.76202389999997,-2.1133851405,1.5667704345,7.6347362995,137.0216141,46.4051609,33.030750275
350,2.916549999999916,-15.76908016,18.422153469999998,-142.6229935,-2.1560647785,0.07676070899999998,9.859121083,145.89201355,45.537559509999994,29.482260705
351,2.924882999999909,-14.4575758,18.878853795,-142.43774415000001,-1.729109883,0.30254155400000005,10.913068057,150.53338624999998,46.66261292,34.186954494999995
352,2.933215999999902,-13.087657455,19.261650085,-142.24749755,-1.6811733615,0.8784218134999999,9.401268244499999,157.27434540000002,38.799091340000004,31.199224475
353,2.9415489999998954,-11.661021235,19.679837225,-142.0361595,-2.6233772930000003,1.7443497474999998,10.891947983,163.0643082,43.11128616,33.69828415
354,2.9498820000000023,-10.149255278,19.990255355000002,-141.79409025,-0.07765859349999998,-0.6279278100000001,10.955150844,171.89344785,30.75204468,33.05441952
355,2.958214999999996,-8.5879569055,20.320049285,-141.5456238,-3.41113317,1.6250591875,11.9948763835,177.38873289999998,33.716112135,33.670852665
356,2.966547999999989,-7.0454814435,20.61377907,-141.30099105,-1.5811822785,-2.1900242270000003,9.112120149999999,175.20755005,30.481865884999998,31.215185165
357,2.974880999999982,-5.4138953685,20.871417995,-141.02576065,-0.979254067,-0.4482286125,12.703945635,184.41851805,26.59702969,33.65568924
358,2.9832139999999754,-3.789811611,21.058612825,-140.75151065,-1.6577537355,0.6720348225,9.390140293,183.46668245,19.243065835000003,31.528225900000002
359,2.9915469999999686,-2.1377040145,21.2025547,-140.46393584999998,-1.2298010885,-1.2449857145,13.34251833,186.14834595000002,14.790620324999999,32.689337735
360,2.999879999999962,-0.502390176,21.315240860000003,-140.1633835,-0.8892010375,-1.5737506744999998,8.317581174499999,183.3708954,12.006600855,33.47101784
361,3.008212999999955,1.1212813705,21.345847130000003,-139.87877655,-1.196859628,-0.864127219,11.064922093,182.7257843,3.0707205534999997,31.41731453
362,3.0165459999999484,2.7507065534999997,21.385987285,-139.5823593,-1.4637500945000002,-2.1137428280000004,11.836742641499999,182.78232574999998,5.1972670555,32.506019595
363,3.0248789999999417,4.331243992,21.355657575000002,-139.3012619,-2.4251393675,-1.8872733415,10.186625479,177.70031735,-2.492586136,31.177687645
364,3.033211999999935,5.90717721,21.243841175,-139.01752855,1.0488473175,-0.9922090320000001,11.6910512445,176.96747585,-11.264009475,32.36741352
365,3.041544999999928,7.442876339,21.116193775,-138.76906205,-2.9992448095,-2.4955337645,13.093146801,173.8507843,-12.77479315,29.015753744999998
366,3.049877999999921,8.9030714035,20.92544842,-138.50016785,-0.572182283,-2.1167945269999997,9.9471068365,163.87436680000002,-19.119127275,32.634110455
367,3.0582109999999147,10.2988343245,20.708070755,-138.27309035,-1.406374514,-2.614480674,12.010194776999999,158.1379242,-22.259260175,29.064123155
368,3.066543999999908,11.666165355,20.39836693,-138.03806305,0.257294502,-3.2556253075,12.613886357,154.39181515,-32.182328225,32.603590965
369,3.0748769999999013,12.92157364,20.13374615,-137.83418275,-3.5996136665000003,-2.5255515575,10.773978473500001,142.51927185,-26.93061352,28.82265663
370,3.0832099999998945,14.090129375,19.785977365,-137.6234169,-0.036124586999999986,-1.9964509009999998,9.107151747,131.7593918,-35.732984540000004,32.577204705
371,3.091543000000001,15.21225405,19.4210968,-137.4698715,-3.0484573839999998,-4.833097458,10.3763198835,128.80355070000002,-38.762929915,27.459783555
372,3.0998759999999947,16.3008132,19.026530264999998,-137.299324,-0.7604992909999999,-1.3705450595,14.676765918000001,124.0267563,-41.00231361,31.23831749
373,3.108208999999988,17.29567528,18.657678605,-137.187397,-3.0810123679999997,-2.39541471,14.053118705,115.37373349999999,-39.474939344999996,24.59582329
374,3.1165419999999813,18.221081735,18.21632099,-137.0718727,0.13192816100000002,-2.3097194435,9.2755723,106.87351609999999,-47.12590027,28.49990368
375,3.1248749999999745,19.044583324999998,17.84595108,-136.9984436,-3.643716812,-2.897412419,11.488989355000001,96.37488174500001,-40.19616127,21.744659419999998
376,3.133207999999968,19.815709115,17.448349,-136.91194155,-1.9001939294999999,-2.7691823245,9.795445442,89.62002563499999,-42.405916215,25.000819205
377,3.141540999999961,20.509286879999998,17.019373895,-136.87732695,-1.4537400305000001,-2.5191584825,10.6613683685,82.24202728,-47.70256233,21.045898434999998
378,3.1498739999999543,21.163777355,16.651507855,-136.8159447,-3.7208348515000003,-2.666307807,12.374126435,76.724456785,-39.50899124,21.979515075000002
379,3.158206999999948,21.762965205,16.258722305,-136.78004075,0.16805246450000003,-2.568249226,11.812670705,70.88751220500001,-43.084472655,20.673927785
380,3.166539999999941,22.254463195,15.901226519999998,-136.75436785,-4.115536332,-3.574050188,9.4524703015,58.481719975000004,-39.435628890000004,18.492690085
381,3.174872999999934,22.68196678,15.514556885000001,-136.7401962,-0.6335732934999999,-2.3051719665,10.2230830175,51.034524919999996,-42.993631359999995,18.802238940000002
382,3.183205999999928,23.061373709999998,15.229279044999998,-136.71564865,-4.6989032035000005,-2.430685401,11.0676784495,45.129470825,-31.20331764,15.6168308275
383,3.1915389999999206,23.381049155,14.887932775,-136.7048416,0.5039010639999999,-2.613907218,9.684587478000001,38.19180679,-37.89083862,16.84089804
384,3.199871999999914,23.633405685,14.602211955,-136.7246513,-5.52756381,-2.8366191384999997,10.54081726,31.252160070000002,-33.1112957,11.271495342
385,3.208204999999907,23.849061965,14.345606329999999,-136.70561600000002,0.28569412250000004,-1.2413269279999999,11.055586814000002,25.482641219999998,-28.043351175,13.9700360295
386,3.2165379999999004,24.03869629,14.155296325,-136.71421435,-6.131011963000001,-2.5047703385,11.05499983,23.34222889,-22.022274019999998,8.033060669
387,3.2248709999998937,24.164089205,13.892403125,-136.7148323,1.265490711,-1.188382685,9.3965358735,15.297113415,-29.575593945,12.413857937500001
388,3.2332040000000006,24.225726129999998,13.72774744,-136.7240944,-4.248935103,-2.7495942115,9.5816712375,7.998336076999999,-19.211421965,6.782927153499999
389,3.241536999999994,24.301893235,13.519373895000001,-136.69898605,-1.5970363315,-0.002835825000000014,11.714341642,8.6723391995,-22.344226835,12.5486464495
390,3.249869999999987,24.343483925,13.405449865,-136.68276215,-3.455861509,-1.3084957000000002,8.896727324,4.875279784,-12.432557105,7.001724006
391,3.2582029999999804,24.34267712,13.222049235,-136.6569328,-0.16314861200000003,-1.649242997,10.077912686500001,-0.569328032,-19.564014435,11.4129476565
392,3.2665359999999737,24.335281369999997,13.09327221,-136.6569748,-2.62217319,-1.741138458,10.94609642,-0.6336004139999999,-14.799127105,6.0451078415
393,3.274868999999967,24.303227425,12.956030365,-136.6270218,-2.9359042345,-0.659522653,11.7848365315,-4.354600668,-14.32758427,9.5974779145
394,3.28320199999996,24.245691295,12.88118124,-136.59117510000002,-0.28681506199999995,-0.826582342,11.369107245999999,-7.61071372,-7.1897950175,7.171006918
395,3.291534999999953,24.198091505,12.749295235,-136.57662585,-3.3150350449999997,-0.8291421605,12.25895977,-5.818306923,-14.496821879999999,7.654233217
396,3.2998679999999467,24.122900965,12.60785341,-136.57743455000002,1.2669588324999999,-0.8526940045,9.5927243235,-8.736153366,-16.24142027,6.546878099500001
397,3.30820099999994,24.016320229999998,12.462439060000001,-136.58122255,-3.9736762045,-1.2475498615,10.317086219,-12.367843624999999,-16.873211384999998,6.354938984
398,3.3165339999999333,23.921967505,12.376779075,-136.5720558,-0.22060430050000002,-0.2929876185,9.625744580500001,-11.306143760000001,-9.683085200499999,4.809553623
399,3.3248669999999265,23.8380785,12.26211834,-136.58950425,-5.7456321720000005,-0.10699829450000001,12.251303195,-9.284893752999999,-14.176638605,3.332451105
400,3.33319999999992,23.7723341,12.184194564999999,-136.57673645,1.7067660245,-0.1510562595,8.231044054,-7.9928531625,-8.635257957,4.8831689355000005
401,3.341532999999913,23.69529533,12.07953167,-136.61929325,-5.3534542325,-0.42184793950000005,9.275856972,-7.8385794165,-14.271967885999999,0.122423217
402,3.3498659999999063,23.63725376,11.975571155,-136.6170273,2.8985411525,0.46028943349999996,10.467733143,-6.832963228500001,-12.002891777,4.9719350335
403,3.3581989999999,23.597652435,11.88782358,-136.65439985,-7.2956740855,-0.7349177745,12.661790374999999,-3.4942879675,-12.1686520585,-0.1595062535
404,3.366531999999893,23.56266403,11.823891159999999,-136.63840485,1.842172772,0.48207458849999996,9.469095466,-4.372453570499999,-6.986905456500001,4.469838619
405,3.374865,23.52013397,11.808638095,-136.6544533,-7.229459047000001,-0.3508280215,10.2184219355,-4.3830890655,-3.1899842005000005,-1.347097665
406,3.383197999999993,23.515242575000002,11.77183914,-136.61933135,2.936473489,0.820006251,8.031137943,-1.2160807845000001,-3.140881896,5.1507349015
407,3.3915309999999863,23.52428722,11.761760235,-136.6355896,-6.576664686,-1.133256644,11.75442791,1.8025441465,-2.6319135430000005,-1.630864799
408,3.39986399999998,23.535429,11.728853704999999,-136.59399795,3.0584818655,-0.8400944975,9.8502509585,0.559344433,-2.4136872295,5.6525366305
409,3.408196999999973,23.541819574999998,11.75931692,-136.6027336,-7.9800534249999995,-0.5844788665,11.3686661735,1.3043473959999998,2.1797389985000004,-2.763084412
410,3.416529999999966,23.563889505,11.789825915,-136.52176285000002,2.6147272585,1.303367913,8.184851885499999,0.8992646929999999,6.4662578105,6.986201048
411,3.42486299999996,23.5797224,11.861742020000001,-136.52014925,-8.022942303499999,-0.8974850105,8.6753401755,2.175045848,7.2254181509999995,-3.638310194
412,3.4331959999999526,23.639150620000002,11.893560885,-136.42861555,4.4439496995,0.3012576105,8.773195268,5.1783599855,7.0076265335,7.828472612
413,3.441528999999946,23.684081075,11.974440575,-136.44603345,-7.737273216,-1.665607035,11.178612472000001,6.063627004500001,7.317943573,-6.1627794505
414,3.449861999999939,23.74829674,12.03134775,-136.3669739,3.3122314215,0.2666353285,11.364677904499999,6.093269706,9.188275935,5.296287283
415,3.4581949999999324,23.79349327,12.13224936,-136.38238525,-6.864517449999999,0.12397816749999996,11.207165955999999,6.0110856295,9.620196821,-6.914955536
416,3.4665279999999257,23.875089645000003,12.223466875,-136.29667665,2.1020326474999997,0.7999360095000001,9.2905292515,8.0844631195,13.244848725,4.3144245145
417,3.474860999999919,23.93790245,12.290550705000001,-136.3155594,-3.918111682,-1.3747491834999999,9.766582966,8.168009758,5.736680627,-5.691528796
418,3.483193999999912,23.99271202,12.34036541,-136.2730141,0.2406345755,-1.148496494,9.974728582000001,5.958269119500001,6.6701784135,1.7047493464999999
419,3.491526999999905,24.029316899999998,12.40606642,-136.29201510000001,-3.6779931185,-0.14064660650000002,9.8002219195,5.0158566234999995,5.57135272,-5.6551042780000005
420,3.4998599999998987,24.079805375,12.47702265,-136.26519015,-1.3792443275,-0.38939082649999995,10.5159683215,5.8966088295,8.219243765,-1.0320878020000004
421,3.5081930000000057,24.130979535,12.527145385,-136.28089525000001,-1.3352137805000002,-0.44666090599999997,10.343939304500001,6.62096715,4.0185348985,-4.5771887289999995
422,3.516525999999999,24.148067474999998,12.519218445,-136.3402405,-1.2396498325,-1.233933959,10.584271431000001,4.1430202725,-4.5437418224999995,-6.368303775500001
423,3.524858999999992,24.114959714999998,12.520720005,-136.39121245,-0.1999574900000003,-0.7837298365,9.891672611499999,-2.5352783199999998,-2.99960636,-5.938765528
424,3.533191999999985,24.03241539,12.57273626,-136.4882126,-3.8069753945,-3.4316741224999996,11.265354155,-6.868567944,0.222120296,-13.397588966499999
425,3.5415249999999787,23.907035829999998,12.5461092,-136.56577299999998,1.1222063299999998,-1.0355971305,9.880103588,-12.84640694,-7.357363939,-7.4212082605
426,3.549857999999972,23.6736784,12.485566615,-136.7463188,-2.7852492335,-4.155056715000001,10.699392321000001,-22.907842635,-15.925589084999999,-16.737407685
427,3.558190999999965,23.4133749,12.47711992,-136.8198395,-1.2830452325000001,-0.6934256704999999,11.477591753,-29.096526145,-5.1274619105,-7.8936476685
428,3.5665239999999585,23.07936668,12.41334915,-137.0027008,-2.6505037545000003,-3.026266217,10.447410105500001,-35.0015049,-16.243363379999998,-17.03755951
429,3.574856999999952,22.637846945,12.317663190000001,-137.1022911,0.6630594730000001,-2.084730506,9.57717705,-50.12149048,-15.87879753,-6.6798317435
430,3.583189999999945,22.154724119999997,12.278491975000001,-137.27863695000002,-4.7567535635,-2.218848109,12.839302065,-53.25780296,-12.9139595055,-17.583806515
431,3.5915229999999383,21.602294925000002,12.240485190000001,-137.36627195,-0.5674944520000001,-2.3000397085,10.004252436,-63.666900635000005,-8.8293244825,-8.201671362999999
432,3.599855999999932,20.906090735,12.13964224,-137.56507495,-1.5697399674999999,-4.0019649265,8.990752699,-78.35581589,-20.43819618,-17.64251137
433,3.608188999999925,20.185305595,12.180691719999999,-137.65331270000001,-5.184722185,-0.985100418,12.358631375000002,-83.82751465,0.2165437045,-11.7856148495
434,3.616521999999918,19.3719635,12.162206175000001,-137.8251152,-0.3211090265,-2.6751084325,9.5072376715,-93.11855698,-9.608963488,-18.472115040000002
435,3.6248549999999113,18.462023735000002,12.162823675,-137.9536934,-3.5001351830000003,-1.9790737029999999,7.3489397165,-105.49122234999999,-5.579323888,-14.6509170545
436,3.6331879999999046,17.545585635000002,12.269095895,-138.08994675,-2.8616932925,-0.6348988415,13.1274840845,-106.4336433,6.5049054625,-19.312551499999998
437,3.641520999999898,16.58091831,12.399268625000001,-138.1971588,-3.8426800964999996,-2.5265738965,10.493065835,-112.55185320000001,10.4907012,-16.956795455
438,3.649854000000005,15.527001855,12.41739273,-138.3381233,0.6084657015,-1.165998101,5.8242890835,-122.76568985,-3.1706039905,-16.6341719615
439,3.658186999999998,14.436107155,12.647682190000001,-138.4333763,-6.5709400175,-0.7583355755000001,10.444835664,-127.95663455,23.06059551,-18.2780590045
440,3.6665199999999913,13.35895491,12.796696185,-138.50074385,0.5960807799999999,-1.952205807,13.51066828,-127.3802147,14.75144911,-12.1322662855
441,3.6748529999999846,12.23039579,12.951019285000001,-138.62827679999998,-3.005301595,-1.4954689745,9.3103890435,-131.60398865000002,14.00240183,-19.01131821
442,3.683185999999978,11.1024189,13.137179849999999,-138.69679259999998,-2.5642186405,1.794934273,10.3693365465,-133.34048465,19.529611585,-12.5901055355
443,3.691518999999971,9.946424007000001,13.43105507,-138.79388045000002,-2.3629536630000003,-1.7759245934999999,8.1939466,-135.6637421,31.842497825000002,-17.96095562
444,3.699851999999965,8.7762269975,13.53596067,-138.89534759999998,-0.13890820700000006,-0.48167300199999996,7.0941399355,-137.40277865000002,9.767685414999999,-13.9170312895
445,3.7081849999999577,7.6127073764999995,13.784902095,-139.02528,-3.9304240944999997,-0.8891769645,10.660109221,-135.5702057,26.653873445,-19.622570035
446,3.716517999999951,6.46997571,14.02617216,-139.12172315,-2.5484586955,-0.14890801899999995,15.780913355,-134.1569519,26.60728836,-14.947302819499999
447,3.724850999999944,5.281320572,14.19971466,-139.28417205,0.5881227254999999,-0.5504279435,7.050034760000001,-137.49565125,18.028621195,-21.297667025000003
448,3.7331839999999374,4.1048560145,14.388957505,-139.41003035,-4.174518108,1.331484824,8.888803899500001,-137.26726535,20.67668867,-16.75532532
449,3.7415169999999303,2.9242799285,14.68024063,-139.57157899999999,-1.5442188085,-0.5735970735,7.333246708000001,-136.3916473,32.98183632,-21.232275485
450,3.749849999999924,1.7470205425,14.75808668,-139.69826890000002,0.2759736775,-0.32712778449999996,8.4396093655,-137.27185825,7.9712985745000005,-15.315046785
451,3.758182999999917,0.570697412,14.964101789999999,-139.90146255,-5.300786257,-1.834946096,11.665072442,-134.52327730000002,23.487289429999997,-24.42563534
452,3.7665159999999114,-0.582096666,15.15907812,-140.02423095,0.249026664,1.1958315525,14.2798748,-134.19707484999998,22.630537035,-14.87045908
453,3.774848999999904,-1.825977981,15.178164005000001,-140.25720975000002,-0.4988558289999999,-0.396805737,4.2887592905,-141.6172943,2.0954528045,-27.30979538
454,3.783181999999897,-3.0267728565,15.325947285,-140.4063797,-3.1856531505000003,1.4129672645,8.486185075,-139.01701355,17.70019579,-17.16017342
455,3.791515000000004,-4.1880168915,15.389252185,-140.63084795,0.335983865,-1.1086916329999998,11.736105444,-131.9380112,8.449146984999999,-25.8313818
456,3.799847999999997,-5.319529771999999,15.290360925,-140.7864418,-1.27673953,0.806213319,10.2836768615,-130.4386826,-11.065114258000001,-19.66386032
457,3.8081809999999914,-6.4778833385,15.30999613,-141.00743105,-1.5726271275,0.6249800025000001,9.621707649500001,-131.74974824999998,4.204198122,-25.606331824999998
458,3.816513999999984,-7.649721383999999,15.18790865,-141.15919879999998,0.8934153915,-0.340394229,6.300884364000001,-135.44727325,-13.109452009,-19.83724594
459,3.824846999999977,-8.776498318,14.96769333,-141.34207155,-1.458719045,0.051844537000000024,10.581461906,-129.26039120000002,-23.899461745,-25.141271595
460,3.8331799999999694,-9.878490448,14.832107545,-141.4988556,-3.783741355,0.10058127349999998,12.6510984895,-127.02086259999999,-13.8435757165,-21.07500553
461,3.841512999999964,-11.025342465,14.571609495,-141.65683365,2.6367431285,-0.11295937,8.0026709585,-132.59902195,-28.187367435,-24.114676475
462,3.849845999999957,-12.154788015,14.300418375,-141.8084793,-5.289046049,-0.9250465335,9.49203348,-130.64021305,-29.098404885,-24.1426363
463,3.85817899999995,-13.259468555,14.007286545,-141.94168855,0.37144976350000003,1.347861886,10.662490368,-128.43995285,-31.67774868,-23.27024746
464,3.8665119999999433,-14.36624718,13.743239405,-142.0861435,-4.334458828,0.7335546015,8.836075068,-128.36913295,-27.563199995,-24.06112671
465,3.8748449999999366,-15.412787915,13.414823055,-142.19487765,0.22677934199999994,-0.02436292200000012,9.545310558,-122.2959404,-35.600261689999996,-22.785886765
466,3.88317799999993,-16.392925265,13.059499265,-142.30623625,-4.593525648,0.9257089795,11.305191516,-114.23670580000001,-38.25201416,-24.388583179999998
467,3.891510999999923,-17.380664825,12.749437335,-142.39009095,0.23277205249999994,2.401454568,10.061441657500001,-116.08524704999999,-33.520970344999995,-20.610260965000002
468,3.899843999999917,-18.31122112,12.451500415,-142.49736785,-5.727033019,-0.2496522065,9.4425277735,-108.5958519,-31.06775475,-22.907156945
469,3.9081769999999096,-19.161520005,12.095963954999998,-142.53862,1.6203283560000001,1.7677393555,12.203299045,-100.74095155500001,-39.61788368,-18.68753958
470,3.916509999999903,-20.017999645,11.71692896,-142.60025025,-3.7234710455,0.425636664,9.125160217000001,-101.02621078000001,-41.31078529,-22.107351305
471,3.924842999999896,-20.854166030000002,11.364462855,-142.6216354,-0.041500419499999996,0.753067911,9.102389338,-99.58647537499999,-39.52087021,-17.529233455
472,3.933176000000003,-21.61613655,11.002812865,-142.6638565,-4.252640486000001,0.3241605875,12.18966055,-90.19020462,-39.535232545,-20.426689144999997
473,3.941508999999997,-22.31151676,10.634576795000001,-142.63581084999998,-0.8501603305000001,2.5332044365,12.685865402000001,-83.846992495,-42.979572295,-13.868788242499999
474,3.9498419999999896,-22.960853575,10.288816927500001,-142.6481247,-5.1132788655,1.4920519589999999,8.6075716025,-77.389328005,-38.606542590000004,-17.44375229
475,3.958174999999983,-23.565616605000002,9.980034828,-142.59337620000002,-0.5559602530000001,2.168997586,9.2902035735,-73.467948915,-37.35804367,-9.093986748999999
476,3.966507999999976,-24.073653219999997,9.657858372,-142.5852356,-4.558742285,0.48001258050000006,11.772284508999999,-60.88156891,-36.614341734999996,-14.909762385
477,3.9748409999999694,-24.52268696,9.373780253,-142.51032255,-1.0977268515,1.9534045459999998,11.1463356035,-55.05798912,-35.487817765,-6.34333086
478,3.9831739999999622,-24.942186355,9.079650401999999,-142.48085025,-3.529736638,1.631173432,9.1822135435,-50.69474602,-34.38422108,-11.752455235
479,3.991506999999956,-25.319280625,8.8408679965,-142.4139099,-1.5539898875,1.057389185,7.3555272825,-46.187578205,-30.087104795000002,-5.378728151
480,3.999839999999949,-25.628753664999998,8.595279932,-142.3827667,-3.2209583520000002,0.219677508,11.208362102999999,-37.47267342,-29.03012657,-9.566046713999999
481,4.008172999999943,-25.8838768,8.390632391,-142.335083,-2.7773462535,0.962565139,13.070935725,-31.13939953,-25.351483345,-5.972441554
482,4.016505999999936,-26.11698914,8.194270134,-142.3093643,-3.846309781,1.033380568,9.278120041000001,-28.169476510000003,-23.35614491,-7.8166356085
483,4.024838999999929,-26.313725475,8.0430703165,-142.2743378,-1.8343308565,0.651380643,9.1599159225,-23.90033627,-18.889328955,-4.6752102375
484,4.033171999999922,-26.490709305,7.9308280945,-142.28136445,-5.110082388,-0.15706186,10.31620264,-20.873250965,-12.47974396,-7.070307971
485,4.041504999999916,-26.604019165,7.8211247925,-142.26091,-1.7301870285,0.766904805,13.083898545,-13.589189055,-13.646372320000001,-4.107154876
486,4.049837999999909,-26.691415785,7.752795458,-142.27991485,-4.036698103,0.8163375555,11.510118962,-9.96937084,-7.127610922000001,-5.9658900495000005
487,4.058170999999902,-26.774318694999998,7.6745855805,-142.270195,-1.9013066815,0.2339568735,6.7409777645,-9.7639167335,-9.6890077565,-3.583284229
488,4.066503999999895,-26.832037925,7.6476807595,-142.30207825,-2.858417511,0.571721077,13.14110184,-6.1925807,-1.9288735275,-5.215347111
489,4.074837000000002,-26.84144306,7.595474482,-142.31095125000002,-2.747194946,0.1744073035,10.8109745995,-0.6396450995,-5.897422194500001,-4.1746087075
490,4.083169999999996,-26.84721947,7.544347286,-142.32863615,-2.1133442525,0.8365784365000001,8.783177853000002,-0.18018293350000003,-5.2925738095,-5.0107910635
491,4.091502999999989,-26.849442484999997,7.5320317745,-142.36257934999998,-1.3798224330000002,-0.8380461075,10.8509030355,0.57616017,-0.27320137599999994,-4.660324335
492,4.099835999999982,-26.83109188,7.482630968,-142.3837509,-2.8076950905,-0.296948336,9.5694179535,2.7824295165,-4.9476015570000005,-5.2502725125000005
493,4.108168999999975,-26.80935478,7.421898603500001,-142.3958893,-1.0963127015,-0.9962351915,9.963020799999999,3.0997968914999996,-6.6268131735,-4.970353364999999
494,4.116501999999969,-26.79366684,7.3901941775,-142.41075899999998,-2.1723879575,-0.38394075650000004,12.28024626,2.3654937145,-3.36050427,-3.6842042205
495,4.124834999999962,-26.77490139,7.3337750435,-142.41325375000002,-3.7118504045,-0.849004656,9.7480108755,2.5801734255,-6.6793031695,-3.7099086045
496,4.133167999999955,-26.768735884999998,7.3088591095,-142.42335509999998,-1.828160524,0.204644609,11.1470594405,1.145615965,-2.898513317,-2.793277204
497,4.141500999999948,-26.762077335,7.2956929205000005,-142.44483945000002,-3.137642622,-1.858771086,9.578624726,1.439897835,-1.033022076,-3.395352602
498,4.149833999999942,-26.78649902,7.2586705685,-142.4453659,-2.2288342114999997,-0.5162483379999999,9.161164284,-2.682239175,-4.721683264,-2.4053623675
499,4.158166999999935,-26.82940197,7.2523405555,-142.4684143,-2.061360359,-1.5563700795,9.858047008,-4.498980522,-0.20871770349999996,-3.19498539
500,4.166499999999928,-26.861269,7.209622382999999,-142.46929169999999,-2.277876377,-0.834895179,11.450158121000001,-3.5217078925000003,-5.314281702,-2.7793686390000003
501,4.174832999999921,-26.945271490000003,7.1932330135,-142.48256685,-2.129823685,-0.950609699,10.2547984135,-9.619939568,-1.8017501829999998,-2.6881502865
502,4.183165999999915,-27.023633959999998,7.1687328815,-142.4983368,-2.726051569,-1.227321342,11.08372164,-8.8860650065,-2.5525675414999998,-3.382936239
503,4.191498999999908,-27.089292524999998,7.1311051845,-142.49477385,-2.8942550425,-0.8491411655000001,12.4683957105,-7.6528680325,-4.982724309,-2.0638540384999997
504,4.199831999999901,-27.21879101,7.133233547,-142.5172119,-2.0926122965,0.0927259325,9.798860074,-14.95345163,0.634663165,-2.574871063
505,4.208164999999895,-27.3299675,7.103165388,-142.52461245,-3.328929305,-1.279842034,9.546937467500001,-12.94891262,-3.5635489225,-2.8434175849999996
506,4.216498000000001,-27.44536686,7.069326639,-142.53247829999998,-1.695602417,-1.2819910945,10.9513039575,-13.46926117,-3.9950277805,-3.0030776264999997
507,4.224830999999995,-27.595411300000002,7.083251714499999,-142.55692295,-2.4011868835000003,-0.555270642,9.836921216499999,-17.361204145000002,2.064277291,-2.2108675245000002
508,4.233163999999988,-27.743494035,7.051618814499999,-142.5634079,-2.6518342495000002,-0.9276749785,10.1825494775,-17.41941357,-3.7905234095,-2.810868621
509,4.241496999999981,-27.88723469,7.056593895,-142.58668515,-3.1486469505,-0.6019866469999999,10.736621856500001,-16.635425570000002,1.0558257695,-2.5628840925
510,4.249829999999975,-28.017831805,7.0806384085000005,-142.60653689999998,-1.8212578295,0.02246527399999998,11.3148069385,-15.10300636,2.8547005655,-1.0830725095
511,4.258162999999968,-28.17245865,7.0936207775,-142.616333,-3.918820381,-0.7487700875,10.4551522735,-18.16672325,1.1703660710000001,-0.6944601535000001
512,4.266495999999961,-28.330892565,7.1341342925,-142.6408615,-2.451953113,-0.5266591310000001,8.3332012885,-18.376682285,4.8380950685,-0.5772361755000002
513,4.274828999999954,-28.47305393,7.1893115045,-142.65561674999998,-1.7380786575,-0.779773593,9.316085338499999,-16.554811475,5.8996703625,1.1968511495
514,4.283161999999948,-28.640295029999997,7.216815233,-142.67803955,-2.795562148,-0.6375364960000001,8.8392276765,-19.476379395,3.3686572315000003,-1.103679359
515,4.291494999999941,-28.804416655,7.275430441,-142.70616915,-2.2293843625,-0.5010563435,10.027942779,-18.988433835000002,7.011636734,0.049531548
516,4.299827999999934,-28.92320156,7.341629982000001,-142.75531005,-2.737002492,-0.4409472755,12.495533945,-13.22493458,8.957268717,-1.6110654325
517,4.308160999999927,-29.04432297,7.3850739,-142.77492525,-2.4063822630000002,0.4155763145,10.5392229535,-13.977345464999999,4.9352366925,0.08631336700000003
518,4.316493999999921,-29.161955835,7.4397730825,-142.82530975,-2.9593246580000003,-0.421787441,10.4228186615,-13.09173298,7.815058233,-2.332880855
519,4.324826999999914,-29.220558165,7.518009424,-142.84202575,-1.4150242505,0.6879662314999999,12.079664229999999,-6.485768795,8.402827262999999,2.440422058
520,4.333159999999907,-29.287041664999997,7.5539991854999995,-142.86868285,-3.7882288695,-0.2561329975,9.607006310000001,-7.3248263604999995,4.505633831,-0.979853375
521,4.3414929999999,-29.342039104999998,7.6421086785,-142.88105769999999,-1.6200566889999999,-0.09090225399999999,9.2566661835,-6.1243765355,9.1714847095,3.5062304735
522,4.349825999999894,-29.35515785,7.7084736825,-142.90353395,-2.73655498,-0.7691067119999999,13.048115254999999,-0.966937348,7.432604313000001,1.250083521
523,4.358159000000001,-29.34913254,7.783363103999999,-142.88417055,-1.67816475,1.306881845,9.128289698,0.6930959225,5.9389231205,6.0163166525
524,4.366491999999994,-29.312125205,7.8510186675,-142.88659669999998,-2.8487159010000003,-0.443022668,10.365223885999999,4.6813987489999995,6.389343500000001,3.446254492
525,4.374824999999987,-29.207437515,7.973961592,-142.87075805,-2.6314345594999997,0.8347405415,13.76159668,12.622069835000001,11.172188760000001,8.45461941
526,4.38315799999998,-29.044945715,8.063814163,-142.84887695,-3.078897357,1.038355261,9.474667071999999,19.333109855,7.3068110955000005,7.266083839
527,4.391490999999974,-28.82959938,8.2154068945,-142.82710265,-3.4843115805,1.4535027745,11.2337646505,25.773121834999998,13.88805723,10.68460989
528,4.399823999999967,-28.566425324999997,8.4013547895,-142.80724335,-2.462376833,1.4748645425,9.6598272315,31.417599680000002,17.540926935,12.6294040685
529,4.40815699999996,-28.197859765,8.5917117595,-142.78597255,-3.9908977745,0.829767376,10.030847549,44.15760231,18.128347395,12.67136431
530,4.416489999999953,-27.75095081,8.815471649,-142.7441559,-1.779589772,2.285963714,13.724532128500002,53.066848755,20.48217392,16.822732925
531,4.424822999999947,-27.26796341,9.083904266000001,-142.72917175,-4.5829865935,1.4062864185000001,8.42453432,57.95752716,26.988972665,16.056506634999998
532,4.43315599999994,-26.68661594,9.3776006695,-142.69481660000002,-1.7575565874999999,1.606458962,8.680123211,69.329860685,28.637831685000002,19.47047329
533,4.441488999999933,-26.033535954999998,9.7349443445,-142.68694305000002,-5.0864933725,0.75198137,10.025155546499999,78.46530914499999,37.269334795,19.464374545
534,4.4498219999999264,-25.329728125000003,10.141409875499999,-142.68054195000002,-3.473551393,0.7386074665,8.712343454500001,84.58079529,42.690149309999995,21.68025112
535,4.45815499999992,-24.511633875,10.5776691455,-142.66205595,-3.7199765444999997,1.893520415,11.666333675,98.01440047,45.82804489,23.617883685000002
536,4.466487999999913,-23.621767045,11.07676029,-142.67303465,-3.5479795335,2.0247616765,10.301371810500001,107.27308654999999,54.29590416,23.090774535
537,4.474820999999906,-22.69014263,11.60225582,-142.64385225,-3.6455931665,1.3036603625,7.795883653500001,111.33438495,55.898614885,27.551421165
538,4.4831539999999,-21.662777900000002,12.161487104999999,-142.65351105,-3.3229343295000002,0.7499586345,9.609436394,123.7655754,61.702379230000005,24.042778965
539,4.491486999999893,-20.550557135,12.73619986,-142.6113663,-1.7428402605,1.386153128,9.928723813,132.61841585000002,61.82467651,29.037021635000002
540,4.49982,-19.400553705,13.346031665,-142.6121216,-4.675634861,0.8794488309999999,7.7757878305,138.2827759,68.02946091000001,24.48646355
541,4.508152999999993,-18.132061954999998,13.90575838,-142.5067215,-0.4561674,2.365414202,10.2104411115,149.50360105,58.8932209,32.846987725
542,4.516485999999986,-16.82376957,14.57973862,-142.48542025,-5.168038249,-0.03204834449999999,9.795871496,156.6136169,75.67987442,26.10458946
543,4.52481899999998,-15.47729969,15.17773819,-142.37285615,-0.29659330800000006,0.563870423,6.8818019045000005,158.45461275,64.49907112,32.09819889
544,4.533151999999973,-14.037319185,15.734025955,-142.269516,-0.9017426669999999,1.051944792,10.746520995000001,169.7883072,60.91749573,27.62624359
545,4.541484999999966,-12.56899452,16.29405546,-142.1101761,-3.4394922855,-0.46043389300000004,10.4008705635,171.26527405000002,60.37156105,32.97548103
546,4.549817999999959,-11.089637755,16.831404685,-141.95374675,-0.7799794080000001,-0.37256237850000007,9.8295516975,172.52874755,58.830522540000004,29.751093865
547,4.5581509999999525,-9.539401533500001,17.301980970000002,-141.76021575000001,-1.634261221,-0.02315825199999999,11.872705936500001,179.54530334999998,50.78517151,31.596864705
548,4.566483999999946,-7.990916252,17.749146465000003,-141.53985595,-1.3199715914999999,1.1205699035,6.829158662499999,178.23220064999998,48.562314990000004,32.01147461
549,4.574816999999939,-6.421097994,18.173400880000003,-141.32450485,-3.015232921,-2.0763349535,11.741298198,180.75634005,46.61982536,30.420899390000002
550,4.583149999999932,-4.822397947000001,18.513477325,-141.07938765,1.2501867414999999,-0.5306872724999999,10.001914738,182.9623413,37.216583255,30.69395828
551,4.591482999999926,-3.2180603745000003,18.72803879,-140.82668685,-1.538237095,-0.11410386900000002,9.37556386,183.19285585,22.864461900000002,30.1073122
552,4.599815999999919,-1.610312611,18.966404915,-140.54859925,-0.7796872555000001,-0.43287819650000003,12.295475960000001,182.51832585,26.549798965,31.74312878
553,4.608148999999912,-0.019334793000000017,19.136081695,-140.29309085,-3.3373430965,-1.6891006830000002,8.935021876,181.25858305,19.146394729999997,28.89299202
554,4.616481999999905,1.57097131,19.233581545,-140.009716,1.1721309125,-1.3903269839999999,9.6368861215,179.93811035,11.38407755,31.33332634
555,4.624814999999899,3.1471015214999998,19.26473331,-139.76100155,-2.5779090074999997,-0.9431776780000001,13.24631262,179.62088015,4.112286568,27.614349365
556,4.633148000000006,4.7005393505,19.22224903,-139.48019025,0.24283940000000004,-1.016967416,9.259081364,175.5449524,-3.6675428155,31.64671707
557,4.641480999999999,6.2163348195,19.159773825000002,-139.251297,-3.4101794959999996,-2.9541631935,12.281091215,173.1629944,-5.774449348,26.143758775
558,4.649813999999992,7.7019445895,19.05706692,-138.99020769999998,0.025849901500000008,-1.6453261375000001,12.9993324255,168.283844,-9.4128408435,30.463471415
559,4.658146999999985,9.082331180499999,18.90454102,-138.79028699999998,-2.863475323,-2.762011051,8.815145253499999,158.1656189,-15.575007435,24.73444557
560,4.666479999999979,10.441926955,18.679533005,-138.5746651,0.4545100329999999,-2.6131647825,10.87014437,155.04994965,-23.214982035,28.27850246
561,4.674812999999972,11.736258985,18.453443525,-138.41976929999998,-4.444447875,-2.555634737,15.486251829,149.7189865,-24.009184835,22.138923645
562,4.683145999999965,12.97590065,18.184162139999998,-138.2339706,0.14243057350000002,-1.037426382,9.7519125925,141.99179075,-27.789803505000002,27.33559036
563,4.691478999999958,14.13001728,17.892470359999997,-138.11216355,-2.565788627,-2.909390569,8.968939068,134.2342453,-31.519192695,21.31617832
564,4.699811999999952,15.250526905000001,17.550613405,-137.9857101,-1.7881842855,-2.791928768,12.54580641,130.09148785,-36.772737504999995,24.078902245000002
565,4.708144999999945,16.325887205,17.205965040000002,-137.89727785,-2.695915282,-2.4242155555,14.468750475,126.14587785,-37.79745102,20.59436512
566,4.716477999999938,17.320038795000002,16.85439205,-137.8036003,-1.2037468105,-2.682169199,11.5274527095,116.2542648,-38.006324765,22.270478245
567,4.724810999999932,18.205206869999998,16.488556385000003,-137.7409134,-1.622249454,-2.8940594195,10.85021639,104.36739349999999,-40.364513395,19.90834427
568,4.733143999999925,19.010375025000002,16.122731209999998,-137.6994095,-2.3039433955,-3.3557550904999998,9.3111953735,95.44872665,-40.801168445,18.270768165
569,4.741476999999918,19.760832790000002,15.76438284,-137.66746905,-4.3748017545,-2.6893860099999998,11.910175322,89.328056335,-40.117155075,17.370991705
570,4.749809999999911,20.44252014,15.425459385,-137.64922715,-0.7846247925,-3.4126244784999997,11.0031990995,81.44798279,-38.216127395,15.57224417
571,4.7581429999999045,21.03617573,15.071332455,-137.66697315,-5.067404032,-3.304509878,11.41217756,72.124393465,-41.24626541,12.741316795
572,4.766475999999898,21.55132675,14.7596364,-137.67909625,-1.161925018,-2.6888804435,11.378976823999999,62.43177223,-36.12657547,11.82798624
573,4.774809000000005,21.997675895,14.54294062,-137.68304825,-6.8477084635,-2.369763553,12.098060607499999,54.02603531,-25.10196209,8.8356783405
574,4.783141999999998,22.39451408,14.297502995,-137.6850853,-0.0039573460000000005,-2.5344034435,10.4388775845,47.841108325,-28.082040785,10.5130326755
575,4.791474999999991,22.68992996,14.10992527,-137.70751570000002,-6.160574436,-4.512172222,8.5531082165,36.47152138,-22.57063961,5.8524593110000005
576,4.7998079999999845,22.91657257,13.935613155,-137.6936226,-0.30942791700000005,-1.4107239245,11.719585897000002,26.96440983,-19.38101292,9.2254815075
577,4.808140999999978,23.120063780000002,13.871968745,-137.6682968,-8.2199077605,-2.4479467870000002,9.9372487075,24.027937885,-6.649004221,5.325016379
578,4.816473999999971,23.25996399,13.746179585,-137.6339302,1.3874410985,-1.893694371,7.5107471925,16.023191455,-13.020241734999999,9.302756311
579,4.824806999999964,23.33801842,13.689310075,-137.60534669999998,-4.9961940049999995,-1.5357496739999998,9.507204058500001,8.872200966,-5.7188196184999995,5.3788421154999995
580,4.833139999999958,23.42537403,13.65173006,-137.54050445000001,-2.3684242965,-1.233214319,12.521719455,8.870037794,-1.866074197,8.3962643145
581,4.841472999999951,23.489665029999998,13.68903828,-137.4643288,-4.308724046,-1.554152787,10.395350934,5.8609151839999996,6.869180679499999,5.963576316999999
582,4.849805999999944,23.49868679,13.64769793,-137.4021263,-0.498665154,-1.2091771064999999,8.8624184115,-0.42737996549999996,-2.405906737,8.258414506
583,4.858138999999937,23.47255802,13.718397615,-137.31292725,-4.1129429265,-2.307342708,9.0726707,-5.3962929245,11.1545267105,5.7420589925000005
584,4.866471999999931,23.471143725,13.76494169,-137.2103844,-2.757236123,-0.08556642,12.052146432499999,-2.7767564059999996,9.087950944,8.276184559
585,4.874804999999924,23.48577881,13.86583042,-137.08959199999998,-1.9938994645,-0.3941809535,9.3006417735,-1.4513284475000001,15.945210455,7.668839693
586,4.883137999999917,23.478453635,13.864957805,-137.02179335,-1.6174505944999997,-0.80978024,9.305989503500001,-2.4794582725,2.2551864535000004,6.847166061499999
587,4.89147099999991,23.481591225000003,13.91681814,-136.9191475,-0.8774291280000002,-0.4973816875,7.461457491999999,-2.3073112965,9.707776549,8.087010383500001
588,4.899803999999904,23.49581242,13.976919169999999,-136.85308075,-4.681132137500001,-0.9612764119999999,12.941465379,0.10537695900000005,8.8859825135,3.718873739
589,4.908136999999897,23.547784805,14.057287214999999,-136.73916624999998,-0.12177443499999985,-0.4612319695,10.2476530065,3.2297061680000003,13.361738679999998,7.9061233995
590,4.916470000000004,23.57528782,14.0420661,-136.71145245,-2.4132336975,-0.174523808,10.084476945999999,2.7853174805,-1.1480425595000001,3.2892326415
591,4.924802999999997,23.599575995000002,14.08047438,-136.62682725000002,-0.9129699469999999,-0.39637112599999996,8.330266714,0.7852045,7.3901817795,6.8003492355
592,4.93313599999999,23.64265919,14.06225586,-136.60347365,-3.236878611,-0.8235910835,10.789889333,4.7551805975,-1.696033955,2.9026052655
593,4.941468999999984,23.735938070000003,14.080557344999999,-136.5378456,-2.606525511,-0.19992181649999996,12.3066835415,9.611083985,4.3071688415,5.7297064065
594,4.949801999999977,23.820614815,14.053965094999999,-136.5200653,-1.590825796,-0.277323738,9.083065033499999,9.9091122145,-2.8270948529999997,2.8228558005
595,4.95813499999997,23.909653665,14.020326615,-136.48900225,-0.5261841715,-0.408666877,9.667785168,10.108019353,-3.0045759675,4.550074935
596,4.966467999999964,24.009231565,13.938393595,-136.5027847,-2.569514215,-0.1672732975,9.7089157105,12.620335579999999,-10.3752603525,2.178343952
597,4.974800999999957,24.100209235,13.87715244,-136.50276945000002,-2.3881548045,-1.039443016,9.3801083565,11.229481700000001,-7.4838597775,2.6007354255
598,4.98313399999995,24.18602562,13.813408375,-136.524765,-2.711741254,-1.037524074,11.486398695,11.2431774125,-8.7739920595,0.449862912
599,4.991466999999943,24.292918205,13.752122400000001,-136.54309845,-1.8191514015,-0.880604744,12.46439743,13.61115742,-8.353360654500001,0.6497627945
600,4.9997999999999365,24.380740165,13.643793105,-136.61335755,-2.4032244685,-0.612087056,10.118086813,12.850071907,-15.945718765,-2.398626685
601,5.00813299999993,24.450180055,13.56999111,-136.63648990000002,-0.24921679499999994,-0.6249752195,9.9790773415,9.2925193295,-9.9474363315,0.8174207505
602,5.016465999999923,24.520962715000003,13.461415765,-136.7177887,-3.7836631535,-1.367781937,10.392991068,11.02643871,-16.509039880000003,-3.5519593955
603,5.024798999999916,24.593272204999998,13.38167477,-136.7488556,-2.7287548185,-0.3386606425,9.539227246500001,9.898745536,-10.989514826,0.30151796350000004
604,5.03313199999991,24.638991355,13.316271305,-136.80223845,-2.9009357095,-0.5500629225,10.35752535,7.220992088499999,-10.4813776005,-2.7979199585
605,5.041464999999903,24.699562075000003,13.271150585,-136.8327179,-3.5940275195,-1.6269945505,10.85629225,8.439723968500001,-7.183512926,-1.3689337375
606,5.049797999999896,24.736577985,13.187941550000001,-136.89158245,-1.029385142,-0.6403305825,9.639626504999999,6.2945780755000005,-12.7015838645,-2.489627693
607,5.058131000000003,24.738176345,13.158764365,-136.93052675,-3.5397139785,-1.267995894,9.343191147999999,1.601901531,-5.8555364605,-3.040826172
608,5.066463999999996,24.734059334999998,13.152373314999998,-136.96258545,-2.3844889405,-1.562813282,11.13715744,0.6255316439999999,-3.0129581245,-3.4782536625000002
609,5.07479699999999,24.74731541,13.18051672,-136.98882294999999,-4.592560053,-0.438245926,12.023875710999999,2.632727206,1.0068571119999998,-4.5962245465
610,5.083129999999983,24.741464614999998,13.201406955,-137.00426485,-1.615142524,-0.063575075,8.691401483,0.03014802900000002,0.7592698335,-3.0805663465
611,5.091462999999976,24.711320875,13.270560265,-137.02210235,-3.5332416295,-1.5438055400000001,10.015729429,-2.831583321,5.8962628845000005,-5.7627360825
612,5.099795999999969,24.676514625,13.301200864999998,-137.0514946,-1.4002028105,-1.415627122,10.8941078165,-3.039833546,1.0903023484999999,-5.168658495
613,5.108128999999963,24.60787582,13.326293945,-137.09536359999998,-2.6054979565,-1.1324412525,9.6060736175,-6.753502130499999,-0.1640079695,-6.313448906
614,5.116461999999956,24.498581885,13.408772465,-137.13230894999998,-4.306254387,-1.0235212,11.351294041,-11.715928080000001,6.4269979,-8.445053339
615,5.124794999999949,24.365559575,13.52343607,-137.15289685,-1.857475519,-1.9570432899999999,9.1498980525,-15.091827395,10.761280061,-8.283345461
616,5.133127999999942,24.16031456,13.61855507,-137.22664645,-3.0195753575,-2.577851057,9.9456186315,-22.244817734999998,6.079728364499999,-12.997446065
617,5.141460999999936,23.852348325,13.721894265,-137.29821775,-1.2053518534999998,-2.897399306,8.609987972999999,-34.571041105,7.161101818,-13.046979426499998
618,5.149793999999929,23.488370895,13.868730545,-137.388607,-4.0101076365,-2.5737758875,12.16635251,-40.807199475000004,11.118693353,-17.186306475
619,5.158126999999922,23.02840233,14.039797305,-137.46519849999999,-1.357183218,-3.43634665,12.121656895000001,-52.592573165000005,14.571372030000001,-16.664893625
620,5.166459999999916,22.421007154999998,14.133900645,-137.6249275,-1.7323562505,-4.26836586,7.232102156,-67.98157882999999,2.440235138,-21.995779040000002
621,5.174792999999909,21.733816150000003,14.297093870000001,-137.7458954,-5.216181755,-2.5613559485,11.992331204500001,-78.46947861000001,12.09803915,-20.758151535
622,5.183125999999902,20.944429395,14.510905265,-137.87851715,-1.2266173315,-2.4620733265,12.0252289765,-90.56769561499999,17.53859234,-24.06019497
623,5.191458999999895,20.060822485,14.605458735,-138.06933215,-3.3395399450000003,-4.540554762,6.110310017,-99.874790195,2.1101786195,-25.095472335
624,5.199792000000002,19.115184784999997,14.806679249999998,-138.20722965,-3.08099401,0.4094626755,13.638884305,-109.0815315,16.62813568,-23.53358078
625,5.208124999999996,18.090970995,15.078552720000001,-138.33870695000002,-3.535687685,-3.5282132625,11.0677521225,-118.42781830000001,25.308708189999997,-25.215336800000003
626,5.216457999999989,17.020888325,15.147384164999998,-138.51110075,-0.05967018000000002,-2.2830147145,6.1656880375,-122.88486865,1.111206114,-21.810438155
627,5.224790999999982,15.83484745,15.46503878,-138.64142225,-7.1506197455,-2.0869991185,12.1883162835,-137.75294495,31.557124135000002,-25.60296917
628,5.233123999999975,14.6293931,15.656133655000001,-138.7571144,1.402371034,-2.2419913415,10.6756391505,-140.77004240000002,17.85915661,-19.21827269
629,5.2414569999999685,13.348845005,15.8144989,-138.94821545,-4.734766603000001,-0.4266596735,7.7185940735,-147.0173874,12.36718273,-26.362485884999998
630,5.249789999999962,12.023821354999999,16.10980177,-139.05217745,-1.8876638410000002,-1.2970799505000001,11.687906503,-155.4359665,31.20151043,-19.67734146
631,5.258122999999955,10.654068469999999,16.30562973,-139.25112535,-1.9080758690000001,-3.2431316375,7.9877674575,-157.26940155,17.801457884999998,-27.45141697
632,5.266455999999948,9.259498119,16.437947270000002,-139.40806195,-1.8362626135,1.9630325735,12.1608520725,-161.90367885,11.741104605,-20.819378855
633,5.2747889999999416,7.797797203,16.76510477,-139.6315155,-5.315569162,-3.642726421,9.6902990315,-167.28279880000002,34.2867384,-31.601538655000002
634,5.283121999999935,6.325715542,16.79692936,-139.8197861,3.7611602545,-0.7348269525,6.4032108784999995,-169.97221374999998,0.3623293635,-22.15522003
635,5.291454999999928,4.85536623,17.06388998,-140.09294895,-9.954737662,0.1821008025,15.282499389,-166.51591495,28.085163115,-34.695489885
636,5.299787999999921,3.3477475645,17.17715645,-140.2765961,6.4444773195,-0.6528772709999999,6.0724179745,-174.21732329999998,11.28801489,-22.196836474999998
637,5.308120999999915,1.784284651,17.235043525000002,-140.60089490000001,-7.6412453650000005,-3.8717727660000003,5.042820664,-175.7873459,4.519577979999999,-37.816841124999996
638,5.316453999999908,0.29769128899999997,17.404039384999997,-140.7833328,0.396129191,2.745390296,16.230800631,-171.5805054,19.132948875,-21.564425465
639,5.324786999999901,-1.2539301515,17.348217015,-141.0990753,-2.0032018574999997,-2.50122112,5.714792967,-174.6170578,-7.1664683815,-36.620157245
640,5.333119999999894,-2.7340062855,17.33561802,-141.30689239999998,-1.1238630710000002,2.0811922845,12.8199678635,-169.64110565,-1.415255129,-24.687274934999998
641,5.341453000000001,-4.2338953020000005,17.328842165,-141.60195925,-2.7157775165,-0.8669898135,10.1668376905,-169.23023984999998,0.46173810999999976,-34.238080975
642,5.349785999999995,-5.736618519,17.132330895,-141.7932167,1.532703042,-0.15876656,6.1331581775,-173.0495224,-22.311162945,-24.633891105
643,5.358118999999988,-7.186145306,17.01830578,-142.06667325,-6.0656828879999996,0.7318269610000001,13.8956761375,-164.0685806,-10.841473103999999,-33.12262058
644,5.366451999999981,-8.621843815,16.82791281,-142.24117280000002,1.7161515354999999,0.35640825349999994,8.810878752499999,-165.6951752,-20.565545085,-23.816349029999998
645,5.374784999999974,-10.075051309500001,16.55293751,-142.47693635000002,-3.388256982,-1.3942323625,7.887346224,-166.0584564,-28.942246435,-32.505818364999996
646,5.383117999999968,-11.429025175,16.27845907,-142.6386032,-1.856933579,2.2844748495,13.0430617325,-156.54732515,-29.606806755,-24.91704941
647,5.391450999999961,-12.806260585,16.01499319,-142.83636475,-3.0393413305,0.1440050155,9.455715892499999,-158.47729495,-26.908786775,-29.35776138
648,5.399783999999954,-14.117195129999999,15.71406269,-142.96949005,-1.3984621165,0.4470953645,9.87257302,-152.5707626,-32.286599159999994,-23.764647485
649,5.408116999999947,-15.38209772,15.329227445,-143.1094513,-1.650959216,1.12426275,10.6699638355,-147.07650754999997,-41.318141940000004,-27.813765525
650,5.416449999999941,-16.629707335,14.950297355,-143.18943025,-2.8990701435,-0.017877071999999994,10.7327370635,-146.87984469999998,-41.920879365000005,-21.796997070000003
651,5.424782999999934,-17.82676792,14.61969519,-143.29293825000002,-2.829152584,1.8770343065000001,10.802833555,-140.2607117,-35.11088181,-23.638788220000002
652,5.433115999999927,-18.926884649999998,14.255982880000001,-143.34666445,-3.627165675,1.8935940265,13.2169041615,-130.08373645,-40.25960541,-19.905409815
653,5.4414489999999205,-19.97069168,13.882480144999999,-143.3879776,-1.1823040845000001,1.7787893415,7.742193223500001,-123.8427048,-41.43308449,-19.87781286
654,5.449781999999914,-20.977703095,13.525855539999998,-143.41062165,-3.4881192445,1.5558327735,6.568095088,-119.88957595,-39.990243910000004,-17.661594864999998
655,5.458114999999907,-21.882606505,13.174241065,-143.40073395000002,-0.6102817059999999,1.3893923535,10.872470378,-108.63647845,-40.468666075,-14.747607708
656,5.4664479999999,-22.693548200000002,12.82613325,-143.397583,-5.3638846875,1.257140193,13.322834490000002,-97.098815895,-39.633985519999996,-15.69015932
657,5.4747809999998935,-23.40812874,12.488718035,-143.3348465,0.006652414999999912,3.4031543729999996,11.7218728065,-87.138240815,-40.89853859,-9.496866226
658,5.4831140000000005,-24.113334655,12.175279615,-143.3061905,-5.4371504779999995,1.1647079585,6.588637829,-85.09618759,-36.63330841,-12.26335573
659,5.491446999999994,-24.715273855,11.88251352,-143.23082735000003,-0.9182471635,2.301055312,10.4498446005,-73.850788115,-36.41077423,-6.8680238725
660,5.499779999999987,-25.222848895,11.60229874,-143.183136,-5.2911863325,1.186419308,10.4291872965,-61.803514480000004,-33.707416535,-9.303797722999999
661,5.50811299999998,-25.634088515000002,11.37107897,-143.12165835000002,-2.1080946925,2.9139117,13.43863058,-50.543870925,-28.926747325,-5.784781217500001
662,5.5164459999999735,-25.987802505,11.140409945,-143.07794185,-4.4671406750000004,1.720752716,11.1054940205,-43.185302730000004,-28.03652954,-7.5867934225
663,5.524778999999967,-26.276307105,10.970707895,-143.03189085,-2.5404165385,2.3609845634999997,8.2764785285,-35.42644501,-21.429305075000002,-4.502112985
664,5.53311199999996,-26.529221534999998,10.826440335000001,-143.02529905,-5.277703284999999,1.2591699365,7.885780096,-30.188383105,-16.688986775,-7.267854929
665,5.541444999999953,-26.699829105,10.725457668499999,-142.9939804,-2.2720874545000003,0.7623248695,11.411441086,-20.9187212,-13.245857715,-2.5288561735
666,5.549777999999947,-26.808293345,10.6581563955,-143.0200806,-4.70608449,0.682705708,11.685239313499999,-12.132113935,-6.643495082499999,-6.6905989645
667,5.55811099999994,-26.872961045,10.614457609,-143.00644685,-2.018660009,1.0314909665,10.4666213995,-7.7578997615,-6.171776771499999,-1.3353599605
668,5.566443999999933,-26.929340365,10.563904287500002,-143.03526305,-3.959831357,0.390884161,11.2063727355,-5.885838865,-4.6873604055,-6.0628066060000005
669,5.574776999999926,-26.980700495,10.563861847,-143.05130005,-2.9300489425,0.375490427,8.2026786825,-5.4967056515,0.07543393950000005,-2.0801190695
670,5.58310999999992,-26.98434067,10.539431096000001,-143.09329985,-2.1752285364999997,-0.06556913250000002,11.442586423,0.7431586960000001,-1.182878107,-6.039651394
671,5.591442999999913,-26.944688795,10.530043602500001,-143.1193695,-3.5003402235,0.4310511535,12.809606793,5.6427586075,-0.383848496,-3.6462060215
672,5.599775999999906,-26.929807665,10.499266149,-143.1524582,-2.2027000785,0.681964934,7.9055702685,2.7527623775000003,-2.320348918,-5.4785073995
673,5.608108999999899,-26.885163305,10.512586115000001,-143.18962095,-2.7798372505,-0.29352194449999996,11.989758015,6.4810867309999995,2.6324200035,-3.5754848715
674,5.616441999999893,-26.78804779,10.4993066805,-143.2200928,-2.782970309,0.720035639,11.310328485,12.57598257,-0.580642581,-4.290077328500001
675,5.624775,-26.710102085000003,10.490242959,-143.25369265,-3.9400563239999995,-0.939520903,9.8014428605,10.3954672815,0.032708882999999966,-4.412859559
676,5.633107999999993,-26.62181759,10.5146780015,-143.29786685,-1.122564733,0.388111584,12.140511037,11.821706295,4.185065389,-3.7196032405
677,5.641440999999986,-26.515543935,10.51004267,-143.33988955,-4.8059158325,-0.6791975645,9.232590675500001,13.966598990000001,0.9526064395,-5.0811097625
678,5.649773999999979,-26.441602709999998,10.533590794,-143.3878708,-2.2508921625,-0.541398957,11.27022934,10.182964327,4.2557541135,-4.1442037825
679,5.658106999999973,-26.34125042,10.5648641585,-143.4401016,-3.076355815,-1.4399951695,10.556218625,13.496026995000001,5.329221487,-4.250849247
680,5.666439999999966,-26.26067448,10.595541478,-143.4835205,-2.1851281525,-0.120347783,9.08772707,10.8627099995,4.7853484155,-3.315910518
681,5.674772999999959,-26.240191455,10.6405401235,-143.5477753,-3.5799078939999998,-1.8877504470000002,9.639760017,4.1789051295,7.4197082519999995,-4.79473567
682,5.6831059999999525,-26.189658165,10.674839973000001,-143.59551240000002,-1.5588414369999999,-1.6493507175,10.711798666,7.401976347,5.37585181,-3.577271104
683,5.691438999999946,-26.153632164999998,10.708645819000001,-143.6512299,-3.4735565184999997,-0.08934149150000004,10.347272395000001,5.811011553,5.777495562,-4.4939661025
684,5.699771999999939,-26.17989731,10.7856378565,-143.72603605,-2.2890526055,-1.9772435430000002,8.4257054325,-1.213019848,11.376429080000001,-4.176907182
685,5.708104999999932,-26.184828760000002,10.843672273500001,-143.7908096,-4.403765678,-0.666810218,11.288954258,1.1667605635,8.849866867500001,-4.178008795
686,5.7164379999999255,-26.175584795,10.903405665000001,-143.8497696,-1.286569834,-0.11261557049999998,10.218227866,2.6667689680000004,8.693389895,-3.39040935
687,5.724770999999919,-26.206710815,10.999292375,-143.92417145000002,-3.673003197,-1.6116102935,7.757321597000001,-1.75367862,13.4256506,-3.1779581305
688,5.733103999999912,-26.260525705,11.05050564,-143.97530365,-1.432629779,-1.3960344789999999,9.441692592999999,-5.01545918,7.372463106,-3.032917738
689,5.741436999999905,-26.323547365000003,11.10520172,-144.0254364,-3.251034379,-1.5547454360000001,9.1200902475,-6.1291730405,7.7317538279999996,-2.7758852244999996
690,5.749769999999899,-26.393297195000002,11.187097075,-144.08374025,-1.8948374389999998,-1.1282001959999999,11.014495374500001,-6.762191057500001,11.049656392500001,-2.1261675359999996
691,5.7581030000000055,-26.48577309,11.26405716,-144.13760374999998,-4.4847381115000005,-0.3441896435,10.7484056925,-9.559738875,10.3260273915,-1.957612872
692,5.766435999999999,-26.591136929999998,11.377427579999999,-144.1993866,-1.2919762435,-0.6090781985,9.327848435,-10.9381914135,14.61421919,-0.765097417
693,5.774768999999992,-26.66822338,11.43775654,-144.24216465,-2.8427810705,-1.8041045665000002,10.865818979,-7.9642543795,7.965317011,-1.652944472
694,5.783101999999985,-26.782811165,11.488158225,-144.2797928,-1.3908908144999999,-0.44117683899999993,9.0956954955,-12.599541665,6.597485542499999,-1.593781829
695,5.791434999999979,-26.93362236,11.554570675,-144.33371735,-3.2845051290000002,-1.269006312,8.5145153985,-16.514269825,9.206680298,-2.4521536824999997
696,5.799767999999972,-27.0260458,11.58988476,-144.36364745,-2.8969911335000003,-0.9001321794999999,10.625416038500001,-10.146105764000001,4.572128296000001,-1.553868331
697,5.808100999999965,-27.157894135,11.67768049,-144.43078615000002,-3.6513098475,0.06816336550000002,10.011031627,-13.91743469,12.204277039499999,-2.6154574755
698,5.816433999999958,-27.28469849,11.738461019999999,-144.4651718,-2.321499348,-1.4558941125,8.5776317105,-14.134893420000001,7.5155961515000005,-0.5794133695
699,5.824766999999952,-27.367507935,11.783299925000001,-144.50092315,-1.5006050915,-0.10570211700000001,9.0451934355,-8.7911460415,5.945096731,-1.6570812165
700,5.833099999999945,-27.48655605,11.82607317,-144.52789305,-2.289013982,-1.4938284755,10.031313894,-13.38587809,5.2211737629999995,-0.8106841745
701,5.841432999999938,-27.588706015,11.837209224999999,-144.541008,-2.7974172235,-0.9483573435000001,9.3419299125,-11.605209828,1.1210521459999998,-1.1439383925
702,5.849765999999931,-27.68612194,11.86796093,-144.54867554999998,-2.3449054955,-0.719684124,11.508849145,-11.319464682,2.8902596234999995,0.5746554135
703,5.858098999999925,-27.796380995,11.931180475000001,-144.5830841,-3.9901454449999996,-0.7077701985,10.6630876065,-12.06023979,7.8232994065,-0.44330564100000003
704,5.866431999999918,-27.878588675,11.95394945,-144.5781784,-2.6292548179999997,-0.2453027665,7.9937353135,-9.770961047,1.3354685305,1.4551833269999999
705,5.874764999999911,-27.97027111,12.031308175,-144.6046753,-1.839083731,-0.355412789,10.5238614065,-10.061336519000001,8.8913164145,1.207224637
706,5.8830979999999045,-28.029996875000002,12.06409407,-144.60445405000002,-2.7685487269999998,-0.9160319415,9.682901383499999,-6.940612316,2.673799448,1.4920482334999998
707,5.891430999999898,-28.085276604999997,12.101402284999999,-144.5990601,-2.477919817,-0.45540016149999996,8.840640544500001,-6.4780771735,2.8800774065000003,2.276048899
708,5.899764000000005,-28.14216995,12.16425276,-144.6044693,-1.934073746,-0.921550721,11.300154687,-6.4769887925,6.1507787705,2.6415643094999997
709,5.908096999999998,-28.163985255,12.2083292,-144.58586885,-3.920286775,-0.5776667,8.554100515,-2.7896459475,2.8668411375,4.0183674095
710,5.916429999999991,-28.19280338,12.291646005,-144.5896454,-2.91752708,-0.598961562,10.1880755415,-3.176581621,8.2008204475,4.0246111155
711,5.9247629999999845,-28.206079485,12.42167187,-144.5922165,-4.1329482795,0.0845659895,11.281987664999999,-1.206225969,13.118621350000002,6.711001873
712,5.933095999999978,-28.19417,12.535707949999999,-144.5923004,-3.1706794499999997,-0.4592956755,7.116332292499999,1.612634003,11.25628567,6.1301596165
713,5.941428999999971,-28.182210925,12.716959475,-144.61673735,-3.5579630135,-0.6180673495,10.621325015,2.383047104,19.746149064999997,7.363224745
714,5.949761999999964,-28.139118195000002,12.912333965,-144.63706969999998,-3.591470361,0.17368999849999997,10.942206859999999,5.9286293985,20.988538745,8.612093448
715,5.9580949999999575,-28.059225085,13.141476155,-144.65599824999998,-3.5009366275,0.1503063345,7.7107520114999994,10.392087700000001,24.529836655,10.602790355
716,5.966427999999951,-27.983841894999998,13.430346965,-144.68800349999998,-3.329316616,-0.04710914200000002,9.1248159405,10.113663198000001,31.547142029999996,12.65160179
717,5.974760999999944,-27.874396325,13.76204443,-144.71897884999998,-4.316352487,0.47153639049999996,11.326629638,14.331680299999999,36.08505058,15.054412365000001
718,5.983093999999937,-27.64295006,14.10686922,-144.725708,-2.376024425,1.4869697984999999,10.272905824999999,28.15198612,36.19519043,18.20309782
719,5.991426999999931,-27.424301145,14.524862765,-144.7593918,-4.8724610805,0.3169540165,6.7249923925,27.54905033,45.5141716,19.32003212
720,5.999759999999924,-27.130879405,14.95226145,-144.75325775,-1.6960230470000002,1.2261246445,13.2348537445,35.19566917,44.47084427,23.766036035
721,6.008092999999917,-26.721730235,15.4501729,-144.78066255,-5.608507633,1.2966141999999998,9.4589746005,50.267671585,53.94006729,23.82771015
722,6.01642599999991,-26.234025955,15.92636156,-144.75506595000002,-1.097042292,1.9534251095,9.7734060285,57.914577485,49.043224335,27.724798200000002
723,6.024758999999904,-25.72233009,16.47736549,-144.7637558,-4.8636977675,1.0590106245,8.136932134999999,61.954999925,59.1280365,27.65367126
724,6.033091999999897,-25.115269660000003,17.01002216,-144.7450409,-2.1913495065,-0.206304446,9.789208533,72.40732956,55.948677065,29.109145165
725,6.041425000000004,-24.426621435,17.60588169,-144.75257115,-3.6932792665000003,1.5153493285,10.4264125815,83.18183136,64.53370475999999,28.761395450000002
726,6.049757999999997,-23.68562317,18.186005594999997,-144.74864194999998,-2.231465168,0.563688457,12.155176163,88.96502686,62.5687294,28.4538908
727,6.05809099999999,-22.911331175,18.80325699,-144.75634765,-4.184597731,1.096250236,5.3780325655,93.47367095999999,67.610645295,28.06344986
728,6.066423999999984,-22.049676894999998,19.414653780000002,-144.7394104,-1.5151658955,-0.19886362550000003,10.1166408075,103.02959824999999,66.336235045,29.29946613
729,6.074756999999977,-21.116801265,20.047498705000002,-144.72821045,-4.7821041345,1.138928533,11.24473858,111.77557375,69.3973999,28.693580625000003
730,6.08308999999997,-20.116316795,20.651606559999998,-144.6693726,-0.14775931799999997,0.799059376,9.429837941999999,117.9628372,64.867534635,30.95603466
731,6.091422999999963,-19.09287548,21.270894050000003,-144.6086655,-3.4318735005,0.9700637755,8.008169173999999,120.45095825,66.985309605,30.92566204
732,6.099755999999957,-17.968531605000003,21.864390375,-144.51485444999997,-1.543129742,-0.7209571005,10.008791330000001,131.19274135,63.559618,31.714097980000002
733,6.10808899999995,-16.794057844999998,22.40456581,-144.38202665,-2.5007684230000002,0.44077357650000004,8.676658095,135.17833710000002,56.69314957,33.01582718
734,6.116421999999943,-15.582973955,22.967701915,-144.24139405,-0.8624460995000001,0.374380365,11.630094291,139.26789854999998,59.94559097,32.87956047
735,6.124754999999936,-14.318555355,23.411377905000002,-144.0550308,-2.2365601065,-0.7051348980000001,7.891357422,143.19887545,45.38826561,33.156785965
736,6.13308799999993,-12.988907335,23.9434948,-143.8549576,-2.331944764,0.012631833499999967,12.2088809,150.37644195000001,56.21500969,35.490413665000005
737,6.141420999999923,-11.63851881,24.28413105,-143.6097565,0.011366587499999997,-0.535803616,8.1034657935,150.3023071,33.45611763,34.53186226
738,6.149753999999916,-10.2228312475,24.740712170000002,-143.34996795,-4.4559452535,-1.380720854,10.972354176,157.38069155,47.7556591,37.297670365
739,6.1580869999999095,-8.798657894,25.018704415000002,-143.06023405000002,0.9130875654999999,-0.8014224169999999,9.2804577345,156.5302124,26.92314339,36.20870018
740,6.166419999999903,-7.3607120515,25.354538915,-142.7556076,-4.9220182895,-0.6604714095,11.035421609,157.47128295,34.55268669,37.50514412
741,6.174752999999896,-5.8760373595,25.62931347,-142.4441681,0.590051442,-1.794311285,10.791786312000001,162.35581205,28.104483605,36.925863265000004
742,6.183086000000003,-4.389461279,25.817961695,-142.11198045,-3.759543538,-0.194197729,8.9434778695,161.31297304999998,18.567733765,37.32493019
743,6.191418999999996,-2.895894766,26.05529308,-141.7855339,-0.570293188,-1.878998309,13.07139206,162.3897629,25.41604805,36.58385086
744,6.1997519999999895,-1.414819479,26.108584405000002,-141.44143675,-1.5984649064999998,-2.2939302919999998,7.876544952,159.8027954,4.2311507465,36.833732605
745,6.208084999999983,0.06444816299999997,26.27619171,-141.1143074,-2.1242345570000003,-0.7610809505,14.64647436,160.43612675,18.93772602,35.04999161
746,6.216417999999976,1.520709038,26.21426296,-140.78245925,-0.04565072049999985,-2.461958289,7.3390206115,157.41508485,-7.7077500820000004,35.395502089999994
747,6.224750999999969,2.959225893,26.29887104,-140.46959305000001,-4.320466518,-2.848243594,16.362596515,156.3122406,10.692437173,32.861188885000004
748,6.2330839999999625,4.3518481255,26.160908695,-140.15915295000002,0.7878252864999999,-1.6685994265,8.0278031825,150.889061,-15.156528475000002,33.95059395
749,6.241416999999956,5.715439558,26.15071964,-139.87456129999998,-4.842813849500001,-2.4227389095,16.22846794,148.87558745,0.7059305905,30.265762325
750,6.249749999999949,7.0320112705,25.978975294999998,-139.58962630000002,1.045870036,-2.9050480719999996,7.5514073375,143.21564485,-17.838500025000002,32.38363075
751,6.258082999999942,8.297952175499999,25.84675026,-139.33655165,-3.9135282035000003,-2.828692675,12.449114322,138.8932266,-12.834824085000001,28.76884079
752,6.266415999999936,9.500412464,25.646752355,-139.0802994,0.6955753265,-3.2865707875,12.4305648805,131.22316740000002,-20.196803095,30.66976452
753,6.274748999999929,10.637876510000002,25.383336065,-138.87559125,-4.922402382,-3.6227686405,9.6030869485,126.20806884999999,-28.01312542,26.950372695
754,6.283081999999922,11.75034857,25.20523548,-138.6503601,-0.07132788649999999,-1.8087686895,14.112215039999999,122.22843549999999,-16.986938955,27.730791089999997
755,6.291414999999915,12.76980686,24.88844395,-138.47951510000001,-3.12809968,-2.684877276,10.824270726,113.92074585,-33.961580275,25.79996109
756,6.299747999999909,13.7613101,24.684794425,-138.2769127,-2.8030236960000003,-3.157119632,9.4723367675,109.065979,-19.48513031,26.675605775
757,6.308080999999902,14.68362856,24.30355835,-138.13853075,0.4372938875,-2.840619683,12.113901139,104.06258009999999,-41.389070509999996,25.48174095
758,6.316413999999895,15.533068655000001,24.02846432,-137.98740005000002,-5.2560322285000005,-3.359103322,13.8051185595,94.790893555,-28.32425499,24.156487464999998
759,6.324747000000002,16.324156285,23.75532055,-137.8280487,-0.07968777450000003,-2.494399369,11.7833025445,87.50595856,-27.48971653,25.445734979999997
760,6.333079999999995,17.034786225,23.376686095,-137.71560665,-3.6168642045,-3.389550328,9.4004414065,80.109214785,-40.72474861,24.428629875
761,6.341412999999989,17.66831398,23.113262175000003,-137.58981325,-1.7606981400000001,-4.949334383,13.5757122,70.37443924,-26.807752605,22.27107811
762,6.349745999999982,18.186833385,22.665921214999997,-137.5366516,-1.913921237,-2.809641719,11.098763945,60.02009773,-50.01362228,21.716160770000002
763,6.358078999999975,18.661622045,22.446094515,-137.42858504999998,-3.4446657895,-2.212850094,12.8716845515,52.303352355,-22.004281045,19.30143261
764,6.366411999999968,19.05693626,22.041930195,-137.402668,-0.42094799899999996,-3.9612063170000003,8.664245992500001,46.597486495,-45.721132280000006,18.054649355
765,6.374744999999962,19.377997399999998,21.708963394999998,-137.3702736,-3.9442569020000002,-3.091298342,10.8634436115,37.2982502,-37.31197357,16.085214614999998
766,6.383077999999955,19.646151539999998,21.355302809999998,-137.34163285,-2.489343822,-2.1889445785,13.464990615,31.206504825000003,-39.629522324999996,16.989731785
767,6.391410999999948,19.8662796,21.029366494999998,-137.30487445,-3.4652643205,-2.7850459814999997,11.354838848,25.02482414,-36.187300685000004,16.62714052
768,6.3997439999999415,20.035897255000002,20.725289345,-137.2734413,-2.0629301069999997,-3.086000681,10.829705475,19.337080954999998,-33.789031030000004,15.577659605000001
769,6.408076999999935,20.116999625,20.358018875,-137.27350995,-1.3506174385,-3.032681942,8.1124768255,9.9174859535,-42.162435529999996,14.65566349
770,6.416409999999928,20.170352935,20.070405960000002,-137.26531215,-6.3497123715,-2.4552212955000003,13.7339036445,6.3815824985,-32.758846285000004,12.608601093499999
771,6.424742999999921,20.19127178,19.798529625,-137.2253151,0.03792554149999999,-0.7288306505000001,9.8651432995,1.0872616769999999,-29.83110237,15.052968025
772,6.4330759999999145,20.17931557,19.53922558,-137.24766540000002,-6.792462587499999,-3.692482352,10.499664782,-0.2519674300000001,-30.751383785,8.193238972
773,6.441408999999908,20.140260695,19.25188923,-137.22060395,1.79939504,-0.569408849,9.053800582000001,-5.541204214,-32.07978439,14.32366848
774,6.449741999999901,20.040530205,19.09949398,-137.23543545,-9.150661945,-3.2107759715000004,11.876681328,-11.08005667,-18.439899445000002,4.500294268
775,6.458074999999894,19.97896862,18.916448595,-137.16625975,1.6861857359999999,-0.680323228,11.818238260000001,-9.9089431775,-18.721771715000003,14.435160634999999
776,6.466408000000001,19.85906887,18.784853935,-137.1902313,-7.742411852,-2.4489347935000003,8.551185608,-13.111068724999999,-16.48927975,2.544928789
