,time,Euler_X,Euler_Y,Euler_Z,Acc_X,Acc_Y,Acc_Z,Gyr_X,Gyr_Y,Gyr_Z
0,0.0,21.712106706666663,17.507896419999998,-35.69077046666666,-0.6625043946666668,-1.9925662676666667,8.749766031,12.849901833333334,24.40880457333333,-1.8864171900000002
1,0.0083329999999932,21.769568763333336,17.577105839999998,-35.656000766666665,-1.4939834053333332,-0.8048674066666667,12.414488316666668,4.281659404666667,8.990367731666668,0.24098729066666666
2,0.0166659999999865,21.807004926666668,17.818716050000003,-35.564826966666665,-1.7696425916666667,-1.9116300343333334,11.152810097333335,-0.24728443233333333,30.597826636666667,-1.5175721646666667
3,0.0249989999999797,21.775242486666667,17.85458247,-35.5413386,-0.425304825,-2.3728239536666664,10.013488452999999,-6.0590772626666665,4.788948377,0.47653575233333334
4,0.033331999999973,21.76627858666667,18.05176671,-35.471621199999994,-2.692842007,-1.266656399,9.103760163333334,-5.01903073,24.744132996666668,-1.7718955276666666
5,0.0416649999999663,21.699876149999998,18.133296330000004,-35.44009906666667,-0.550697267,-1.3780285120000002,11.354316712000001,-10.568892163333333,10.217324573333334,-0.723990813
6,0.0499979999999595,21.620557146666666,18.333838776666667,-35.360435499999994,-3.695756435333333,0.07250112766666668,15.051495234666666,-13.831162136666668,25.540812173333332,-0.8000912066666667
7,0.0583309999999528,21.50994174,18.501357393333333,-35.32113393333334,-0.49839075400000005,-1.7639703353333331,8.859247923333333,-16.202232043333336,20.144348783,-3.656003554666667
8,0.0666639999999461,21.42345174,18.625247953333332,-35.2583491,-3.487364928,-0.34691430500000003,11.863464993000001,-14.092066766666667,16.276406287,0.856548836
9,0.0749969999999393,21.31250572,18.84250768,-35.2175471,0.3770748176666667,-0.089780698,8.082882166,-16.347630186666667,25.779286703333337,-5.6109865506666665
10,0.0833299999999326,21.17346382,18.922082900000003,-35.1964137,-1.522647947,-1.226698637,12.420037588666668,-18.82601388333333,9.596624374666666,-1.5836902856666668
11,0.0916629999999258,21.041212716666667,19.162640890000002,-35.12415823333333,-2.3356946906666667,-0.668835044,11.679461477666669,-20.114655813333332,29.697736103333337,-3.1403133076666667
12,0.0999959999999191,20.903330483333335,19.199190140000002,-35.12284089999999,0.42639660833333326,0.13521726566666667,10.644707044333332,-17.943343799999997,3.976990958,-1.8127497833333335
13,0.1083289999999124,20.802980423333334,19.447120663333333,-35.06342823333333,-3.936779062,-0.6276986996666667,10.893465041333334,-15.803243316666666,30.0203743,-4.673129876666667
14,0.1166619999999056,20.66705704,19.517749783333333,-35.040542566666666,0.025888264333333282,-0.3192725636666667,10.680991968,-18.573627473333335,8.671471912666666,-0.9710573753333334
15,0.1249949999998989,20.54779307,19.732398986666666,-34.99529013333333,-3.3219225406666673,0.21895977366666672,11.884454885333332,-17.51897748,25.736069360000002,-4.62801377
16,0.1333279999998922,20.451194126666667,19.797768276666666,-34.9761963,0.33060423533333333,-0.8935813706666665,11.605127015333336,-13.732045489999999,7.931338311666667,-1.1389585139999998
17,0.1416609999999991,20.357778546666665,19.997778576666665,-34.91246286666667,-3.436584750666667,0.12168357266666664,7.923490644,-15.18649959666667,24.83541933666667,-1.955567201
18,0.1499939999999924,20.249460853333332,20.072638833333333,-34.913970966666675,0.6660119330000001,-0.2297061433333333,9.105408985666665,-14.30540371,8.195139726333332,-3.697761297
19,0.1583269999999856,20.184354783333333,20.239792506666667,-34.862274166666666,-3.385625124,-1.2150735060000002,13.036391896666666,-11.333429336,20.67665736,-1.775378863
20,0.1666599999999789,20.069072719999998,20.316420869999998,-34.83718363333333,0.96474878,0.8798697193333335,11.154626848333335,-16.23974133,9.438729129333334,-0.9291950263333333
21,0.1749929999999722,19.96775055,20.440188726666666,-34.81526943333333,-2.9803621766666666,-0.7832961676666667,9.666845639333333,-14.452312153333333,14.640435536666667,-3.0795107683333334
22,0.1833259999999654,19.875425973333332,20.51893615666667,-34.79357910000001,0.10730795233333335,-0.798267553,10.407478650666667,-13.342889786666666,9.550773622000001,-1.3396205903333334
23,0.1916589999999587,19.773009616666666,20.628374736666668,-34.78003183333333,-3.499834458,0.7200578176666665,11.166745979,-14.231891953333331,12.721955299000001,-3.3038060663333333
24,0.1999919999999519,19.691015876666665,20.688674289999998,-34.7615102,0.6043877773333334,-1.1819723646666667,10.771663349,-11.978546143333332,7.351577757666667,-0.9029574193333333
25,0.2083249999999452,19.613217673333335,20.767180123333333,-34.763554899999995,-3.1256829103333335,0.724499305,12.561892193333334,-10.629802703,8.658441782999999,-3.632735173
26,0.2166579999999385,19.518197376666667,20.831066766666666,-34.7547099,-0.5908964476666667,0.039076522,9.343501249666666,-13.124970436666667,7.397708058,-2.0477944613333334
27,0.2249909999999317,19.46096801666667,20.890489576666667,-34.74655150000001,-2.0316278933333334,0.19695903599999998,10.550366719333333,-8.620386442333334,6.90166696,-1.7466946840000002
28,0.233323999999925,19.37829399,20.95454025333333,-34.75143429999999,-1.2208476263333334,0.019229158666666673,12.874210993333334,-11.041845959999998,6.912143628,-3.476373195666666
29,0.2416569999999183,19.34454918,20.978773753333332,-34.74257153333333,-2.1690480313333333,0.55378443,9.449680962999999,-5.842517375666667,2.9525614976666668,-0.24952962999999997
30,0.2499899999999115,19.305631636666668,21.05418523,-34.753728200000005,-0.9899921020000001,-0.3079554586666667,9.458680787,-5.520401636666667,7.974872909000001,-4.577063242333334
31,0.2583229999999048,19.292789456666664,21.060862223333334,-34.762845366666674,-2.099908550666667,0.9373189806666667,11.879185993333332,-2.510224898666667,0.25874654466666663,-1.5619860093333333
32,0.2666559999998981,19.289060590000002,21.120163596666668,-34.788281766666664,-0.9672389526666668,0.621996383,11.928860345666665,-0.6739233236666667,5.627652390666666,-5.445437113666667
33,0.274989000000005,19.30841128,21.13036283,-34.789154066666676,-2.4119579,-0.44251316299999993,9.996980349,0.9805769323333333,0.9839196999999998,-0.7749971053333334
34,0.2833219999999983,19.325126013333335,21.16274516,-34.828041066666664,0.4916635356666667,1.0621537566666666,9.268776892333333,2.3564757506666667,2.0814342496666667,-5.806051889999999
35,0.2916549999999915,19.361077626666667,21.16302808,-34.8473409,-3.2394643623333335,-0.7090991386666667,11.363220850666666,3.7819420496666667,-0.8200739223333334,-2.3165729043333334
36,0.2999879999999848,19.404183706666668,21.17757097666667,-34.86839293333333,-0.6596268216666666,-0.2334602573333334,10.960694788333333,4.76415356,0.7220612369999998,-3.2133783499999997
37,0.3083209999999781,19.464467363333334,21.167097726666668,-34.88867186666666,-1.455346624,0.618333151,9.930947939,6.723591645666666,-2.0714659293333333,-1.9914768933333333
38,0.3166539999999713,19.504112243333335,21.183191933333333,-34.9132538,-1.8237845103333334,-1.293388645,10.89410464,4.508293469666667,0.7666381993333333,-3.6383271216666664
39,0.3249869999999646,19.558602016666665,21.183277766666667,-34.93850456666667,-2.387551387,-0.28409139433333336,12.24598948,6.251094182333333,-1.0606515406666668,-2.9194295406666666
40,0.3333199999999578,19.580219903333333,21.240524930000003,-34.93861896666667,-2.062023997666667,-0.9887307186666666,11.939703623333335,1.283849665,6.333692471333333,-2.7183664640000003
41,0.3416529999999511,19.56990623333333,21.264786403333336,-34.96890513333333,-3.0043546356666666,-1.2477463483333333,10.266997017333333,-1.3119398353333334,1.4983984630000002,-4.378681024
42,0.3499859999999444,19.540077210000003,21.380027769999998,-34.9763921,-2.3818247316666668,-1.98122104,10.687407175333334,-4.565435091666667,12.618847054999998,-5.825903256666667
43,0.3583189999999376,19.454255423333333,21.46711413,-34.99419656666666,-2.9988059203333335,-0.5991101166666667,12.866800308333332,-10.903482595666667,9.075304825333333,-5.579187393000001
44,0.3666519999999309,19.293451946666668,21.659556706666667,-35.0131785,-1.937606613,-2.047325412333333,10.278878527333333,-19.763577143333332,20.952569643333334,-10.063491187666667
45,0.3749849999999242,19.089465460000003,21.758633930000002,-35.05139666666667,-3.579952001666667,-2.584404945333333,11.587203661666669,-24.16637357,9.719702563,-8.136515140666667
46,0.3833179999999174,18.837265650000003,22.017383576666663,-35.092196166666675,-0.7015994389999999,-1.9358549516666663,7.7042079779999995,-29.744199116666664,27.761641819999998,-14.785273236666667
47,0.3916509999999107,18.454519273333332,22.129289623333335,-35.19696046666667,-1.7694722813333332,-2.242984374666667,12.535174529999999,-42.53968429333333,8.827390512333332,-15.73460229
48,0.3999839999999039,18.012236913333336,22.42475001,-35.25299833333333,-2.398554250666667,-3.522661447333333,12.065178552666666,-51.790095009999995,31.609698613333336,-17.360308966666665
49,0.4083169999998972,17.44766871,22.599994023333334,-35.39389546666667,-1.2022189833333334,-2.3325052263333332,10.143036843666666,-62.71136474666667,15.150115491666668,-21.56052653
50,0.4166500000000042,16.829940793333332,22.798622766666668,-35.507637033333324,-3.6388711926666666,-1.706262529,12.560037932,-70.07713063666667,18.955725351999998,-19.370662049999996
51,0.4249829999999974,16.152350106666667,23.12742169666667,-35.643882733333335,-1.5921913386666668,-2.740946134,8.387880484333333,-76.38212331333334,33.44021034333333,-25.8903052
52,0.4333159999999907,15.367711703333335,23.277851740000003,-35.801821366666665,-0.9877164366666665,-1.8573962846666667,14.028052647,-87.95719655333335,12.526083946,-22.02844174666667
53,0.4416489999999839,14.519140559999999,23.5678552,-35.95814513333334,-2.6187032759999997,-1.5690244433333334,11.470825194333335,-95.78500366333333,29.068962733333336,-25.805308659999998
54,0.4499819999999772,13.60316372,23.812067666666668,-36.10934446666666,-0.33927053733333334,-3.0770924886666666,8.044819035666666,-103.92776996666667,24.274263699999995,-23.62979571
55,0.4583149999999705,12.598320006666668,23.96431287,-36.2982254,-2.4392009179999996,-1.434056510666667,15.197920480666667,-112.80328876666665,12.979006288999999,-24.499509176666663
56,0.4666479999999637,11.602181753333333,24.29925537,-36.45635733333334,-3.633766849666667,-1.224589715,10.152305922666667,-113.04616803333333,35.55813980333334,-25.71108690666667
57,0.474980999999957,10.521202403333334,24.448342003333334,-36.661102299999996,1.0929719806666667,-1.6787172956666667,7.1241640639999995,-121.02131143333334,13.135831832,-25.61771075
58,0.4833139999999503,9.396679560333334,24.629401523333332,-36.866198233333336,-1.9538214206666666,-0.7247457010000001,12.842333793333331,-125.98691050000001,17.41770649,-26.142066319999998
59,0.4916469999999435,8.220095634666665,24.86306190666667,-37.0818939,-0.6756578113333332,-2.3616248766666668,9.601608038333334,-131.7982228666667,23.970107713333334,-27.763032276666667
60,0.4999799999999368,6.978363513999999,24.898126603333335,-37.31195323333333,-1.0726932683333334,-0.6328458386666667,12.628447372333333,-138.66449483333335,0.7501645076666663,-25.720041910000003
61,0.5083129999999301,5.767598469999999,25.120441436666667,-37.56827036666666,-4.451608737333333,-0.5826382936666666,9.437135298,-133.7044321666667,23.274950660000002,-30.853695553333335
62,0.5166459999999233,4.497504393000001,25.178838093333336,-37.82813006666667,1.710664014,-1.3090893226666667,9.941482225,-140.4574585,4.341953119333334,-29.106627146666668
63,0.5249789999999166,3.180244923,25.203587213333332,-38.12640886666666,-1.4436241786666664,-0.4323866566666667,14.65186055333333,-144.2690836666667,0.6429885230000002,-32.707684199999996
64,0.5333119999999099,1.8609779279999998,25.29351616,-38.400606800000006,-1.2499209246666667,-1.6529656250000002,6.422180651999999,-145.56977336666668,9.361306190333332,-30.56085523
65,0.5416449999999031,0.49360739166666673,25.133370080000002,-38.70592753333333,0.31307355566666667,-0.5643964163333334,13.971698600666665,-149.91871646666667,-20.055347126333334,-32.93050003
66,0.5499779999998964,-0.8434945343333333,25.179922103333336,-38.99395243333333,-3.8180885713333335,0.4546240716666666,13.312384921666668,-147.05614216666666,5.571246009666667,-31.59554608666667
67,0.5583110000000033,-2.2435929380000004,25.0540994,-39.31880696666666,2.202004115,-0.6158407903333333,5.024377108333333,-152.90190633333336,-14.310761929333333,-35.90725835
68,0.5666439999999966,-3.6404496826666666,24.816319783333338,-39.6039861,-1.3390717756666666,-0.9146466653333333,10.762553533666667,-154.50529989999998,-27.01708157666667,-32.78839429333333
69,0.5749769999999899,-5.029280821666667,24.680484133333334,-39.93676756666667,-0.8729811756666667,-0.3865619373333333,11.187196732333334,-151.30907186666667,-13.678095496666666,-37.766855873333334
70,0.5833099999999831,-6.429064909333333,24.355129876666666,-40.21453603333334,-0.600370043,-0.056119402333333346,12.613975366,-155.4349111,-35.936271670000004,-34.41548411
71,0.5916429999999764,-7.8073892596666665,24.13659668,-40.50598396666666,-4.640652736,1.5069551070000002,12.584804057999998,-152.43051656666665,-22.235031921,-35.25686772666666
72,0.5999759999999696,-9.166131019666667,23.882102970000002,-40.804349266666655,0.11464470633333335,-0.5146011633333334,6.019553424333334,-149.6895345,-25.468803406666666,-37.392181396666665
73,0.6083089999999629,-10.518650693333333,23.462316513333334,-41.0566737,-0.449933847,1.5433390933333333,16.027880031333332,-151.53448486666665,-45.059416453333334,-36.30490748
74,0.6166419999999562,-11.855120020000001,23.248057683333332,-41.33404286666667,-4.063851654333333,-0.693908269,8.571114776666667,-148.4408773,-19.3833491,-35.447240193333336
75,0.6249749999999494,-13.14598465,22.77522722666667,-41.528755200000006,2.4353562793333334,0.5834120116666667,10.051150005333334,-147.1334686,-50.91006724,-33.655119576666664
76,0.6333079999999427,-14.404780386666665,22.450173696666667,-41.763651499999995,-5.497031370666666,1.6174033483333332,14.900761921333332,-141.61262003333334,-31.82810974333333,-34.80211258
77,0.641640999999936,-15.619315463333331,22.054356256666665,-41.931070999999996,1.875832736666667,-0.24752359599999998,8.827080648666666,-139.48283893333334,-41.23559443333333,-30.642450333333333
78,0.6499739999999292,-16.746870676666664,21.600736620000003,-42.07665000000001,-4.617303927666668,3.163980166,13.450497627000003,-130.23112490000003,-47.914241153333336,-30.952870686666667
79,0.6583069999999225,-17.84561348,21.213755289999998,-42.2303721,0.9348614536666666,1.6879397633333333,10.344619988666667,-126.46499123333335,-39.40829213333333,-30.585669199999998
80,0.6666399999999157,-18.831717173333335,20.695325853333333,-42.302769966666666,-3.8973826566666663,1.1480695803333334,10.523414295666667,-116.66457623333332,-56.67599996333333,-27.44351387
81,0.674972999999909,-19.805675503333333,20.287931439999998,-42.43311566666666,0.3886540136666667,2.6992495856666667,7.592824935333333,-112.75807953333333,-41.46456018666667,-30.381298700000002
82,0.6833059999999023,-20.672677993333334,19.787692386666667,-42.4834366,-2.719043692,1.071210086,10.914796195666668,-103.42296346666667,-54.568907419999995,-26.20687421
83,0.6916389999998955,-21.475600556666667,19.29206530333333,-42.541389466666665,-0.34188197066666665,1.8031323353333333,13.04588286,-95.39874776333333,-53.317503609999996,-27.877621333333334
84,0.6999720000000025,-22.20999971666667,18.852430343333335,-42.57111359999999,-3.2288667760000003,1.938239654,7.742582005,-88.36147308333334,-47.89037958666666,-22.99892998
85,0.7083049999999957,-22.863286336666665,18.363744733333334,-42.61031086666666,-1.5982239246666665,1.6580813330000002,9.562036832333334,-78.28775533,-52.63231277333333,-26.957621896666666
86,0.716637999999989,-23.45265261333334,17.945390703333334,-42.610402433333334,-2.705099423666667,2.12070632,11.65317472,-72.12587992333333,-46.35794321666666,-19.959637326666666
87,0.7249709999999823,-24.002686819999997,17.530106863333334,-42.65794626666666,-1.4649078249999998,1.3175202606666667,12.81447633,-65.66326904,-43.61252467,-25.39422925
88,0.7333039999999755,-24.447055816666666,17.12537256666667,-42.6582896,-4.390840848333333,2.0627130269999996,9.013957976333332,-54.74075317333333,-44.49987538333334,-20.131565093333332
89,0.7416369999999688,-24.851644516666667,16.754554116666668,-42.66574096666667,0.004689194333333331,1.9182240563333333,11.949918426666665,-49.67668151666667,-40.26715723666666,-19.718618393333333
90,0.7499699999999621,-25.196856816666667,16.423506416666665,-42.68078359999999,-4.362567027333333,1.545911749,11.666800499333334,-42.36072286,-35.504758200000005,-18.514430363333332
91,0.7583029999999553,-25.451658249999998,16.06419182,-42.67922466666667,-1.1960189146666667,1.9071770906666667,8.687858262,-32.025277456666664,-39.23153686333333,-18.659189863333335
92,0.7666359999999486,-25.659370423333332,15.7693882,-42.67115273333334,-3.8797946769999996,1.8445497753333333,11.081296285333332,-26.6335996,-32.572559993333336,-14.56431262
93,0.7749689999999418,-25.850004833333333,15.51562786,-42.688247666666676,-1.2676303396666666,0.681758086,11.891953470999999,-23.729576113333334,-26.748226166666665,-15.391550063333334
94,0.7833019999999351,-25.972017926666666,15.253245036666668,-42.703091933333326,-3.959161838,1.1436848443333332,8.985900560333333,-15.620185216666668,-27.82867686,-15.444743156666666
95,0.7916349999999284,-26.070598603333334,15.028484343333332,-42.70205433333333,-0.7368688733333334,0.7705291313333333,11.525200207,-13.26383686,-24.472600303333333,-12.111862183333335
96,0.7999679999999216,-26.169233323333334,14.837317786666667,-42.73308053333333,-3.895923455333333,0.23875841,11.169090588333333,-12.328317960000001,-19.272137323333332,-13.48297469
97,0.8083009999999149,-26.20991834333333,14.672651926666667,-42.764035533333335,-1.402596950666667,0.5097326836666666,8.055498918,-5.342144965999999,-16.329555513333332,-12.330889063333332
98,0.8166339999999082,-26.24254481,14.480702083333334,-42.76932016666667,-3.028351943,0.7227282126666666,12.124176343333332,-5.213861306666667,-20.651415506666666,-10.887092593333334
99,0.8249669999999014,-26.285336813333334,14.371265093333333,-42.8149567,-1.0545045136666666,0.097883565,11.993588766666667,-5.167570432,-9.614399590666666,-10.966430663333334
100,0.8332999999998947,-26.3107179,14.27659829333333,-42.86222583333333,-5.362502415999999,-0.5016444226666666,9.658428827666667,-3.117581764666667,-8.019814492666667,-10.094559034000001
101,0.8416330000000016,-26.297056833333333,14.153963406666668,-42.869616199999996,-0.03374293433333331,0.5581792793333333,10.279655775666667,0.44733144833333327,-12.995653473333334,-7.687520822
102,0.8499659999999949,-26.331183116666665,14.10812664,-42.94866686666666,-4.360285282,0.0018222406666666645,14.590809823333332,-3.2410847346666665,-1.125391384,-10.836696943333331
103,0.8582989999999882,-26.334985733333337,14.073353133333333,-42.988472,-2.4428501920000003,-0.607416153,8.639073529666668,-0.7101761496666669,-1.8725457786666666,-6.389385382333334
104,0.8666319999999814,-26.31126467333333,14.025814056666666,-43.050766,-2.9669744970000003,0.9755598306666666,9.876744111666666,3.1879352729999995,-2.170157671,-9.188347816333332
105,0.8749649999999747,-26.32529068,14.024789173333334,-43.1008606,-1.7876879773333334,0.360870108,13.703583080000001,-1.6406430006666668,2.286608457333333,-5.678057194
106,0.8832979999999679,-26.317291263333335,14.042587283333333,-43.19352723333333,-3.602264881,-0.767226845,8.200570264,2.1835838256666666,6.419901053,-8.880553881333334
107,0.8916309999999612,-26.28136507666667,14.057785353333335,-43.218032799999996,-0.779853086,0.315905971,9.87039852,3.604580164,2.711847305333334,-2.144590219
108,0.8999639999999545,-26.302172980000005,14.076471646666667,-43.29839073333333,-2.7385737496666667,-0.34042745333333335,12.660403253333333,-1.630222350333333,5.8789793653333335,-7.562231699666666
109,0.9082969999999476,-26.28995577666667,14.123435023333334,-43.35621643333332,-2.117591381,-0.8815899093333334,9.981758115666667,1.7426687876666669,7.838651657,-3.9278917313333337
110,0.916629999999941,-26.279388426666667,14.166113536666666,-43.398228966666665,-2.670494,0.22719880833333336,9.651770114666666,1.0000693163333334,6.484961192,-2.2758291163333335
111,0.9249629999999344,-26.30259958666667,14.19944827,-43.46680196666667,-1.3554024296666665,-0.4862740933333334,13.364321393333332,-2.1793703636666666,6.9236268999999995,-5.780270894333334
112,0.9332959999999276,-26.296137493333333,14.281819659999998,-43.53415423333334,-3.032295545,0.01789881800000002,8.586304664666665,1.2674351433333335,12.05422274,-2.8058903216666664
113,0.9416289999999208,-26.31479327,14.29179128,-43.566797900000005,-1.1844866176666666,-0.3837694526666667,10.580127397,-2.6949292820000004,2.5617055096666665,-3.2653497856666664
114,0.949961999999914,-26.335781096666665,14.365143776666665,-43.61828103333334,-0.7000982163333335,-0.7505793766666667,8.430568854999999,-2.4751079083333334,10.263650578,-1.6409119763333333
115,0.9582949999999072,-26.342238106666667,14.372607233333333,-43.6753591,-2.575440566,0.094426195,9.340795835333333,-0.5084468226666666,3.5518192049999997,-5.935236772
116,0.9666279999999006,-26.3505071,14.403986613333332,-43.676986666666664,-1.2741509276666667,-0.7570935883333333,11.550048829333333,-2.4310728706666667,3.1772112053333337,1.3228601216666667
117,0.9749609999998938,-26.369133630000004,14.44372622,-43.74545796666666,-1.9787132343333333,-0.4694640536666667,10.001384736333334,-1.622384501,7.615065574666667,-5.404364903666667
118,0.9832940000000008,-26.37797673333333,14.47142124,-43.762349433333334,-3.2799539563333333,-0.08929026133333333,13.035036086666665,-2.054889182333333,3.567926566,-0.45409773766666667
119,0.991626999999994,-26.40027046333333,14.49426492,-43.80300903333333,-0.8153802653333333,-0.14761272300000003,10.029521944,-2.874933084,4.359102924666667,-3.417510907
120,0.9999599999999872,-26.41057714,14.557192166666667,-43.833374033333335,-3.0912833213333335,-1.4339209396666668,10.192915916666669,-1.8274731633333332,8.05037117,0.025545936
121,1.0082929999999806,-26.43580373,14.521100363333334,-43.85111493333334,0.23112028833333334,0.6911586573333333,10.655396145666668,-3.9169286886666668,-3.156852007,-4.174642165666667
122,1.0166259999999738,-26.456924439999998,14.58390808,-43.893178299999995,-3.7675236863333335,-1.437344134,10.686478296666666,-2.7574582096666673,8.635161241,-1.194067359
123,1.024958999999967,-26.465023039999995,14.58342139,-43.88732403333333,-1.0933552983333332,0.23812661599999999,12.675466856666667,-2.5952170690000003,-0.5480804446666667,0.193839957
124,1.0332919999999604,-26.491245269999997,14.6105957,-43.9237925,-2.8805900413333334,0.08465338499999998,9.325057983333334,-3.5368390880000002,4.519662102333333,-2.5243171053333335
125,1.0416249999999536,-26.475859959999998,14.655367216666667,-43.93546040000001,-1.709181706,-0.08895258633333332,9.934034983333333,0.7676885326666666,5.216129939,0.7869333626666668
126,1.0499579999999469,-26.479117713333334,14.64920362,-43.926422099999996,-1.5003038843333332,-0.7778847413333333,9.262412071666667,-2.1586437223333337,-1.410571416,0.409042254
127,1.05829099999994,-26.47696495,14.667108853333332,-43.92355346666667,-0.5308027863333333,-0.7058366139999999,9.249000548,-1.2589780389999998,1.5791177726666668,0.8509689229999999
128,1.0666239999999334,-26.46793683333333,14.632880210000001,-43.90809629999999,-2.6086429756666667,-0.20328767733333333,11.450912155333333,-0.8925494753333334,-4.767475048666667,-0.3946897933333333
129,1.0749569999999269,-26.49056625333333,14.641926130000002,-43.892339066666665,-2.074552814,-1.680361151666667,11.315076193333333,-4.623190085,-0.04350576766666667,1.7238423029999999
130,1.08328999999992,-26.48536873,14.614544866666668,-43.8724365,-1.90521578,0.00851954499999999,9.976992925666666,-1.4877772333333334,-4.256804307,0.41935201966666663
131,1.0916229999999132,-26.521567663333332,14.61246331333333,-43.86998496666667,-2.3386416039999998,-0.46787728599999995,11.705521901333332,-5.847328742333334,-0.5491565316666666,-0.26294294
132,1.0999559999999065,-26.55009142333334,14.597591716666665,-43.86130273333333,-2.4445950983333335,-1.2256068586666666,9.767887911999999,-5.196359873,-2.3342935043333335,-0.079305943
133,1.1082889999998995,-26.57122739,14.558176040000001,-43.82595826666667,0.02416730300000001,0.011724436333333347,10.828811170000002,-5.027998129333334,-6.263108094666667,1.1430994073333334
134,1.116621999999893,-26.614897413333335,14.546392759999998,-43.82914733333333,-2.9233854213333337,-1.3555070363333332,11.450252056333333,-6.592515468666666,-1.2951284246666666,-1.3583913643333334
135,1.124955,-26.633944189999998,14.48927466,-43.78199766666666,-1.8447047869999997,-0.3112195776666667,10.824788409666667,-5.20762221,-8.877527872666667,1.6455909806666666
136,1.1332879999999932,-26.661608376666667,14.490598676666666,-43.783961000000005,-1.4812936186666665,0.21596470499999998,10.410357792666666,-4.773989757,-0.050784500666666656,-0.30902291833333334
137,1.1416209999999865,-26.685960133333335,14.401948293333334,-43.719523133333325,-2.25236245,-1.620010992,12.395362853333333,-6.2884882289999995,-13.069721536666668,1.5201154749999999
138,1.1499539999999795,-26.717875160000002,14.372457183333333,-43.696675633333335,-0.885705511,-0.3075174986666667,8.421426772666667,-6.018585205,-4.6518696943333335,0.5982204323333334
139,1.158286999999973,-26.74414889,14.268828713333335,-43.64704386666667,-2.211158275666667,-0.4330345676666667,8.461026508333333,-6.057861805000001,-13.903315546666667,-0.8392505246666667
140,1.1666199999999662,-26.797151566666667,14.209918019999998,-43.60356650000001,-1.2754013936666666,-1.2090299723333333,13.250096636666667,-9.149179140666666,-8.889485042666665,1.146126151
141,1.1749529999999595,-26.83056259,14.13419819,-43.565231299999994,-4.175579627,-0.5075597663333333,8.750043073333334,-6.578525384333333,-10.321294786,-0.5078406733333333
142,1.1832859999999528,-26.851205829999998,14.111445426666668,-43.523015333333326,-1.322939977,-0.44020689399999996,10.081931750666667,-5.222469409333334,-4.950352668666667,2.9603866340000002
143,1.191618999999946,-26.89816793,14.11459764,-43.5353648,-4.943480968666666,-0.5456519526666667,13.665767033333333,-6.7082878746666665,0.7821392020000001,-1.5062324206666666
144,1.1999519999999393,-26.90665054,14.166257223333332,-43.48423256666666,-3.029310902,0.19393361366666664,11.780823073333332,-4.044163724,2.5446079176666667,7.929096381000001
145,1.2082849999999326,-26.930013656666663,14.19709873,-43.50960286666666,-1.9007037083333334,-0.49262980266666667,8.224829198333333,-3.480112155,4.432325621333334,-1.371010383
146,1.2166179999999258,-26.92364057,14.325427693333333,-43.486048366666665,-3.6308507523333335,-0.03755709566666667,11.411999703333334,-1.4500860473333332,12.194358506666665,9.225719769666666
147,1.224950999999919,-26.931413649999996,14.41479238,-43.489120500000006,-2.3888243436666667,-0.07961805899999999,10.878054619333334,-2.2765290736666666,9.522151630000002,4.129254103
148,1.2332839999999123,-26.928840003333335,14.581953050000001,-43.46424353333333,-2.588368575,-0.6885600386666666,8.479657174666666,-1.954388122,16.275222143333334,11.472038589999999
149,1.2416169999999056,-26.90216827333333,14.776533763333333,-43.50845846666667,-3.529311418666667,-0.5395895490000001,11.667032876999999,3.1145048143333334,22.940000533333333,5.585869630333334
150,1.2499499999998989,-26.856620153333335,15.036210696666666,-43.4784444,-3.316475868,0.8136083086666668,9.262624266333333,3.0182090603333336,25.923594156666667,17.002883913333335
151,1.258282999999892,-26.835175833333334,15.302603719999999,-43.540471399999994,-3.0749481519999997,-0.17125084999999998,11.231398263333332,3.079837123666666,31.565463383333334,7.620519638333334
152,1.266615999999999,-26.756167726666664,15.672920543333333,-43.56097413333333,-4.069994290666666,-0.631923097,11.539942105,8.636349678666667,40.433797199999994,17.714058556666668
153,1.2749489999999923,-26.650414783333332,16.080840426666665,-43.6352132,-3.3388189473333334,1.613498111666667,6.254833380333333,13.674549736666668,47.383710226666665,13.937190056666665
154,1.2832819999999856,-26.509953816666666,16.51435725,-43.69188946666666,-4.266210357333333,1.0290155090000002,11.816823641666666,17.247799556666667,49.14791361333334,17.235984166666665
155,1.2916149999999789,-26.32953707,16.988839470000002,-43.74746703333334,-1.6963894366666665,1.6749414700000003,11.906307857666667,22.135552723333333,53.63266245333333,19.201203030000002
156,1.299947999999972,-26.101338066666667,17.534817376666666,-43.82490536666668,-3.203342914666667,1.4721662403333333,3.760603865,28.622705460000002,62.42384974,20.73873647
157,1.3082809999999654,-25.78435643333333,18.03660646666667,-43.88764953333333,-2.3242361943333334,0.5554722173333333,10.166278839333334,38.89409256,57.08343251666667,19.48798624666667
158,1.3166139999999589,-25.39103126666667,18.582991283333335,-43.9355367,-2.0403039853333333,1.7023221849999999,12.855298676666669,47.50829696666667,61.247880296666665,23.091609316666666
159,1.324946999999952,-25.00343386333333,19.10970688,-43.9945577,-2.5588132936666668,1.3768095023333335,6.6075836820000005,47.35890452,59.842556,20.43608475
160,1.3332799999999452,-24.53578313,19.670482,-44.02190143333333,-0.7942286533333333,0.1456210613333333,9.678998313000001,55.74173609666667,62.178719836666666,25.017330169999997
161,1.3416129999999384,-23.99362754666667,20.18826675,-44.05190533333334,-3.382162889,1.0454492566666667,11.763615928,64.84141540666667,57.83409118666666,22.04412524
162,1.3499459999999317,-23.37303797333333,20.72838656,-44.067184466666674,-2.3058768113333334,1.6233682633333333,6.407387733666667,73.67120361666667,59.846312206666674,24.046551386666668
163,1.358278999999925,-22.721249896666667,21.235624313333332,-44.03619386666667,-1.9770056006666668,0.62209932,10.602549869666667,75.43299102666667,54.45082728333333,26.61689758
164,1.3666119999999182,-22.01249695,21.814752580000004,-44.034973133333324,-1.7474032739999998,1.6523692213333334,8.419802506666668,83.50181325333334,63.981595356666666,26.251801176666664
165,1.3749449999999117,-21.197460810000003,22.285930636666667,-43.987258933333344,-2.036775266,0.7366890706666666,8.330098470000001,94.22004953999999,50.411268869999994,25.34610557666667
166,1.3832779999999048,-20.32110405,22.818376543333333,-43.920466100000006,-1.8286925553333333,1.0942112706666667,11.86758582,100.60401152666667,56.89732869333333,29.22861608
167,1.391610999999898,-19.39488156666667,23.28275489666667,-43.824478166666665,-0.5321455596666668,1.6598792076666669,8.668360868999999,105.22326659999999,48.60611852,28.474157970000004
168,1.399944000000005,-18.347906113333334,23.716578166666665,-43.693608566666676,-3.7404148576666665,0.8860984643333333,9.571695169333333,117.90623473333333,44.408049266666666,30.07204056
169,1.4082769999999982,-17.215981803333335,24.193211876666666,-43.53358456666667,-0.26294740033333336,1.4557815393333333,9.090592939333334,126.62268576666668,48.898830413333336,33.74751790333334
170,1.4166099999999917,-16.033843993333335,24.516892116666668,-43.337692266666664,-1.0433296463333335,0.7818543913333333,10.804433502666667,130.7088470333333,30.904898326666665,31.202617643333337
171,1.4249429999999847,-14.75922362,24.96366564666667,-43.132120766666674,-3.9312911033333333,1.233871182,7.347192444666667,141.19926963333333,45.534428913333336,35.43025080666666
172,1.433275999999978,-13.42984136,25.254362110000002,-42.871538799999996,1.3985854983333332,0.3164159456666667,10.269729931666667,144.8582051666667,26.753096259999996,35.47060521666666
173,1.4416089999999713,-12.050918896666667,25.55933062,-42.60048676666667,-3.656883081,0.5191975833333333,11.794006664000001,150.06989543333336,29.013815563333335,36.33113988333333
174,1.4499419999999643,-10.63532988,25.863258996666662,-42.344530733333336,-1.1548401863333335,0.013831873999999966,9.655536492000001,155.1207428,30.116671880000002,33.87823486333333
175,1.4582749999999578,-9.166117349999999,26.057295483333334,-42.01826223333334,-0.7726647056666667,-0.03580721233333332,13.246243476666665,157.74668373333336,16.679294906666666,38.263867696666665
176,1.466607999999951,-7.670724391666667,26.19961293333333,-41.707679733333336,-1.662442267,-0.13572145,12.061068219999997,161.69023133333334,11.829042434000002,34.98438517333333
177,1.4749409999999443,-6.132311344333334,26.37418747,-41.370697033333336,-2.639220516,0.1933323346666667,7.943774858666667,165.2911021333333,16.234170277,38.09367243666667
178,1.4832739999999376,-4.578773021666667,26.360112509999997,-41.0411555,0.9075661203333333,-0.568955163,12.019462743333333,167.4228668333333,-5.184587478333333,34.691028593333336
179,1.4916069999999308,-3.018726984666667,26.402636209999997,-40.67839556666666,-4.334891398666667,-1.3040425703333334,15.02109019,166.45456950000002,2.297759334333333,38.85748037
180,1.499939999999924,-1.4725464183333334,26.366718293333335,-40.358902,0.07963747799999998,-0.06193483866666666,8.865374089666666,167.06693013333333,-5.848526448,33.70958964333334
181,1.5082729999999174,0.06063990466666666,26.262345633333336,-40.022125233333334,-3.169990937,-2.3224401076666665,13.362107913333332,164.53863523333334,-13.18029372,35.90119298
182,1.5166059999999106,1.579364459,26.180666606666666,-39.71681973333334,-1.3352298439999999,-0.9210565286666667,12.395514490000002,164.62849423333333,-9.528126557666667,32.58289909333333
183,1.524938999999904,3.068774541,25.992951076666667,-39.41273753333333,-2.5930965346666666,-1.5176296433333334,11.100349427666666,161.1537018,-21.377912523333332,33.49372545666667
184,1.5332719999998972,4.532098293333333,25.84587987333333,-39.109095266666664,-1.8028443456666665,-2.308575868666667,12.960169475999999,158.23747763333333,-15.633948006666666,33.457228343333334
185,1.541605000000004,5.9450944266666665,25.636409123333333,-38.84523773333333,-2.886522134,-2.0071295499999997,11.493755976000001,154.26970926666664,-22.613262173333336,30.520472209999998
186,1.5499379999999974,7.308750947,25.434919993333335,-38.5720037,-1.6396350066666667,-1.5180808103333334,15.568808236666667,148.07656859999997,-20.799565636666667,31.767241159999998
187,1.5582709999999906,8.612377484666666,25.207464220000002,-38.33896893333334,-3.1395301819999997,-3.382504781,10.480990729,142.94896443333332,-23.706904093333332,28.638126373333336
188,1.566603999999984,9.883832930333334,24.970324196666667,-38.08561706666667,-0.6740258140000001,-2.102403879,13.357426646666667,138.24891663333332,-23.85962104666667,31.32033094
189,1.5749369999999772,11.063763936666668,24.694278716666663,-37.89265443333333,-3.943821827666667,-2.6316927273333337,11.860394480000002,130.34828693333336,-28.916168213333332,26.530782703333333
190,1.5832699999999704,12.219207446666667,24.450129193333336,-37.682281499999995,-1.6130538583333334,-3.2799889246666667,8.262923877,126.72063700000001,-24.260947546666667,27.96398099
191,1.5916029999999637,13.277864136666667,24.174051286666664,-37.49859876666667,-2.1452858446666667,-1.9396417139999997,15.616907756666665,116.44708250000001,-28.036720276666667,26.72427559
192,1.599935999999957,14.26238823,23.91165543,-37.3171056,-1.6974616846666664,-3.747423728,9.191099803,107.83562976666667,-26.04609680333333,26.385705313333336
193,1.6082689999999502,15.179953256666666,23.56415939333333,-37.17050173333333,-2.2602103949999997,-3.1700541176666666,10.249641419666668,101.5101166,-36.38551203666667,25.994035083333333
194,1.6166019999999437,16.0402902,23.30329894666667,-37.012293500000006,-2.7768877746666667,-1.6843050716666665,12.833920796333333,94.27168782666666,-25.656775789999998,24.79464976
195,1.6249349999999367,16.774123506666665,22.999245326666667,-36.8976771,-1.723021626666667,-3.5323549113333335,13.759836833333333,81.12113952666667,-31.573516209999998,22.228326796666664
196,1.63326799999993,17.44940948333333,22.70475387666667,-36.76572673333333,-3.419786533,-3.5973898569999996,13.345852536666667,73.47821298999999,-29.673947650000002,23.950021743333334
197,1.6416009999999233,18.038661956666665,22.420132316666667,-36.68245700000001,-1.9036647873333334,-3.6076633136666665,10.623054027,65.33819834333333,-29.855552036666666,18.989006043333333
198,1.6499339999999163,18.587436673333332,22.087008793333336,-36.59882863333334,-3.280546109,-2.2570771376666667,11.573710920666668,60.65555445333334,-35.22447967666667,20.992488226666666
199,1.6582669999999098,19.064050673333334,21.908327103333335,-36.489329000000005,-2.1036962666666668,-2.908095836333333,10.090427714999999,50.73064422666667,-16.504172956666668,18.21258863
200,1.666599999999903,19.41206105666667,21.565481820000002,-36.46252950000001,-1.6107705633333336,-2.913582245666667,12.228355564333334,39.15318552666667,-38.05462773666667,15.971128143333331
201,1.6749329999998963,19.73517354666667,21.397580466666668,-36.358548500000005,-4.537214438333334,-3.0370961029999997,10.110732077,32.71054458333333,-15.237747193333334,17.459346136666667
202,1.6832660000000033,19.995995203333333,21.084037146666667,-36.33807626666667,-1.2738840120000001,-2.077237049333333,11.795345781999998,28.990060806666666,-34.802824656666665,14.532196363333334
203,1.6915989999999963,20.246144613333332,20.97129758,-36.2312775,-6.159505288000001,-3.5761669479999996,10.481878440333334,23.92943382,-8.716074149,15.704193433333336
204,1.6999319999999898,20.410580953333334,20.695183436666667,-36.22250363333333,1.5428504346666665,-1.5672237476666666,9.237289588000001,17.90413348,-30.92687352333333,11.996971133333332
205,1.708264999999983,20.537724176666668,20.564899443333335,-36.145721433333335,-5.9612841606666676,-2.4224413633333337,14.99837049,10.536880492,-11.763987219999999,13.34826692
206,1.7165979999999763,20.617059706666666,20.331996916666668,-36.0975596,0.9629877210000001,-1.5176079866666665,11.659152983333334,6.060511668666666,-24.45872116,14.469294866666667
207,1.7249309999999696,20.667563753333337,20.244789123333334,-36.03550973333333,-7.315777460666666,-1.7947009406666667,10.161633014333333,2.0055305756666666,-7.460167725999999,10.037050246
208,1.7332639999999628,20.698795316666665,20.058848063333333,-35.9681956,0.466426641,-1.612450401,8.633035977333334,-0.47115691533333326,-18.393962223333332,14.55461216
209,1.741596999999956,20.691877366666663,19.926300046666665,-35.93183136666667,-3.596424023333333,-2.1250439483333334,10.333033244333333,-3.819616953666667,-13.566040676666667,9.237417539
210,1.7499299999999494,20.69280751333333,19.742553073333337,-35.878453566666664,-0.423907866,-1.0232336716666666,7.775810241666666,-3.4762249786666666,-18.694161733333335,13.023094180000001
211,1.7582629999999426,20.656398136666667,19.608995436666664,-35.84444679999999,-3.9247337976666667,-1.3764589229999997,12.834859372333334,-7.254486639666666,-13.76338164,9.057094256333334
212,1.766595999999936,20.614496866666666,19.492291129999998,-35.79833476666667,-2.4756543636666666,-1.0978296996666668,10.915605227333335,-8.268298467,-11.464306038333334,9.426091829333334
213,1.7749289999999291,20.551321666666666,19.376099906666667,-35.7504603,-3.416562636666667,-1.0380939246666667,10.764743168,-11.00965023,-11.272076604333336,9.781084059000001
214,1.7832619999999224,20.4790891,19.28884252,-35.71189623333333,-1.5505836803333335,-1.807294607,9.237435976999999,-11.615524293333332,-8.474381764666667,7.351551373666666
215,1.7915949999999157,20.393693286666664,19.175957996666668,-35.693567900000005,-4.020494858666667,-0.623280068,9.447594324666666,-12.475258826666666,-12.089457196666666,6.497786680666667
216,1.799927999999909,20.292338053333335,19.107549666666667,-35.6542562,-0.46019731,-2.217265288,10.803771656666667,-15.136346179999999,-6.347665309666667,6.614049116666667
217,1.8082609999999024,20.200560890000002,19.06507047,-35.62842560000001,-6.082553227666668,0.058568667666666685,13.504523596666665,-13.507007913333334,-3.889453928,4.355035623
218,1.8165939999998957,20.098697026666667,19.018996556666664,-35.58305866666667,0.04364593333333333,-0.43366462,10.158312478000001,-15.430825233333332,-3.617614388666667,6.314840952666667
219,1.8249270000000024,20.020600636666668,19.022994996666668,-35.56180826666667,-6.177737077,-1.3398019473333334,8.192449252000001,-11.615293183333334,1.0844726663333335,1.7445173263333336
220,1.833259999999996,19.977436066666666,18.96677080666667,-35.50663503333333,-0.17076693966666667,0.083208536,10.359675883,-8.759595554333334,-4.397337039333333,7.7777543069999995
221,1.841592999999989,19.90536054,18.952689486666667,-35.507476800000006,-3.1488355,-0.385973563,9.448398271666667,-10.077498754666665,-1.8011036813333334,0.14880591099999999
222,1.8499259999999824,19.871417363333336,18.916367846666667,-35.4660492,-0.8270148436666668,-0.6382803916666667,8.103533108999999,-7.095558325333333,-2.6988056900000004,5.498522917666667
223,1.8582589999999757,19.834180829999998,18.87212372,-35.458788533333326,-3.8276507853333332,-0.09314698366666667,12.092336335666667,-6.18996652,-4.898146311333334,2.2375742593333334
224,1.8665919999999687,19.814436596666667,18.867228190000002,-35.43462626666666,-1.346975883,-0.722993195,9.560109457666668,-4.710090637333334,0.17863794166666672,2.3809584776666664
225,1.874924999999962,19.852339426666664,18.840034486666667,-35.432635,-5.745197932,0.008744407333333334,10.160242716,3.000840187,-3.1262132920000005,1.1341855326666668
226,1.8832579999999552,19.89463806,18.826143903333335,-35.40614826666667,1.2698766389999998,-0.24270833533333333,12.828748387333334,2.6246905923333332,-0.748119136,2.9732917150000002
227,1.8915909999999485,19.94223085666667,18.8542703,-35.3976695,-6.241435527666667,-0.18151690333333334,10.481146972666666,3.8969158333333334,3.369100093666667,-0.43799917400000005
228,1.8999239999999415,19.991625466666665,18.859262466666667,-35.38097126666667,-0.004326850000000011,-0.3934165763333333,8.949746609,3.862626552333333,1.0085647103333335,1.164371888
229,1.908256999999935,20.043169656666667,18.904389063333333,-35.39523823333334,-5.447415828666667,-2.303445776333333,10.395437876,5.257304906666666,4.392073233666667,-3.598898490333333
230,1.9165899999999283,20.111650466666667,18.917079923333333,-35.3907496,-1.0019309123333333,-1.5156947770000002,11.002691906333332,6.636870066333333,1.4046845933333334,-0.447339823
231,1.9249229999999216,20.12728564,18.990463893333335,-35.41889189999999,-4.281008482,-1.440386295,11.243279775333335,1.4766396679999998,7.030400435,-6.255027453
232,1.9332559999999148,20.129262923333332,19.082979839999997,-35.41698710000001,-2.842050036,-1.4247491159999999,12.800592743333334,-1.2189815046666668,10.296521821666667,-4.0066173869999995
233,1.941588999999908,20.08062045,19.203596113333333,-35.434700033333336,-3.0208110013333336,-1.4223268826666668,12.799880983333333,-6.613140424000001,12.729791007333333,-7.178932666666667
234,1.9499219999999011,19.99560992,19.336078006666668,-35.4788157,-3.1938341456666666,-3.438563665,6.011775175666667,-9.843489965666667,13.023706753333334,-10.530710856666666
235,1.9582549999998944,19.816574096666667,19.471295673333334,-35.555079166666665,-0.24006198833333334,-3.192032735,7.691203754333333,-19.95560201,12.151149115,-13.960202853333334
236,1.9665880000000016,19.532983143333336,19.569485346666664,-35.69894153333334,-4.0178004503333336,-3.319753964666667,15.866035779999999,-29.604554493333335,5.421395241333332,-19.63731638333333
237,1.9749209999999948,19.18092855,19.82360394666667,-35.78342946666667,-3.2200156650000005,-3.7657225923333333,9.127966564,-40.32141240333333,25.43899854,-19.421283086666666
238,1.983253999999988,18.71372096,19.902146023333334,-35.97585300000001,-2.1614322456666666,-3.531088034333333,10.532257953333334,-49.60706456333333,1.6657921873333332,-23.979260126666663
239,1.9915869999999811,18.158370970000004,20.17410214666667,-36.073069233333335,-2.3974057933333337,-2.999638478,10.036580402,-64.14385223666666,27.343100866666664,-20.957660039999997
240,1.9999199999999744,17.44493294,20.297362006666667,-36.2980016,-3.062787334,-5.134226958,10.490192612666666,-77.674558,6.140741983999999,-29.02877617
241,2.008252999999968,16.70243454,20.588788346666664,-36.3861084,-2.6400348743333333,-1.994458278,10.872560502666667,-86.90221914,30.386706036666666,-19.898289996666666
242,2.016585999999961,15.744328180000002,20.76757431,-36.63700356666666,-2.092063268,-4.620658318333334,9.354069073,-105.79514566666666,12.527333894666667,-33.47563044333333
243,2.0249189999999544,14.765312516666668,20.950868603333333,-36.76170346666667,-2.732741117333333,-2.6464022000000003,12.526722432,-113.62564850000001,17.407965344666668,-19.387378056666666
244,2.033251999999948,13.6473821,21.24122111,-36.98479463333334,-2.7054673433333334,-3.4283721450000004,5.472945968,-125.9780121,27.44551594666667,-33.19652303
245,2.041584999999941,12.389837583333332,21.33617719,-37.171829233333334,0.5281457106666667,-3.9484429360000006,18.079397517999997,-144.26057943333333,6.243599574666668,-23.07597224
246,2.049917999999934,11.017717046666666,21.580581033333335,-37.396375033333335,-5.0834282239999995,-4.320973873,14.887955026666665,-156.21043903333336,23.43340174333333,-30.90036583
247,2.0582509999999274,9.523759842,21.66628774,-37.61716716666667,2.830747604333333,-2.478744665666667,9.082627139666664,-171.0549113,5.568686405666667,-26.220149356666667
248,2.0665839999999207,7.932750860666666,21.86390813,-37.87471516666667,-6.532384554666666,-2.486180623333333,10.881319363333333,-180.86667379999997,18.886386236666667,-32.35766093
249,2.074916999999914,6.270659923666666,21.82935206,-38.13280996666666,3.9827438196666667,-3.433597246666667,8.994243779333333,-189.47006226666667,-7.845268091333334,-28.17805226666667
250,2.0832499999999072,4.514784336333333,21.933794020000004,-38.43679303333334,-6.940714518333333,-0.7816796303333334,16.650211333666665,-198.50976056666664,9.097051142666666,-35.25837707333333
251,2.0915829999999005,2.704452276,21.863133746666666,-38.717417399999995,4.584804693666666,-2.3323030473333337,4.746790408,-206.23221843333332,-10.620731752000001,-30.81813876
252,2.0999159999998938,0.799440225,21.671679179999998,-39.05380503333333,-4.158214171666667,-2.217689057,14.819765409,-215.05009966666668,-24.310895521333332,-37.153413136666664
253,2.1082490000000007,-1.084671954,21.66186396,-39.33858743333333,-1.506623745,1.3083658366666666,11.017071723333336,-215.0253804666667,-1.3063767156666666,-31.88112449666667
254,2.116581999999994,-3.0365633963333334,21.291424433333333,-39.691164666666666,0.3685816326666666,-2.4253019093333332,7.874716521,-220.06560263333336,-43.20168304,-41.593307493333334
255,2.1249149999999872,-4.933817863333334,21.08171781,-39.95984143333333,-3.863429546666667,-0.5642660460000001,13.147152584333332,-217.5718231,-23.239658514000002,-31.872358323333334
256,2.1332479999999805,-6.8867813746666675,20.715257006666665,-40.3181,0.5349574886666667,1.6343526839999998,12.977492492666665,-220.3272451,-39.782871246666666,-45.13795725333333
257,2.1415809999999738,-8.748262723333333,20.367077509999998,-40.5347341,-5.3341215449999995,0.9716249309999997,13.683138847666667,-215.71859236666668,-38.28883743666667,-30.195836383333333
258,2.149913999999967,-10.646166166666665,20.013942079999996,-40.850743599999994,2.1549430290000005,1.1495678623333334,5.569672424,-216.09070336666665,-35.9945062,-42.542874653333335
259,2.1582469999999603,-12.433484396666666,19.454460143333336,-41.034917166666666,-4.365457972000001,0.4774851003333334,13.183884302333333,-208.48326113333334,-61.826887766666665,-34.20906066999999
260,2.166579999999953,-14.19964536,19.076243083333335,-41.304468799999995,-1.6468010346666666,0.5162969430000001,10.503860952,-202.7580058,-37.38732274666666,-40.352312723333334
261,2.174912999999947,-15.874735196666668,18.542544683333336,-41.45149993333334,-3.052936295666667,2.973926902,11.738772390333333,-196.77339170000002,-57.72629165666667,-33.14257939666667
262,2.18324599999994,-17.502272926666667,18.059298196666667,-41.65916443333334,-2.3645217219999997,3.221803744666667,14.915963490000001,-189.03017173333333,-49.05902862666667,-39.367689766666665
263,2.1915789999999333,-19.017894743333333,17.540400826666666,-41.768163066666666,-2.8612246913333332,1.6412786843333331,7.7556692756666665,-179.2926229,-55.442010243333335,-31.737454099999997
264,2.1999119999999266,-20.42475700333333,16.999647140000004,-41.89728293333334,-2.1816844146666665,3.982514699333333,10.788122494333335,-165.8168691,-56.44780603666667,-35.779876709999996
265,2.20824499999992,-21.72794596333333,16.387331643333333,-41.91526793333333,-1.6524383623333334,2.924074928,12.398314955666665,-157.1680501333333,-68.03374735333333,-28.75704193
266,2.216577999999913,-22.96696217666667,15.867905936666668,-41.97198996666666,-1.3154854876666666,2.5387196143333335,11.710403759333332,-148.31292213333333,-55.465202330000004,-29.891887030000003
267,2.2249109999999064,-24.033503213333333,15.259941736666667,-41.96455893333333,-3.9797440769999994,2.485469858,8.400766849333333,-129.64246623333335,-67.45998509666667,-28.69619433
268,2.2332439999999,-24.96597036,14.66586272,-41.9088262,-1.4501612783333335,4.604825655666667,9.403326670333334,-115.13065846666666,-67.87598673333333,-23.807540893333336
269,2.241576999999893,-25.852146146666666,14.08076191,-41.86505126666667,-3.6873210273333332,3.9409929113333333,13.089057923333334,-109.06398263333334,-65.81411743,-25.930497486666667
270,2.24991,-26.620144526666667,13.557668366666666,-41.78647360000001,-2.843468864666667,2.3543239433333336,12.624293489000001,-95.92002105333331,-60.68944931000001,-19.65461667
271,2.258242999999993,-27.24701055,13.058921176666667,-41.73233033333333,-4.993618329333334,2.1861222586666664,9.176406222999999,-78.13688405333333,-56.43157069,-21.873062133333335
272,2.2665759999999864,-27.74764315,12.629131000000001,-41.6577072,-3.2589739163333333,2.8553274473333334,9.202111562333334,-63.55350367333333,-50.120330810000006,-16.20410506
273,2.27490899999998,-28.163679759999997,12.234563826666667,-41.5998332,-4.018388271333333,3.2169419923333336,12.296839713333334,-52.838737486666666,-45.209110263333336,-16.611235933333333
274,2.283241999999973,-28.498818079999996,11.883951503333334,-41.523132333333336,-3.3438603086666667,3.2723043759999997,10.628659883666666,-43.623631796666665,-41.648801166666665,-12.180130640000002
275,2.291574999999966,-28.728341420000003,11.594689686666664,-41.470420866666664,-3.0460801920000002,1.9789499043333334,9.678912006,-30.24555969333333,-33.64792124666667,-11.597866376666667
276,2.2999079999999594,-28.88847224,11.340426763333333,-41.41882066666666,-2.6896510523333332,1.5733404553333334,8.714210193,-21.929196039999997,-30.00222460666667,-9.533138910333333
277,2.3082409999999527,-28.96201451666667,11.110646883333333,-41.380785633333325,-2.3618152936666665,1.6246680813333334,11.231533209,-11.126286508,-26.509730020000003,-9.828394572
278,2.316573999999946,-28.986537929999997,10.90907097,-41.3377177,-3.6582544643333335,1.7653297183333334,9.395865757666668,-5.412303765333334,-23.96093114333333,-7.428290685
279,2.324906999999939,-28.93792915333333,10.743163743333334,-41.33974203333333,-4.436570644333333,2.192924499666667,10.27342192,4.464959780333333,-17.516172406666666,-10.255371093333332
280,2.3332399999999325,-28.852366766666666,10.594729422999999,-41.30865733333333,-1.7762469449999998,1.3866079649999998,13.370025633333334,8.103351750666667,-17.714912413333334,-5.545167446000001
281,2.3415729999999257,-28.76407051,10.450730643333332,-41.34121703333333,-4.4931461016666665,0.44250530000000005,11.042436918666667,9.888383228999999,-13.501542090000001,-12.092134793333335
282,2.349905999999919,-28.603799183333333,10.353373527,-41.36194863333333,-2.6766056220000003,0.5047806549999999,9.796605903,18.221055986666666,-9.420219422666667,-7.920462449333333
283,2.3582389999999123,-28.424668630000003,10.27713267,-41.40276336666666,-3.4185634453333336,1.69052279,9.619767508,20.943570456666667,-5.944981575,-9.005098343
284,2.366571999999905,-28.238908130000002,10.194303831333334,-41.45724743333333,-2.888656298333333,-0.43099402866666664,9.756890297666667,21.981871286666664,-6.041641712333333,-10.530735333333334
285,2.374904999999899,-28.03890991,10.137546220666666,-41.49934386666667,-2.7530343533333337,0.5216910513333334,12.637304943666669,23.474686939999998,-3.8727121353333334,-8.004991213666665
286,2.383237999999892,-27.849366506666666,10.138605437,-41.5991135,-2.8792108296666665,-0.2849706983333333,9.466622988333333,23.375696816666665,5.295050462,-10.507136346333333
287,2.391570999999999,-27.64979744,10.093695640333333,-41.68140666666667,-3.2152801353333333,-0.7872463069999999,10.377486229333334,24.254048663333332,-0.454550465,-11.50700124
288,2.3999039999999923,-27.442173640000004,10.089084625666667,-41.7658844,-2.2796377343333334,0.09020761166666669,12.025525728666665,25.223536173333333,3.781461874666667,-9.260789871333332
289,2.408236999999985,-27.27117411333333,10.128689766333332,-41.8924128,-2.4996192456666666,-0.8408095946666666,10.630264918,21.760023753333332,10.88061778,-11.49702104
290,2.416569999999979,-27.09954071,10.137611708,-42.003662133333336,-3.8499195576666665,-0.6714864769999999,11.903072993666667,21.45390765,6.617860476333333,-11.33919398
291,2.424902999999972,-26.927898403333334,10.163008370333335,-42.102183000000004,-2.193021337,-0.8481668133333332,10.103902816666666,21.22154427,7.682900746666667,-9.183473269333334
292,2.4332359999999653,-26.76719793,10.218438783,-42.21748863333334,-2.9041142863333334,-0.3844617553333333,13.234947839999998,20.2423172,11.740521746666667,-9.275444348999999
293,2.4415689999999586,-26.637534463333335,10.258571623333333,-42.328437799999996,-2.539911270333333,-0.7253848316666667,12.231976829666666,16.50391515,9.975740432,-9.943692842666666
294,2.449901999999952,-26.554883959999998,10.311397233333333,-42.410082466666665,-2.229077418666667,-1.1042737563333331,8.311270396333333,10.187986372666666,9.633634725999999,-5.916048050000001
295,2.458234999999945,-26.480968476666664,10.329213777,-42.49994916666666,-1.1206127206666667,-2.5645049413333334,11.280000048333335,9.332877793333333,6.3541887599999995,-8.764271418
296,2.4665679999999384,-26.43443171333333,10.335438729333333,-42.572118133333326,-3.4069606463333333,-1.1086313723333332,13.350799562666667,5.655537763999999,4.112758239000001,-7.413463592333334
297,2.474900999999932,-26.456197103333334,10.396911621666666,-42.651451099999996,-2.518038948333333,-0.551063231,9.942676544333333,-2.370512406,10.460521383333333,-5.293382803666667
298,2.483233999999925,-26.469293593333333,10.424283663999999,-42.73679353333333,-4.078674475666666,-1.8536755246666667,10.092822392,-1.213337769,7.083343823666667,-7.681116263333334
299,2.491566999999918,-26.498626709999996,10.440047264666667,-42.801765466666666,-0.841587572,-0.18281527333333333,10.004772187666667,-3.559307138,4.825760523333333,-6.279411316
300,2.4998999999999114,-26.57517242333333,10.459908486666665,-42.85715993333334,-1.2387560206666668,-0.5497833516666667,7.843412717333333,-9.460154055666665,4.709553241666667,-4.932802994999999
301,2.5082329999999047,-26.65242449666667,10.469991365,-42.90897626666666,-2.7090340456666673,-1.0490171113333333,10.315720559,-9.584502538,3.611309051333333,-5.311569372666667
302,2.516565999999898,-26.729400636666668,10.470893223333334,-42.940930666666674,-4.274236758333333,-1.360142872,14.249592783333332,-10.043482781666667,1.440181772,-3.4364785356666663
303,2.524899000000005,-26.83072153666667,10.503441175333334,-42.9905523,-0.511553705,-0.029994438000000012,7.157256921666668,-12.494421003333334,5.912573257999999,-3.881385644333333
304,2.533231999999998,-26.937209446666667,10.511418978333333,-43.028905233333326,-4.0255802476666664,-1.3660687803333333,9.95178,-13.442838986666667,2.5544397036666666,-3.7312516369999997
305,2.5415649999999914,-27.06451416,10.499623935666667,-43.053853366666665,-0.9955485863333333,-1.1888041493333332,11.352137565,-16.19958973,-0.2359285156666667,-3.473120292333333
306,2.5498979999999847,-27.20356687,10.503912607,-43.09226990000001,-3.224030455,-0.725677664,10.637806891333334,-17.33557319666667,2.174994647666667,-3.9303941726666665
307,2.558230999999978,-27.32382647,10.541460991666668,-43.1169688,-2.8803856376666666,-0.358929942,12.430988630000002,-15.329388940000001,5.127684672666667,-0.9197817446666666
308,2.566563999999971,-27.46505483,10.554272015666667,-43.15404766666666,-3.332542816666667,0.695814699,10.014578500666667,-17.62953090666667,3.0321413673333333,-3.316890637
309,2.5748969999999645,-27.597155253333337,10.550720852333333,-43.15137736666667,0.21263139933333333,-1.3391040163333334,5.876890977333333,-17.35662968666667,-0.827527801,-0.16706890733333335
310,2.5832299999999577,-27.717449823333336,10.560702642999999,-43.178782133333335,-3.7568754353333333,-0.6830901703333333,12.145880063333331,-15.335105896666667,2.212694764,-2.4398462376666665
311,2.591562999999951,-27.84366989333333,10.532603581,-43.16790263333334,-1.8273877899999997,-0.6702936093333333,10.564471880333333,-16.847749706666665,-3.8741196789999996,-0.684847941
312,2.5998959999999443,-27.968121843333336,10.532499948333333,-43.18515013333334,-2.957028627333333,-0.059881112666666673,10.366979598333332,-16.052315710000002,0.581144462,-1.9248247146666666
313,2.608228999999937,-28.062619526666666,10.568851470666667,-43.1997833,-3.772620916333333,-0.3893294733333333,12.639568646666666,-12.452874186666667,4.447788635666667,0.1264574726666667
314,2.6165619999999308,-28.15868632,10.564317702333334,-43.20385743333333,-2.4246149459999997,0.5901658286666667,9.540536404000001,-12.949253083333334,-0.6025537053333334,-0.8128593166666667
315,2.624894999999924,-28.25974718666667,10.562609036666666,-43.20382693333334,-1.6207737326666667,-0.7199354666666666,10.043841364666667,-13.581659316666666,-0.5020134843333335,-0.322999815
316,2.6332279999999173,-28.336085636666667,10.572474161333334,-43.2073771,-1.9918601713333335,-0.10730003599999999,9.853705566,-10.589168549999998,0.893228213,0.05288068466666666
317,2.6415609999999106,-28.418763476666665,10.545986811666667,-43.18851216666667,-3.027583559,-0.3900205323333334,11.152298609666667,-11.766123452666667,-4.070043405,0.04841516600000003
318,2.649893999999904,-28.501924513333332,10.535881678333332,-43.17478943333333,-1.5817119080000002,-0.9759684006666666,11.380380946666667,-11.779598873333333,-2.1958273253333336,0.7159947166666667
319,2.658226999999897,-28.53696696333333,10.543707210666666,-43.167297366666666,-4.170047203666667,0.5930512099999999,10.071258227333333,-5.803681691333334,0.18877261866666672,0.8255851816666667
320,2.666560000000004,-28.586528776666665,10.551058449666668,-43.15405273333334,-2.883898497,-0.16923828933333337,11.292628607,-7.7548295656666655,-0.3262528976666667,1.6656127569999999
321,2.6748929999999973,-28.64730898666667,10.550256411,-43.15641276666667,-2.0341678856666667,-0.399708636,9.658996582333334,-8.655583381666666,-0.16872497399999986,-0.7070425746666666
322,2.6832259999999906,-28.663934073333333,10.596892675000001,-43.15431720000001,-2.886353651666667,-0.28774025566666667,7.829787096,-3.5536120733333334,4.435992558666666,2.7677119573333333
323,2.691558999999984,-28.698532743333335,10.598684945666667,-43.17104593333334,-2.7140940823333337,-0.406750515,10.459609985666667,-5.212594985666667,0.9212842980000001,-2.0339795350000003
324,2.699891999999977,-28.719043733333336,10.638147355000001,-43.15292866666667,-1.342692703,-0.5923790083333333,9.863521894666667,-4.357562144666667,2.7693471313333333,4.006292740666667
325,2.7082249999999704,-28.71266683,10.6961298,-43.193013533333335,-3.686951558,-0.4996099683333333,9.956228575333332,0.22587060166666664,8.159303824333334,-1.205222408
326,2.716557999999964,-28.702640533333334,10.76856327,-43.18619283333334,-3.335405032,0.11991635966666665,11.638888678,-0.47002108866666675,6.875271479333333,4.761789321999999
327,2.724890999999957,-28.69456227666667,10.838312463333333,-43.232310000000005,-2.5262539386666667,-0.6074676913333333,11.19150003,0.5854902863333333,9.735600312666667,-1.1581050756666667
328,2.73322399999995,-28.63887087666667,10.994491576666666,-43.25834656666666,-4.7265667916666665,-0.34581908600000005,11.239019711666666,5.756839752,17.554674783333336,6.172823588
329,2.7415569999999434,-28.57627805,11.116655346666667,-43.31891886666668,-1.91139404,0.3695479506666666,9.719871520666667,7.465697447666667,16.075403533333333,0.3520463806666667
330,2.7498899999999367,-28.521202723333335,11.266410193333334,-43.3198395,-3.158771594333333,-0.06063791099999997,10.292517023333334,5.133375644666667,15.47118187,8.354459921666667
331,2.75822299999993,-28.441075643333335,11.429345133333333,-43.36321003333334,-1.3910159716666666,-0.6124174496666667,11.165358861000001,9.202433902666668,19.410435996666667,4.427759647333334
332,2.766555999999923,-28.313390096666666,11.627101580000001,-43.378046633333334,-3.782535553,0.017878264333333338,7.828386306666666,14.176160176666665,21.340576806666665,9.618369420333334
333,2.7748889999999165,-28.160224916666664,11.776632626666668,-43.35759483333334,-1.3658582593333335,1.6142932176666667,10.418411255,16.439110439999997,14.462859153333335,10.199726105
334,2.7832219999999097,-27.97688865666667,12.012477556666667,-43.36756386666667,-3.999538103666667,0.19172050799999998,13.532018979999998,20.745332716666667,25.160813013333335,12.145770706666667
335,2.791554999999903,-27.718867619999997,12.255977313333332,-43.344029766666665,-2.0758279959999997,0.8399212853333333,5.605139891333334,28.922800696666666,24.33592415,15.687828699999999
336,2.799887999999896,-27.36972554666667,12.503341993333335,-43.325068200000004,-4.194688479000001,1.6491224566666667,9.09735457,39.898042043333334,24.939097723333333,15.555960336666667
337,2.808221000000003,-26.969980239999998,12.801640830000002,-43.30296326666667,-1.967866709,2.875505288333333,14.025197346666667,45.94441731999999,30.455708823333335,18.236966449999997
338,2.8165539999999964,-26.536462786666664,13.117797536666666,-43.287226366666665,-4.669955492333334,-0.05979464433333331,8.127091407333333,50.08799235,32.69032923333333,18.592966716666666
339,2.8248869999999897,-25.998238880000002,13.482391676666666,-43.2694804,-1.1871775786666667,1.1079447666666666,6.924700578666666,62.65586980333333,38.109753930000004,20.805209480000002
340,2.833219999999983,-25.39412308,13.848498026666668,-43.27938843333334,-5.246481577333333,1.0455293853333334,12.853220303333332,71.27769978666667,39.74738311666667,17.849000293333333
341,2.841552999999976,-24.704727176666665,14.26155503666667,-43.246933000000006,-2.241972486,1.436708093,9.105728626333333,80.34800211666666,43.09668604666666,23.990486146666665
342,2.849885999999969,-23.992837903333335,14.698498723333335,-43.27138263333333,-4.338962078333333,2.0547004936666666,10.071171919666666,84.66680145333333,48.63485845,18.813337323333332
343,2.8582189999999628,-23.213296253333336,15.123035746666668,-43.217030833333325,-0.8059975866666665,0.3706751466666667,10.441662786,90.42868550666667,43.95220947333333,25.754216513333336
344,2.866551999999956,-22.368485773333333,15.58308538,-43.23065693333333,-3.6904021900000004,0.45389911033333336,5.549857933999999,100.31883493666668,51.22600301,19.67384084
345,2.8748849999999493,-21.449867883333336,16.03136603,-43.1596222,-1.8829562266666666,1.1315806906666668,10.469138782,106.47883603333332,46.63718287333334,27.267934799999995
346,2.8832179999999425,-20.470994946666664,16.505699476666667,-43.12680559999999,-2.130219300333333,1.0763970216666667,11.480452216666668,114.90143586666666,51.57128906333333,23.51908938
347,2.891550999999936,-19.451740266666665,16.956488926666665,-43.04062143333332,-3.320377747333333,1.6227677466666666,10.994433720666668,117.90809376666665,47.24844106,27.36639467666667
348,2.899883999999929,-18.360480626666668,17.43859736,-42.958129899999996,-2.0585979223333335,1.0184698106666665,11.790650683333332,126.58735656666666,51.446479796666665,27.28705469666667
349,2.9082169999999223,-17.18527984333333,17.902325313333336,-42.81759386666666,-3.360022862333333,0.49304940299999994,6.805982112666666,134.46624246666667,47.87511698333333,31.87991206
350,2.916549999999916,-15.937100093333333,18.360677716666668,-42.702486666666665,-0.9319643376666665,2.368420680333333,8.872836432333333,144.00524393333333,48.72690963666667,27.962828316666663
351,2.924882999999909,-14.660215063333334,18.786761600000002,-42.515215566666676,-2.611536185,0.20863892633333334,12.475291570333333,144.6248423333333,43.487678530000004,33.63128662
352,2.933215999999902,-13.324528376666665,19.23944791,-42.3625056,-1.1025562186666666,0.624779443,8.874248185666666,152.86205543333332,48.28869374666667,29.585104623333336
353,2.9415489999998954,-11.905659993333336,19.63475164,-42.1464564,-3.7578252950000004,1.1300948460000002,11.545872846999998,160.21058146666667,40.73530197,33.81658681333334
354,2.9498820000000023,-10.417033833333333,19.999453226666667,-41.9433543,0.431969742,0.19448821766666669,10.119169076,168.9315389,38.28128624,30.555239996666668
355,2.958214999999996,-8.897057533333333,20.32229805,-41.696400966666666,-3.2146455843333333,1.2629412413333332,11.768259046333334,170.7573751,33.31058375,33.52278646
356,2.966547999999989,-7.3498010633333335,20.640005113333334,-41.47122703333333,-0.9607665289999999,-0.5951074806666666,9.34293413,174.77178446666667,33.94711748666666,30.051069260000002
357,2.974880999999982,-5.7313790319999995,20.898462929999997,-41.18771363333333,-2.5552620093333336,-1.0091801683333335,10.744201976333335,180.7234192,26.97579956333333,34.728328706666666
358,2.9832139999999754,-4.132057030666666,21.10466766333333,-40.953308099999994,-0.3139738043333334,0.6086863079999999,12.156539916666667,180.4983724,22.20226478666667,27.62109248
359,2.9915469999999686,-2.4810743333333334,21.302908579999997,-40.66541543333333,-3.4811187183333328,0.031801849666666694,13.860727943333332,184.0946655333333,21.655715306666668,33.42838796
360,2.999879999999962,-0.8504792253333333,21.409796396666668,-40.3806229,-0.3430518656666666,-1.7919689813333335,11.273097036666664,181.78442379999998,11.684127170666665,31.776283266666667
361,3.008212999999955,0.791139871,21.50517972333333,-40.098948199999995,-1.2288356423333333,-0.4846497776666667,9.449999968666667,183.0883891,11.213265895666666,31.35032018
362,3.0165459999999484,2.40882206,21.54234886333333,-39.823023500000005,-1.1678502359999998,-1.161335826,13.34146309,180.53856913333334,5.10560592,30.257083256666665
363,3.0248789999999417,3.9970507623333336,21.534887313333332,-39.53142036666666,-2.4201594986666666,-3.269878546333333,13.42193794,176.2170817,0.7213981946666667,32.43695005
364,3.033211999999935,5.5831775666666665,21.479063033333333,-39.263483699999995,0.4241950113333333,-0.038151423000000004,9.049769082666666,177.10145566666665,-4.389197945,29.929632823333336
365,3.041544999999928,7.091409047666667,21.363947550000002,-39.012090066666666,-2.6825504403333333,-2.2990694443333335,12.149539470666667,168.46977743333335,-10.821377119,29.284652073333334
366,3.049877999999921,8.565957705333334,21.180850983333332,-38.75230663333333,-0.7315582383333333,-3.3223800659999996,11.497262316666665,164.19828286666666,-18.022458393333334,31.356327056666668
367,3.0582109999999147,10.008757272999999,20.98310407,-38.5161616,-1.3689210216666667,-0.7726146873333333,11.041414262333333,161.4235128,-19.323844273333332,29.78377469666667
368,3.066543999999908,11.366306306666667,20.723744713333335,-38.2881139,-0.7130294246666665,-2.425790349666667,13.025830905333335,151.7154795,-26.051074346666667,30.475317003333334
369,3.0748769999999013,12.621165910000002,20.463979723333335,-38.07699076666667,-2.4578215676666666,-3.567120313666667,15.670708020000001,140.16916909999998,-25.722707746666668,29.553563433333334
370,3.0832099999998945,13.834586463333332,20.12738991,-37.869196599999995,-0.45422902699999995,-2.080151081,9.489035131333333,135.51957193333334,-34.179703393333334,31.583206813333334
371,3.091543000000001,15.004781723333332,19.76418368,-37.70443976666667,-2.1796680686666665,-3.9812805656666668,7.783548355000001,132.18527223333334,-37.74535624,28.659155526666666
372,3.0998759999999947,16.08322112,19.36541175666667,-37.53903453333334,-0.5625038096666667,-1.2833985686666667,15.045690376333333,121.32221476666666,-41.30211258,30.42050171
373,3.108208999999988,17.0707531,19.03643608333333,-37.41967516666667,-4.0988022483333335,-1.5424398980000003,13.79993725,112.31142423333331,-34.13287481,24.025356293333335
374,3.1165419999999813,18.001473106666666,18.618765513333333,-37.271573366666665,-0.06006472799999999,-3.491587957,10.143812499000001,104.50023906666667,-42.93442408333333,30.711084366666668
375,3.1248749999999745,18.849891663333334,18.240592323333335,-37.220726033333335,-4.051613887,-3.2704653736666667,15.177785559999998,98.39913942,-41.35973867,19.679714203333333
376,3.133207999999968,19.65408834,17.847233456666668,-37.11053466666667,-2.5516109863333334,-2.7867963313333335,12.557692527999999,90.97976684666666,-40.629623413333334,27.018377936666667
377,3.141540999999961,20.37233861,17.464115146666668,-37.086402866666674,-0.6185905933333333,-2.395363171666667,9.33539645,83.80074309999999,-42.39777374,18.091992056666665
378,3.1498739999999543,21.04072698,17.037712416666665,-37.000773133333325,-3.6693610746666674,-2.55599765,10.179546197666667,75.76012166333334,-44.60238901666667,26.88202794333333
379,3.158206999999948,21.623116813333336,16.688081739999998,-36.990949,-0.970010986,-2.691248298,11.584088641666668,68.04067739,-38.81461334,16.06585916
380,3.166539999999941,22.153235116666668,16.32992776333333,-36.925369266666664,-4.698900143333333,-2.893016020333333,10.726251920000001,59.97019195666667,-37.279350279999996,22.61820538666667
381,3.174872999999934,22.59236971333333,15.94325193,-36.942777,0.8469698033333333,-2.328562140666667,13.364826200000001,51.77842203666666,-43.813635506666664,15.553020156666667
382,3.183205999999928,22.994445799999998,15.653460823333333,-36.88427483333333,-5.9900910063333335,-3.1246205173333337,12.037094431333335,44.95401509333334,-29.652867636666667,19.310856503333337
383,3.1915389999999206,23.33487447,15.319441793333334,-36.90333809999999,0.9869369663333333,-1.3911422089999999,11.139732043,39.96180979333334,-37.879867553333334,13.426225663333334
384,3.199871999999914,23.60184033333333,15.038067183333332,-36.87823233333334,-4.151025374666666,-3.5448049703333333,10.755280493333332,29.838724136666666,-30.02856445333333,15.699615796666668
385,3.208204999999907,23.82963689,14.732616423333333,-36.90684003333334,-1.1263934376666667,-1.3025128843333336,9.882379213666667,26.749691006666666,-35.04561615,11.426613173
386,3.2165379999999004,24.028626756666668,14.532750130000002,-36.89730326666667,-4.997532447333334,-1.848358492,12.330364547666667,22.19174194,-21.686035156666666,10.336813608333332
387,3.2248709999998937,24.16321055,14.306135179999998,-36.90215806666667,-1.6291427983333333,-1.9193453786666668,11.390263238333333,14.805023830000001,-25.209121703333334,10.289827981666667
388,3.2332040000000006,24.261842726666668,14.133063633333334,-36.8910548,-2.1586303906666666,-3.0632557473333333,9.905882835666667,10.104166348,-18.62226613333333,9.294210114666667
389,3.241536999999994,24.315564476666665,13.929164886666667,-36.88586170000001,-4.049802303333333,-0.6266420183333333,11.640277070000002,4.828554551,-22.193849563333334,10.366918566333332
390,3.249869999999987,24.351453783333337,13.821274756666666,-36.85060373333334,-0.9711126883333332,-1.5321307563333335,8.122315566,1.8910309873333333,-10.317078589666666,8.67047151
391,3.2582029999999804,24.376703896666665,13.648945490000001,-36.82557676666668,-3.332912723333333,-1.178744475,7.224869966666667,0.8257094076666666,-17.77958424666667,10.912897111
392,3.2665359999999737,24.346085866666666,13.49423917,-36.82690936666667,1.891844193,-1.3188788493333334,9.918183324666666,-5.058437109,-17.186712583333332,7.1043828326666665
393,3.274868999999967,24.29358609666667,13.367204030000002,-36.792811066666665,-5.49061505,-1.2218728859999999,12.996672632,-8.700860341666667,-12.409272829999999,9.620116551666666
394,3.28320199999996,24.26196416,13.246951099999999,-36.77216596666667,0.5596719486666667,-0.9110573033333332,13.00168069,-5.767647425,-12.370606103333332,7.736251672333334
395,3.291534999999953,24.218938193333333,13.129223186666666,-36.756965666666666,-6.098780791,0.030257426333333337,12.219607989333333,-7.0194762546666665,-12.336318016666667,7.073517958
396,3.2998679999999467,24.13885561666667,13.004942893333334,-36.74156696666667,3.4613831043333327,-0.6978956063333334,11.399862607666668,-11.471214613333332,-13.079310736333333,7.326373100333332
397,3.30820099999994,24.043712616666667,12.888909656666668,-36.737777733333324,-6.510361512333333,-1.9254112243333334,10.565036772,-12.95299848,-12.69401328,5.796375274666667
398,3.3165339999999333,23.96854591,12.754015286666666,-36.74582159999999,2.1852761113333337,-0.09549533433333335,11.113148690000001,-10.209260304666666,-15.37777106,5.330289363666666
399,3.3248669999999265,23.885374703333337,12.651513099999997,-36.750261933333334,-6.969382763000001,0.078557146,14.093408266666666,-11.292169890000002,-11.625693323333332,4.2056447666666665
400,3.33319999999992,23.806160606666666,12.554383276666668,-36.74498236666666,2.4954730670000003,-0.507536585,7.904168127999999,-11.068294206666666,-10.619181949666666,4.867995103333333
401,3.341532999999913,23.74454244,12.505170503333334,-36.76565806666667,-7.413902442,-0.5428764993333334,9.380418141,-8.319279194,-6.517393906999999,-0.07388001566666665
402,3.3498659999999063,23.69187482,12.347796440000002,-36.77801769999999,4.712331771666666,0.7765595316666666,8.882935204666667,-7.439507643333333,-18.07940038,5.857935110666666
403,3.3581989999999,23.63420105,12.296972273333333,-36.805603033333334,-8.122968355666666,-0.9814226823333333,10.426510812,-7.649482091333333,-7.039581775666666,-0.7838084200000001
404,3.366531999999893,23.56903394,12.160651206666666,-36.80542243333333,4.478200276666667,0.057183843999999984,10.695590335666667,-9.244069097999999,-15.188783963333334,6.1673763589999995
405,3.374865,23.527613956666666,12.177806216666667,-36.82089740000001,-9.808889708333334,-0.8088139839999999,11.885682104333334,-5.999148368666667,1.0027848056666666,-2.7556947073333333
406,3.383197999999993,23.5402654,12.10846201666667,-36.793579099999995,3.302577654666667,0.6095777153333334,8.645924887,-0.6065835056666666,-6.558990637333333,5.842479229000001
407,3.3915309999999863,23.568388620000004,12.13527171,-36.8077774,-8.735513369333333,0.3535578053333333,11.487408320333332,2.30895257,2.119219462,-3.0981656710000003
408,3.39986399999998,23.57404581333333,12.071047146666666,-36.76668293333332,4.829061667333334,0.36775359133333335,9.845696925,-1.8032977829999999,-5.343518177666667,7.081217447666667
409,3.408196999999973,23.561419806666663,12.124551773333332,-36.777023299999996,-7.941359678666667,-1.6464492083333333,12.259856542,-2.6797739663333338,5.249696970333333,-3.9269909066666666
410,3.416529999999966,23.569454829999998,12.118853886666669,-36.69744876666666,2.9236826896666663,0.08983405466666668,12.055951435666666,-2.470480283,2.8993011313333334,8.420825322333334
411,3.42486299999996,23.605292633333335,12.234152159999999,-36.70380146666667,-9.122726439,-0.3450899256666667,10.856241545000001,3.101035118,12.123317719999998,-6.709111690666667
412,3.4331959999999526,23.69425265,12.233993530000001,-36.59255723333332,4.023369153333333,0.28402264899999996,7.067094801666667,6.401032289,5.007481416,11.536106743333335
413,3.441528999999946,23.735973356666666,12.344832419999998,-36.6335678,-6.561861674,0.07234649833333334,7.774183909666667,4.679909547,9.966680209000002,-10.300651548
414,3.449861999999939,23.776793163333334,12.343098320000001,-36.51819866666666,3.9622458616666663,-0.38312641799999997,11.338577904,0.5034435046666668,5.049672206333334,12.046730356666666
415,3.4581949999999324,23.78002103,12.491167070000001,-36.58015696666667,-7.159380276666667,-0.6494440413333333,13.460276604999999,0.6138879806666666,13.070183120000001,-14.316405616666666
416,3.4665279999999257,23.868930816666666,12.547983486666666,-36.44371543333334,0.28866202700000015,-0.10962648333333336,8.433675130333333,5.726712703666667,12.481076556666666,11.465326943333332
417,3.474860999999919,23.943883896666666,12.660377500000001,-36.51200360000001,-4.375522454666666,0.5213956363333333,10.473653157666666,9.385677338,8.826416333666668,-13.302815753333334
418,3.483193999999912,24.018887199999998,12.67600187,-36.40902713333333,0.813842674,-1.281264166,11.201966921333335,4.890257438333333,6.4012839,9.849173864
419,3.491526999999905,24.045066833333333,12.78689035,-36.4821752,-2.848028381666667,-0.791925887,12.065240222,3.6760230859999994,8.399075508000001,-13.778146106666668
420,3.4998599999998987,24.11919721,12.811789833333334,-36.39936066666667,-3.2560189960000003,-1.0126837293333333,10.870637894,5.337495009,6.467816829666667,7.242477099000001
421,3.5081930000000057,24.165493646666665,12.906848273333333,-36.47961936666667,-0.6900008123333333,1.138770774,10.641854444,6.277401447333333,6.3026485443333335,-13.783632913333335
422,3.516525999999999,24.185357413333332,12.877287543333333,-36.45821636666667,-1.166355689666667,-1.8070980706666664,9.058557035,0.42993925000000005,-2.4284216566666665,3.3299785056666664
423,3.524858999999992,24.13240432666667,12.918822923333332,-36.5544688,0.9091626006666669,-1.348611623,8.414085864999999,-5.217240492333333,-0.299396274,-12.803230923333333
424,3.533191999999985,24.079437256666665,12.901115736666668,-36.630673699999996,-5.228785952,-2.677795986333333,12.683074633333334,-5.6371215186666666,-5.791938486333333,-7.634554386999999
425,3.5415249999999787,23.962185543333334,12.911762553333332,-36.718427,1.3831805386666665,-0.30169438333333326,11.545591354333334,-13.21271833,-3.1769981383333334,-10.225448607333334
426,3.549857999999972,23.758965809999996,12.864162763333333,-36.873519900000005,-3.4658115410000003,-4.618595520666666,11.522877376666665,-21.614425026666666,-12.77330748,-14.676018399999998
427,3.558190999999965,23.511882143333334,12.824066796666665,-36.972300233333335,-0.2632790010000002,-1.034068438,13.373762446666667,-28.46740468333333,-9.180108071333335,-8.893868127
428,3.5665239999999585,23.17558352,12.78660679,-37.144638066666666,-3.768785347666667,-1.7575361456666665,12.684984523333332,-37.161851250000005,-12.330153466666667,-17.13740476
429,3.574856999999952,22.776899336666663,12.71147982,-37.21311186666667,1.0215508936666666,-3.892993211666667,7.9951074916666665,-47.523780820000006,-11.570584931666668,-4.120268106666667
430,3.583189999999945,22.283617016666668,12.600898106666667,-37.44915773333333,-4.091727535,-1.255744462,11.573881150666667,-54.34540812333333,-23.05287552,-20.814943313333334
431,3.5915229999999383,21.746741616666668,12.593815486666665,-37.477228800000006,-2.204743107,-2.2345926363333333,10.781419754666667,-65.14859008666667,-2.1873912016666663,-3.031011740333333
432,3.599855999999932,21.101389566666665,12.5014445,-37.72075146666666,-1.033473571,-3.7846793329999997,10.233942669333333,-72.52423859,-20.943578086666665,-22.907209396666662
433,3.608188999999925,20.392199196666667,12.45967579,-37.77926636666667,-4.4637764293333335,-1.1438484786666667,16.454106333333332,-84.98619334,-7.268758456333333,-4.855892737333334
434,3.616521999999918,19.574943543333333,12.486416499999999,-37.98619586666667,-1.775079161,-1.9535848299999998,11.888769310999999,-94.14916229333333,-5.476771035666666,-24.29737091
435,3.6248549999999113,18.717770893333334,12.492017426666665,-38.04641216666666,-2.430247605,-3.9835774103333335,5.037198424666666,-102.76007077333333,-1.8247292439999996,-7.095917701666667
436,3.6331879999999046,17.791185379999998,12.514311473333334,-38.269215933333335,-4.036082863666667,0.08198037233333337,12.612592219666666,-106.79294836666668,-5.838018576,-25.997595470000004
437,3.641520999999898,16.821285246666665,12.642158506666666,-38.31081136666667,-3.743234554666667,-2.044008175666667,9.673855145666666,-116.7680893,13.066583633333332,-9.35083882
438,3.649854000000005,15.77057266,12.716651916666668,-38.4915212,-0.5516715843333334,-2.745828271,6.458676655999999,-122.79159800000001,2.439545750666667,-23.230248766666666
439,3.658186999999998,14.711076733333334,12.874835970000001,-38.55377196666667,-3.9317982593333336,-0.5044428506666667,12.947050413333335,-126.88007356666667,16.237108866666667,-12.193463009666667
440,3.6665199999999913,13.636405943333335,13.037736573333333,-38.6619822,-4.143508593333333,-0.0892287293333333,12.496288299999998,-127.49683379999999,15.651521683333334,-17.46081416
441,3.6748529999999846,12.494747480000001,13.193403563333334,-38.735964433333336,1.9009818433333334,-1.3224977826666668,5.776332538000001,-136.39402263333332,16.02061494333333,-13.083274526666665
442,3.683185999999978,11.310455323333334,13.323105813333333,-38.841250099999996,-5.016038537,0.645169636,13.119465987666667,-140.64431763333334,12.490225632,-15.62849172
443,3.691518999999971,10.173100155,13.594408353333334,-38.91496276666667,-0.6382431190000001,-1.7771382533333335,10.612630685666666,-135.84025066666666,30.186812083333336,-14.815166473333335
444,3.699851999999965,9.061193783999999,13.767678259999999,-39.0194931,-3.633602341,-0.481972307,5.177185933,-131.91568500000002,18.260183016666666,-15.907141686666668
445,3.7081849999999577,7.911899884666667,13.924696286666666,-39.13831076666666,0.5362396436666668,-0.49759203166666666,12.748009206,-135.91333516666668,16.393290202666666,-16.754632946666664
446,3.716517999999951,6.760419845333334,14.171237626666667,-39.2580414,-7.647463163,1.6646165846666665,17.806166966666666,-136.11527,27.35791524,-17.99304263
447,3.724850999999944,5.560507774333334,14.36811447,-39.37219236666667,4.468063354333333,-0.9361663880000001,4.029857317333334,-142.07767233333334,21.86911614666667,-15.985618273333335
448,3.7331839999999374,4.326583067666667,14.51234309,-39.52839406666667,-6.001355727333333,0.23185229299999996,10.303043605333334,-144.83516443333335,15.474648791666667,-19.964895886666667
449,3.7415169999999303,3.174595038,14.7786719,-39.653933233333326,-0.2678404850000001,-1.335980793,9.886221250666667,-135.86309303333334,30.73396937,-16.857110019999997
450,3.749849999999924,2.0568614006666666,14.930696486666667,-39.8081538,-3.3200011650000003,0.4623940883333333,5.8950071820000005,-130.83449806666667,17.203582763333333,-19.11653963666667
451,3.758182999999917,0.8870613376666666,15.037517546666665,-39.99133046666667,-0.5518198806666664,-0.4677277006666667,12.75362309,-136.13493346666667,12.057222049333333,-21.72822825333333
452,3.7665159999999114,-0.30495925733333334,15.242404620000002,-40.11443836666667,-4.460840324333334,2.2749102513333335,17.193213780000004,-140.5559489,24.30874315666667,-15.082340239999999
453,3.774848999999904,-1.5708645183333332,15.34560458,-40.336718233333336,2.848839203666666,-2.6610975463333335,5.328095874333333,-146.34580993333333,12.585406938666667,-25.682622910000003
454,3.783181999999897,-2.7537111440000004,15.424976983333332,-40.47164156666667,-5.105950196666666,0.5865220826666667,7.137844682666667,-138.99914043333334,9.912644386666665,-15.925974526666666
455,3.791515000000004,-3.8681998253333334,15.464601199999999,-40.70714316666667,0.33638540400000005,1.3274453480000001,7.500588892333333,-127.70548503333335,6.089854717333334,-27.024048490000002
456,3.799847999999997,-5.028037866333334,15.410478590000002,-40.847333266666666,-0.907120029,0.9585330583333334,11.516081968666667,-136.16172283333333,-5.430738449,-16.98472595
457,3.8081809999999914,-6.238914807666667,15.37921842,-41.082723,-0.044499412333333356,-0.38299512866666663,14.642940998666667,-139.31167603333333,-1.3025253616666665,-27.565406796666664
458,3.816513999999984,-7.348467032333333,15.342766126666668,-41.21944426666666,-4.0840501389999995,-0.26732477066666666,7.512930313999999,-130.2535197,-2.6958934466666666,-16.49829928
459,3.824846999999977,-8.469159762333334,15.054024376666666,-41.414128600000005,3.428505400666667,0.7273305156666668,8.714273373333333,-129.87149553333333,-31.46825536,-27.20530192
460,3.8331799999999694,-9.60080719,14.929939903333334,-41.53920236666667,-5.633364836333333,0.17784004399999997,12.452278456,-133.38541669999998,-12.667717137666665,-16.860745746666666
461,3.841512999999964,-10.726276399999998,14.684127170000002,-41.72589873333333,1.4689486423333333,-0.26433661366666666,6.364429125,-130.7606252,-25.42293866333333,-26.929925283333333
462,3.849845999999957,-11.836633999999998,14.401289303333334,-41.83963013333334,-4.077479918666667,-0.11473196733333339,10.293825626,-131.31539410000002,-30.976165136666665,-19.6623319
463,3.85817899999995,-12.978699366666666,14.092975296666667,-41.99724833333333,0.6941459176666666,0.5234815479999999,14.929210343333333,-133.8289184666667,-32.40416844666667,-26.253792446666665
464,3.8665119999999433,-14.047411283333334,13.847335183333334,-42.1153259,-6.367105722666667,0.5941500266666666,9.000981649,-126.33796183333332,-25.754522323333333,-20.2539196
465,3.8748449999999366,-15.077603343333331,13.490769386666665,-42.23761496666666,1.187003096,1.702252666,5.748026409999999,-121.59620156666665,-38.03488413333333,-24.965342203333332
466,3.88317799999993,-16.10671266,13.156462033333334,-42.31846363333334,-2.9945211013333335,0.10135324833333333,11.690387089333333,-122.78031156666667,-36.448712666666665,-19.797646203333333
467,3.891510999999923,-17.112583796666666,12.820087433333333,-42.4257075,-1.0726675586666667,1.1031847623333333,11.188411233000002,-119.2595927,-35.303270340000005,-23.95187314333333
468,3.899843999999917,-17.99868392666667,12.500777243333333,-42.4953969,-6.430768728333334,0.4513475796666666,8.756084124333334,-105.97324116666665,-34.369586946666665,-19.45940526
469,3.9081769999999096,-18.86949475666667,12.135394413333332,-42.54572803333333,1.4192592303333333,2.7806746163333336,12.379822413333335,-104.6441803,-39.93635686,-19.872777940000002
470,3.916509999999903,-19.757361093333333,11.803429286666665,-42.61187743333333,-4.431720892333334,0.4175974226666666,11.511514026333332,-106.36950683333333,-35.343274433333335,-20.604803723333333
471,3.924842999999896,-20.563756306666665,11.43754546,-42.6382446,0.1416184306666667,0.324081441,8.093949,-97.57121022666666,-40.35527547,-18.441778819999996
472,3.933176000000003,-21.305366516666666,11.058244706666665,-42.65085093333333,-3.9485781193333334,1.028571387,11.545237540666667,-90.18187459333335,-42.30985514333333,-17.733996073333333
473,3.941508999999997,-22.036800383333333,10.674285253333332,-42.637705466666674,0.18653537833333336,2.387015352666667,14.28046163,-89.50636291333335,-43.596571600000004,-15.979002633333332
474,3.9498419999999896,-22.71421623333333,10.338831902666668,-42.643961600000004,-4.973874092,0.8653869183333334,10.159697215666666,-82.61750793666666,-37.271340689999995,-16.126027423333337
475,3.958174999999983,-23.287334443333332,10.023220381333333,-42.5823873,-2.475137273666667,1.7307351826666668,9.446700414666667,-71.52150726333333,-37.90881220666667,-8.502841472
476,3.966507999999976,-23.79307111,9.689377149,-42.58269753333334,-3.5193889936666665,2.1832164126666664,10.018832207333332,-62.13383611,-37.032580059999994,-16.196009003333334
477,3.9748409999999694,-24.27641678,9.386487007,-42.478968300000005,-1.8148072163333335,1.910107454,11.899395310000001,-61.49423599,-38.403575896666666,-3.995108922
478,3.9831739999999622,-24.726621626666667,9.116054536333332,-42.48022463333333,-3.328305642,0.8874211906666667,9.813129585,-55.45229975666666,-29.78029632666667,-13.78084469
479,3.991506999999956,-25.08380826666667,8.877458890333333,-42.38706716666666,-1.9607526460000002,0.31886437033333337,6.844812314333333,-46.03797658333334,-30.830948510000002,-2.4421961306666664
480,3.999839999999949,-25.369431816666665,8.610448360333335,-42.36926776666667,-2.7757898966666663,1.4230462313333334,9.614826203000002,-36.05565135,-30.191823323333335,-11.94125239
481,4.008172999999943,-25.648368199999997,8.393078645000001,-42.2971471,-3.244223992333333,1.5195034543333332,12.290173211666668,-36.20508321,-27.51656278,-3.7494655446666667
482,4.016505999999936,-25.910793306666665,8.187059879333333,-42.2772878,-2.444733063333333,0.6701443416666666,10.334119161000002,-33.28296788666667,-23.583756766666667,-8.855003675
483,4.024838999999929,-26.11800766,8.054656823666667,-42.233078033333335,-2.641584158,-0.28627968833333334,8.589039326,-27.05728849,-16.858432766666667,-2.520451506
484,4.033171999999922,-26.273989996666668,7.8988658586666665,-42.246762600000004,-4.181621313,0.5272052786666667,10.589704832333334,-19.945100786666668,-16.34945806,-9.942812284666665
485,4.041504999999916,-26.377869290000003,7.788199902,-42.1924845,-2.6775393486666665,1.1108777323333332,12.452389080000001,-14.796190896666666,-15.044819513333332,-0.37362644066666667
486,4.049837999999909,-26.521312076666664,7.705516020333334,-42.237279233333325,-3.139728467,0.6940382173333334,11.868000666666667,-17.94269371,-6.7980548543333335,-9.433452924000001
487,4.058170999999902,-26.601420720000004,7.6388854980000005,-42.20529426666666,-2.6172605753333333,-0.6912588576666666,8.674216748666666,-11.555829366666666,-9.129102387666668,-0.4614276786666667
488,4.066503999999895,-26.634445826666663,7.591571331,-42.251948066666664,-3.7167619066666666,1.281286061,12.447328886666668,-4.685595194666667,-2.873285683666667,-7.747256597
489,4.074837000000002,-26.664383570000002,7.5246620176666665,-42.2326533,-2.743838588333333,-0.043047507333333325,11.527901331999999,-5.330313841666666,-8.47807312,-1.8430638313333334
490,4.083169999999996,-26.68831444,7.502416610666667,-42.2837041,-1.9432841539999999,1.1209359766666667,10.034692446333333,-3.5114982923333335,0.0617731810000001,-6.906955401333334
491,4.091502999999989,-26.670403163333333,7.486768881333333,-42.30149586666666,-3.6802062193333334,-0.6690854526666666,11.320189793666666,0.9792194616666667,-1.0028187629999998,-3.0106206736666667
492,4.099835999999982,-26.65145111,7.4291213350000005,-42.33360033333333,-1.392542561,-0.34599787,9.235133649333333,1.3281112113333335,-4.747607867,-6.789225101333334
493,4.108168999999975,-26.629288990000003,7.4018832843333335,-42.35419463333333,-1.371409456,-0.775675652,10.369906106666667,1.5586990069999997,-2.080324361666667,-3.9917314053333333
494,4.116501999999969,-26.603500366666665,7.347093740999999,-42.3649699,-2.5508072376666666,-0.23678019166666667,11.898049989999999,1.7944051423333331,-5.583002408666666,-4.345851898
495,4.124834999999962,-26.59781138,7.2963720956666664,-42.370018,-3.1340667406666665,-1.2819600503333333,12.440228146666668,-0.6738764493333335,-5.441445827666667,-3.5618473686666667
496,4.133167999999955,-26.58445231,7.285060246666666,-42.394958499999994,-1.7459150156666665,0.11380599166666668,10.162542024666667,0.5332243643333333,-0.16488735866666668,-3.537223498
497,4.141500999999948,-26.570533120000004,7.236729462666666,-42.39040376666667,-3.945544004666667,-1.2367893953333333,10.783574423333334,0.15078667300000004,-5.691603183666667,-2.406653881
498,4.149833999999942,-26.59556770333333,7.228129069333334,-42.41357676666666,-2.1331399676666667,-1.2238817413333334,11.291758854666668,-4.101018190333333,0.0317447183333334,-3.2081317103333333
499,4.158166999999935,-26.610675173333334,7.212800185,-42.43231966666667,-2.4922255676666665,-0.9698999923333332,7.419444719999999,-2.962969422,-0.9012710896666668,-3.1438485783333334
500,4.166499999999928,-26.660111110000003,7.167506059,-42.425010699999994,-1.487781485,-0.588544498,12.195439818333334,-7.492552757333333,-5.528640906,-1.9388484163333335
501,4.174832999999921,-26.748611450000002,7.172521750333334,-42.45381926666667,-2.6650098960000004,-2.1845940353333333,9.437671660666666,-11.624445279999998,1.8278490306666668,-3.1227127709999998
502,4.183165999999915,-26.81298065333333,7.109668255,-42.4515101,-1.7238262393333332,-0.275030206,9.302053771,-9.218167304333333,-7.138581276,-3.416619142
503,4.191498999999908,-26.915260313333334,7.0973178546666675,-42.45949806666666,-3.0317250093333334,-0.8869322243333334,16.06590398333333,-13.591217676666666,-1.156384667,-1.8289120993333334
504,4.199831999999901,-27.023996993333338,7.078423181999999,-42.4662959,-3.556838274,-1.257537643,9.473477044333334,-14.41679096,-1.93452394,-2.0105853876666666
505,4.208164999999895,-27.12689654,7.032917658333332,-42.47733306666667,-2.5113852026666668,-0.2252515456666666,10.273558617666668,-13.624580700000001,-4.518881321333333,-3.9809307260000004
506,4.216498000000001,-27.244140626666667,7.036544322666667,-42.495712266666665,-2.625740806,-0.9772760546666667,10.745313325,-15.24185149,1.1000163556666667,-2.02877148
507,4.224830999999995,-27.37584241,7.027409394666667,-42.5063095,-2.867330352333333,-0.096225674,11.071584066666668,-17.10513369,-0.6428490083333334,-1.9474889833333335
508,4.233163999999988,-27.5246315,7.001114368333333,-42.525416033333336,-1.8315996129999998,-1.3028408683333332,11.219545685,-19.01831627,-2.042377273,-3.745617787
509,4.241496999999981,-27.659006116666664,7.020084063333333,-42.55903623333333,-2.975127617666667,-0.8287427823333333,9.045293172333333,-17.075575509999997,3.606578985666667,-2.8026377363333332
510,4.249829999999975,-27.790018720000003,7.020689805333333,-42.55278523333333,-2.6420663196666667,0.27545430266666665,12.068449499000002,-17.28310744,-0.5716032583333334,0.44028750333333333
511,4.258162999999968,-27.966119766666665,7.025735219333334,-42.5857188,-2.845197916,-0.8968570033333333,14.735087713333334,-22.09781710333333,2.098165353,-3.4791447323333333
512,4.266495999999961,-28.10541089333333,7.082052707666667,-42.60225166666666,-3.8182547886666662,-0.7400181393333334,5.7672177153333335,-17.92744891,6.591757138333333,1.1833610136666666
513,4.274828999999954,-28.245032626666667,7.120706081666666,-42.609652166666656,-1.508855822,-0.21262387433333332,9.951350052333334,-18.102178570000003,4.243545373,1.102859507
514,4.283161999999948,-28.421878816666663,7.155755996666666,-42.64089713333333,-2.8877768516666666,-0.9136337436666667,11.427284240666667,-22.20947646666666,5.1645750999999995,-1.5339220366666666
515,4.291494999999941,-28.56192843,7.232299010000001,-42.67714183333334,-1.830817779,-0.8228423396666668,6.4423609573333325,-17.707937876666666,9.848185854666667,0.3069055826666667
516,4.299827999999934,-28.690009433333334,7.263363997,-42.694419866666664,-3.093065023333333,0.19499714166666668,10.987472057333333,-16.582104366666666,3.956713040666667,-0.2614872406666667
517,4.308160999999927,-28.853120166666667,7.313010533666667,-42.7364985,-0.6853514513333333,-0.10015986366666667,12.873993236666665,-20.38297526,7.34424448,-1.795690894
518,4.316493999999921,-28.957015353333333,7.367815971333333,-42.77882636666667,-4.540785233333334,-0.745248041,9.310458182,-13.287032126666666,7.878538609666666,-1.4570530653333336
519,4.324826999999914,-29.025210700000002,7.427739620333333,-42.78153226666666,-1.1775919993333333,0.9050974446666666,12.834968883333334,-9.608524639999999,6.174385071,2.9150244396666665
520,4.333159999999907,-29.11880048,7.456670602,-42.823438,-3.646609942,-0.004714798333333325,12.18634669,-12.045538903333332,5.129152616,-2.886989117
521,4.3414929999999,-29.145438513333335,7.567553202333333,-42.83710986666667,-2.828585823333333,-0.5823537113333334,8.106723784666666,-4.435686190999999,12.141921996666667,4.757875124666666
522,4.349825999999894,-29.166601816666667,7.610418161000001,-42.855908733333344,-2.5291333196666668,0.49149658566666665,14.374838193333332,-3.720425049333333,5.247460047333333,0.3546974063333333
523,4.358159000000001,-29.18952751333333,7.7005610466666665,-42.84356436666667,-1.3939429323333332,0.4471326123333334,8.725315252,-4.400214672,8.445176919,6.269639492333333
524,4.366491999999994,-29.139895756666665,7.778686523666667,-42.87124636666667,-3.1971161363333334,-0.02653359366666667,10.729612667333333,4.926604509,9.443794888,1.5136520863333331
525,4.374824999999987,-29.037311553333335,7.885655244333333,-42.82676696666666,-3.125176826666667,1.123772333,13.656252863333334,10.116651218333333,8.354399999333333,10.602937066666668
526,4.38315799999998,-28.91232427,7.957613627000001,-42.8278249,-1.533228194,1.178324868,8.813251335999999,13.540809629999998,7.258311271666667,3.9068928560000002
527,4.391490999999974,-28.715764363333335,8.146144707666666,-42.81203713333334,-4.347685019333333,0.5597983896666667,13.86502616,21.874130886666666,18.62605667,12.272875149999999
528,4.399823999999967,-28.454651513333335,8.297200679666666,-42.79385123333333,-2.8250480889999996,0.855026285,8.506910802333334,29.514044446666663,14.508920036666666,10.459775605666666
529,4.40815699999996,-28.091578166666665,8.493492603333333,-42.78115843333333,-3.439596653,1.626323163333333,7.016609589333334,41.90238444333333,19.72029304333333,12.237856866666666
530,4.416489999999953,-27.67875353333333,8.715161324333332,-42.74411266666666,-2.818284591,3.1586413383333336,16.932394666666667,47.362553913333336,21.063497543333337,16.245114009999998
531,4.424822999999947,-27.23196729,8.975687026000001,-42.74015046666667,-4.179069598666667,0.28978825599999997,7.560228824666666,52.07596079333334,27.204876583333334,14.624139786666667
532,4.43315599999994,-26.651648836666666,9.267773309333334,-42.69684346666668,-1.7142652076666665,2.2975112996666667,6.4406281309999995,67.30518849666667,28.529335023333335,20.37923622
533,4.441488999999933,-26.021567023333336,9.604981104666669,-42.707822166666666,-4.7090307073333335,0.9510556956666667,10.277461688,74.35178884,36.53509521666667,16.567916236666665
534,4.4498219999999264,-25.31423823,9.994134901333334,-42.679725633333334,-2.828394572,0.8819380006666666,10.010988711333335,82.80276998,40.26518758,23.142876306666665
535,4.45815499999992,-24.529218036666666,10.430828413333332,-42.693168633333336,-4.15745461,2.0681068303333334,9.084866364333335,93.02550252333333,47.90519332666667,20.38600158666667
536,4.466487999999913,-23.69215838,10.935921669999999,-42.7031021,-4.036095976666666,1.4958472249999997,11.87817796,99.17353311333333,55.42887878333334,23.600883483333334
537,4.474820999999906,-22.76942888666667,11.447697640000001,-42.696357733333336,-4.8074976603333335,0.6421403286666666,11.019561766666667,109.08688863333333,55.83675638666667,24.716092426666666
538,4.4831539999999,-21.73672485333333,12.013202983333334,-42.71003723333333,-1.2476342963333333,2.5557695233333333,7.405514957,122.75918833333333,63.067382813333325,24.08910179
539,4.491486999999893,-20.674692153333336,12.584862710000001,-42.68383026666667,-3.8669974806666665,1.197455883,10.030866941333334,125.32570393333333,62.632518766666664,27.269964216666665
540,4.49982,-19.548797606666668,13.203708333333333,-42.705940266666666,-3.015455842,-0.3219392423333333,10.878200054999999,134.2393493666667,70.33713786,22.84179052
541,4.508152999999993,-18.29924583333333,13.796721456666667,-42.61948393333333,-2.7880709173333336,3.0295875866666666,10.098246257333335,146.09104409999998,63.83164851,32.20095125666666
542,4.516485999999986,-17.01935323,14.429112436666665,-42.618064866666664,-2.7963600953333336,0.6190288066666666,7.473405679,152.06646726666668,72.00308990333333,22.883537293333333
543,4.52481899999998,-15.669915833333334,15.05846087,-42.49054973333333,-3.4059991040000006,0.10083102700000002,6.310823081666666,156.61171976666665,68.09070714333335,35.03216425333333
544,4.533151999999973,-14.274839403333333,15.639481543333332,-42.4475835,1.177948768,1.2779845676666668,9.266327858,164.64514163333334,65.87832260333333,22.2778066
545,4.541484999999966,-12.818806330000001,16.198472973333335,-42.275154133333324,-4.906201561333334,0.04801508266666669,11.142174722999998,167.62062073333334,60.33194223666667,34.65936152333333
546,4.549817999999959,-11.352021533333334,16.73622513,-42.1604385,0.36894551899999994,0.911470515,10.776247979666666,170.6205546,60.08970006333334,26.13341013333333
547,4.5581509999999525,-9.854900997666668,17.275120416666667,-41.969764700000006,-3.338280201,-0.7435189086666667,12.170617739999999,171.55351256666665,59.31665802,32.99041621333333
548,4.566483999999946,-8.319101015666668,17.69733937666667,-41.7904078,0.19054257866666666,0.517967147,10.655112583333333,176.35274253333333,46.555018106666665,27.95048395666667
549,4.574816999999939,-6.707867781333334,18.148473106666668,-41.564531933333335,-5.099787553333333,-0.6849712133333332,9.094272932666668,183.51612343333332,50.04874801666667,32.471907933333334
550,4.583149999999932,-5.138215700666667,18.52558962666667,-41.3631007,1.9573811689999998,0.287217617,9.247328599333335,179.2815297,42.419498446666665,27.137044266666667
551,4.591482999999926,-3.552758614333333,18.791543323333332,-41.10616556666666,-1.8587735496666669,-1.087767621,11.977201780000001,178.9151102666667,29.369958243333333,31.35340372666667
552,4.599815999999919,-1.9489222763333334,19.031592053333338,-40.862414066666666,-0.5563679286666666,0.679248969,11.491601628666666,181.6204936,27.24023056,28.3417689
553,4.608148999999912,-0.3681946086666666,19.208482106666665,-40.6020279,-3.287576436666667,-2.818709532333333,11.211532590333334,177.96879576666666,20.397537233333335,29.778221766666665
554,4.616481999999905,1.2360759973333333,19.359798433333335,-40.33482616666666,1.2635731696666666,-0.39614880566666666,10.646562894333334,180.47882076666667,18.16795667,29.69460042
555,4.624814999999899,2.800145069666667,19.412588116666665,-40.09067533333333,-3.8888129389999997,-0.194225093,13.066355703333334,176.49132283333333,7.088322957666667,27.190327326666665
556,4.633148000000006,4.346533298333334,19.40069452666667,-39.81838223333333,0.817652444,-2.5005447073333333,8.151024500333333,173.26726276666668,0.27708903933333334,30.426270803333335
557,4.641480999999999,5.881359418333333,19.355419796666666,-39.59163156666666,-2.5401345096666663,-0.870785872,11.253908000000001,173.68963113333334,-3.330064634333334,25.80641746666667
558,4.649813999999992,7.3468035060000005,19.253356296666666,-39.331006366666664,-1.0258836346666664,-1.5413669743333334,14.230004943333334,164.07593789999999,-8.985473157333333,30.32109896333333
559,4.658146999999985,8.763394355666668,19.128392536666667,-39.12632493333333,-2.7147287526666664,-3.2053965726666664,9.697764396666665,160.44042966666666,-11.791135468999999,24.849803286666667
560,4.666479999999979,10.156362853333333,18.927660623333335,-38.91259766666667,0.5625754593333333,-1.8790431816666668,11.892951966666667,157.3468374,-19.994006476666666,27.448179879999998
561,4.674812999999972,11.447787283333334,18.735091526666668,-38.76203413333333,-4.145632744,-2.3265167473333332,18.10644372333333,147.6844889,-19.68618456333333,20.882652283333332
562,4.683145999999965,12.68209203,18.473243713333336,-38.554377233333334,-0.8908929626666667,-2.459801912,10.813197453333332,138.72976683333334,-26.00945727,29.248739240000003
563,4.691478999999958,13.868295033333332,18.216855366666667,-38.450737,-2.9449427129999997,-2.7033754986666665,8.187565008666667,136.94423423333333,-27.40405146333333,18.354474386666666
564,4.699811999999952,15.020665166666666,17.855224606666667,-38.3083318,-0.8426207006666666,-1.979622046,12.760865369333333,131.563975,-38.18978500666667,26.148389813333335
565,4.708144999999945,16.073896726666664,17.54427083,-38.228658066666675,-2.1362354756666666,-1.8900929690000001,11.430623372000001,122.00066373333333,-33.67836761666667,18.535067876666666
566,4.716477999999938,17.062690736666664,17.176516853333336,-38.11911773333333,-2.5286910136666667,-2.612337192,14.606977780000001,113.31283056666666,-38.93687057333333,24.208948133333333
567,4.724810999999932,17.970873516666668,16.883458136666665,-38.041361466666665,-2.804201424,-3.2409288089999997,13.33623727,104.79652403333334,-31.04559580333333,18.74786949
568,4.733143999999925,18.817881903333333,16.493946076666663,-38.00205233333333,-2.118575295,-3.4380602039999997,10.427480699666667,98.86708068,-43.14428202333334,18.63915507
569,4.741476999999918,19.59795379666667,16.153723080000002,-37.956072500000005,-3.4753220079999996,-3.072545687333333,13.799505233333335,90.61075083333333,-36.992848716666664,18.128787356666667
570,4.749809999999911,20.309330623333334,15.794763246666667,-37.9483897,-2.0443016686666664,-2.6719039283333337,9.759831429333333,83.68744151,-40.402642566666664,15.12890975
571,4.7581429999999045,20.91319593,15.479838370000001,-37.9384613,-3.587509791,-3.087011019333333,10.407576879666665,70.68468221,-35.15962982,14.027437526666667
572,4.766475999999898,21.417926786666666,15.147856393333333,-37.9643275,-1.2433492443333332,-3.4526141486666666,11.445528031,59.95612843666667,-38.44576390666666,11.185412406666666
573,4.774809000000005,21.879659653333334,14.90684128,-37.958775833333334,-7.275845527666667,-2.1700866619999997,13.208834013333336,53.82461420666666,-26.840958913333335,10.923968953333334
574,4.783141999999998,22.282966613333333,14.649318693333333,-37.98555503333334,-0.4672790466666666,-1.7516142526666665,10.180593332333332,47.76493200000001,-30.018217723333333,8.321221510666668
575,4.791474999999991,22.616177876666665,14.497699733333334,-37.9757792,-5.344587961999999,-4.524216493,11.89208444,38.25556310333334,-16.58112494,7.632960637
576,4.7998079999999845,22.880385716666666,14.271219573333333,-37.99391936666667,-0.822238922,-2.0782531303333336,14.772672653333332,30.810384753333334,-26.090173086666667,8.163849194666666
577,4.808140999999978,23.078218460000002,14.214516006666669,-37.96509296666667,-7.4152015050000015,-1.6446920336666668,11.790975253333334,21.485579806666664,-5.155964056666666,5.389117956
578,4.816473999999971,23.234146116666665,14.10121759,-37.923779800000005,-0.975803852,-3.089904626333333,8.221151192,16.042269073333333,-10.826078731333332,9.344469389666665
579,4.824806999999964,23.34011904666667,14.070968313333333,-37.8810247,-2.979131619,-2.2957425116666665,7.322313944666667,10.030227661,-1.5613330106666667,5.646658262
580,4.833139999999958,23.411388396666666,13.971298533333334,-37.84706116666668,-4.6115515233333335,-1.3340790673333334,9.391497613333334,6.166201114333334,-9.621523618333335,7.992240111000001
581,4.841472999999951,23.457618713333336,14.00941054,-37.76230876666667,-2.1621251506666668,-0.7749086319999999,9.83140119,1.653463046,7.930491608,6.888735135666667
582,4.849805999999944,23.468104043333337,13.996156059999999,-37.69349673333333,-3.8658587140000003,-1.3651076756666667,8.394827048333333,-2.186473965333333,1.5163201093333332,7.569071293
583,4.858138999999937,23.45962778666667,14.050077756666667,-37.61225893333333,0.5357765506666666,-2.1245519716666665,10.194830897333334,-4.7870876786666665,9.465233167666668,5.650325775
584,4.866471999999931,23.461030323333336,14.06772391,-37.5202535,-7.230335394333333,-0.5317145883333333,14.83647855,-3.915225903333333,5.994722048,8.592245102
585,4.874804999999924,23.463486989999996,14.176114716666666,-37.4056244,1.299144159,0.4277070063333333,12.434696832999999,-4.477988640333334,17.00128237666667,6.590083758000001
586,4.883137999999917,23.454411190000002,14.209058123333334,-37.314216599999995,-5.168653329,-1.179510951,9.072703835666667,-5.206977844333333,7.643314361333334,7.769464333999999
587,4.89147099999991,23.460525513333334,14.272248583333335,-37.20678966666667,2.597646753,-1.0654880006666667,5.1783720650000005,-3.866217534,11.699628196666666,7.996962229333334
588,4.899803999999904,23.476747513333333,14.292057990000002,-37.16810353333333,-6.712182998666667,-0.08483591666666666,12.513330459333334,-0.5747876763333334,3.760596851666667,2.8039648533333335
589,4.908136999999897,23.510812123333334,14.363235156666667,-37.03567759999999,1.1498400163333333,-0.5877655496666666,10.714801790000001,-1.2582909263333333,13.724629716666668,10.233451843333334
590,4.916470000000004,23.51710574,14.399674416666665,-37.008572900000004,-5.614197413,-0.44015036500000004,11.802570023333331,-1.472634832,5.051835616666666,0.7365458306666667
591,4.924802999999997,23.571233746666667,14.444873809999999,-36.89999136666666,1.3118938006666667,-0.8180544426666666,8.584162234666666,1.8489126166666667,9.768724440333335,8.929336865666667
592,4.93313599999999,23.63480568,14.395845413333333,-36.911499033333335,-4.702621936666667,-0.495689725,10.295112449666666,6.578308264333333,-6.137961229000001,0.7450242239999999
593,4.941468999999984,23.713888803333333,14.415641149999999,-36.82711286666667,-0.27821946633333333,0.5032699406666666,13.880654336666666,5.576279481333334,5.870313644333334,7.562876542666667
594,4.949801999999977,23.776361466666668,14.409798623333332,-36.815050766666666,-3.6458400090000005,0.083685393,9.000770091666666,5.717784404666666,-0.290781359,1.160790066
595,4.95813499999997,23.870559056666668,14.385786373333332,-36.759251899999995,-0.24420146166666667,-1.29731069,9.726351739333333,8.208027521666667,-0.2247990963333334,6.704437097
596,4.966467999999964,23.952534356666664,14.317125003333333,-36.778884866666665,-3.0454053880000003,-0.44724908466666663,9.304925600666667,9.006325403666667,-8.669775327333333,0.8523394266666666
597,4.974800999999957,24.04769007333333,14.244001070000001,-36.7756195,-0.538682699,-1.2725085120000001,9.550253550333332,9.914869629,-8.069547494333333,3.5357297259999996
598,4.98313399999995,24.164370856666665,14.159382186666667,-36.807472233333336,-5.341279189000001,-0.87563998,11.460443813333333,13.559346836666665,-10.991020519666668,0.3868817686666666
599,4.991466999999943,24.260064443333334,14.081410723333335,-36.831802366666665,0.126744012,0.33087723933333335,12.889027120666666,10.765699070333334,-9.895767213,0.8811810910000001
600,4.9997999999999365,24.3272686,14.012927693333333,-36.88425446666666,-4.167952378666667,-0.35274872166666665,11.646824520000001,8.178839683666666,-10.217165312333334,-2.591430823
601,5.00813299999993,24.407128013333335,13.950555800000002,-36.889546700000004,-0.235957682,-1.1837507286666666,11.053735732666667,8.296554088666667,-7.266396204666666,2.164736072
602,5.016465999999923,24.477531433333336,13.840982753333334,-36.990076699999996,-3.6231288910000004,-1.4362435736666666,10.174001378,9.943740207666666,-17.028534893333333,-5.615048090333334
603,5.024798999999916,24.55604744,13.762770653333334,-36.993431099999995,-1.807258447,-1.4351683160000002,11.71726036,8.101340135000001,-8.904752095666666,3.1623852253333333
604,5.03313199999991,24.627991993333335,13.690252303333333,-37.08084613333333,-4.864009539333334,0.03629298033333328,10.868292173333332,9.734554925666666,-12.363101640333333,-6.029135227
605,5.041464999999903,24.699993136666667,13.632037796666665,-37.09433746666667,-2.6942201256666665,-0.5963516036666666,9.867329279666665,7.605271816333333,-7.204968770333333,1.1152908206666667
606,5.049797999999896,24.713674543333337,13.556123733333335,-37.16429643333334,-0.8070733,-0.6253192323333333,9.380585034,2.179012278666667,-11.899996123333333,-4.017273585000001
607,5.058131000000003,24.72615496333333,13.543569883333333,-37.1777242,-3.020587921,-2.0909703573333336,8.549851098666666,0.4508489466666667,-2.221245050333333,-1.1611146133333332
608,5.066463999999996,24.722137453333332,13.504219056666665,-37.23590086666666,-2.5553968846666666,-1.1305006746666668,9.901324272333333,-0.2549512906666667,-7.337937355333334,-4.583518664
609,5.07479699999999,24.717669169999997,13.4936018,-37.2623342,-3.644836187333333,-0.7599826453333334,13.336173373333333,-1.1764275229999999,-2.672397166333333,-2.682557424
610,5.083129999999983,24.695970533333334,13.54700724,-37.272829666666674,-3.283088843,-0.5052678389999999,10.815054893000001,-3.7229394913333334,5.097804943666667,-4.192892233666667
611,5.091462999999976,24.698614116666665,13.603405953333334,-37.29599506666667,-4.180071830666667,-1.09310023,10.051569936,-0.39793421800000006,4.759313265333334,-5.777816295666667
612,5.099795999999969,24.686002733333336,13.623699186666665,-37.32259116666667,-1.9454998176666667,-1.0436431566666666,9.585060437000001,-2.1816369693333333,0.7048226993333334,-4.239774863
613,5.108128999999963,24.606128693333332,13.659808476666667,-37.367240900000006,-1.5280292233333332,-1.1060280999999998,12.573517163333333,-9.717363515,1.5087682553333333,-7.040256976999999
614,5.116461999999956,24.50768216333333,13.753843623333333,-37.401891066666664,-4.820330779,-1.7756449383333333,12.584470113333333,-12.204433443333334,8.372471650333333,-8.751206874666666
615,5.124794999999949,24.39182027,13.827805836666668,-37.424224833333334,-2.30136319,-1.4510159886666667,10.337900956666667,-14.643374126666666,6.751734415666665,-6.519895553666667
616,5.133127999999942,24.185089109999996,13.948265076666667,-37.50147756666667,-3.5187957290000003,-1.996439735,10.755916914666665,-23.994508106666668,9.260305086333334,-14.552666346666667
617,5.141460999999936,23.912755966666666,14.071166036666668,-37.53242236666667,-0.282875344,-3.9950338996666663,7.078063488000001,-33.18494160666666,11.736576240333333,-9.818695386333333
618,5.149793999999929,23.55418841,14.14864572,-37.6710205,-4.330160776666667,-1.817372918,13.707621731666668,-40.333548226666665,1.8122438193333332,-18.877198536666665
619,5.158126999999922,23.10357793333333,14.346995990000002,-37.7038523,-2.898032387,-3.6518669923333333,11.312663076666666,-54.481390636666674,20.079060233333333,-13.448269843333335
620,5.166459999999916,22.54657173,14.45045376,-37.89076996666667,-1.3337371750000002,-3.6199367843333334,7.684977214999999,-62.69184875333334,2.805017749333333,-25.242372513333336
621,5.174792999999909,21.864631653333333,14.573326746666666,-37.98028059999999,-3.724995076666666,-2.9888072806666663,17.88562202333333,-80.49516550666665,9.484119573333333,-15.63959535
622,5.183125999999902,21.106782276666667,14.776053746666667,-38.15739440000001,-4.110449393666666,-2.2345454696666667,10.541738509,-86.95756022,14.898846310000001,-28.42726326
623,5.191458999999895,20.250127156666665,14.899191216666665,-38.281720500000006,0.05142835766666668,-4.153403997666667,5.858611107000001,-100.38734945,8.470156291,-19.24758593333333
624,5.199792000000002,19.283400853333333,15.054125783333333,-38.48139956666666,-4.437464356333334,-0.9003970026666668,15.244399389333333,-111.19638823333332,9.463483811,-28.444893519999997
625,5.208124999999996,18.308562596666665,15.282982510000002,-38.57673136666667,-4.097851157333333,-2.057754059666667,8.038425922333333,-115.41816713333333,22.278424579999996,-19.542161306666667
626,5.216457999999989,17.22959264,15.416241646666668,-38.771809899999994,-0.16030683133333343,-2.4534076453333333,8.113284507333333,-124.74375663333332,8.127874215666667,-26.79267374666667
627,5.224790999999982,16.06785202,15.634190243333334,-38.887769066666664,-4.601835171333334,-2.8821112713333332,16.174056052666668,-137.00816853333336,20.989437103333334,-20.757183076666664
628,5.233123999999975,14.895022390000001,15.866071066666668,-39.019617700000005,-3.931436787333333,-0.20256070300000006,9.574296950333334,-137.8960012,22.541355770000006,-22.511264803333333
629,5.2414569999999685,13.588022866666668,16.043907166666667,-39.159774766666665,1.1259258186666665,-2.3751391073333337,8.353927613333333,-153.64008076666667,16.507395426666665,-21.26353518333333
630,5.249789999999962,12.258838653333335,16.247210503333335,-39.320666,-5.868916034666667,-1.1648622156666668,10.854488292,-155.52679443333332,19.423826853333335,-23.908743540000003
631,5.258122999999955,10.954128903333334,16.51665179,-39.453331000000006,-1.9799282523333332,-2.2811429899999998,5.8277813609999995,-153.54896036666665,28.42396990333333,-21.683680850000002
632,5.266455999999948,9.513936360666667,16.57098452,-39.658103933333344,-0.5892651080000001,1.5325237313333335,17.585116542333335,-167.25390116666665,2.020689906,-24.733227413333335
633,5.2747889999999416,8.078724861333333,16.920390763333334,-39.843704233333334,-6.579702893666667,-2.9890123330000002,8.935414631333334,-167.23616026666667,37.996292116666666,-27.641087213333336
634,5.283121999999935,6.638964970666667,16.985263823333334,-40.0341161,2.596597433,-0.783327828,4.503608960666667,-167.58110556666665,4.711214620333333,-23.0929718
635,5.291454999999928,5.092182795333334,17.135476110000003,-40.30500543333334,-6.272315292666666,0.7127245766666667,17.708483376666667,-177.50525920000004,14.564199606333334,-32.919169110000006
636,5.299787999999921,3.6169154646666666,17.36670176,-40.474365266666666,0.6086353063333331,-1.213190714666667,2.3054510976666664,-172.45591226666667,25.98357455,-21.866762163333334
637,5.308120999999915,2.105561176666667,17.34275627,-40.800908400000004,-1.7837459246666665,-3.144320368666667,9.926115830333332,-171.16313173333333,-4.936095873999999,-37.31060282333333
638,5.316453999999908,0.5906054376666666,17.47461446,-40.96669766666667,-3.7578976553333328,2.2261394463333333,17.894374850000002,-177.2648468,15.161829948,-19.740278243333332
639,5.324786999999901,-0.9337545833333333,17.523309710000003,-41.30049133333333,0.14033558833333334,-1.328375717,2.7486378353333336,-172.38605753333331,5.743335566,-38.27016449333333
640,5.333119999999894,-2.429089705333333,17.394835786666665,-41.4608612,-1.402550906,1.3447109756666666,13.876460074999999,-174.98458863333335,-15.071105082333332,-19.548378626666665
641,5.341453000000001,-3.9739758970000003,17.45077006,-41.79941303333334,-4.024178028333333,-0.9447113276666667,9.543854235,-174.72972106666668,8.635417779666668,-38.408329009999996
642,5.349785999999995,-5.4002354939999995,17.25613912,-41.95457456666666,0.8226657510000001,0.03874853733333331,4.989619710666667,-166.90404256666667,-22.005460103333334,-20.390622453333332
643,5.358118999999988,-6.874064604666667,17.066908520000002,-42.24325053333333,-3.414201100666667,2.0081015823333335,18.10343805966667,-168.16492716666667,-19.287017505999998,-35.40786615666667
644,5.366451999999981,-8.329781214333332,16.94947338333333,-42.394722,-1.810878754,-0.5704268116666666,9.331165154333332,-170.83460493333334,-11.903943063333335,-19.30496915333333
645,5.374784999999974,-9.745041847333333,16.64630127,-42.65767926666667,-0.13277670733333347,-0.17616651433333338,4.512560497,-162.14535013333332,-31.39685185333333,-35.94779586666667
646,5.383117999999968,-11.127966246666666,16.35633373,-42.76359556666667,-2.913231651,1.7815916363333333,14.367884633333333,-163.8278402,-32.27210236,-18.421702703333334
647,5.391450999999961,-12.538003603333332,16.078345616666667,-43.003774,-3.0806440513333335,-0.5261978803333333,10.386046249333333,-162.59260053333333,-27.187726336666667,-34.32443237333334
648,5.399783999999954,-13.790417353333334,15.783191359999998,-43.09770203333333,-3.2346367039999997,1.2259972493333333,8.723507642666666,-148.72122190000002,-32.32811037666667,-18.60138766
649,5.408116999999947,-15.078537306666666,15.381608326666665,-43.26270036666666,-0.13071383533333325,2.599090973333334,11.71092971,-150.68149823333334,-42.12713241666666,-30.881870269999997
650,5.416449999999941,-16.334196093333333,15.045860923333334,-43.3266856,-3.564425389,-2.1532366473333333,13.506023723333334,-150.19706726666666,-37.117397309999994,-17.984591166666664
651,5.424782999999934,-17.506409963333333,14.671670276666667,-43.444987,-2.587756157,2.5333842436666667,9.093786557666666,-138.46161906666666,-39.178421023333335,-26.590845106666666
652,5.433115999999927,-18.61787160333333,14.287651696666666,-43.4618276,-4.052856683666667,2.7734625336666667,14.582142191666668,-134.42153423333335,-43.58656692666667,-16.018567083333334
653,5.4414489999999205,-19.72045199,13.925922076666666,-43.53711953333334,-0.9246941406666668,1.48315533,8.990725837,-131.53556316666666,-38.33485412666666,-22.931277593333334
654,5.449781999999914,-20.69956016333333,13.593506813333335,-43.532358800000004,-4.756710211333333,0.7118843196666665,6.905589342,-119.07730866666667,-37.89603042666667,-13.49534734
655,5.458114999999907,-21.578121823333333,13.209162713333335,-43.53632103333334,0.043675303333333325,2.6682854493333337,9.849768955,-106.7530009,-43.05963261666667,-17.46482308666667
