,time,Euler_X,Euler_Y,Euler_Z,Acc_X,Acc_Y,Acc_Z,Gyr_X,Gyr_Y,Gyr_Z
0,0.0,21.93567594,18.23885599666667,-26.48753103333333,-1.1888294106666668,-1.6563050746666665,13.669704753666664,12.47431596,21.433663844333335,-1.0554399490000002
1,0.0083329999999932,21.992144906666667,18.334325789999998,-26.44552613333333,-1.9813428496666665,-1.4507724839999998,7.254945756333334,4.5268700520000005,11.993594328333335,-0.20270273599999997
2,0.0166659999999865,22.025683083333334,18.545331320000003,-26.362215699999997,-1.3841911159999996,-1.3626947203333335,14.317439714333332,0.217626651,26.62383874,-1.0444257806666666
3,0.0249989999999797,21.995969133333332,18.60377884,-26.338391633333334,-1.0406463296666666,-2.525843620333333,8.702781359666666,-5.142177343333333,7.092979431333333,-0.47691165899999993
4,0.033331999999973,21.97312101,18.803805030000003,-26.255447399999994,-2.286213750666666,-0.9838732483333333,10.594487906666666,-6.5829392276666665,25.39567248,-0.5831210213333332
5,0.0416649999999663,21.907379786666667,18.88890203,-26.228126500000002,-0.6748725373333334,-1.2665626606666667,9.930550258333334,-9.616166752666667,10.2151858,-1.272122721
6,0.0499979999999595,21.81868998,19.085040406666668,-26.14889526666666,-3.567292928666667,-0.39912484600000003,10.828511397333331,-14.376306536666666,24.79759216333333,-0.7717319526666667
7,0.0583309999999528,21.71561432,19.238126753333333,-26.113945000000005,0.011626044999999937,-1.085136714,11.977330525333334,-14.415427843333333,18.123593571666667,-3.4374069373333334
8,0.0666639999999461,21.61218261666667,19.379055660000002,-26.051506066666672,-3.473327318666667,-0.12775918233333336,8.878338973666667,-15.530518533333334,17.936661083666667,-0.013277570333333285
9,0.0749969999999393,21.503286996666663,19.580266316666666,-26.004742933333333,0.16738778333333335,-0.4103499453333334,13.763475737,-15.609526,24.002208868333337,-4.244009772666666
10,0.0833299999999326,21.361113866666667,19.67737325,-25.9814962,-1.94499438,-1.4533890486666667,7.764969032333333,-18.633844056666664,11.415874481333333,-2.1605534953333336
11,0.0916629999999258,21.23270925,19.88401158666667,-25.9190674,-1.826889932,0.16122935199999996,13.428848582333332,-18.61128807333333,25.266378403333334,-2.726126273666667
12,0.0999959999999191,21.087575276666666,19.95441882,-25.908950799999996,-0.280496637,-0.449585392,8.047080677333334,-18.467144333333334,7.905095996,-2.3310247263333337
13,0.1083289999999124,20.984865823333333,20.164707183333334,-25.854777,-3.412168162666667,-0.4249218006666667,13.851654686666668,-15.22023073666667,25.352006593333332,-3.64181002
14,0.1166619999999056,20.85766856,20.25563812,-25.83149463333333,-0.3657508093333334,-0.11738846699999998,7.514750480333333,-16.85819530666667,10.746751466000001,-1.7800364893333331
15,0.1249949999998989,20.73818779,20.453374863333334,-25.78453573333333,-3.2107011476666667,0.1925272246666667,11.784427482,-16.965340293333334,23.667144773333334,-3.7720107236666665
16,0.1333279999998922,20.64303398,20.535485586666667,-25.7642568,-0.19190275666666667,-0.806119323,11.738583245333333,-12.897444723333335,9.646310171666668,-1.6727208496666668
17,0.1416609999999991,20.552057263333335,20.714342119999998,-25.708007833333337,-3.0561105406666673,0.5921709286666667,9.206799944333333,-13.961244266666668,21.925623576666666,-1.9124282203333334
18,0.1499939999999924,20.449775059999997,20.808492663333336,-25.694318166666672,-0.22564925733333321,-0.9120984226666667,9.543677488333334,-13.481389366666667,10.748841287,-2.839389840666667
19,0.1583269999999856,20.36869875666667,20.967470170000002,-25.649734500000005,-2.775959928666667,-0.6953202686666667,12.811518033333334,-12.310752866666666,19.24406433333333,-2.2219503720000002
20,0.1666599999999789,20.262825646666666,21.050106046666667,-25.625663766666666,0.30472890566666666,0.5684844056666667,11.169749261666666,-14.359574639,9.867481074666667,-1.2242496606666666
21,0.1749929999999722,20.162991206666664,21.168703716666666,-25.59822843333333,-2.5866854983333334,-1.0514973996666666,9.713767685999999,-13.838056563333334,14.037961956666669,-2.300393581333333
22,0.1833259999999654,20.077916459999997,21.24247741666667,-25.58241273333334,-0.054097029666666664,0.06578057033333333,10.806431771,-11.508969784000001,8.555745921000002,-1.6931823096666665
23,0.1916589999999587,19.973450343333333,21.346328736666667,-25.567914299999998,-3.2433598039999993,0.251448763,9.068745772,-13.844352086666666,11.893005052333335,-2.9915641146666663
24,0.1999919999999519,19.89234224666667,21.408442813333334,-25.55325063333333,0.34082618733333336,-0.796750188,11.900002480666666,-10.974771501666666,7.196923354,-1.3268603483333334
25,0.2083249999999452,19.80456416,21.487093606666665,-25.550829566666664,-2.778369109,0.7924625873333334,10.58401712,-11.326224963333333,8.610497076333333,-3.1668934823333337
26,0.2166579999999385,19.722245533333332,21.54155286,-25.54658763333333,-0.9910262230000001,-0.07847715400000001,10.714387893333333,-10.679096381333332,5.960612853,-2.044827342
27,0.2249909999999317,19.66083145,21.603029246666665,-25.536486300000007,-2.238895058666667,-0.04103339733333333,9.622253099333333,-8.512619019666666,6.9773060466666665,-1.6122882366666664
28,0.233323999999925,19.589972176666667,21.661471683333332,-25.5428009,-1.3139122523333333,0.443773021,11.728134472,-8.808395228333334,6.003294984666667,-3.354534705666667
29,0.2416569999999183,19.55007299,21.69170443333333,-25.536987333333332,-1.8158863386666664,0.32076420366666664,10.194209734,-5.746852556666667,3.2909473976666668,-0.7827966709999999
30,0.2499899999999115,19.522888183333333,21.75436274,-25.547693866666666,-1.3164457876666666,-0.13960239766666666,10.434293745666666,-3.3869196573333333,6.340851388333334,-3.9233454066666664
31,0.2583229999999048,19.50275103,21.7748909,-25.55449676666667,-1.7741245033333335,1.126163761,9.525393009333333,-2.7671485743333335,1.6864968143333332,-1.828864932
32,0.2666559999998981,19.50060272,21.823322293333334,-25.584950766666665,-1.114271164,0.3865277569999999,13.310561496666665,0.5109313923333333,3.9964097343333336,-5.439900080666667
33,0.274989000000005,19.52111562,21.836501440000003,-25.588384,-2.044309934,-0.11914788700000001,9.054236411333333,1.9441288906666667,1.0000353653333334,-1.1253613533333333
34,0.2833219999999983,19.545880636666666,21.859542846666667,-25.62258403333333,-0.3225480713333333,0.8997224273333332,11.671807606666667,3.9131937026666663,0.986156622333333,-4.8187466463333335
35,0.2916549999999915,19.578769046666668,21.864940006666668,-25.640149433333335,-2.949919938666666,-1.006957635,9.330747605333334,4.063288847666667,-0.40379969266666677,-2.2949458756666665
36,0.2999879999999848,19.62493388,21.87617874,-25.6679662,-0.946799437,0.5964684386666667,12.364025433333333,6.197078387,-0.10838262233333336,-3.6633138656666664
37,0.3083209999999781,19.681281406666667,21.8765227,-25.681251533333334,-1.8857129413333336,-0.05917381233333333,10.525183679,6.6838730176666665,-0.8120992183333332,-1.6292916536666668
38,0.3166539999999713,19.728283563333335,21.883630113333336,-25.703725199999997,-1.9591716526666667,-1.02987655,10.301313718333333,6.076525370666666,-0.3874200186666667,-2.970231056
39,0.3249869999999646,19.766139983333332,21.893739066666665,-25.73126986666667,-2.3897355396666664,-0.4070817443333333,10.965011913,5.097553015,-0.24133324599999995,-3.5042836666666672
40,0.3333199999999578,19.791161853333335,21.941229503333332,-25.736666366666668,-2.601591825666667,-1.0543937283333336,12.190882683333333,2.6583136203333333,4.833304564333333,-2.7643652756666666
41,0.3416529999999511,19.770505903333333,21.990014393333336,-25.759908033333332,-2.29101785,-1.254564047,8.464190799999999,-2.1272497969999997,4.301203569999999,-4.593354542999999
42,0.3499859999999444,19.73034986,22.09084765,-25.770250933333333,-2.8215885956666664,-1.7571532726666665,12.354834556666667,-4.934514681666667,10.676771544333333,-5.443120161666667
43,0.3583189999999376,19.628048579999998,22.197821933333334,-25.7898763,-2.6094853876666666,-1.058483114,9.451802413333333,-12.07431539,11.017588455333334,-6.555521964666667
44,0.3666519999999309,19.467388153333335,22.374473570000003,-25.810340866666667,-1.973831773,-1.53861322,11.328096386666667,-18.942565283333334,18.91081809933333,-9.460372768000001
45,0.3749849999999242,19.244136173333334,22.499088286666666,-25.85812376666667,-2.9838431676666666,-2.317400217,8.594728470666666,-25.293120066666663,12.019401709666667,-10.126715342999999
46,0.3833179999999174,18.975817996666667,22.748683293333333,-25.890383400000005,-1.2600139479999999,-1.6874000630000001,12.055545807000001,-31.286958693333332,26.81516456333333,-13.444251379999999
47,0.3916509999999107,18.575918833333333,22.872978843333332,-26.005071000000004,-1.2078100046666667,-2.8161191146666664,9.431253751,-43.268505093333324,9.647974808666667,-17.14967823
48,0.3999839999999039,18.11556689,23.162826539999998,-26.062883999999997,-3.0516674520000002,-3.6920088926666668,11.439817429333333,-53.08174133333333,30.675816216666664,-17.312322616666666
49,0.4083169999998972,17.53869247333333,23.332173030000003,-26.21052806666667,-0.10417792566666667,-1.4832912586666664,11.961426259666666,-62.91995239,14.023072006,-21.909243266666664
50,0.4166500000000042,16.89734395333333,23.54351171,-26.33162436666666,-3.774975935666666,-2.3202236096666664,5.9377448159999995,-71.7408727,19.954661052000002,-20.526454286666667
51,0.4249829999999974,16.202263513333335,23.859726586666667,-26.462603233333336,-1.096340020666667,-2.30667003,12.307869912666666,-77.78086599,31.938178379999997,-24.770841596666667
52,0.4333159999999907,15.40136528,24.015495936666667,-26.62931313333333,-1.0803066890000002,-1.8013717729999998,9.933044909666666,-88.57190704333334,12.696776709333333,-22.927763620000004
53,0.4416489999999839,14.536865233333332,24.302375793333336,-26.77494556666667,-3.3408600489999998,-2.364810109,11.077609377666667,-97.28783671000001,28.799077986666664,-24.4375089
54,0.4499819999999772,13.606757799999999,24.524752296666666,-26.94397736666667,0.10070945800000002,-2.1547489116666667,13.111732165000001,-103.81564583333333,21.091311931666667,-24.645733516666667
55,0.4583149999999705,12.59166177,24.68458048333333,-27.129514066666673,-2.471928795,-2.125813047333333,5.840304770666667,-113.25209806666665,13.751557509,-24.18249384666667
56,0.4666479999999637,11.571285883333333,24.998746233333332,-27.29907736666667,-3.142725467666667,-0.9607737556666667,12.038453738,-114.48585513333335,32.69935862333333,-26.151648836666666
57,0.474980999999957,10.484971043333333,25.14355595666667,-27.50707753333333,0.47509682200000003,-1.228506446,10.308647511666665,-120.48756406666666,12.384824911,-25.670625689999998
58,0.4833139999999503,9.343620300333335,25.338828403333334,-27.7070618,-2.946202357666667,-1.8911823233333334,8.689174333333332,-127.32597353333334,19.038068453333334,-25.586619696666663
59,0.4916469999999435,8.157320817333334,25.5428079,-27.937639866666668,0.28672125699999995,-1.818404465666667,15.029099783333331,-131.1667989,20.037708142333337,-28.611944833333336
60,0.4999799999999368,6.915119171,25.57741928333333,-28.17169443333333,-1.4691768486666665,-1.323797345,6.039098977999999,-137.50730386666666,0.47496175766666643,-25.92574374
61,0.5083129999999301,5.678538481333334,25.784689586666662,-28.43499246666666,-3.080918312,-0.27600943066666667,9.507450021333334,-135.32415263333334,21.289543786666666,-31.12613233
62,0.5166459999999233,4.409478187333334,25.827144623333336,-28.700223266666665,1.5727101363333336,-1.0240734813333334,11.891837595,-139.0657247,2.180580140333334,-29.342085523333328
63,0.5249789999999166,3.0865121686666668,25.857027053333336,-28.9917755,-2.161888122666667,-1.4076684516666667,9.42576766,-144.2173614666667,1.1460866930000009,-31.757794063333336
64,0.5333119999999099,1.7556466263333335,25.905752820000004,-29.27709196666667,-0.4264974196666668,-1.086612135,13.277672609333335,-145.31982423333335,4.223013243333333,-31.34585762
65,0.5416449999999031,0.380691645,25.743595123333332,-29.584526066666665,0.15320165933333355,-0.9156532883333334,6.926298736,-149.64462283333333,-20.45407041,-32.940372466666666
66,0.5499779999998964,-0.9758387206666667,25.772679643333333,-29.88142903333333,-3.575613042,-0.01408473166666672,11.685807228333333,-147.8617859,3.3407279849999996,-32.32062721333333
67,0.5583110000000033,-2.3585733176666666,25.62744585333333,-30.2028834,1.7388382753333331,-0.017207341999999997,12.644137859333332,-149.84292093333335,-16.747249126,-35.40691121333333
68,0.5666439999999966,-3.7600325743333336,25.39084243666667,-30.499120066666666,-1.6976016613333333,-1.751022935,6.594868183333333,-153.50540163333332,-27.01022720333333,-33.81775601666667
69,0.5749769999999899,-5.1618353526666665,25.245688753333337,-30.823008200000004,-1.158165738,-0.8238638513333334,13.945023536666667,-152.23128763333332,-15.021395363333333,-36.69751993666667
70,0.5833099999999831,-6.555543581333333,24.903453190000004,-31.1112493,0.39628110966666674,0.6287565033333333,9.585179010666666,-153.15719603333332,-37.97881953,-35.646990460000005
71,0.5916429999999764,-7.941566467666667,24.672812143333335,-31.39981076666666,-4.577383438666667,0.5326174300000001,8.517321905000001,-152.4417165,-23.87300809,-34.931032816666665
72,0.5999759999999696,-9.297590573666668,24.399736406666666,-31.69795736666666,0.49622736400000006,0.039742418,12.794816176333333,-148.44888813333333,-27.851664226666667,-37.40862782666667
73,0.6083089999999629,-10.645951906666667,23.990557353333333,-31.9477717,-1.4987965426666667,0.7215147613333333,10.013459124999999,-150.0946045,-43.96314239666666,-35.65952936666667
74,0.6166419999999562,-11.976212183333333,23.74509239,-32.22126516666667,-3.610220601,-0.6619199663333334,13.645086525666665,-147.0044861,-23.375588099999998,-35.533709210000005
75,0.6249749999999494,-13.255798023333334,23.279700596666668,-32.41523490000001,1.3448019823333333,0.5056270956666666,9.906176568333334,-144.9000244,-50.22653579666667,-33.33690007333333
76,0.6333079999999427,-14.520462673333334,22.93635749666667,-32.646474166666664,-4.149901827,0.8541928630000001,10.909942307666668,-141.53049216666668,-34.240575156666665,-34.74423472
77,0.641640999999936,-15.69977633,22.518210093333334,-32.80326336666666,1.1013572116666668,0.33672358566666666,12.433647476666666,-134.89138286666665,-44.311996459999996,-30.1925869
78,0.6499739999999292,-16.83408038,22.06998443666667,-32.954055800000006,-3.4187871616666663,2.7336087223333334,7.049790621333334,-129.91075643333332,-47.322806039999996,-31.206598916666668
79,0.6583069999999225,-17.904794693333333,21.654370626666665,-33.0939331,-0.171422479,1.3817764123333334,14.841945009999998,-122.83554586666666,-43.29885991333333,-30.079779943333335
80,0.6666399999999157,-18.893660226666665,21.14699999666667,-33.17600503333333,-3.0561111766666667,1.3358261983333335,8.946505546666666,-115.77898916666668,-55.30640665999999,-28.035251616666667
81,0.674972999999909,-19.83181190333333,20.718720753333333,-33.29423526666667,-0.8144420186666667,2.532389005,11.805332818000002,-108.16244761666667,-44.488052366666665,-29.883833566666667
82,0.6833059999999023,-20.691002526666665,20.221886316666666,-33.3407364,-2.381348411333333,0.8604088423333334,9.564361573666668,-101.82186636666667,-54.52082824666667,-25.662399293333333
83,0.6916389999998955,-21.481631593333333,19.741130193333333,-33.407381699999995,-1.0992336076666667,1.671542565,12.819170313333332,-92.79287465333334,-51.518250783333336,-28.065657296666668
84,0.6999720000000025,-22.192139303333335,19.274796803333334,-33.419919333333326,-2.651736135666667,2.224129120666667,11.058396659333335,-85.38505045666666,-51.76670328666666,-22.425569536666668
85,0.7083049999999957,-22.839979170000003,18.810955046666667,-33.4677836,-2.165254911,1.3285858233333334,9.695973395666668,-76.48146311333333,-49.697411853333335,-26.576906206666667
86,0.716637999999989,-23.407672246666667,18.381417593333335,-33.46682740000001,-2.8456516266666667,2.084253390666667,11.381907781999999,-68.8249588,-47.83541361666667,-20.46811294666667
87,0.7249709999999823,-23.9406484,17.975465139999997,-33.506131466666666,-1.7177487016666666,1.5309335786666667,12.146177610333334,-63.14578755333334,-43.218524933333335,-23.960692086666665
88,0.7333039999999755,-24.377536773333333,17.569833753333334,-33.51043703333333,-3.7907294433333334,1.5233399920000001,11.708037217666666,-52.90125910333333,-44.56540044,-20.650948206666666
89,0.7416369999999688,-24.763320286666666,17.204202653333333,-33.52001443333333,-0.9667979703333334,2.1963301896666665,9.894539513333333,-46.61338170333334,-39.846281686666664,-19.55125363666667
90,0.7499699999999621,-25.084730783333338,16.858368870000003,-33.5192337,-3.5915311973333335,1.7144470610000002,12.613377572333334,-39.246260326666665,-38.03193664666667,-17.69853210333333
91,0.7583029999999553,-25.338699976666664,16.525594393333332,-33.52605693333334,-1.981251697,1.6350869733333333,10.349379854333334,-30.881244023333334,-36.16157277333333,-17.993874233333333
92,0.7666359999999486,-25.53193792,16.223609606666667,-33.521153766666664,-3.4635845819999993,1.8634887936666669,11.033750535333333,-24.02872785,-33.36408297333333,-15.37192154
93,0.7749689999999418,-25.704147340000002,15.970371883333334,-33.530395500000004,-2.13024199,0.9195935726666665,11.209431013666666,-21.03385989,-27.343345006666667,-14.413792293333335
94,0.7833019999999351,-25.825093589999998,15.716533026666667,-33.54630786666667,-3.5012306373333337,0.6546905239999999,11.102107365999998,-14.626644133333334,-26.968824386666668,-15.248036066666666
95,0.7916349999999284,-25.91804949666667,15.50499312,-33.553815199999995,-1.8250837723333333,0.8574525120000001,10.359680175,-11.585816383666666,-22.863942466666668,-12.167918206666668
96,0.7999679999999216,-26.000040690000002,15.304192863333334,-33.57601163333333,-3.3512270446666665,0.29683071866666666,11.438774108999999,-9.797804990333333,-20.908628463333333,-13.15498066
97,0.8083009999999149,-26.044785183333335,15.149060886666666,-33.609621666666676,-2.087409397,0.3187596403333333,10.409647465,-4.987904230666666,-15.425555229999999,-11.977595326666666
98,0.8166339999999082,-26.078955966666665,14.975442886666665,-33.6251297,-3.1562470596666667,0.4332199296666667,10.088009834000001,-4.260379473666666,-18.265268006666666,-11.124569893333335
99,0.8249669999999014,-26.106390633333334,14.862484616666668,-33.65933739999999,-1.6099481683333334,0.049227657666666653,11.87944444,-2.9228150050000004,-10.834247590666665,-9.848202067999999
100,0.8332999999998947,-26.132001876666667,14.76139482,-33.70940906666667,-4.4369019666666665,-0.19415243466666668,10.148281730999999,-2.185663084,-8.666270734333333,-10.939072610000002
101,0.8416330000000016,-26.127926509999998,14.666048686666665,-33.724861133333334,-0.7150555253333333,0.137894243,9.777460417666667,0.2819701233333333,-9.889298918333333,-6.964033285666666
102,0.8499659999999949,-26.151332856666667,14.606084506666667,-33.792778,-4.053048133666667,0.08051282933333333,11.612795512666667,-1.4122880300000002,-3.3204845786666666,-10.638788541
103,0.8582989999999882,-26.15573883,14.575153033333331,-33.837267566666675,-2.108602881,-0.02649343033333329,10.355526924666668,0.13412465933333337,-1.4625216326666663,-6.591178576333333
104,0.8666319999999814,-26.141370136666666,14.540998143333333,-33.900614433333324,-3.265574773333333,0.5144754646666666,9.934041181666666,2.973189751333333,-0.778860609,-8.790691375666666
105,0.8749649999999747,-26.144793826666668,14.541220666666666,-33.94961039999999,-1.607458571666667,0.2831346243333333,11.326644736,0.3729005653333332,2.1236335983333334,-5.420411904999999
106,0.8832979999999679,-26.13873863666667,14.552617393333334,-34.030583699999994,-3.9098466236666667,-0.33041307833333333,10.719170885333334,2.5036379893333334,5.0447155236666665,-8.263669172666667
107,0.8916309999999612,-26.11428515,14.580216093333334,-34.07024636666666,-0.9296707713333333,-0.11526505900000002,10.664045016666668,3.4492984613333335,4.594767252666666,-2.996938387666667
108,0.8999639999999545,-26.124876023333332,14.5997502,-34.12984723333333,-3.1379181939999996,-0.344735595,10.242787043666667,-0.14412268000000003,4.817841411,-5.601940194666667
109,0.9082969999999476,-26.122510910000003,14.640644709999998,-34.1950582,-1.5823536713333333,-0.48247880233333335,11.953068096666668,1.5707289676666667,7.3302435873333325,-4.961451848333334
110,0.916629999999941,-26.11817042,14.687044463333335,-34.235239666666665,-2.833829164333333,-0.14836797233333335,8.098221778666668,1.0659750463333333,6.706456184666666,-2.1228610276666666
111,0.9249629999999344,-26.135552086666667,14.72273954,-34.29822793333333,-1.3199076253333333,-0.3262037536666667,11.423730057333335,-0.8659065566666665,6.651829799333332,-5.005734682
112,0.9332959999999276,-26.13727824,14.794553756666666,-34.35979206666667,-2.9674878123333337,0.3915827176666667,10.537510873,0.998319139,10.546837487333335,-3.032452583
113,0.9416289999999208,-26.150856653333335,14.818715733333335,-34.4036916,-1.481100907,-0.3886561693333334,9.445912518666667,-0.9731061459999998,4.434887488666667,-3.6140150230000003
114,0.949961999999914,-26.162484486666667,14.88038794,-34.44146726666667,-1.5710599619999999,-0.5947153416666666,11.168222429333333,-0.9173440933333333,8.234542184333334,-1.092464288
115,0.9582949999999072,-26.179138183333333,14.901058833333332,-34.49904886666666,-2.218597412333333,-0.320621021,9.417463938666666,-0.919585228,4.756952006,-5.220283905666666
116,0.9666279999999006,-26.186588923333332,14.928517023333333,-34.512115466666664,-1.8368031976666668,-0.555300854,10.205045700333335,-1.1608115829999999,3.282575369,-0.31587902733333334
117,0.9749609999998938,-26.20165697666667,14.965805053333332,-34.56172686666667,-1.5568484116666668,-0.2654353503333334,10.281716666333333,-0.9800093769999999,6.139826456666666,-3.5161474646666666
118,0.9832940000000008,-26.217103320000003,14.994260786666667,-34.586461366666676,-3.276924928,-0.30417393666666664,9.789815266333333,-1.7532431556666668,3.9934306146666665,-1.4911969896666666
119,0.991626999999994,-26.234923679999998,15.020665486666665,-34.623870866666664,-1.0777636170000002,-0.23466780033333334,10.87438965,-1.6830857000000001,4.344472964666666,-2.8199948470000002
120,0.9999599999999872,-26.252893446666665,15.06909434,-34.6505229,-3.1715704203333335,-1.1805857813333336,11.156874022000002,-2.006640513666667,6.235214392333333,-0.6222595063333335
121,1.0082929999999806,-26.279537836666666,15.059593203333334,-34.66689046666667,-0.400497665,0.43954005700000004,10.434581440333334,-3.3870683113333335,-0.6010465623333333,-2.530822933
122,1.0166259999999738,-26.301923753333337,15.093439103333333,-34.700358066666666,-3.351799965,-1.2836979033333333,10.626472473333333,-2.3271517553333334,5.018456300333334,-2.111599087666667
123,1.024958999999967,-26.316933313333333,15.109082540000001,-34.70283,-1.1866503560000001,0.16635831199999998,10.398266793333333,-2.4187819163333333,1.3934401670000003,0.255344033
124,1.0332919999999604,-26.327520370000002,15.13043912,-34.72361246666666,-2.7123716669999998,0.08343852066666664,9.343677520666667,-1.315213998333333,3.0157307786666667,-1.4505343236666668
125,1.0416249999999536,-26.32031313666667,15.172478676666666,-34.73773193333334,-1.9367578030000001,0.24966165900000004,10.90734768,0.6058620413333333,4.832065741666667,0.4423706233333334
126,1.0499579999999469,-26.31565539,15.170919103333333,-34.7331848,-1.6060524186666667,-0.8376500603333333,9.515795390000001,-0.2706013916666669,-0.7548173663333334,-0.021515950666666672
127,1.05829099999994,-26.310982386666666,15.187980016666666,-34.72025043333334,-0.8863208096666666,-0.608373334,10.964638390666664,-0.5642517806666668,0.7705362640000001,1.9212510583333333
128,1.0666239999999334,-26.31032308,15.157792409999999,-34.70866899999999,-2.262935877,-0.7453126820000001,9.771308262333333,-0.9823743503333334,-4.257858554666666,-0.7306332983333333
129,1.0749569999999269,-26.32442856,15.15565459,-34.68892416666666,-1.7279445723333335,-0.7282775836666667,9.504320781666665,-3.0188767513333334,-1.660173992,1.602178971
130,1.08328999999992,-26.333343506666665,15.136996586666667,-34.67481483333333,-1.9239625136666667,-0.34467983733333335,10.375726701666666,-2.221740365,-3.131400123,0.15117096899999996
131,1.0916229999999132,-26.358890536666667,15.125734963333334,-34.6609904,-2.150703748333333,-0.3677667553333333,10.757013319333334,-4.21454072,-2.3391943226666667,0.496630152
132,1.0999559999999065,-26.393576936666665,15.109754563333334,-34.65285749999999,-2.5409912266666663,-0.985524118,10.454258920333332,-5.132516622666667,-2.5371539990000005,-0.3334546436666666
133,1.1082889999998995,-26.416920343333334,15.072564443333334,-34.6220449,-0.7850158476666667,-0.3381378053333333,11.621773244666665,-4.469697475333333,-6.000993252000001,0.877599289
134,1.116621999999893,-26.457060496666667,15.053880373333334,-34.608235666666666,-2.5320347943333332,-1.1778324346666667,10.511723359666666,-5.943591594666667,-3.068128824,-0.004815618000000003
135,1.124955,-26.47750917666667,14.992806113333332,-34.57055663333333,-1.7555355233333334,-0.14940149066666666,9.726186750666667,-4.323534011666666,-8.924141248,0.3111233313333333
136,1.1332879999999932,-26.502133049999998,14.985932666666665,-34.55374146666667,-1.948439955666667,-0.026707927333333343,10.683063506000002,-4.208056211666666,-2.0101928436666667,1.0431527346666665
137,1.1416209999999865,-26.530351640000003,14.903126716666668,-34.506439199999996,-1.969746709,-1.3196066023333335,9.797292707,-5.547745386666667,-11.758182204999999,0.14540785566666678
138,1.1499539999999795,-26.553870516666667,14.861587203333334,-34.4660187,-1.4961995086666668,0.123336504,11.948811212,-4.775731563333333,-6.915946881666667,1.544414679
139,1.158286999999973,-26.58661143,14.7692016,-34.42734273333334,-2.611364285,-1.2491961803333334,9.240645408333334,-5.814389387666666,-12.341623308666668,-1.2738727926666666
140,1.1666199999999662,-26.62651698,14.71076234,-34.37797546666667,-1.8959973256666667,-0.736277014,12.043713249333331,-6.9990862210000016,-9.200757346000001,1.5694185893333332
141,1.1749529999999595,-26.668108623333335,14.641556739999999,-34.349690733333325,-3.330572207666666,-0.4688945313333333,9.836748600333333,-6.547528267,-9.314036371,-1.1158586146666667
142,1.1832859999999528,-26.68474261333333,14.630820593333334,-34.30000303333333,-2.705219924333333,-0.7755812393333333,9.716405551333333,-4.202664156666667,-4.101057211333334,4.151658137666667
143,1.191618999999946,-26.729269666666667,14.62928168,-34.311289466666665,-3.705694278333333,-0.28474271799999995,10.356678645,-5.711800138,0.004021425999999995,-1.5873868466666667
144,1.1999519999999393,-26.742975866666665,14.685059546666666,-34.26784766666666,-3.3051178456666666,0.300350882,11.95133877,-3.679848373,3.304202993666667,7.189865748
145,1.2082849999999326,-26.757377623333337,14.732293443333333,-34.28219603333333,-2.349334995,-0.855351802,9.385924819000001,-2.0252492426666664,5.401905457333332,0.7273419696666666
146,1.2166179999999258,-26.760184606666666,14.84902382,-34.261978133333336,-3.781349738333333,0.3314919766666667,11.0607605,-1.6672819853333334,11.032629328333334,8.067857742333333
147,1.224950999999919,-26.762688316666665,14.962064743333334,-34.26472473333334,-2.711394667666667,-0.6241013656666666,11.658296904333334,-0.9284688633333332,11.833141329,5.491201877666666
148,1.2332839999999123,-26.754617693333334,15.131680489999999,-34.24380489999999,-3.037979444,-0.5014012206666667,8.695192656333333,-0.4086539349999998,16.675748826666666,10.995985668666668
149,1.2416169999999056,-26.733416876666666,15.336270333333333,-34.2734426,-3.738276958666667,-0.20284874233333336,12.462872823333333,2.7590430579999996,23.04577446,7.644934973333332
150,1.2499499999998989,-26.692963916666667,15.599101703333332,-34.26499936666667,-3.027405659,0.22041640666666665,10.084258876333335,3.90910697,27.387312570000002,14.605175973333337
151,1.258282999999892,-26.655239103333333,15.89150079,-34.30454506666666,-3.560960531333333,-0.14295043033333335,8.214874664,5.071339407,32.992259976666666,11.333488623666668
152,1.266615999999999,-26.582524616666664,16.253643033333333,-34.347763066666666,-3.7478921413333333,0.0008789723333333018,11.833058992333335,9.463391622333333,40.66452153333333,14.683444973333332
153,1.2749489999999923,-26.47342809,16.67103799,-34.3968404,-3.440697590333333,1.2835538586666668,9.265284221333333,14.029689153333331,46.91508865333333,16.977237386666665
154,1.2832819999999856,-26.339091616666668,17.118376733333335,-34.46974183333333,-3.7055306036666664,1.122965999,8.737874826333334,17.97581990666667,51.43736267,15.953978536666668
155,1.2916149999999789,-26.14174524666667,17.604397456666664,-34.51553853333334,-2.0635380346666667,1.641683429333333,12.477313043333334,24.599390663333335,54.21137619,20.74280421
156,1.299947999999972,-25.89229710666667,18.13828214,-34.59466043333334,-3.2848993936666666,1.8156457546666667,7.013490398666666,32.10916392,61.127588906666666,19.644853593333334
157,1.3082809999999654,-25.579298653333336,18.655777609999998,-34.64678953333333,-2.602115829666667,0.5531195463333333,8.604410807666667,38.814128876666665,58.09867350333334,21.276918409999997
158,1.3166139999999589,-25.194356283333335,19.202316283333335,-34.70331826666666,-2.2598012686666666,1.695981622,14.668921153333335,47.70457331333333,61.63988367333334,21.882713953333337
159,1.324946999999952,-24.7809391,19.736581803333333,-34.74869793333334,-3.152363101666667,0.6737459646666667,7.362723350666666,50.69869740666667,59.861700693333326,22.086280189999997
160,1.3332799999999452,-24.298072176666665,20.297569909999996,-34.78869626666667,-0.685626805,0.5896558863333333,8.250699997333333,58.85501353,62.69893900333333,23.520299910000002
161,1.3416129999999384,-23.75435257,20.820411043333333,-34.797653200000006,-2.963065862666667,1.5092524686666666,11.303362371333334,64.89561971333335,57.300767263333334,24.28141848333333
162,1.3499459999999317,-23.135869343333336,21.362803143333334,-34.821253500000005,-1.927893718,0.9326204059999998,9.877681573,74.50375620666667,60.35529582,23.131175993333333
163,1.358278999999925,-22.464542386666665,21.876308443333333,-34.78591410000001,-2.5287411606666663,0.9887013236666666,7.707817793,78.26197306333334,54.86939239666666,27.1674544
164,1.3666119999999182,-21.73171743,22.442721683333332,-34.77634176666666,-1.9545780420000003,1.8690396150000002,11.302954196666667,86.70681508666667,62.09811401333334,26.376641593333332
165,1.3749449999999117,-20.919384003333334,22.92878659666667,-34.72188823333334,-2.5652352916666668,-0.2434282303333334,9.035745302666667,94.24477895,51.72644933,26.479983649999998
166,1.3832779999999048,-20.03333092,23.464440663333335,-34.66151426666667,-1.4508739036666667,1.2250529233333334,10.81862736,102.66017912666666,57.41202163333333,28.55424245333333
167,1.391610999999898,-19.07077725666667,23.917936960000002,-34.54689536666666,-0.871748646,1.2735874653333334,10.331761677333335,109.25133513333333,46.656298316666664,29.759513220000002
168,1.399944000000005,-18.02830378333333,24.365829466666668,-34.42145790000001,-2.8353133199999996,0.9937123656666667,7.098731359666666,118.1369629,46.121350606666674,29.91559601
169,1.4082769999999982,-16.875136056666665,24.821920396666666,-34.25102230000001,-1.1098618856666667,1.6671286426666665,12.805521963000002,129.12055716666666,46.22727203333333,33.85330836
170,1.4166099999999917,-15.6741155,25.158709843333337,-34.045517,-0.9214956066666665,0.39339205633333335,9.441705067333332,132.9079488,32.071685790000004,32.58544476666666
171,1.4249429999999847,-14.396576563333333,25.60221608666667,-33.83617653333334,-4.133143425,0.6424648563333334,9.580290156666665,141.8220164,45.09268824333333,35.39004771333333
172,1.433275999999978,-13.049942016666668,25.90037219,-33.57758329999999,0.3922788103333332,0.2686210176666667,11.422683237666666,147.30488586666664,27.67829259,35.480856579999994
173,1.4416089999999713,-11.665656723333333,26.204074223333333,-33.303413400000004,-3.086474657,-0.2509682973333333,9.164550144333333,150.95929973333332,28.854896546666666,36.30184046333333
174,1.4499419999999643,-10.234610874666666,26.508090336666665,-33.03725433333333,-1.0557543236666669,-0.17469978300000003,11.010932603333332,156.80987040000002,29.982753753333338,34.71931203333333
175,1.4582749999999578,-8.757357915,26.689994813333332,-32.71316783333334,-0.8024930553333333,-0.368911336,11.666443825333333,159.1406911,15.376399043333334,37.57262802333333
176,1.466607999999951,-7.253214995,26.84282875,-32.3943278,-1.6738264363333333,-0.2465020613333333,10.910910608666667,162.55789186666667,12.993038177333332,36.01858902
177,1.4749409999999443,-5.708233515666667,26.997571946666667,-32.05745696666667,-1.6919917266666664,-0.14087965066666666,11.194024561,166.39383446666668,13.959657509000001,37.62629191
178,1.4832739999999376,-4.1461697420000005,26.99610265,-31.716219566666666,-0.19318409766666664,-1.1581267516666667,10.099205492333333,168.1398468,-3.709822972333333,35.97798538
179,1.4916069999999308,-2.595367431666667,27.02559789,-31.368662499999996,-2.997587879333333,-1.233445955,13.107990263333333,166.46322633333332,0.913072725,36.97025045
180,1.499939999999924,-1.0327678123333335,26.98807589333333,-31.03709413333333,-0.8501328723333333,-0.5826357603333333,10.909005167333333,168.72880043333333,-6.025445748,34.98646927
181,1.5082729999999174,0.4978934396666667,26.883209230000002,-30.7060852,-2.478152831333334,-2.7907782396666665,10.255952358999998,164.87435913333334,-13.177907626666666,35.23383839666666
182,1.5166059999999106,2.018036763,26.798173906666666,-30.391616799999998,-1.7482191523333332,-0.701364805,12.466445923333334,164.6672821,-9.864323774333334,33.56366157666667
183,1.524938999999904,3.499828418,26.611459733333334,-30.0991796,-2.3748370409999997,-1.952744146,11.772585872,161.21634930000002,-21.280600233333335,32.310839333333334
184,1.5332719999998972,4.956197738666667,26.47095871,-29.79218546666667,-2.1737602553333333,-2.5892190933333334,11.256183307666666,157.60813393333333,-14.807733853333332,33.76740392
185,1.541605000000004,6.360666275,26.264165243333334,-29.528976466666663,-2.9645910263333337,-2.3801454306666665,12.007545152333334,153.69226073333334,-22.302276609999996,30.548533759999998
186,1.5499379999999974,7.718472162666667,26.066388446666664,-29.251698800000003,-1.7576564946666666,-1.79337273,13.030186653333333,147.5593465,-20.304220203333333,32.195084253333334
187,1.5582709999999906,9.016465505,25.833214443333333,-29.022928900000007,-3.2693550586666666,-3.3909124533333332,11.349695206666667,142.93826293333333,-24.480011623333336,28.420379640000004
188,1.566603999999984,10.275307655666667,25.596512476666664,-28.77548726666667,-1.4792384706666668,-2.317747116,13.052782376666665,137.47579956666667,-23.93891271,30.8073864
189,1.5749369999999772,11.44974009,25.33566157,-28.57661183333333,-3.6157343386666665,-2.6626090209999997,10.285592715666667,129.85372923333333,-27.044856389999996,26.928936643333333
190,1.5832699999999704,12.596906343333332,25.08310763333333,-28.37013243333333,-1.588885665,-2.971504926666667,10.135642370333334,126.41542816666667,-25.396243413333334,27.933144249999998
191,1.5916029999999637,13.647885003333334,24.808607103333333,-28.18797556666667,-2.972971081666666,-2.626797835,12.260520617,116.10080973333334,-27.95401192,26.670478823333337
192,1.599935999999957,14.62580395,24.550450010000002,-28.003140733333336,-1.1873084209999998,-3.632573604333333,11.748580298,107.38924660000002,-25.530625660000002,26.77670669666667
193,1.6082689999999502,15.524303436666665,24.217009226666665,-27.86553956666667,-2.108824054333333,-2.9582713443333333,9.079621951666667,100.20332593666666,-35.09399922666667,24.812617616666667
194,1.6166019999999437,16.366739276666667,23.95606295,-27.7026418,-2.124312291666667,-2.4093491233333335,10.582727433,92.41768900666666,-25.616762796666666,25.41225242666667
195,1.6249349999999367,17.099987663333334,23.638832093333335,-27.595387766666665,-1.7569096486666667,-3.2788957753333334,12.167200725333336,81.99653625666666,-33.41209602333333,22.152127583333336
196,1.63326799999993,17.758644103333335,23.350328446666666,-27.467463199999997,-3.481868744,-3.5193172296666666,10.725984416000001,72.22691345,-29.24169286,23.44614791666667
197,1.6416009999999233,18.33536911,23.067691166666666,-27.384577466666666,-1.5203156866666667,-3.101505518333333,12.749325116666668,64.49081421000001,-29.76518058666667,19.106248856666667
198,1.6499339999999163,18.859419503333335,22.75947698,-27.297999066666673,-3.251283725,-2.381841818666667,8.077062290666666,58.14444732666667,-32.41958046,20.49241193
199,1.6582669999999098,19.326538083333336,22.560218173333336,-27.198791500000002,-2.6701716579999997,-2.9005234240000006,13.137397763333334,50.68357086333334,-19.35581048,18.105899176666668
200,1.666599999999903,19.676568986666666,22.246230443333335,-27.161623633333335,-1.8842497866666665,-3.6099398933333333,9.265832105,39.568072,-34.525124866666665,16.18406518
201,1.6749329999998963,19.995691936666667,22.063901903333335,-27.075124133333333,-4.140215158666667,-2.2913166683333333,11.167306580333333,33.60995864666666,-17.68297386,16.326461156666667
202,1.6832660000000033,20.24831581,21.780539196666666,-27.036671966666663,-1.1354805170000002,-2.3869693276666664,8.211837052666667,27.86973254,-30.845400493333333,15.41228644
203,1.6915989999999963,20.478424073333333,21.644245783333332,-26.953961700000004,-5.488200148,-2.8343964023333332,12.110173703666668,23.16248957,-12.473127523666667,14.229936600000002
204,1.6999319999999898,20.63763555,21.396879196666664,-26.917378733333337,0.20040112733333335,-2.1124204396666664,9.352843603,16.749039333333332,-26.72954495666667,14.006321910000002
205,1.708264999999983,20.74434916333333,21.246109006666668,-26.866610233333336,-4.972104947,-1.9717656770000003,12.59760539,9.817197162666666,-15.274309156666666,11.568204563333333
206,1.7165979999999763,20.823595683333334,21.035021463333333,-26.803914399999996,-0.2946859399999999,-2.287334680333333,10.545684495,6.05099082,-21.56359164,15.315401076666667
207,1.7249309999999696,20.874947863333333,20.919259386666667,-26.758656833333333,-5.608651081666667,-1.0351400126666668,9.528419017666666,3.4454742073333335,-11.523112934666665,9.559546470666668
208,1.7332639999999628,20.908910113333334,20.756830216666668,-26.683525066666665,-0.9979408280000001,-1.7135330043333334,9.837103843333333,0.12901047833333334,-15.581359546666668,14.583722113333332
209,1.741596999999956,20.900389989999997,20.617806113333334,-26.65041606666667,-2.860562761666667,-1.6234269339999996,11.568431853333335,-3.196119467333333,-14.608946483333334,9.288086891333334
210,1.7499299999999494,20.886787413333334,20.456840513333336,-26.5980962,-1.0603403546666665,-1.2661537126666667,9.155822913333333,-4.563843409333334,-16.334939319666663,12.114543281000001
211,1.7582629999999426,20.855712253333333,20.311215716666666,-26.559921266666663,-3.512171665666667,-1.3526093956666667,10.018179258333333,-6.1037967496666665,-15.13943545,10.120866776333331
212,1.766595999999936,20.801567079999998,20.201241173333333,-26.5215276,-1.9117997089999996,-0.8257087273333333,9.143020947666669,-8.82811896,-11.1704038,8.503265857666667
213,1.7749289999999291,20.744829813333336,20.080455779999998,-26.477236433333335,-3.841324885666667,-1.3170203766666666,10.859856922333334,-9.416478316666668,-12.124313034333333,9.697205542
214,1.7832619999999224,20.668067296666667,19.992038726666667,-26.4372584,-1.7245924073333334,-1.0751668513333335,10.821207048,-11.582691193333334,-8.709823926333334,7.726778666
215,1.7915949999999157,20.574024836666666,19.889021556666666,-26.419520033333338,-4.418695211666667,-1.2171071766666668,10.604573566333334,-12.79200077,-11.205496790666666,6.113406817
216,1.799927999999909,20.477771123333337,19.82457669333333,-26.37600963333334,-0.9632074586666667,-1.8760283586666668,9.718672117,-14.049008369,-5.903262297,7.062652429
217,1.8082609999999024,20.374391556666666,19.77345403,-26.362843833333333,-4.720258474333334,-0.051563844333333324,10.769495011333333,-13.721993126666666,-5.5716948513333335,3.4253540833333336
218,1.8165939999998957,20.29099528,19.73493449,-26.308291100000005,-1.5906972536666666,-0.5297283333333332,9.836420693333332,-12.923101585333335,-2.5979670286666665,7.076271216000001
219,1.8249270000000024,20.21032651333333,19.72829628,-26.294921866666666,-4.396016677333333,-0.5790641906666667,8.672760328,-10.926957130333333,-0.635275632,1.3993868826666667
220,1.833259999999996,20.16234843,19.694305420000003,-26.236612966666666,-1.495950808,-0.09917785733333334,11.188313482666667,-8.796816825666665,-1.9822645186666665,7.223927338999999
221,1.841592999999989,20.10165469,19.67202568,-26.23075866666667,-2.5134700933333334,-0.3720472656666667,10.893974621666667,-8.242362181999999,-2.6770125330000005,1.2906245336666669
222,1.8499259999999824,20.06530634666667,19.642743426666666,-26.1959025,-1.3755691053333334,-0.6971852383333333,10.077993551,-6.45945851,-2.364219785,4.574288686333333
223,1.8582589999999757,20.040000913333333,19.59716988,-26.19156646666666,-3.481269836333333,-0.018960720666666663,9.198134420666667,-3.9247629646666664,-5.372953414666667,2.0640250443333334
224,1.8665919999999687,20.03431384,19.586116790000002,-26.166254699999996,-1.2946209113333333,-0.382509649,9.510004680666666,-2.426688353333333,-0.6457348563333333,2.905563593
225,1.874924999999962,20.062758130000002,19.558454516666668,-26.16670226666666,-4.951504707333333,-0.04026817433333333,9.834138233666666,2.6671804983333334,-3.4884967603333337,0.953647832
226,1.8832579999999552,20.110911686666665,19.562440873333333,-26.137084966666674,-0.41955645866666663,-0.2530525126666667,11.498013497666667,3.879715502333333,1.2023450333333334,2.7063786983333333
227,1.8915909999999485,20.158393856666663,19.567459743333334,-26.13558453333333,-4.810236950666666,-0.5165634056666667,11.194602492,4.871917168333333,0.2736026443333334,-0.17263567933333335
228,1.8999239999999415,20.22341601,19.58982149666667,-26.1187973,-1.7622564733333332,-0.5706661766666667,10.314552625000001,6.4163702339999995,2.7788756290000003,0.5892725193333334
229,1.908256999999935,20.268187203333333,19.623090743333332,-26.1329727,-4.044547081,-1.7704016766666666,9.941155116333334,5.185316165333333,2.834206978333333,-3.0332807303333333
230,1.9165899999999283,20.317906063333336,19.66664187,-26.132944733333332,-2.0059818823333333,-1.850828687,11.799548786666668,5.236108660666666,4.5224880076666665,-2.0410193106666665
231,1.9249229999999216,20.33512052,19.72523117,-26.147890699999994,-3.4674633343333334,-1.5028816063333335,10.045308749333335,1.9076797963333334,5.65176932,-4.174361308333333
232,1.9332559999999148,20.32177925,19.82754326,-26.161829633333337,-2.6065047186666663,-1.148491323,9.282170615333333,-1.7482869626666666,10.573130608333335,-6.002547423
233,1.941588999999908,20.276486716666664,19.94198227,-26.176625599999998,-3.4845058123333335,-1.6560134089999998,12.007181805,-5.559575478,11.912653925,-6.5590682026666665
234,1.9499219999999011,20.17134666666667,20.09655316666667,-26.2316869,-2.5877496003333333,-2.9738974573333334,9.425558568666666,-11.033571561,14.835011799999998,-12.583608943333331
235,1.9582549999998944,19.983922956666664,20.22173245666667,-26.30423483333333,-1.2027384936666665,-3.586698294,9.288013299333334,-20.23062197333333,10.921899995333334,-13.042708396666667
236,1.9665880000000016,19.667356493333333,20.345122656666664,-26.454210900000007,-3.0318898756666663,-3.5597118533333334,8.248460809,-32.436337153333334,7.783846161333333,-21.243343986666666
237,1.9749209999999948,19.29846891,20.569967270000003,-26.547508233333335,-2.848360479,-2.787800073333333,12.872893970000002,-41.08673985666666,21.554813701,-19.102537793333337
238,1.983253999999988,18.804492316666668,20.673590343333334,-26.734255500000003,-2.0655824136666667,-4.058528741333333,7.0869278106666656,-52.07271321333334,4.484796405666667,-24.223260243333332
239,1.9915869999999811,18.21990648666667,20.927322386666667,-26.846748333333334,-2.7288648883333337,-2.658258756,12.006295203999999,-66.1125412,24.499164580000002,-21.80090968
240,1.9999199999999744,17.51052348,21.043999986666666,-27.0625229,-1.9207248289999999,-4.526950438666667,6.617114822666667,-76.56921386333335,5.504057089333333,-27.589555103333335
241,2.008252999999968,16.724864323333332,21.33612251,-27.175997433333325,-3.8665498893333328,-2.521311998333333,10.886722248333333,-90.13404846333333,29.41592916,-22.553815206666666
242,2.016585999999961,15.755011876666666,21.497655233333337,-27.411608366666666,-0.44711339466666655,-4.570603847666667,11.993633905666668,-106.78463743333333,10.842663764333333,-30.98239581
243,2.0249189999999544,14.743177099999999,21.704886116666668,-27.55400593333333,-3.0995565253333335,-2.8718291123333333,6.760732968666666,-115.92569223333334,19.46439107466667,-21.92207018666667
244,2.033251999999948,13.585097313333334,21.97239685,-27.766563400000006,-3.294342716333333,-3.9244824253333337,9.779256026666667,-130.22489166666665,24.938778874333334,-31.055203119999998
245,2.041584999999941,12.304238,22.087621053333333,-27.964289366666666,1.2831112346666667,-3.742276033000001,9.429937442333333,-145.61168926666667,8.186966261333334,-24.591747923333333
246,2.049917999999934,10.9042813,22.300830206666664,-28.192232800000003,-5.582569281333334,-4.835649331333333,13.987617807666666,-158.38600666666667,19.564976373333334,-30.215758006666665
247,2.0582509999999274,9.381573041333334,22.401162466666666,-28.42003886666667,2.4636651673333336,-2.80825305,8.935493628666666,-173.13778176666665,7.028153338999999,-27.079703013333333
248,2.0665839999999207,7.780617714000001,22.547770179999997,-28.688453666666664,-5.355160395333333,-2.418078025333333,12.575642266666668,-180.5528920666667,12.557434082333332,-32.267663956666674
249,2.074916999999914,6.079137166333333,22.51533317333333,-28.953610733333335,3.1108307243333333,-4.168861627666666,6.519577939,-192.7891235333333,-7.796988011,-28.79662959
250,2.0832499999999072,4.309023539333333,22.589846293333334,-29.265332566666668,-6.659571488666667,-0.7956531446666667,11.836297512,-198.81490583333334,5.371425469333334,-35.38256454333333
251,2.0915829999999005,2.498745918,22.500631330000004,-29.549649566666663,4.924950440333333,-2.4626588026666667,14.030715622666667,-204.95779926666668,-12.963222902,-30.98712476
252,2.0999159999998938,0.5833531916666667,22.304552716666667,-29.890106199999995,-4.548610607666666,-2.79499197,3.8957992396666667,-214.97084043333334,-24.953322409333335,-37.368807473333334
253,2.1082490000000007,-1.3051156400000001,22.24650955,-30.181231166666667,0.028839826666666884,1.2659595706666666,16.385966937666666,-214.18693543333333,-7.179990867666667,-32.490491866666666
254,2.116581999999994,-3.252417882,21.863431296666665,-30.528470366666667,-1.301418841,-3.180679559666667,8.097352902666668,-218.72469586666668,-44.824962613333334,-40.75433095333333
255,2.1249149999999872,-5.186155954999999,21.64130083666667,-30.816650400000004,-2.8830221969999994,-0.5478149456666667,10.600399972,-220.02295936666664,-24.63259665,-33.995274226666666
256,2.1332479999999805,-7.116449991666666,21.253131863333333,-31.15119173333333,-0.4759478963333333,1.3433336416666666,13.661301135999999,-217.66017663333332,-42.76255671333334,-42.56244023666667
257,2.1415809999999738,-8.985753695,20.906263986666666,-31.39717356666667,-4.265727202,-0.05859017333333346,10.483264924666665,-214.39320883333335,-37.748565676666665,-33.32866541666667
258,2.149913999999967,-10.841192883333333,20.509067533333333,-31.682736699999996,0.47072652966666667,1.018664221,13.29471906,-211.32371523333336,-41.91690508666667,-40.008627573333335
259,2.1582469999999603,-12.651257513333334,19.9744784,-31.89746856666667,-2.779938976,-0.369529009,7.858695505999999,-208.98267620000001,-58.288621903333336,-36.921552023333334
260,2.166579999999953,-14.382614773333335,19.552847543333332,-32.13104756666666,-2.2724616926666665,1.1061039766666667,13.75721709,-199.0679474,-43.52384059,-37.66681289666667
261,2.174912999999947,-16.065084773333336,19.01882489666667,-32.301101700000004,-1.856744865666667,2.3935198386666667,7.407515525666668,-195.83710733333336,-57.17781957,-35.67551040666667
262,2.18324599999994,-17.660630546666667,18.533119199999998,-32.48101043333334,-3.8187269366666663,1.9743602473333335,15.186671256666665,-185.30588276666666,-50.36736297666667,-36.57226944000001
263,2.1915789999999333,-19.151702243333336,17.980525973333336,-32.59878033333333,-1.1297389269999998,2.7237969836666664,10.163132191666667,-175.1903178,-59.093663533333334,-34.033606213333336
264,2.1999119999999266,-20.545084,17.44253476333333,-32.6975047,-3.524388552,2.8742428820000003,11.480647085333333,-164.3761902,-57.42119343666667,-32.59557406333333
265,2.20824499999992,-21.8254776,16.82966137,-32.73947653333334,-0.935248971,2.4879601399999998,12.439895155666667,-152.84719846666667,-67.24828083999999,-31.402098973333334
266,2.216577999999913,-23.01651064666667,16.285187086666667,-32.754094466666665,-2.959226102,2.526082396666667,11.270130474333333,-143.1298879,-60.20215860666667,-26.800485613333336
267,2.2249109999999064,-24.079336166666664,15.675365766666667,-32.76269533333333,-2.476944963333333,2.670634985,12.441671054333332,-127.93852233333332,-67.10993703000001,-30.461023963333332
268,2.2332439999999,-25.002728783333335,15.09058094,-32.697792066666665,-2.6424330273333334,4.006729523333333,11.241765340333332,-113.56937153333332,-67.39351653666667,-22.608561833333336
269,2.241576999999893,-25.843678156666666,14.505524636666665,-32.652730299999995,-3.085420529,3.0514326093333337,11.016578358666665,-102.98447417666667,-66.08346811666667,-25.747900643333328
270,2.24991,-26.571763993333334,13.985578853333331,-32.570622766666666,-4.066026210666667,2.826418161,10.640246074666665,-90.47314453000001,-60.59957758666667,-19.347515103333333
271,2.258242999999993,-27.17395528333333,13.487159409999999,-32.510851566666666,-4.365852356,2.41051356,12.565394718999999,-74.65689341333334,-56.93240483666667,-21.153162636666664
272,2.2665759999999864,-27.673760729999998,13.062775613333335,-32.44013723333333,-4.309047778333333,2.5855510236666666,10.281623204666667,-62.6044426,-49.41985194,-16.469684920000002
273,2.27490899999998,-28.06171163,12.67851162,-32.3737539,-3.214733084,3.026593446333333,13.98608462,-49.022416433333326,-44.826887770000006,-15.021104176666666
274,2.283241999999973,-28.37629954,12.33978017,-32.30054473333333,-3.8676604433333335,2.9418026606666667,9.593824069333333,-40.32963180666667,-40.282567343333334,-12.012186050000002
275,2.291574999999966,-28.579963683333332,12.056605339999999,-32.253021266666664,-2.8518669210000005,2.289005597333333,12.438182516666666,-26.341044746666668,-32.95564142999999,-11.638636906666667
276,2.2999079999999594,-28.720216116666666,11.802924473333334,-32.194399499999996,-3.5610027316666666,1.6852446396666665,8.939115366000001,-18.965654689999997,-30.407828016666667,-8.945900917000001
277,2.3082409999999527,-28.785612743333335,11.58277003,-32.16392263333333,-2.9320298830000002,1.71751976,12.336113930000002,-9.280198097000001,-25.31257692666667,-9.901257515333333
278,2.316573999999946,-28.798070269999997,11.385517120000001,-32.11663566666667,-3.7377572853333327,1.6652539966666666,11.510797819333334,-3.3073419530000003,-23.81761487333333,-6.9122613269999995
279,2.324906999999939,-28.74620819,11.220887183333334,-32.12011463333333,-4.125875473000001,2.081737200666667,10.55476411,5.610719045,-17.549368536666666,-10.201957066666667
280,2.3332399999999325,-28.656754176666666,11.079673450000001,-32.101262399999996,-2.070569873,0.7250558213333335,12.03920555,9.623331547333335,-16.31651656,-6.586835225333334
281,2.3415729999999257,-28.547913233333333,10.943130814,-32.1228765,-3.987668911666667,0.7667932213333334,10.004875819666667,12.857599892333333,-13.59792455,-10.413185436666668
282,2.349905999999919,-28.389777499999997,10.843432108333333,-32.156349166666665,-2.8437911670000005,0.9963822859999999,10.944931346666666,19.065298716666664,-9.011224429333334,-9.596501351666666
283,2.3582389999999123,-28.208908083333338,10.772108394666667,-32.18949636666667,-3.1251208783333335,1.2327337366666666,11.137150764333333,21.748315176666665,-6.113579114333334,-7.832098325
284,2.366571999999905,-28.021804173333333,10.701778093333333,-32.24795026666666,-3.163497289,-0.3638103453333333,9.644724528666666,23.078190486666667,-4.589522719333333,-10.449585596
285,2.374904999999899,-27.82125218666667,10.649160066,-32.30009716666667,-2.7971918583333335,0.6658282103333333,11.537487984333334,24.532722473333333,-3.128127574666667,-8.72431183
286,2.383237999999892,-27.623533886666667,10.642869316333334,-32.38710533333333,-3.0647481279999997,-0.218530553,11.451112747333333,24.972878773333335,3.7386174003333337,-9.884842873666665
287,2.391570999999999,-27.42967987,10.619109471666667,-32.478825900000004,-3.3080795603333333,-1.1481082043333333,9.994337398666666,24.603124616666666,2.041306972333333,-11.240199406666667
288,2.3999039999999923,-27.227750779999997,10.620748838333332,-32.570297233333335,-2.557915688,0.278185184,11.217328708666665,25.578832626666667,4.7537961006666665,-9.930039404666667
289,2.408236999999985,-27.049675623333332,10.651503245999999,-32.68597156666667,-2.7864099346666666,-1.1848141950000002,10.947834014666668,23.22595278333333,9.078142644333333,-10.795327186666668
290,2.416569999999979,-26.880285896666667,10.670239131333332,-32.796183299999996,-3.413951635666667,-0.5784351726666667,10.398307165666667,22.09722646333333,7.532298088333334,-11.016881306666667
291,2.424902999999972,-26.715339656666668,10.701701161999999,-32.903671233333334,-2.4071556326666665,-0.514219058,8.552762986,21.449630740000003,8.550523598666667,-9.738833111
292,2.4332359999999653,-26.567834856666668,10.754532175666666,-33.00510153333334,-2.6763345600000004,-0.9353964673333334,12.10547797,19.284933726666665,10.669803935,-8.317360719333335
293,2.4415689999999586,-26.44402377,10.800068852333332,-33.114860533333335,-2.951891661,-0.9733668366666667,12.534387273,16.619174956666665,10.232741036666667,-9.473556200333334
294,2.449901999999952,-26.35665957333333,10.845163661,-33.2008031,-1.9263469376666666,-0.7627911940000001,8.593958854999999,11.743927956,8.992676893666667,-7.140771389000001
295,2.458234999999945,-26.299087526666668,10.870977083666666,-33.275700900000004,-1.6899838646666667,-2.5463949046666667,11.140102066333334,7.856865802000001,6.170714060333332,-6.694478352666667
296,2.4665679999999384,-26.26791000333333,10.873857500666666,-33.350128166666664,-2.8135535716666666,-1.1300999323333334,11.221882185666665,4.755513509,3.8279365696666665,-8.169314384333333
297,2.474900999999932,-26.283441546666666,10.925444922666665,-33.425483699999994,-2.8466669716666666,-0.511025861,8.210948308,-0.9036274753333332,8.949247998333332,-5.349350293666666
298,2.483233999999925,-26.308612186666664,10.953862192,-33.504000366666666,-2.9231305123333335,-1.081607004,10.135938643666668,-1.9164744516666665,6.782709757666666,-7.232286453333334
299,2.491566999999918,-26.348074596666663,10.981490772,-33.57367706666666,-2.1115083296666666,-0.6223938266666668,12.480146252000003,-3.8757454950000003,6.106754303,-6.068392595
300,2.4998999999999114,-26.41390546,10.994912150333333,-33.624290466666665,-1.4299315213333335,-0.702449729,8.884510675,-7.426221101333333,3.727110584666667,-5.095261097
301,2.5082329999999047,-26.493432366666667,11.002491950666666,-33.6689555,-2.2948706943333335,-0.8642649453333333,7.964585305,-9.220605055333332,2.7263154983333333,-4.636322180333334
302,2.516565999999898,-26.57240041,10.999622025,-33.69787343333334,-3.508256117333333,-1.015069013,10.936641217,-9.502207439333333,0.8317370020000001,-3.6271126273333336
303,2.524899000000005,-26.671020509999995,11.032200814666666,-33.7480952,-1.8235563240000001,-0.14768041166666668,9.740886849333334,-11.390058516666665,5.7153820196666665,-3.875242472
304,2.533231999999998,-26.78558858,11.032642048333335,-33.773117066666664,-3.3177061879999994,-1.5726463196666665,10.045496303666665,-13.851647693333334,1.030256033,-3.116650978666667
305,2.5415649999999914,-26.918635686666665,11.029879890666669,-33.804657,-2.415598929,-0.8168721,11.295811334666666,-15.980319023333331,0.8529413739999999,-3.599428097666667
306,2.5498979999999847,-27.057121276666663,11.029341060666667,-33.828425100000004,-2.780078212333333,-1.0323472023333333,8.946565785666666,-16.757506369999998,0.8436862033333332,-2.9851561783333334
307,2.558230999999978,-27.188275653333335,11.055085502333334,-33.85923766666667,-2.531092286333333,0.10652046399999998,11.117709795333333,-15.731476466666669,3.9764738876666663,-2.1548790136666667
308,2.566563999999971,-27.316656113333334,11.072603543333335,-33.88074746666667,-4.0676976043333335,0.1425881286666667,11.619048754666666,-15.595687546666667,2.670472463,-1.7715237736666662
309,2.5748969999999645,-27.44348589333333,11.07993762,-33.8974762,-0.4460288386666667,-1.1262715656666666,7.248527209,-15.566401796666668,1.1706135573333334,-1.5090500103333333
310,2.5832299999999577,-27.565537770000002,11.080552103333332,-33.904424000000006,-3.697019338333334,-0.794176817,13.11675485,-15.175241790000001,0.08383532333333325,-1.17087397
311,2.591562999999951,-27.69118881333333,11.064998308666667,-33.91145323333334,-1.7857030830000002,-0.7575199006666667,9.316390353666668,-15.638492899999997,-1.7768219310000004,-1.7763557433333332
312,2.5998959999999443,-27.810006456666667,11.066233315666667,-33.914861033333345,-2.832932551666667,0.06520122133333334,7.941409746666667,-14.864775656666666,-0.04331360266666665,-0.7572423220000001
313,2.608228999999937,-27.912510553333334,11.084778786666666,-33.930913266666664,-2.7193574406666667,0.11909997433333334,12.186049143333335,-12.635320029999997,2.421967099,-0.9689866306666666
314,2.6165619999999308,-28.006991066666668,11.092235563333334,-33.92478943333333,-2.8983869553333332,0.09943309899999998,9.819420974333333,-12.169116020333334,0.08439870666666656,0.6027370093333332
315,2.624894999999924,-28.1052227,11.086560883333334,-33.93348186666666,-1.71613576,-0.6500310596666666,10.085433962333333,-12.33652083,-0.650238633,-1.376581649
316,2.6332279999999173,-28.183492023333333,11.090143203333334,-33.91667173333334,-2.4273745620000002,0.16744265700000002,12.512210529999999,-10.473750433333333,-0.9182915289999999,1.482466499
317,2.6415609999999106,-28.263842263333334,11.064015387333333,-33.908635466666674,-2.6538234149999997,-0.5471261146666667,9.646228473333332,-10.524724800333333,-3.640121102333334,-0.9810635826666666
318,2.649893999999904,-28.338891346666667,11.056658425999998,-33.880666100000006,-2.1933111546666666,-1.008019328,9.366958457333334,-10.337590059,-2.702020327333333,2.0167754490000003
319,2.658226999999897,-28.385490419999996,11.05143674,-33.8772583,-3.10895435,1.025507162,11.550626436666667,-6.373645941333334,-1.1712151966666668,-0.28163280566666665
320,2.666560000000004,-28.433381396666665,11.064521469333334,-33.85511270000001,-3.8670186999999996,-0.31024155033333334,9.544005235333334,-6.953099807,-0.23406295000000008,2.602602879
321,2.6748929999999973,-28.482952753333336,11.071587243666668,-33.86858113333333,-2.2056868473333333,-0.19104300933333332,10.56748136,-6.341205199666668,1.0698640743333334,-1.3283371923333334
322,2.6832259999999906,-28.502756756666667,11.11260001,-33.85503130000001,-2.926245252333333,-0.07480873933333332,10.297849974666667,-3.3939798673333335,3.1798492273333334,3.3272505603333333
323,2.691558999999984,-28.53256798,11.128668466666667,-33.880432133333336,-3.4394214946666666,-0.9021073926666666,11.032027564333333,-3.6917069950000005,2.690814137333333,-2.040754477333333
324,2.699891999999977,-28.546792986666663,11.176876386666668,-33.86272683333334,-2.0943826933333334,-0.6326229573333333,9.198512714000001,-2.805587053333334,3.7157802583333335,4.1484218440000005
325,2.7082249999999704,-28.542166393333332,11.2295297,-33.89726766666667,-2.967450579,-0.20087907833333332,11.773259481000002,0.6534746613333334,7.062169393333334,-0.8919304113333334
326,2.716557999999964,-28.528390883333334,11.308494886666665,-33.8946584,-3.5713760853333327,-0.58281517,8.987883567999999,0.9090279739999998,7.818118731333333,4.333907445333334
327,2.724890999999957,-28.511883416666667,11.394841193333335,-33.94268293333334,-2.5480705103333334,-0.021041909999999997,8.618309817333333,2.4093304276666667,11.369203567666666,-0.35224700000000003
328,2.73322399999995,-28.46304766333333,11.530085246666665,-33.96224466666666,-4.056296706333333,-0.14381008833333334,11.595141093333334,5.636157830333333,15.009535790000001,5.236823399666667
329,2.7415569999999434,-28.404340743333332,11.674024260000001,-34.01416016666667,-2.8797662259999997,-0.38831652466666666,11.068485260666668,7.583865642666667,17.66096973666667,2.523379346
330,2.7498899999999367,-28.342828113333336,11.826006573333332,-34.030649833333335,-2.796045303333333,0.33137151633333334,9.083556968333333,7.112033685999999,16.625778516666667,6.464146455000001
331,2.75822299999993,-28.255400340000005,11.990092913333333,-34.047485333333334,-2.2128234406666665,-0.6046615273333334,11.913753509333334,10.183156011333333,17.842309636666666,7.248805522666667
332,2.766555999999923,-28.133866626666663,12.181816419999999,-34.0692291,-3.359246333333333,0.12052497266666666,10.924211184,14.460798263333333,21.14281273,8.116524696333334
333,2.7748889999999165,-27.974372866666666,12.358774503333331,-34.04493206666667,-1.4594376310000001,1.3439827363333334,8.476943651666666,17.808804833333337,16.96687126,12.16688029
334,2.7832219999999097,-27.771996180000002,12.577346483333335,-34.0445353,-4.073219617333333,0.39160416,12.152977625666667,23.57929802,22.804125466666665,11.828464823333334
335,2.791554999999903,-27.49850273,12.82785256666667,-34.015487699999994,-2.233583529666667,1.3632288473333334,8.141559602,31.33740997,24.623478573333333,16.618480046666665
336,2.799887999999896,-27.150882086666666,13.077673596666665,-33.99411013333333,-3.994751453333333,1.5813744666666667,9.489988326,40.45299021666667,25.120443343333335,15.515665053333334
337,2.808221000000003,-26.741892496666665,13.390188853333333,-33.9647166,-2.9966908296666666,1.9792924273333332,13.180146533333334,47.551119486666664,31.44491323,19.715358096666666
338,2.8165539999999964,-26.27837054,13.70381896,-33.95704143333334,-4.249371926333334,0.5489082733333334,9.150504747666666,54.72561390999999,32.908053079999995,17.137922286666665
339,2.8248869999999897,-25.72334035333333,14.083935103333333,-33.9283295,-2.4524078170000005,1.002310872,8.222427845666667,65.05411148333333,39.10438283333333,22.661876680000002
340,2.833219999999983,-25.126895270000002,14.459985733333333,-33.94915773333333,-4.413398583666667,0.7433443316666666,11.169579825,71.52811686000001,41.45034917333333,16.662897743333332
341,2.841552999999976,-24.428860983333333,14.876451809999999,-33.903188066666665,-1.9316438249999999,1.2784522773333336,11.554618517333333,81.64537557,42.71187083,25.451033276666664
342,2.849885999999969,-23.707775113333337,15.31305281,-33.92904153333333,-4.296262900333333,1.9161804116666667,8.396838028,86.65680186000002,48.69643020666667,18.139183043333333
343,2.8582189999999628,-22.906510670000003,15.75508117666667,-33.871760033333324,-0.6266302479999999,0.3555632036666667,10.918116884999998,93.59602610333333,45.66742833666666,26.727423353333332
344,2.866551999999956,-22.049487433333336,16.212077776666664,-33.87772623333333,-4.386209964666667,0.7751935473333335,8.454119206333333,102.35438790333335,50.57599004,19.828104016666668
345,2.8748849999999493,-21.133339563333333,16.670263610000003,-33.811197899999996,-2.022493680333333,0.7716295993333334,9.682148775333333,106.9720942,47.875887553333335,27.00993538
346,2.8832179999999425,-20.14624595333333,17.153675716666665,-33.76661173333333,-2.795745531666667,0.7018680920000001,13.095834093333332,116.2094981,52.11878331666666,24.735413870000002
347,2.891550999999936,-19.114264806666668,17.614275613333334,-33.67813363333333,-2.752823511666667,1.4023323656666669,8.603943346666666,119.9517212,48.230513253333335,27.769114176666665
348,2.899883999999929,-18.006395976666663,18.098497390000002,-33.5925293,-1.8688891726666668,0.8804780643333334,11.91112391,129.11578369999998,51.596944173333334,27.27899424333333
349,2.9082169999999223,-16.819359459999998,18.555805206666665,-33.4424006,-2.6302372213333336,1.0796195866666667,8.439078013,136.0600586,46.82040532333334,32.40175755666667
350,2.916549999999916,-15.565645853333335,19.024059930000004,-33.325182600000005,-2.2545397279999997,1.6789649723333335,10.885540803666666,145.08934023333333,49.74978256333333,28.378794986666666
351,2.924882999999909,-14.272287689999999,19.463907876666667,-33.135292066666665,-2.4444587230000003,-0.500495215,10.501611868333333,146.96204123333334,45.03959401666666,34.01646169
352,2.933215999999902,-12.907055220000002,19.908473333333333,-32.974627166666664,-2.1244245816666667,1.022627314,12.257229009333335,156.52141316666666,47.10256195333333,30.134030659999997
353,2.9415489999998954,-11.49460729,20.30992953,-32.76592,-2.2260679203333336,0.4725992083333334,9.324275335666668,160.1790212,41.68432235666666,32.81741587333334
354,2.9498820000000023,-9.989541372,20.677472429999998,-32.54941813333334,-0.23196905833333334,-0.17058981433333334,12.50932026,170.67206826666666,38.328213373333334,32.08920161
355,2.958214999999996,-8.459413528333334,20.994602840000002,-32.30478923333334,-2.755783200333333,1.1495031516666667,9.271712302,172.46735636666665,32.73499298,32.840876263333335
356,2.966547999999989,-6.896252155,21.314474106666665,-32.07608286666667,-1.851535032,-1.4428324946666666,11.86373917,176.84188336666662,34.159341176666665,30.447490056666666
357,2.974880999999982,-5.282050450333333,21.576201119999997,-31.80043793333334,-1.7264155946666666,-1.0211865406666667,10.702732086333334,180.91181436666668,27.52682559,33.60853704
358,2.9832139999999754,-3.6732417739999996,21.79108302,-31.546773266666662,-0.7871529660000002,0.0060544756666666795,9.247081598666666,181.10121156666665,23.09803263666667,29.821190520000002
359,2.9915469999999686,-2.031229257666667,21.96971512,-31.27013653333333,-2.102538406666666,-0.5811653933333334,13.463463783333333,183.84972130000003,19.421947796666668,31.845989863333333
360,2.999879999999962,-0.3873937526666667,22.079235076666667,-30.972872433333333,-1.032915314,-1.6449501910000002,9.745872179666666,183.16488646666667,12.023288407333332,32.99130122
361,3.008212999999955,1.2545238733333335,22.163445789999997,-30.69347636666667,-1.7481214603333333,-0.575435877,12.75857226,183.5803121,9.908979813333334,30.996098833333335
362,3.0165459999999484,2.870080391666667,22.199735006666668,-30.404022233333336,-1.633744955,-2.551539302,10.443761984333333,180.03814696666666,5.093980630333333,31.64181582
363,3.0248789999999417,4.4603323936666674,22.196027756666666,-30.130119299999993,-1.9271896283333334,-2.464766522,12.121795652666668,177.58179726666665,1.078585466,30.367707573333334
364,3.033211999999935,6.04282554,22.13536771,-29.8441086,0.03372848033333339,-0.9800403416666666,12.005101679666666,176.2548929666667,-4.756356835,32.01151593666666
365,3.041544999999928,7.545833905666666,22.01718394,-29.606137633333336,-2.0519618293333335,-2.902531306,9.822604338,168.8328043666667,-11.360004425666668,27.877671556666666
366,3.049877999999921,9.016533851666667,21.834524156666664,-29.337359133333333,-0.5356443176666666,-2.6775060893333333,9.982168514333333,163.7320404,-17.80330912333333,32.42782402
367,3.0582109999999147,10.432630856666668,21.642424899999998,-29.1115621,-1.7306068143333333,-1.4130682246666666,12.599814097666666,159.09473673333332,-18.861651736666666,28.64789899333333
368,3.066543999999908,11.787962596666667,21.364307406666665,-28.869987466666668,-0.9128236199999998,-3.2637518246666666,11.163940430000002,151.30627946666667,-27.96802775,32.58507410666667
369,3.0748769999999013,13.043385503333333,21.097777049999998,-28.675613400000007,-2.9682356913333336,-2.935781876,11.194686728999999,141.40272013333333,-26.940725959999998,28.05266570666667
370,3.0832099999998945,14.251713753333334,20.770792646666667,-28.4594396,-0.814336687,-2.158061981,12.18837166,134.98364766666666,-32.81081835333333,32.57407506333333
371,3.091543000000001,15.392332396666667,20.422145206666666,-28.306577033333337,-2.200689752666667,-4.355171124333333,9.960870106,129.6432444333333,-36.43577957,27.183094023333336
372,3.0998759999999947,16.459198,20.034356433333333,-28.131263733333338,-1.2190457583333334,-1.7712891896666667,11.623120148333333,119.98479209999999,-39.71338907999999,31.560057323333336
373,3.108208999999988,17.43970172,19.69558016666667,-28.023254366666663,-3.423316081,-1.990571062,12.904456773333335,112.48696643333334,-35.70256042666667,23.40154520666667
374,3.1165419999999813,18.36797078333333,19.283521653333334,-27.886739100000003,-0.416211014,-3.3096052013333335,9.791187923666667,105.16436006666667,-42.69540787,29.71974818
375,3.1248749999999745,19.203310013333333,18.89944013,-27.83195243333334,-3.0547670523333337,-2.9463574883333337,10.65974363,97.31177522333333,-41.97775395666667,20.617444356666667
376,3.133207999999968,19.996985756666668,18.514623643333334,-27.736480700000005,-2.5651794673333335,-2.3896245956666666,12.654074033333332,90.81599935000001,-40.250639596666666,25.513606386666666
377,3.141540999999961,20.70591863,18.131959916666663,-27.696179700000002,-1.1857650876666668,-2.494185209333333,11.746548971000001,82.78780873333334,-41.80555852,20.143378573333333
378,3.1498739999999543,21.352852503333335,17.7270209,-27.63882193333333,-2.880864501,-2.8783045213333334,9.077031294333333,74.79024251333333,-43.428662616666664,23.25375493333333
379,3.158206999999948,21.937147143333334,17.364361443333333,-27.60095216666667,-1.318988055,-2.4750261706666667,10.712747571666668,67.9935023,-39.19777933666666,19.92677625
380,3.166539999999941,22.44553884,17.012914656666663,-27.569374099999994,-4.056371688666666,-2.8874402043333336,10.293047587666669,59.17449442666666,-38.11247889333333,18.97522227
381,3.174872999999934,22.88057772,16.631803513333335,-27.55594126666666,-0.36156125833333325,-2.346962333,11.010240871666667,50.99082311,-41.95932006666666,18.865896223333333
382,3.183205999999928,23.265948613333332,16.337339086666663,-27.53790793333333,-4.865350167333333,-2.4984734853333332,10.368503251,44.919901530000004,-32.12072627,15.452057521666665
383,3.1915389999999206,23.603789646666666,16.015767096666668,-27.51850636666666,-0.32530693233333335,-1.9034087656666667,12.052762031,39.163581846666666,-34.88911438,17.17156823666667
384,3.199871999999914,23.85758527,15.751353899999998,-27.5295868,-4.544960101333333,-3.3000833986666667,11.02375126,30.10076777,-29.974620820000002,11.317801158
385,3.208204999999907,24.074839273333335,15.456710496666666,-27.52354176666667,-0.17891490466666662,-1.674021721,8.793303489666668,25.14345932,-32.39646466666667,14.770196279999999
386,3.2165379999999004,24.258197783333333,15.275338173333333,-27.537559500000004,-5.344255368,-1.3510017989999998,11.101095201,21.737296420000003,-20.930151623333334,7.139927307666667
387,3.2248709999998937,24.392054239999997,15.034541130000001,-27.525716133333333,-0.4153335863333332,-1.9055287440000004,11.154013950666666,14.95906512,-26.137209573333333,12.94198513
388,3.2332040000000006,24.475358326666665,14.867685,-27.5370636,-3.0969372786666667,-2.5975088676666664,10.632394790666666,9.637129306,-19.187398276666666,6.781218290333334
389,3.241536999999994,24.534589133333338,14.64673551,-27.51801046666667,-2.4492621223333333,-0.8059689796666666,9.709781171333333,5.786994218,-23.568649926666666,12.821418446666668
390,3.249869999999987,24.571076713333337,14.548844973333331,-27.50318656666667,-2.3001348176666667,-0.7945305490000001,8.779696782666667,3.2282433113333333,-10.386684099666667,6.135988394000001
391,3.2582029999999804,24.589351016666665,14.370738026666666,-27.464469900000008,-2.712020099333333,-1.544700861,11.416322389000001,0.29855104299999996,-17.930586496666667,12.78472392
392,3.2665359999999737,24.562088013333334,14.244087216666665,-27.466074633333335,-0.5489120483333334,-1.622065266,9.452177364666667,-3.9424801269999996,-14.293659846666666,5.882288615
393,3.274868999999967,24.51322937333333,14.098443666666668,-27.436391200000003,-3.8768227696666666,-0.982101202,9.720757326333333,-7.462702274333334,-14.841893196666666,10.179063162
394,3.28320199999996,24.468074796666667,13.997550326666667,-27.412793499999996,0.12796966266666662,-0.645878166,11.416263260666668,-6.812977631666667,-10.282819428333335,7.228197415666666
395,3.291534999999953,24.417144776666664,13.870720863333332,-27.39599103333333,-4.834653497,-0.3862612966666667,12.310418129333334,-7.306949615333333,-13.447732923333334,7.804928779333333
396,3.2998679999999467,24.33888244666667,13.761787413333332,-27.381538399999997,1.827998479333333,-0.7037335833333334,11.326568604,-10.517933050666665,-11.608749709666666,6.658750693333334
397,3.30820099999994,24.24837049,13.611643156666666,-27.38858543333333,-4.727441310666666,-1.4519022899999998,10.845170972666667,-11.382586796666667,-17.143529256666667,6.433090528
398,3.3165339999999333,24.16336568,13.498146056666668,-27.391545599999997,1.036620617,0.048189825333333325,9.750309150333335,-10.821444191333333,-12.968525093666665,4.9787208236666665
399,3.3248669999999265,24.080216089999997,13.378644626666668,-27.410344433333336,-6.150173346333333,-0.17412464566666666,12.087858836666667,-10.169959545333334,-14.37523874,3.611334800666667
400,3.33319999999992,24.012771606666664,13.299851413333334,-27.3963394,1.29423214,-0.2057823686666667,9.413772105333333,-9.200516701666666,-8.345794201,5.1177978516666665
401,3.341532999999913,23.94764836666667,13.229533830000001,-27.4311549,-6.305551449666667,-0.03223889833333334,11.393926619666665,-7.592685063666667,-9.715166249666666,-0.44488520299999995
402,3.3498659999999063,23.89177958,13.110960643333334,-27.425300633333332,3.471496383333333,0.16245427733333337,10.611965335999999,-7.585264841666667,-13.105741024666665,6.169527371666667
403,3.3581989999999,23.838010153333332,13.031881013333333,-27.465929666666668,-7.3109622,-0.67757228,10.670286815333334,-6.074432690999999,-10.972737790000002,-0.7089081256666666
404,3.366531999999893,23.788349786666668,12.937657673333334,-27.453559866666666,3.036331594,-0.122337339,8.362012386333333,-7.004325467666668,-10.149784007666666,5.631448904333333
405,3.374865,23.75252596333333,12.9203825,-27.480486533333337,-8.410968623,-0.22975221766666667,10.242985088,-4.294550895666666,-3.5417703006666668,-2.2568872966666667
406,3.383197999999993,23.75817171666667,12.886421203333333,-27.438430799999995,2.8398012320000006,0.7413128813333333,9.831814767,-1.1471506653333334,-2.1600358486666664,5.838786284
407,3.3915309999999863,23.77134768,12.88530318,-27.461881,-7.326500098,0.04722098533333333,11.638013840333334,1.4932544429999999,-1.6083174546666668,-2.677097439666667
408,3.39986399999998,23.77882258,12.85416921,-27.406303366666663,2.773587183,-0.2055161396666667,11.163686432666667,-1.2848528623333333,-1.2137990793333333,7.143160978666667
409,3.408196999999973,23.77754720333333,12.882500646666665,-27.427360500000002,-7.406842072666667,-1.2121572173333333,10.183749197666668,-0.3152172563333335,1.751249234,-3.8157484533333332
410,3.416529999999966,23.80146408,12.901218096666666,-27.339836133333332,2.3036300339999998,0.010182023333333253,9.592492579333333,-0.18839669233333348,5.805608511,8.229260603666667
411,3.42486299999996,23.832121526666665,12.987349513333333,-27.3539327,-7.550425688,0.19613861199999996,10.203235627333333,3.393464168,8.320653320666667,-6.106792767999999
412,3.4331959999999526,23.910654069999996,13.022876420000001,-27.239954599999994,3.2462571463333334,0.655126532,10.965776443000001,5.672106902,8.845967133666667,10.086251258
413,3.441528999999946,23.94788932666667,13.114399909999998,-27.267969766666667,-7.319158554,-0.846860081,10.037138781666668,4.573503811999999,8.217846870333334,-7.929972725666666
414,3.449861999999939,23.995634716666668,13.16110706,-27.166127533333327,3.294652144,-0.6327491403333333,10.095390000333333,2.2739943119999997,9.518930436333333,8.243234145333334
415,3.4581949999999324,24.018699009999995,13.264946303333332,-27.204526266666665,-6.627721309333334,-0.14324362833333334,10.019888402333333,3.1536421330000004,9.085247040666667,-9.616145080666668
416,3.4665279999999257,24.10182444,13.348095256666667,-27.10580446666667,1.682808002,0.39069525366666663,8.810188929333334,6.587500413333333,13.350548106666666,6.0735034930000005
417,3.474860999999919,24.171899796666665,13.424612996666667,-27.13558453333334,-4.993340730666667,-0.08133813466666669,10.864174207,8.576608658,6.482491255,-7.383702277333334
418,3.483193999999912,24.24021848,13.468342463333334,-27.074587533333332,0.4815027216666667,-0.7775215406666667,11.279321986666666,5.8283363186666675,7.253938993000001,3.9751842816666674
419,3.491526999999905,24.276288986666668,13.545756023333334,-27.1052068,-4.053553263333334,-1.1854677993333333,10.784279821666665,4.526646296333333,6.5213554700000005,-7.542373418666666
420,3.4998599999998987,24.333364486666667,13.592886926666665,-27.079338099999998,-0.33437160633333346,-0.23187551900000003,9.901322048333334,5.459542751333334,5.937444687,0.03602218700000037
421,3.5081930000000057,24.38050143,13.662487030000001,-27.098971066666664,-2.9504342480000005,0.26634476066666674,11.196403661,5.553828557333333,6.182923158,-5.998671372666666
422,3.516525999999999,24.391033176666667,13.671113966666667,-27.140243566666665,0.6043083266666668,-1.0625996813333334,10.720536074333333,1.7698503136666668,-1.497032881,-5.179166277333334
423,3.524858999999992,24.350096383333334,13.674873986666666,-27.18781536666667,-1.8261386553333334,-2.13611873,8.451392014666666,-4.233820120333333,-2.336838012,-5.653706868666667
424,3.533191999999985,24.26795196333333,13.680878323333333,-27.310813899999996,-2.1096898516666664,-2.0131260753333335,9.685480436666667,-7.019783656,-5.714749942333333,-13.779536882666667
425,3.5415249999999787,24.145373663333334,13.6772693,-27.3676834,-1.7947009406666667,-1.1695761283333332,11.604744911,-13.808987936666666,-3.500638485,-6.112266461
426,3.549857999999972,23.919309616666666,13.630615233333332,-27.5514857,-0.7709685666666667,-3.955953836666667,10.948822657333332,-22.608219783333336,-14.25531705,-17.597208023333334
427,3.558190999999965,23.65492757,13.577696163333334,-27.63581343333333,-2.3717343806666666,-1.2760317350000001,9.936972775333334,-30.077322006666662,-10.142350515666667,-6.624171892666666
428,3.5665239999999585,23.313297906666666,13.547437350000001,-27.82055153333333,-1.9331260820000002,-1.8324269976666667,12.154644647,-36.47466787,-12.34100056,-18.64199256666667
429,3.574856999999952,22.89507802,13.458991366666666,-27.8945872,-0.8866624036666666,-3.906924883666667,10.351855438333333,-48.84470876,-13.516142845,-3.967706124333333
430,3.583189999999945,22.38406308333333,13.365381876666667,-28.112698899999998,-2.255750378,-1.1186223873333334,9.033769607333335,-55.96147283,-20.553691863666668,-19.39589723
431,3.5915229999999383,21.829333626666667,13.351636886666668,-28.172266633333336,-3.382861296333333,-2.5581778686666667,10.193888345333333,-65.62623596333334,-4.525920946666667,-6.051548958333332
432,3.599855999999932,21.155023576666668,13.25704098,-28.378829966666668,-0.28641019266666673,-3.2155995366666663,11.027092936666667,-75.92169189666667,-19.804553986666665,-18.538602830000002
433,3.608188999999925,20.42278226,13.227707863333334,-28.481531766666663,-4.709758122666667,-1.4310688573333332,9.769556523333334,-85.77209218666667,-7.906206747333333,-10.136862437666666
434,3.616521999999918,19.613014223333334,13.24726709,-28.649757400000002,-1.698527962,-2.083691279,13.099349976666668,-93.26159668000001,-4.922846794333333,-19.501051903333334
435,3.6248549999999113,18.731637956666667,13.255747156666667,-28.758898433333332,-2.8973059456666665,-3.3520102103333334,8.914886633666667,-103.50095874,-3.569513202,-12.525699298666666
436,3.6331879999999046,17.793044409999997,13.278539976666666,-28.9333369,-2.557876805333333,-0.07168592533333329,8.952328362666668,-108.56573736666667,-4.179691950333333,-20.344093323333336
437,3.641520999999898,16.814948400000002,13.424230889999999,-29.025634766666666,-4.405160426999999,-2.3753310046666667,10.992739042333332,-115.55546063333333,13.16280842,-15.556659063333333
438,3.649854000000005,15.770307856666667,13.47031021,-29.157101933333337,-0.6291755633333335,-2.2147357863333332,8.003109773,-122.43170676666666,0.6064176163333332,-16.449632961000002
439,3.658186999999998,14.679456389999999,13.630141576666666,-29.27513376666667,-4.066925009,-0.18400493233333337,8.184741656,-128.31709546666664,14.534365973333331,-18.44899432
440,3.6665199999999913,13.606766063333334,13.77235349,-29.338239033333334,-3.1266355513333335,-1.1628192266666666,14.720373473333334,-127.66357419999999,14.343718530000002,-11.479813417
441,3.6748529999999846,12.46081098,13.955934206666667,-29.452189100000002,-0.7444661260000002,-1.4277229483333336,9.263500215666667,-134.91886393333334,18.05303701,-18.265263559999998
442,3.683185999999978,11.296122236666667,14.06725248,-29.527580233333328,-3.640032172,0.15276231399999995,6.571567018666666,-138.30253093333337,10.853948115333333,-11.537533123666668
443,3.691518999999971,10.156739236333335,14.355639459999999,-29.63058726666667,-1.918011745,-1.2199356956666667,11.200735728333333,-134.39968873333333,31.37074470666667,-18.441830319999998
444,3.699851999999965,9.026866595,14.503395079999999,-29.714668300000003,-2.292744557,-0.5532847743333332,11.008649509333333,-133.8027547,15.44540278,-12.798588752999999
445,3.7081849999999577,7.840921560999999,14.678418476666666,-29.86060843333333,-0.24051004666666653,-0.60706979,6.571643473333334,-138.6191965666667,17.887574512666667,-20.05270449
446,3.716517999999951,6.687028408,14.890707653333331,-29.95787303333334,-5.773490985333333,0.7824278673333334,15.074160256666666,-136.21253966666666,23.417338053333335,-14.640647889666669
447,3.724850999999944,5.496676444999999,15.112171170000002,-30.105809533333332,1.597246090666667,-0.874933881,10.647522130666667,-138.97322083333333,24.214181263333334,-20.048564276666667
448,3.7331839999999374,4.2932963373333335,15.229163806666667,-30.23171996666667,-4.853394746666667,-0.2955464323333334,5.509174864999999,-141.1739248,12.311580338333334,-15.982026419999999
449,3.7415169999999303,3.1289793650000006,15.50685946,-30.398429899999993,-0.7458159926666666,-0.06723401933333333,9.466243108666667,-135.13896176666665,31.601654049999997,-21.561899183333328
450,3.749849999999924,1.9873706896666665,15.625751813333332,-30.5158844,-2.248824159333333,-0.23081287733333333,11.627354145,-133.94696043333332,13.208975713000001,-14.442935626666667
451,3.758182999999917,0.7847437563333334,15.744813279999997,-30.7319641,-0.9799177646666664,-0.7053577899999999,6.883606991333333,-138.04625446666668,13.267919222666668,-25.39367358
452,3.7665159999999114,-0.3855163853333334,15.92689514,-30.83915966666667,-4.557601903666666,1.5089851716666665,14.774440126666667,-137.65419006666667,21.37735176,-12.650646526666668
453,3.774848999999904,-1.6271179116666667,16.02001349,-31.080080666666674,1.8393460116666667,-2.419059875,9.266353687333334,-141.79747006666665,11.232495637666666,-27.70861625666667
454,3.783181999999897,-2.819333553,16.06965796,-31.216163633333334,-3.937473734333334,0.7744410236666667,5.142611146,-139.27607726666665,6.133272806666667,-15.636706033333333
455,3.791515000000004,-3.9660013516666672,16.128172556666666,-31.452293400000002,0.6907618046666667,1.2796747286666668,12.152905623,-130.52340189999998,8.169163067333333,-26.793525696666666
456,3.799847999999997,-5.123356183666667,16.0462567,-31.59664406666667,-1.9045732863333333,-0.05380021566666667,8.915212949666666,-134.88438416666665,-8.931482790333334,-17.31438573
457,3.8081809999999914,-6.304644584666666,16.005323093333335,-31.824442566666665,-0.2719497433333333,-0.10835522433333329,7.640198051666666,-134.99243673333334,-2.738665581,-26.660141626666668
458,3.816513999999984,-7.419297218333333,15.918315886666667,-31.972956333333332,-2.6733863353333334,0.4605232226666667,13.990084011333332,-129.66944886666667,-8.790344874,-18.169935226666666
459,3.824846999999977,-8.549506505666667,15.65874481,-32.15525816666667,2.172713756666667,-0.4625187416666667,8.065771024,-130.45493059999998,-28.402963003333337,-25.18941497666667
460,3.8331799999999694,-9.675261815333334,15.49274508,-32.300900766666665,-5.169444163666666,0.38480708966666666,8.902520975666667,-131.19885509999997,-17.484520593333333,-19.67524401333333
461,3.841512999999964,-10.799455963333331,15.251756666666665,-32.46246336666667,1.0132737160000003,-0.591498015,11.465448219333332,-130.46528116666664,-25.57961527333333,-23.87803332
462,3.849845999999957,-11.924709003333334,14.953163146666668,-32.601191199999995,-3.9541165826666664,-0.28356707100000006,8.570809206,-131.45855206666667,-32.439754486666665,-22.809127173333334
463,3.85817899999995,-13.04653009,14.648548760000002,-32.733276366666665,0.438615994,0.2929554979999999,9.695714948666668,-131.27202096666667,-32.82083320666667,-23.195145926666665
464,3.8665119999999433,-14.11802451,14.362935386666669,-32.87023416666667,-5.06771938,1.667998433,11.456300577,-125.23145040000001,-30.07319832,-23.518457413333334
465,3.8748449999999366,-15.143618266666666,14.032925923333332,-32.97097779999999,-0.34849639733333343,0.280285716,10.846532344666665,-120.80750276666667,-35.8004481,-21.664422353333332
466,3.88317799999993,-16.156303723333334,13.681966143333334,-33.075477600000006,-3.589209358,0.26833734933333336,9.52740256,-119.25534056666667,-37.748123166666666,-23.181285856666666
467,3.891510999999923,-17.134307226666664,13.34310341,-33.148485799999996,-0.554892063,1.142665051,9.422066051333333,-116.0158412,-36.96450424333333,-20.13976033333333
468,3.899843999999917,-18.03873634,13.003737766666667,-33.23965453333334,-5.082116445,0.79978171,9.573819162,-106.7123133,-36.017875673333336,-22.78183301
469,3.9081769999999096,-18.90198962,12.663501423333335,-33.274325033333334,0.35668241233333325,1.7960660060000002,11.926840783333333,-103.36662800333333,-37.878878273333335,-17.112626713333334
470,3.916509999999903,-19.763593036666666,12.297531446666667,-33.340159066666665,-4.134799718666667,0.6355640886666667,11.360624311666667,-102.35759735333333,-39.29003015999999,-22.224299113333334
471,3.924842999999896,-20.560345966666667,11.934836390000001,-33.34943133333333,-0.3880687556666666,0.4690363210000001,10.629803341333334,-96.07594807666665,-40.917938230000004,-16.353791236666666
472,3.933176000000003,-21.311691283333335,11.543985050000002,-33.373318999999995,-3.5577924253333335,0.8751577013333334,11.699090320666665,-90.23649851333334,-43.187232973333344,-19.798926036666668
473,3.941508999999997,-22.01860237,11.17416191,-33.337773633333335,-0.9593842826666666,1.5612774790000001,11.805672964666668,-86.36982218333333,-43.22861099,-12.829929668333333
474,3.9498419999999896,-22.67203331,10.816221237666667,-33.34923806666667,-4.532305081666666,1.447610095,9.172071457333333,-78.81234232666667,-39.59722137666667,-18.017368316666666
475,3.958174999999983,-23.238582613333335,10.497916222666667,-33.27698263333333,-2.2093520263333333,1.9313265480000001,10.806873005666667,-70.28598785333334,-38.92621231333333,-7.383639971333333
476,3.966507999999976,-23.748409269999996,10.174269994333335,-33.27420553333334,-4.243102073666667,1.7891392210000001,12.259360314666667,-61.908089956666664,-36.14250946333333,-15.605149273333334
477,3.9748409999999694,-24.210383733333334,9.884861311666667,-33.18303426666667,-1.6833940146666666,1.5377595426666666,10.651649159,-58.03008524333333,-36.53736114666667,-4.594434102
478,3.9831739999999622,-24.62857246333333,9.608565967666667,-33.16674806666666,-3.648695946,1.2817460893333334,10.691386222666665,-51.20264943666667,-31.39311154666667,-12.354474386666666
479,3.991506999999956,-24.97824287666667,9.362543424,-33.087303166666665,-1.930754423,0.7683653783333334,9.259716352666667,-44.22044754,-31.170330679999996,-4.181487798666667
480,3.999839999999949,-25.269598646666665,9.114267985,-33.05526223333333,-3.2988617419999997,1.073511998,11.341487567666666,-36.260944370000004,-28.980083463333333,-9.631573359333332
481,4.008172999999943,-25.541840233333332,8.900593121666667,-32.99862416666667,-3.1123633386666665,1.0909041463333333,12.283115068333336,-34.45096270333333,-26.544916790000002,-5.10595417
482,4.016505999999936,-25.778532666666667,8.705393314666667,-32.97247313333333,-3.3305066426666663,0.667767825,9.552149455,-29.566695533333334,-22.858275733333333,-7.744201024666666
483,4.024838999999929,-25.970179876666663,8.56477054,-32.9354401,-2.600952585666667,-0.04232382766666665,10.045251051000001,-24.378595989999997,-17.59337933666667,-3.613808751
484,4.033171999999922,-26.130296706666666,8.424775282333334,-32.936637899999994,-4.407456954333333,0.6919566193333333,10.552672705666668,-19.873879116666668,-15.410869599999998,-7.947474638666666
485,4.041504999999916,-26.24356142666667,8.315859795,-32.90624996666666,-1.9068360923333334,0.6515859390000001,11.937406223333333,-14.824742953333335,-13.813842453333331,-2.724348416
486,4.049837999999909,-26.360067366666666,8.241092363666667,-32.92737833333333,-4.390261729666666,0.42284040166666664,10.449257214666666,-14.315366110000001,-7.333818753666667,-6.628069957
487,4.058170999999902,-26.433089576666664,8.168814182333334,-32.9177424,-1.4652134529999998,-0.015595028666666696,8.067355316333334,-9.630108355666666,-8.766404152,-3.047342708
488,4.066503999999895,-26.47531001,8.122885227333333,-32.94022116666667,-3.9657494226666667,0.9605156383333333,12.610548340000001,-5.371437390666666,-4.111447890666667,-5.316956083
489,4.074837000000002,-26.499746956666666,8.064842065,-32.94538626666667,-2.0755841729999998,0.16689920433333336,10.655203818333334,-3.544416586666667,-6.445352792333334,-3.875220775666667
490,4.083169999999996,-26.511437100000006,8.042710940000001,-32.978787733333334,-2.9479262829999997,0.6877517156666667,9.640258789,-1.538365364,-0.9828909633333334,-5.189175446999999
491,4.091502999999989,-26.498657226666666,8.017435391666666,-33.005109166666664,-2.4025475579999997,-0.07598198699999999,12.506204923333334,1.2620304823333333,-1.8091207343333335,-4.368110736333333
492,4.099835999999982,-26.477462130000003,7.971379120999999,-33.02817533333333,-2.352698564666667,-0.661618476,9.941744647,2.235713005,-4.117304960999999,-5.335023244333333
493,4.108168999999975,-26.45714569,7.936684290666666,-33.05497996666666,-1.1894626616666668,-0.473644731,11.134601273333333,2.1743971060000002,-2.779029558,-4.967027584666667
494,4.116501999999969,-26.438844046666663,7.885221481333333,-33.055150366666666,-2.628436247333333,-0.5853472006666667,11.079631803333333,1.513754328,-5.886962334666666,-3.2347877023333336
495,4.124834999999962,-26.4237779,7.828220049333333,-33.06152596666667,-2.896864573,-0.9998087683333332,10.126297157000002,1.2011455296666667,-6.2711551986666665,-3.9571135043333334
496,4.133167999999955,-26.413594559999996,7.813752968999999,-33.076405833333325,-2.2099711896666663,0.058874244333333346,10.999119757666667,0.772405863,-1.1425955393333334,-2.8124303420000003
497,4.141500999999948,-26.408506396666667,7.7706786789999995,-33.0828476,-3.1998662153333335,-1.270738532,9.137399674,0.008520995666666678,-4.7676038143333335,-3.2199529010000005
498,4.149833999999942,-26.426561356666667,7.756975333,-33.09361523333333,-2.825385411333333,-0.7943708253333335,10.947673161333334,-2.6920518876666666,-1.285591205,-2.3235654033333333
499,4.158166999999935,-26.454410553333332,7.749672253999999,-33.117642733333334,-2.469435612333333,-0.9845828019999999,10.896621068,-3.660449306,0.014130448666666684,-3.2018264136666663
500,4.166499999999928,-26.50484021666667,7.714370886333332,-33.11763256666667,-2.2486139536666667,-0.9387975733333334,10.886463325666668,-6.738892157666666,-4.169997851333333,-2.3298795223333335
501,4.174832999999921,-26.584643683333336,7.705863476,-33.13648223333333,-2.4692922433333333,-1.8199793199999998,10.697837511666668,-9.990120092,-0.38167353466666665,-2.728927850666667
502,4.183165999999915,-26.660696666666666,7.658919016666666,-33.1379827,-1.70220533,-0.7904947006666666,9.271533331,-9.782790501333333,-5.334779779000001,-3.123617808
503,4.191498999999908,-26.75523885,7.632440567,-33.14305623333333,-3.0652759869999997,-0.514915824,11.488017083666668,-11.983753045,-3.047269940333333,-2.212382595
504,4.199831999999901,-26.865968706666667,7.607418696,-33.147346500000005,-2.6427277923333334,-0.7266980013333333,9.793258348333334,-13.913547513333334,-2.8442178566666665,-2.220400095
505,4.208164999999895,-26.972347893333335,7.576541423666666,-33.157122300000005,-3.168896675333334,-0.777874887,9.955153782666667,-13.326144853333332,-3.253439665,-2.967473388
506,4.216498000000001,-27.093228026666665,7.568486531333332,-33.17755126666666,-2.6471812326666666,-0.649500795,12.009347913333334,-14.884865763333332,-0.1508297126666666,-3.0199658076666664
507,4.224830999999995,-27.23224321666667,7.565310478333333,-33.18665313333334,-3.2305102346666668,-0.3046212546666667,10.611873944333334,-17.251886366666668,-0.3156782390000001,-1.395929137666667
508,4.233163999999988,-27.37771352333333,7.546128908666667,-33.20266723333334,-1.9442436493333333,-1.1669272380000002,11.893599513333333,-17.896589916666667,-1.5487906533333333,-3.200162251666667
509,4.241496999999981,-27.51687749,7.552354494666666,-33.229812599999995,-3.0895261766666664,-0.8183284203333333,9.767182668,-16.99383926333333,1.6685071386666668,-2.7685108186666665
510,4.249829999999975,-27.657947543333336,7.553992112333333,-33.22999063333333,-2.2426721253333333,0.00801613933333332,9.582780044666668,-17.611732800000002,-0.19234621533333351,-0.3632312116666667
511,4.258162999999968,-27.819902420000002,7.563389142333334,-33.24624126666667,-3.366613308666667,-0.9479814369999998,11.013334115666666,-19.91025607,1.4030715769999997,-1.4170657793333332
512,4.266495999999961,-27.961019516666667,7.605432033333334,-33.26992033333334,-3.210014462666667,-0.11382509266666664,9.737184683,-17.252751033333336,5.394299745333334,-0.5597949426666667
513,4.274828999999954,-28.106044766666667,7.660146236666666,-33.276893599999994,-2.612436731666667,-0.225215753,9.556614398,-18.014829633333335,5.698677698666667,2.11810565
514,4.283161999999948,-28.273440043333334,7.696812152666666,-33.3068517,-2.859016021,-0.822225193,11.319290797,-20.30500539,5.184613784333333,-1.5116119786666669
515,4.291494999999941,-28.41869672,7.768383662000001,-33.341067,-2.4959867399999998,-0.7725878953333334,10.527872404666667,-17.605715433333334,8.989779787999998,0.2818505806666667
516,4.299827999999934,-28.55362828666667,7.808987776333333,-33.36951956666667,-2.476233959333334,-0.17583078400000005,10.107763447333333,-16.415991466666664,5.514037769333332,-1.0718663983333334
517,4.308160999999927,-28.697436013333334,7.863235950333333,-33.399508133333335,-1.9576631786666667,-0.3556972706666666,10.329131285666667,-17.503822963333334,6.911346435666666,-0.21517701933333333
518,4.316493999999921,-28.802124023333334,7.899878819666667,-33.4411036,-2.841037074666666,-0.06640402633333335,10.167528787666667,-12.572078386666666,5.852989991666667,-2.655483524
519,4.324826999999914,-28.872069676666666,7.969408671,-33.443428033333326,-2.4991560576666667,0.418164057,10.951130229999999,-9.079633076666667,6.947191874333334,3.560255527666667
520,4.333159999999907,-28.948087056666665,8.002577781666666,-33.478548700000005,-3.093535661666667,0.07874860733333335,10.513186296666666,-9.236690283666666,5.140721957333334,-2.2053729583333332
521,4.3414929999999,-28.98265902333333,8.101305802666666,-33.489311199999996,-3.2562898,-0.282966604,10.745868682333333,-4.693962971333334,10.492655276333332,4.385819514333334
522,4.349825999999894,-29.004203796666662,8.159611543333334,-33.50782523333334,-2.6656644343333333,0.0563329063333334,13.495123543333335,-2.965479642,6.830125490666667,0.9844361643333333
523,4.358159000000001,-29.007479986666667,8.247710864,-33.49425,-2.2115873496666665,0.7114202829999999,9.784049826666667,-1.357576370333333,7.961516379999999,6.322571754666666
524,4.366491999999994,-28.957019806666665,8.323616822666667,-33.50614423333334,-2.9085852303333333,0.21064930166666665,11.675477663333334,5.5575084683333325,8.297540189333334,2.686382691
525,4.374824999999987,-28.853908536666665,8.431779543666666,-33.47498066666667,-3.437327225666666,0.7244490433333334,13.916392963333331,11.107735315,9.064572652666667,9.318614326666667
526,4.38315799999998,-28.709492366666666,8.530405044333333,-33.463038133333335,-2.2631578793333333,1.0489243166666666,9.101466655333333,16.41596158,9.328149001333335,6.462154389999999
527,4.391490999999974,-28.498764036666667,8.699394384666666,-33.45221456666666,-4.115587075666666,0.8239069680000001,12.478035293666666,24.359588623333334,16.68304793,10.63151741
528,4.399823999999967,-28.222836176666664,8.865968227333333,-33.421399466666664,-2.6222290596666666,1.137709618,11.025183201333334,31.842273080000002,15.48048592,12.252593039999999
529,4.40815699999996,-27.86318525,9.071802775,-33.415389999999995,-3.6314135393333338,1.540452003333333,8.776675303333333,42.31140518333333,20.940849940000003,12.07207362
530,4.416489999999953,-27.441705066666668,9.300249418333335,-33.3706996,-2.4957116443333334,2.6212957303333333,13.836163205666665,49.02072143666667,21.47177315,16.9130319
531,4.424822999999947,-26.959960303333332,9.562040328,-33.362475100000005,-4.260891517,0.7001073063333334,9.185939311333334,56.89979807333333,26.961959840000002,15.083434743333333
532,4.43315599999994,-26.37295786333333,9.872606276333334,-33.32677206666667,-2.4486920833333334,2.212868055,10.297035377,69.02510070666666,31.050168993333333,20.00181834
533,4.441488999999933,-25.731608706666666,10.220722835,-33.323610933333335,-5.467106182999999,0.6010180363333333,9.504431405666667,76.13931020333332,36.846172333333335,18.52473132
534,4.4498219999999264,-25.01996676,10.629655837666666,-33.31468453333334,-3.104042450666667,1.0585421523333334,11.306895255,84.52334594666667,43.51122665333333,21.4990921
535,4.45815499999992,-24.221896486666665,11.086050989666667,-33.31106313333333,-4.364056945000001,1.3186442656666666,9.987768014333332,94.92483774333334,49.110889433333334,23.02640406333333
536,4.466487999999913,-23.371580123333334,11.593461036666667,-33.333025600000006,-2.8690962790000003,1.40248394,9.535881520333334,101.87147014666665,56.38008753666666,21.718346913333335
537,4.474820999999906,-22.429101306666666,12.109638533333333,-33.3053411,-3.827459971333333,0.9655076263333333,9.472739855666667,111.64972686666665,55.29986953666667,26.920700710000002
538,4.4831539999999,-21.39814186,12.689516066666664,-33.32883706666667,-2.9793681353333334,2.3639922143333334,11.308828674333334,123.63531493333333,65.21667862,22.905639646666668
539,4.491486999999893,-20.314932503333335,13.265750250000002,-33.285784400000004,-3.260910571,0.22777789566666665,8.979226429999999,128.0987905,62.39981714666667,28.982099533333336
540,4.49982,-19.173388796666664,13.890814463333333,-33.31017813333333,-3.4024184146666663,0.30901172499999996,9.901460489333333,136.9825541,71.18370310666667,22.164212546666665
541,4.508152999999993,-17.919924416666667,14.484381356666667,-33.213879866666666,-1.5228941046666666,2.674707293333334,10.301195463,146.86072793333332,63.53756968333334,32.94977696666667
542,4.516485999999986,-16.62766075,15.131152790000002,-33.20189156666666,-4.320753256666666,0.2322570483333333,8.767836888333333,154.01241046666667,73.33287048333334,23.834596
543,4.52481899999998,-15.270986873333333,15.765381496666668,-33.0902659,-2.399480342666667,0.345579227,10.107378085333332,158.53475953333333,69.18345387666666,33.00081316666667
544,4.533151999999973,-13.872161866666668,16.365232786666667,-33.01999156666667,0.008939698666666699,0.2863065283333334,9.517462728,164.83297223333332,67.27350743666666,25.405639646666668
545,4.541484999999966,-12.416283923333333,16.913103420000002,-32.86079153333333,-3.1242102783333334,-0.10023212466666664,9.021339258666666,168.53445943333335,59.416034696666664,32.43933105666667
546,4.549817999999959,-10.929577510000001,17.464911779999998,-32.7225494,-1.478303393,0.3381429539999999,12.096501988,172.7104899,61.19734446333333,28.713143029999998
547,4.5581509999999525,-9.421221733333333,17.98300743,-32.54201506666667,-1.7711986503333332,-1.76131618,10.599665324333333,173.70597839999996,57.10503387333333,30.996907556666667
548,4.566483999999946,-7.877003033666668,18.412866593333334,-32.341046633333335,-0.06754344700000003,1.182155082666667,7.236296891666666,176.95369976666666,47.10446294,30.28409449
549,4.574816999999939,-6.282234192,18.846096040000003,-32.130223566666665,-4.10522755,-0.9739392996666666,12.173589707333335,182.5202484,48.15991211,30.108876546666664
550,4.583149999999932,-4.706854025333333,19.235325496666665,-31.904846199999998,0.024174809333333307,-0.9622502726666666,10.812039374000001,179.38217670000003,43.60362371,29.88654581333333
551,4.591482999999926,-3.120004972,19.490070343333333,-31.665092466666664,-0.24724562966666672,-0.7059050303333333,9.70687596,180.1127421,28.18448639,29.08013216666667
552,4.599815999999919,-1.5120443303333333,19.721551896666668,-31.3958715,-1.4601901323333333,-0.19831637533333332,10.913444202,181.42819216666666,26.116608936666665,31.069494246666665
553,4.608148999999912,0.07919666266666665,19.89242681,-31.151090000000007,-2.675461451,-2.3412548303333334,9.776782034333333,180.21972653333333,19.710425060000002,27.792032239999998
554,4.616481999999905,1.680658102,20.046956383333335,-30.868982966666664,-0.11802524333333327,-1.2065623203333333,11.574485779999998,179.9402567333333,18.60233911,31.095973966666666
555,4.624814999999899,3.24097236,20.09587987,-30.63262683333333,-2.4054634666666668,-0.8225315763333333,12.573734283333332,176.73809813333332,6.581833839666667,26.239667889999996
556,4.633148000000006,4.794026692666667,20.080189386666667,-30.352010066666665,0.583575708,-2.23561883,8.517796516333334,174.09136963333333,-0.09274498633333339,31.340943656666667
557,4.641480999999999,6.310608546,20.030862173333333,-30.131151833333334,-2.909468333,-1.7143253483333334,11.30816285,172.13775126666667,-3.903494695666667,25.182477949999996
558,4.649813999999992,7.779419263,19.930360156666666,-29.86717223333333,-1.1761082656666668,-1.8771135806666666,11.259234427,164.7389729666667,-8.753434023666665,30.691672006666664
559,4.658146999999985,9.18687884,19.800478616666666,-29.670048999999995,-2.923672755333333,-3.0065715313333334,10.853713194333332,160.0979716,-12.543700852333336,24.174940106666668
560,4.666479999999979,10.560914676666668,19.60719808,-29.447603866666668,-0.03339378066666663,-2.607830206666667,11.52851836,155.17596436666665,-18.97291819333333,28.40429496666667
561,4.674812999999972,11.839582440000001,19.40396309,-29.3038432,-3.6715522606666666,-2.517767707333333,14.037499429333332,146.9317169,-21.16618092666667,20.53014374
562,4.683145999999965,13.079056423333334,19.148025513333334,-29.107828766666668,-0.5209505956666668,-2.111447512666667,10.629920641666667,140.231191,-25.623550413333334,28.07606696666667
563,4.691478999999958,14.256959913333333,18.88348452,-28.994038899999996,-2.725116889,-2.483562708,10.091225943333333,136.13487243333333,-28.166250226666666,19.93565305333333
564,4.699811999999952,15.388205843333333,18.543408709999998,-28.862007133333332,-0.8828586043333333,-2.4046670593333332,12.326292195999999,129.9328079,-36.03697459000001,24.681880949999996
565,4.708144999999945,16.43818919,18.230189003333333,-28.775044766666667,-2.745930075666667,-2.1912723780000003,11.019756635333332,121.95388283333334,-33.807261149999995,19.679646809999998
566,4.716477999999938,17.420713426666666,17.86765798,-28.67870586666666,-1.620376636666667,-2.888933738,10.257447399666665,113.58272803333334,-38.82825088333333,22.957542416666666
567,4.724810999999932,18.32752164333333,17.546534853333334,-28.604598999999997,-3.4871672786666665,-2.9667077066666665,13.47856585,105.3983663,-34.481501259999995,19.664672216666663
568,4.733143999999925,19.15771866,17.167731603333333,-28.568707799999995,-1.477091988,-3.236241579,10.090097429333333,97.60183969333333,-42.128055573333334,18.25225512
569,4.741476999999918,19.92011451666667,16.825361886666666,-28.533579533333338,-4.234470208333334,-2.7718506653333335,12.198652267999998,89.53014882333332,-37.77178319333333,17.316075639999998
570,4.749809999999911,20.609690983333333,16.48299662333333,-28.519015,-1.3896813243333337,-2.6476385593333336,11.097014109666667,81.54049428333333,-38.382265723333326,15.488431296666667
571,4.7581429999999045,21.205613456666665,16.170347213333333,-28.520174666666662,-5.169504960333334,-3.7357780139999996,11.331335386333334,70.83200835999999,-35.50689442666667,13.012775103333334
572,4.766475999999898,21.705393473333334,15.857132273333333,-28.534846000000005,-0.8221474189999999,-3.428859869666667,9.809837340333333,59.76140213,-36.03301874666666,11.82217916
573,4.774809000000005,22.153634389999997,15.62167136,-28.545672066666665,-6.970713456666666,-1.9020879266666666,10.726474445,53.43464788,-27.099795659999998,9.098585607
574,4.783141999999998,22.548667906666665,15.388878183333333,-28.543373100000007,-0.6434379419999999,-2.400298675,10.602468016,46.619038903333326,-26.142016093333336,10.572674433666666
575,4.791474999999991,22.85635503,15.23527336,-28.555274933333333,-6.237184206666666,-4.095914681666667,10.292283057666666,36.59074656333334,-17.954589526666666,5.567582686333334
576,4.7998079999999845,23.101102830000002,15.03199323,-28.548507700000002,0.33813591800000004,-1.9880970519999999,11.828904151333333,28.440560660000003,-22.56038348,9.947637556333333
577,4.808140999999978,23.295106886666662,14.971740723333333,-28.53435263333333,-8.049844424,-1.6818419396666666,10.301556905,22.136750536666668,-6.416471481333333,4.0632861453333335
578,4.816473999999971,23.449756623333332,14.871352833333333,-28.483556133333337,0.3603646356666667,-2.2163297136666666,10.233937896999999,16.270248096666666,-9.124861081333334,9.917250635666667
579,4.824806999999964,23.54420408,14.834028563333334,-28.44971976666666,-4.492708683,-2.2216471036666667,10.248836519000001,9.581990559666666,-2.953991244333333,5.102769693
580,4.833139999999958,23.606982549999998,14.744347253333332,-28.406392400000005,-1.9785466196666668,-1.3647202653333332,7.7345040633333335,5.490706443666667,-8.259896273,8.623404502666668
581,4.841472999999951,23.65279452,14.79438432,-28.32671356666667,-4.312002937333333,-0.82875972,9.063324292666666,2.3522494633333335,8.798698903666667,5.7907679876666664
582,4.849805999999944,23.66635577,14.772179606666668,-28.250704466666672,-2.708371361333334,-1.6060819626666667,10.635688780666667,-1.3996942436666666,0.6759768326666667,8.835584322333334
583,4.858138999999937,23.65373293333333,14.839724859999999,-28.165339166666666,-2.367598921,-1.8909777003333332,9.322782677333334,-4.817474762333333,10.945275307333333,5.434824466666666
584,4.866471999999931,23.648584999999997,14.853179930000001,-28.074256899999995,-3.7293522356666666,-0.4436294363333333,11.068816185000001,-4.0988500913333334,5.265241464,8.646115938666666
585,4.874804999999924,23.65689087,14.970526056666666,-27.950246200000006,-1.7263462046666669,0.43189306066666666,11.167791208666666,-3.5127160093333334,18.211973826666668,7.131850719333333
586,4.883137999999917,23.655479433333337,14.999036786666666,-27.869628899999995,-2.2951432066666664,-1.325807929,11.45945358,-3.3478196066666666,6.432174931,6.820845126999999
587,4.89147099999991,23.665885290000002,15.05811087,-27.7584076,-0.5733606416666667,-0.918424785,7.736039957,-2.8985245229999994,11.218102455999999,8.592531839666668
588,4.899803999999904,23.672220866666667,15.075811703333335,-27.7184321,-3.940626661,-0.019793261999999978,9.411643345333333,-1.1644786396666669,3.3547950786666667,3.0063474180000003
589,4.908136999999897,23.71288808,15.1611077,-27.5905787,-1.4878370176666664,-0.77100873,10.545907341000001,0.21031451233333343,14.858192123333334,9.045587063000001
590,4.916470000000004,23.731839500000003,15.173105876666668,-27.56049093333333,-3.0483162800000003,-0.42052801433333337,11.407066980666665,0.6439120770000001,2.2866851489999998,2.2718159456666664
591,4.924802999999997,23.779879249999997,15.21965313,-27.466171266666663,-0.7022704086666667,-0.10277669133333334,10.074804305333334,2.1282188100000003,9.046624659333334,7.349288622666666
592,4.93313599999999,23.829233806666668,15.169644673333332,-27.463676466666673,-2.497985824666667,-0.6822911453333335,9.547593911666667,5.164325396,-5.818082015000001,2.3118385076666668
593,4.941468999999984,23.91262881,15.190257073333333,-27.392127999999996,-2.4563190390000003,0.21421671899999997,11.906968117666667,7.0913151113333335,5.151531458,6.1814199290000005
594,4.949801999999977,23.991358443333336,15.175383886666665,-27.373329166666664,-2.823856195,0.09179028366666665,9.952215989333334,8.163552601666666,-1.1654565929999998,2.4077085256666666
595,4.95813499999997,24.09052658,15.157938956666667,-27.329099,-1.0649798513333335,-1.038838306,11.510220847333335,9.819240253,-0.25374327066666674,5.2185723783333335
596,4.966467999999964,24.180601120000002,15.081773440000001,-27.343149799999992,-2.333874186,-0.7674474516666666,9.340926170333333,10.555845897,-9.421941439,1.94938457
597,4.974800999999957,24.27277565,15.016872723333334,-27.347005199999998,-1.0873958666666665,-0.8110545973333334,8.597843488,10.488198282333334,-7.713224093333333,2.4701218603333333
598,4.98313399999995,24.372302376666667,14.920428596666667,-27.384213766666665,-3.3827880523333334,-0.30672403666666664,10.768148103333331,12.408568385,-12.742207206666668,0.526846538
599,4.991466999999943,24.467498146666667,14.858532903333334,-27.400451666666665,-1.9486960770000001,-0.34599700066666667,11.631803354,11.229474703666668,-7.962169329333332,1.0485829313333335
600,4.9997999999999365,24.544532776666667,14.778844516666666,-27.4616165,-3.1590054829999996,-0.481219391,11.366497042,10.427665392333333,-12.051074662333335,-2.762427568333333
601,5.00813299999993,24.62915611,14.712352753333334,-27.472290033333337,-1.5071562726666665,-1.0724318723333333,12.285692851666667,9.782850582333333,-8.186686197,1.9076332049999998
602,5.016465999999923,24.69662157666667,14.602473576666668,-27.563308699999997,-2.7785542013333333,-1.3523407776666667,9.843346596666667,10.161303201,-16.79534562666667,-4.38047115
603,5.024798999999916,24.769046783333334,14.527168593333334,-27.586265566666665,-2.3037053346666667,-1.3768394590000002,9.010152657666668,8.691215037666668,-9.750171978333332,1.051558415
604,5.03313199999991,24.82692655,14.445209186666666,-27.658040366666665,-3.2542108296666665,0.42105516933333337,10.734590533333332,8.422051746666666,-12.850809413333332,-3.7774645286666666
605,5.041464999999903,24.890141806666666,14.401065506666667,-27.684242266666672,-3.6394143700000003,-0.7844317953333334,11.212839446333334,7.675011476000001,-6.507459163666667,-0.8395323156666666
606,5.049797999999896,24.913090386666667,14.337863919999998,-27.733050000000006,-1.573685,-0.7110739646666667,10.349160830666667,3.528510709666667,-9.695467313,-2.2803973183333333
607,5.058131000000003,24.92735354,14.320516586666669,-27.763000500000004,-3.744158029333333,-1.9401331346666666,10.375424066666667,1.905396034,-3.7729602653333334,-2.575118720666667
608,5.066463999999996,24.922988256666667,14.291950226666666,-27.8030497,-2.2797768216666667,-1.492790262,9.912395158999999,-0.019552223333333396,-5.493793219666667,-3.101107160333333
609,5.07479699999999,24.916240056666666,14.296398166666668,-27.840057366666667,-3.6615507599999995,-0.509974482,9.561049460666666,-0.3911164996666667,-1.7761721609999999,-4.490900834333334
610,5.083129999999983,24.90307935,14.335382776666668,-27.847277300000002,-3.010068059,-0.44729106700000004,9.588526088333333,-2.0351576806666665,3.4577167826666666,-3.0625404913333334
611,5.091462999999976,24.889771139999997,14.396941183333333,-27.872975633333336,-3.672687133,-0.7674170733333333,11.15978813,-1.4872179626666666,4.963352044333333,-6.255509058666667
612,5.099795999999969,24.863271076666667,14.432418823333334,-27.893592833333333,-1.9255535206666667,-1.1499893666666667,11.638049759333335,-3.2191160520000004,2.3894840083333335,-4.366924285666666
613,5.108128999999963,24.782847086666663,14.468969346666668,-27.934204100000006,-1.8639084696666668,-1.3798654476666667,9.937041441666667,-9.096106845333333,1.523684283,-6.553270180999999
614,5.116461999999956,24.67447408,14.547570226666666,-27.980107633333333,-3.6127034823333335,-1.3829855223333334,10.398620287333333,-12.28846423,5.891996383666666,-9.147398630666666
615,5.124794999999949,24.543999353333334,14.637896536666666,-28.005109133333338,-2.482602318,-1.2652714646666665,9.658479531666666,-15.561974843333333,8.173953375,-7.573849837
616,5.133127999999942,24.337046303333334,14.75484721,-28.07322946666667,-3.6021444799999998,-2.0624754823333333,11.311958633666668,-23.41878891,9.054831663333333,-13.378060023333333
617,5.141460999999936,24.042965569999996,14.883226713333334,-28.123374933333334,-1.0591833876666665,-4.026912291666666,9.703162192666667,-34.405459083333334,11.188153745000001,-12.057882308666668
618,5.149793999999929,23.657892226666664,14.965800923333333,-28.247311899999996,-2.9415935676666667,-1.8044141529999997,8.480644225,-43.04641215,2.8025583039999997,-17.521647453333333
619,5.158126999999922,23.194026946666668,15.15733846,-28.30812323333333,-3.0111754336666667,-3.5654074350000005,11.825649893333335,-54.40897369333334,17.808321633333335,-16.048006693333335
620,5.166459999999916,22.60070101333333,15.257932983333333,-28.467168166666667,-1.7831128439999997,-4.055989742333334,9.255129021,-66.86174774,3.500093897333333,-22.045677819999998
621,5.174792999999909,21.89774704,15.388483366666668,-28.596633933333333,-3.4479673106666664,-2.3907090823333332,10.227240046333334,-80.91446431333333,8.376560053333334,-20.187454860000003
622,5.183125999999902,21.123091379999998,15.577222823333335,-28.743601500000008,-3.286428528,-2.4565643473333334,12.488294918,-88.94056193,14.414990743333334,-24.41291936
623,5.191458999999895,20.2452844,15.721124646666667,-28.901468933333337,-1.9824595450000002,-4.205413421,9.241773009000001,-100.87411245333334,9.247295855333332,-23.626572290000002
624,5.199792000000002,19.268031436666664,15.852001190000001,-29.07029726666666,-3.388239105666667,-0.9943516156666666,8.634550572666667,-112.45732623333333,7.762975691,-23.942284266666665
625,5.208124999999996,18.26353264,16.10582383666667,-29.2010854,-4.349227627333334,-2.4676154653333335,12.267169633999998,-116.93817646666668,23.619061786666666,-24.258494693333336
626,5.216457999999989,17.182401656666666,16.214963276666666,-29.356246933333335,-0.7151807946666667,-2.8340701263333337,7.360482294333334,-125.27309673333333,6.614969770333334,-21.27512741
627,5.224790999999982,15.986103693333334,16.43928687,-29.517776499999997,-4.740175962333333,-2.3557578723333337,8.788926721666668,-138.77398683333334,20.058238346666666,-25.87355232333333
628,5.233123999999975,14.809565223333335,16.652867636666667,-29.6151911,-3.093811353333333,-0.9596350193333333,15.371466316666668,-138.5657654,21.314709983333334,-17.862435343333335
629,5.2414569999999685,13.497943556666668,16.83863703333333,-29.798194866666666,-0.7075085246666669,-2.360528181,6.1426661823333335,-151.7688497,16.077465693333334,-26.124574659999997
630,5.249789999999962,12.161264103333332,17.02210299,-29.92598723333334,-3.8594288826666663,-1.4494402806666669,7.790298540666666,-156.67605083333333,17.797155380000003,-19.344923653333336
631,5.258122999999955,10.818805376666667,17.288232803333333,-30.10524496666667,-2.8204867416666666,-1.9968068996666666,12.634292762666666,-155.4817148666667,26.833768526666663,-26.675786336666665
632,5.266455999999948,9.383048693333334,17.345982866666663,-30.268575033333335,0.06906141833333324,0.5450809796666667,7.451503990666667,-167.18315633333333,3.1067262693333326,-19.848083496666664
633,5.2747889999999416,7.935671170666666,17.65739377,-30.508773833333336,-6.059575120333332,-2.151959987666667,11.717225390333335,-165.75863646666667,32.427626929999995,-32.92219289
634,5.283121999999935,6.48705705,17.724393843333335,-30.66653696666667,1.7644510266666666,-1.4526549876666668,10.185888388333332,-168.81066893333335,5.289108116,-19.123282113333335
635,5.291454999999928,4.950651168666667,17.872080483333335,-30.969571466666668,-5.765392254000001,0.7049104870000001,7.785972642666667,-174.0061849,13.784495829666668,-36.299653373333335
636,5.299787999999921,3.481512308333333,18.061965940000004,-31.123382599999996,0.4047777253333331,-1.9433160226666668,11.132215681333335,-171.32463073333335,21.013583183333335,-19.421850206666665
637,5.308120999999915,1.9334957993333333,18.051876066666665,-31.464220666666673,-2.7776064873333333,-2.6112418573333334,6.1190668530000005,-173.87193806666664,-3.4604689286666663,-38.800059000000005
638,5.316453999999908,0.43528058366666667,18.157091776666665,-31.630338,-2.755643526666667,1.8464865489999998,13.657681784,-174.2866974,11.810189244666667,-19.45190684
639,5.324786999999901,-1.098223627,18.193671546666664,-31.96069846666667,-1.2766236079999997,-1.9351155956666666,11.155411244,-172.4521942,4.167994500333333,-37.705445610000005
640,5.333119999999894,-2.6043512823333335,18.068244933333332,-32.14407346666666,-0.21694384999999997,0.527108838,6.763807377333333,-174.56345113333336,-14.776580770333334,-21.635725023333336
641,5.341453000000001,-4.122170845666667,18.07667923,-32.46038306666667,-4.2120807173333334,-0.3688251326666667,10.756646948000002,-171.1666717666667,2.661174297666666,-36.0211792
642,5.349785999999995,-5.579065640666666,17.88830503,-32.633104966666664,1.2845514416666666,-0.12021651866666667,9.354486305666667,-169.13479103333336,-21.28158569333333,-21.763561883333335
643,5.358118999999988,-7.0524147353333335,17.688951493333334,-32.90959676666667,-3.8250538506666665,1.1941074529999998,9.801066398,-167.46605936666666,-20.78022067,-34.01547940333333
644,5.366451999999981,-8.482554435666666,17.52467537,-33.07869719999999,-1.3968449036666666,-0.10832536199999998,12.146490572666666,-166.29513553333334,-17.392600060000003,-21.723825453333333
645,5.374784999999974,-9.900587401000001,17.238073349999997,-33.31399536666667,-2.2288222313333335,-0.9957967600000001,9.816149394333333,-162.428421,-30.09650103,-32.414252596666664
646,5.383117999999968,-11.281281156666667,16.931412376666668,-33.455963100000005,-1.6665062409999998,1.311815006,10.059931435000001,-161.50043236666667,-33.679885230000004,-22.559267043333335
647,5.391450999999961,-12.660022733333333,16.634860676666666,-33.65513103333334,-3.4313166936666666,-0.41549481933333327,8.337049484333333,-159.23849489999998,-30.519527433333334,-30.09669494666667
648,5.399783999999954,-13.93430646,16.332222299999998,-33.77553306666667,-2.6349747576666664,1.1776286563333336,12.651536942666667,-149.6240285,-32.67191060333334,-21.72562917
649,5.408116999999947,-15.211853026666667,15.945899963333334,-33.91718036666666,-1.2865968546666666,1.5151218173333334,10.900825340333334,-149.27797446666668,-41.207368216666666,-27.794210433333333
650,5.416449999999941,-16.44739469,15.57055346,-33.990000433333336,-2.6376191773333333,-1.552887956,11.761759439,-146.6826884,-41.57324854666667,-20.3076121
651,5.424782999999934,-17.62156613666667,15.19250075,-34.082784033333326,-2.725929737,2.1782447499999997,10.092874207666666,-138.64154053333334,-40.67888133,-23.872987746666666
652,5.433115999999927,-18.726601283333334,14.804059663333334,-34.1187083,-3.117341200333333,2.2427739300000002,11.291774112666666,-132.26032766666665,-43.53173446666667,-18.420334179999998
