,time,Euler_X,Euler_Y,Euler_Z,Acc_X,Acc_Y,Acc_Z,Gyr_X,Gyr_Y,Gyr_Z
0,0.0,-25.331486705000003,6.2195887565,-136.80709455,-1.9002505395,-1.164462447,5.368339062,16.094078064999998,4.8277640349999995,1.7760343255
1,0.0041664999999966,-25.141306880000002,6.2789127825,-136.81044005,-1.458521247,0.16374014299999998,14.80958414,22.300951005,5.9568625675,2.1190348265
2,0.00833299999999325,-24.935119625,6.3334558009999995,-136.79688265,-1.9957731365,-0.41458737849999994,4.6489447355,24.212560654999997,4.6478204729999995,3.718433559
3,0.01249949999998985,-24.690734865,6.379102707,-136.7799759,-1.2091645305,-0.9779720905,14.732258795,28.655898094999998,4.10685599,2.218476236
4,0.0166659999999865,-24.398262975,6.4067440035,-136.755455,-2.192744732,-0.724388987,9.333600042,33.950748445,1.085294245,3.407299399
5,0.02083249999998315,-24.09575081,6.444639921,-136.74071505,-1.0535499750000001,-1.2366857455,7.8941326145,35.96600342,2.8914828299999993,3.0411627885000003
6,0.02499899999997975,-23.741600035,6.4716546535,-136.70558165,-1.801586747,0.2529564425,13.823219775,41.717624665,0.6699519149999995,4.6304920915
7,0.0291654999999764,-23.355312345,6.4581010345,-136.6607742,-0.30159676050000006,-0.791986376,4.492990017,45.293125155,-3.6713451145000002,2.295852721
8,0.03333199999997305,-22.927860260000003,6.4525916575,-136.60919570000001,-3.0192923845000004,0.2208485905,15.961110115,50.271169665,-3.602330491,4.8622459175
9,0.03749849999996965,-22.43554878,6.4128391745,-136.55875014999998,-0.1534671780000001,-1.7250428199999999,8.501653909,57.952697755,-6.8133388155,1.8063913955
10,0.0416649999999663,-21.91981125,6.377730846,-136.50583269999998,-2.7911068205,0.5367225705,7.711655855,60.828836445,-6.862410186499999,3.729810655
11,0.0458314999999629,-21.345886229999998,6.2998452185,-136.44734575,0.21695098300000004,-1.28925471,12.776093005,67.656681065,-11.3715374545,1.1089019475
12,0.04999799999995955,-20.74148846,6.213859557999999,-136.36972805,-2.5328309535,0.2459706365,5.966107129999999,71.169834135,-13.526727916999999,4.3951482775
13,0.0541644999999562,-20.093958855,6.088126421,-136.32572174999999,0.36467850200000007,-0.28175571599999993,17.095035555000003,76.53298950499999,-16.630421877499998,-0.8759415150000001
14,0.0583309999999528,-19.39663887,5.930696726,-136.2378845,-1.9739241749999998,-1.2936047915,6.4730780125,82.24879074500001,-21.895271299999997,2.9478773475000004
15,0.06249749999994945,-18.649406435000003,5.746210575,-136.17884444999999,-0.7573959680000001,-0.060784920999999964,14.160333635,88.30760956,-23.883880615,-1.0875051915
16,0.0666639999999461,-17.858340265,5.553655624499999,-136.0695915,-1.9749848545000002,-0.5945337195,7.2919795515,92.77926636000001,-26.715809825,4.504979968000001
17,0.0708304999999427,-17.04205513,5.3286581040000005,-135.9928398,-1.320038587,-0.109502062,11.561057564999999,96.98173523,-29.0431509,0.20280236000000007
18,0.07499699999993935,-16.15331268,5.0807943345,-135.89360805,-1.0952200595,-0.1479651925,14.327965735,105.28642654999999,-32.453176495,2.3185553555
19,0.079163499999936,-15.21167612,4.8087637425,-135.80222705,-1.1241352150000001,-0.717384644,8.622303486,111.38820645000001,-35.047335625,1.1596471369999999
20,0.0833299999999326,-14.22429466,4.535112380999999,-135.69767000000002,-1.6434998515,-0.5395593045,10.7029299745,117.17293169999999,-35.49892044,3.1987040044999997
21,0.08749649999992926,-13.194040775,4.211458802,-135.6070213,-0.9829687475,-0.133405108,8.0668005945,122.2488098,-40.636953355,-0.5605750085000001
22,0.09166299999992585,-12.1044116,3.8867999315,-135.5083084,-1.1119686295000002,0.5029025675000001,12.809408664,129.63121795,-41.157045365,2.4067846535
23,0.0958294999999225,-10.962248800000001,3.5435855385,-135.41473009999999,-1.805258572,-1.317235917,11.187953472499998,135.7833099,-42.971685410000006,0.822194457
24,0.0999960000000328,-9.7694740295,3.194140911,-135.33266445,-1.9334093925000002,0.2507164775,10.496135233,142.2624817,-43.58115578,1.5249285700000001
25,0.10416250000002945,-8.5189709665,2.865745425,-135.2725067,-2.7058986425000002,-0.274556279,12.5460391035,149.02494810000002,-40.723762515000004,0.3757378755
26,0.1083290000000261,-7.2320005895,2.548797488,-135.19597625,-1.8087005020000002,-1.3096774815,13.792281630000002,153.725914,-39.49774361,3.2727136615
27,0.1124955000000227,-5.8811860085,2.2079687715,-135.13051225,-1.5462733505,0.05014371850000002,11.942162514,161.1734848,-42.049526215,1.293194562
28,0.11666200000001935,-4.5096116065,1.8965359925,-135.08742905,-2.1483464245,-2.5220999715,8.6086947915,164.12615964999998,-38.258729935000005,1.1255747375
29,0.12082850000001595,-3.1245337725,1.5795865655,-135.03059005,-1.306717694,-0.236321412,11.858121875,165.38467409999998,-38.996492384999996,2.493755609
30,0.1249950000000126,-1.724575877,1.2530646920000001,-135.0099869,-1.6412568689999998,-2.0397610965,11.231531141000001,167.67490385,-39.830472945,0.21501201399999997
31,0.12916150000000926,-0.333014637,0.9350000620000001,-134.96982574999998,-2.0403182804999997,-2.064828813,8.046822548000002,166.26734925,-38.907663345,2.3464294375
32,0.1333280000000059,1.0926238295,0.6216668185,-134.96366885,-1.6609166860000002,-1.596216798,16.70006132,170.81479645000002,-38.181596755,0.357168518
33,0.1374945000000025,2.535209775,0.32762689899999997,-134.95129774999998,-2.346756816,-2.3330245020000002,13.925273895,172.4573059,-35.94848442,1.0289263425000001
34,0.14166099999999915,3.9323198795,0.04366824050000001,-134.9694824,-0.758578092,-1.521186352,8.5654511435,167.43111420000002,-34.737725255,-0.934009224
35,0.14582749999999575,5.313133955,-0.22652056800000003,-135.00126649999999,-2.2303444745,-2.9890043139999998,11.496935369500001,165.03904725,-33.41722107,-2.7679110765
36,0.1499939999999924,6.6424121855,-0.464653026,-135.04553225,-1.5526759625,-3.3103790285,6.1607882975,159.2624588,-29.580377579999997,-2.9844918255
37,0.15416049999998904,7.9385955335,-0.666987717,-135.1247368,-3.8292770684999997,-3.2723863125,17.532994275,154.80460355,-26.112114905,-7.717128992
38,0.15832699999998565,9.169643879,-0.842808396,-135.18506625,0.380161345,-3.103518009,6.266663790000001,147.4187317,-22.558008190000002,-4.6741576195
39,0.1624934999999823,10.331078049999999,-0.991161704,-135.2645416,-4.243461251,-4.1224558355,12.08158207,138.5970688,-20.04693699,-7.871704101500001
40,0.1666599999999789,11.409339905,-1.11371097,-135.30364225,-0.345513344,-2.4296587704999997,3.721331358,129.11580659999998,-15.950453280000001,-2.5026452690000003
41,0.17082649999997554,12.41729784,-1.1829600035,-135.3472023,-4.059576035,-3.009434223,15.73514128,120.2337227,-10.1369676575,-4.8234772685
42,0.1749929999999722,13.36240673,-1.2528637055,-135.35147855,-0.7449236515000001,-4.9355580805,13.592024805000001,113.2157288,-8.924307821500001,0.7286771535000001
43,0.1791594999999688,14.222323895,-1.23315537,-135.36123655,-3.9125834705000004,-2.208346009,10.475134375,102.56523895000001,1.074934244,-3.0125882625
44,0.18332599999996546,14.979997635,-1.226114333,-135.34429169999999,-0.6923330725000001,-4.327773093999999,6.420982716499999,90.79157257,0.6866647005,1.096860707
45,0.1874924999999621,15.65155077,-1.1831324104999998,-135.33313364999998,-0.47477531399999995,-3.966592908,5.0956794025,80.055332185,4.371347191,-1.3429876565
46,0.1916589999999587,16.24555111,-1.165323496,-135.3075523,-2.540100485,-0.687869281,10.209468125499999,71.16924286,2.252813339,1.725901462
47,0.19582549999995535,16.779499055000002,-1.099105239,-135.2822075,-0.48212563649999995,-5.52175951,12.981032850999998,63.5723629,7.448833344500001,-0.7611040714999999
48,0.19999199999995196,17.23189163,-1.0338023605000002,-135.2242355,-2.389811754,-0.8873476385000001,10.9291839625,54.276628495,8.877988577,3.7029128075
49,0.2041584999999486,17.603355405000002,-0.9103999735,-135.1852455,-0.7686671015000001,-3.475222707,5.345605493,44.120166775,14.48294306,-1.3840804695000002
50,0.20832499999994525,17.90254307,-0.8662009835,-135.11429594999998,0.7525435535,-3.308610678,4.146271348,35.896852495000005,6.9978883265,5.849318981
51,0.21249149999994185,18.163071629999997,-0.7796654105,-135.04944989999998,-2.2839644255,-0.41488440699999996,15.614415170000001,30.863794325,11.21390414,2.753565073
52,0.2166579999999385,18.3842268,-0.7424673585,-134.99176785,-0.38714605550000003,-3.320958376,10.88869858,26.468071934999998,5.759301422,4.559612512499999
53,0.22082449999993514,18.57096672,-0.6922623365,-134.91633225,0.0019902884999999926,-0.8374793455,8.408877848500001,22.053977009999997,7.5533363824999995,5.3758864405
54,0.22499099999993175,18.705339430000002,-0.6524779645000001,-134.8850327,-1.721982658,-1.5304557609999998,7.0177021045,16.01412201,5.0718400475,1.4048581125
55,0.2291574999999284,18.814593315,-0.644801125,-134.8232956,2.9661248625,-1.2568568885,4.3249501585,12.7512261845,2.189008715,5.3200721745
56,0.233323999999925,18.94981575,-0.643500984,-134.826149,-4.5863655805,-0.7854817900000001,13.8400688165,16.07406807,-0.6158900249999997,-1.0072223544999999
57,0.23749049999992164,19.094799995000002,-0.675726816,-134.80966189999998,3.9644476175,-0.37990498550000007,9.4665299665,16.97092104,-4.100871442000001,1.688240979
58,0.24165700000003196,19.269218445,-0.7190736085,-134.83359910000001,-4.41923821,0.34894279899999997,13.829416275,20.764166355,-6.490360857000001,-1.5860984175000001
59,0.2458235000000286,19.464625355,-0.7754480539999999,-134.8598404,2.978171349,0.8047238290000001,7.8396183245,22.969991685,-8.520394029,-2.1663314105
60,0.24999000000002525,19.670586585000002,-0.8271237615,-134.87625500000001,-2.747864395,-0.1593101475,8.586155296,24.570533755,-7.142174721,-0.382023774
61,0.2541565000000219,19.93817997,-0.9392166735,-134.93513105,0.11529397949999987,0.076525178,11.0349590795,31.565197944999998,-16.0825633985,-3.3294433355
62,0.2583230000000185,20.244433405000002,-1.0278068485,-134.97180935,-0.16413491950000003,0.1589740515,11.133248093,36.555908205,-12.146662712,-1.1031299825
63,0.26248950000001514,20.58706856,-1.202980578,-135.0485306,-0.5016593935,0.7314614655,11.50671482,40.52777481,-23.939694404999997,-2.4910149275
64,0.2666560000000118,20.94144726,-1.2629586455,-135.09895705,-1.2166255714999998,-0.7988289445,6.292072773,42.28565407000001,-9.512969852,-3.6929579675
65,0.2708225000000084,21.32166195,-1.4432792665,-135.17918395,-0.7768915889999999,-0.258007318,14.421169755000001,44.97765541,-24.69692516,-2.3767417670000004
66,0.27498900000000503,21.707626345,-1.5249394175,-135.24998855,-0.9210550190000001,-0.12763136649999995,9.110974312,45.991182325,-12.8729724885,-4.898194909
67,0.27915550000000167,22.098683360000003,-1.6931298375,-135.33105465,-1.215496957,-1.190085277,9.562829497,46.249380110000004,-23.45120716,-2.78615595
68,0.2833219999999983,22.455351829999998,-1.7733326555,-135.40699765,-0.35776662800000003,-1.500066042,8.8769516925,42.439094545,-12.984307525,-5.3378691675
69,0.28748849999999493,22.829953195,-1.9143089055,-135.4812355,-2.6774802209999997,-1.2640873195,13.85627365,44.239688875,-20.158828975,-2.9778969885
70,0.29165499999999156,23.157888415,-1.9904851315,-135.5433006,0.3227070569999997,-0.6266694665,5.2438919545000005,39.04000282,-11.9369727385,-3.8256901505
71,0.2958214999999882,23.4665699,-2.0895720124999997,-135.6089249,-2.8368899225,-1.3579132555,15.030387404999999,36.3712883,-15.1832041745,-3.8447782995
72,0.2999879999999848,23.744769095000002,-2.137992799,-135.64525225,0.7290407415,-1.7294920089999999,0.5441391465,33.146928790000004,-7.6895153505,-2.2042094465
73,0.30415449999998145,23.98704815,-2.181275904,-135.6925659,-4.5161286595,-0.139589027,15.76621771,28.50227642,-8.166836739,-4.3272849325
74,0.3083209999999781,24.22500515,-2.2198479769999997,-135.7119827,1.7308153510000002,-1.7612090710000001,11.584743974,28.351377485,-5.822606801999999,-0.8030773699999999
75,0.3124874999999747,24.41186428,-2.2087628845,-135.7317543,-4.9364396335,-1.5838740470000001,7.8109905725,22.0268383,-0.8860602349999995,-3.9277721640000003
76,0.31665399999997135,24.59083271,-2.1680243015,-135.70897675,1.486001447,-0.6903335454999999,14.753215789999999,21.473314285,4.950619696,-0.07786738849999997
77,0.320820499999968,24.73420048,-2.142555058,-135.68172455,-4.310711861,-1.1532626155,3.6777970790000003,17.003195285,2.9641243815,0.399178982
78,0.3249869999999646,24.861198424999998,-2.0591577885,-135.64546205,0.29156362700000005,-1.7556848820000002,10.550450327,15.32963228,10.262482763,-0.837688804
79,0.32915349999996124,24.954452515,-2.0177519325,-135.575779,-1.1018883585,0.301800132,10.358768939499999,11.168813225000001,6.8583853415,4.2388685939999995
80,0.33331999999995787,25.024514195000002,-1.8836901785,-135.5377159,-2.9165531995,-2.475082159,3.883279979,8.5071179885,15.878848076,-3.2188651559999997
81,0.3374864999999545,25.120085715000002,-1.8170309665,-135.45391845,1.8475409745,0.7648647344999999,18.1203866,11.488641738,10.3816075325,4.568389654000001
82,0.34165299999995113,25.207247735,-1.7081696984999999,-135.44042205,-3.6852651835,0.0837604105,7.1076364519999995,10.4395647035,11.867803096,-4.665090084
83,0.34581949999994777,25.309653285,-1.618758261,-135.36911775,2.559177339,-1.128040686,10.720064161,12.2893962885,12.219105535999999,1.9681598545
84,0.3499859999999444,25.437303545,-1.5101386905,-135.34480285,-2.892579675,0.817279756,12.527723309999999,15.302757265,12.387012361499998,-3.4960124495000002
85,0.35415249999994103,25.59766197,-1.456023872,-135.3107071,1.293536842,0.60448166,7.0792684555,19.12022305,6.485632897499999,-0.2871614545
86,0.35831899999993766,25.766112325,-1.386799216,-135.3064537,-1.3474133015,-2.1725003715,15.554269315,20.13519573,7.068888662500001,-3.6838800904999998
87,0.3624854999999343,25.932624815,-1.385335028,-135.3054428,1.0926891565,1.5520036815,2.4334570170000003,19.778277395,-0.9513392450000007,-1.1843260304999998
88,0.3666519999999309,26.138422965,-1.3089922665,-135.2979393,-2.7884181144999998,0.843127802,15.971924305000002,24.64182568,8.0572646855,-3.6229116919999997
89,0.37081849999992755,26.370185855000003,-1.3558849395,-135.325695,2.178765714,-2.1962866785,9.663523674,27.50274563,-7.6588563899999995,-1.6234116365
90,0.3749849999999242,26.63547516,-1.3142020104999999,-135.35232159999998,-2.8164005875,0.8745482565,12.206465245,31.72286415,2.4098744415,-5.677132249
91,0.3791514999999208,26.910287859999997,-1.3739688995,-135.3863907,1.740578771,1.0926884415,9.0446801195,32.659753795,-9.3820712555,-1.5189638730000001
92,0.38331800000003113,27.156482695,-1.379408419,-135.432518,-2.1600731615,-2.498269856,6.702274084000001,29.377040864999998,-3.6668022894999996,-5.072147608
93,0.38748450000002777,27.433573725000002,-1.4587738515,-135.47196575,-0.4747561214999998,0.4658348035,15.651706215,32.935383795,-11.7326421715,-0.858262718
94,0.3916510000000244,27.69002056,-1.470694959,-135.4992256,-1.2230104805,-1.140142411,7.523939608999999,30.637161255,-3.3558772805,-2.6665469705
95,0.395817500000021,27.919865605,-1.5717856289999999,-135.53738785,0.22662520399999986,-0.9055117589999999,12.235620023,27.308370590000003,-14.006350515000001,0.5106389520000001
96,0.39998400000001766,28.14080048,-1.565074086,-135.55783459999998,-2.1555951835,-1.091370821,7.417225599,26.37108421,-1.0776565075,-3.079518899
97,0.4041505000000143,28.31745052,-1.682986498,-135.59884645,-0.1992812159999997,-2.474555969,13.4331178655,20.90904331,-15.95204401,1.24958539
98,0.4083170000000109,28.454904555,-1.6902832385000002,-135.62265395,-1.534120172,-0.530519076,10.5779347395,16.366521355,-2.7634953485,-2.646047264
99,0.41248350000000755,28.545708655,-1.7555536625,-135.64880375,-1.4896732270000002,-1.8124217395,6.8706493375,10.666934490500001,-9.5681862835,-0.16514146349999992
100,0.4166500000000042,28.592587469999998,-1.7486677765,-135.6592941,0.5172398089999999,-2.2095905545,11.841259957,5.515872836,-0.512125492,-2.0360888765
101,0.4208165000000008,28.606987,-1.830728948,-135.6936226,-3.6725780665,-1.4374572335,10.7829689965,1.4910688104999998,-11.811468125000001,-0.05103003950000007
102,0.42498299999999745,28.590707780000002,-1.797036588,-135.6941109,1.659021616,-0.577899065,7.5312919615,-1.999940336,2.900152445,-2.509087026
103,0.4291494999999941,28.506074905,-1.8552895184999998,-135.70618055,-3.188547373,-2.652611196,10.822393895000001,-10.2943549175,-8.044106008,0.8923359515
104,0.4333159999999907,28.432474135,-1.8562226295,-135.7142677,1.5794139805,-0.19083064800000002,12.613771915000001,-8.925236224999999,-1.2330949310000001,-1.4134000690000001
105,0.43748249999998734,28.3054142,-1.9043687585,-135.73323440000001,-4.1492866875,-0.2423594745,12.423563485,-15.405242920000001,-7.378239392999999,-0.42432558550000005
106,0.44164899999998397,28.17407227,-1.9067912105,-135.73295209999998,3.1470135455,-2.599437356,10.935069800499999,-15.781183245000001,-0.8056066034999998,-0.26464629200000006
107,0.4458154999999806,28.038308145000002,-1.939477563,-135.73106,-4.9857804775000005,0.629267767,8.509268997,-16.38292217,-4.579564572500001,0.8607348055
108,0.44998199999997723,27.864395145000003,-1.944500804,-135.7550545,2.378636539,-0.5266880225,12.76745558,-20.9901104,-2.445109859,-2.6887848375
109,0.4541484999999738,27.67132187,-1.948790014,-135.72995759999998,-3.315588236,-2.948483944,7.734356048,-23.117758755,-0.27549433700000003,1.70659402
110,0.4583149999999705,27.47831154,-1.9318035245,-135.73559955,0.09940348549999997,-0.27310639600000003,10.3857188235,-23.238385205,0.8077533245000001,-2.2003023625
111,0.4624814999999672,27.216753005,-1.9109830259999998,-135.7216072,-3.120145023,-1.264914751,13.09523821,-31.372157095,1.7793393135,-0.8370996865
112,0.4666479999999638,26.947520255,-1.8666239975,-135.72008515,0.249009669,-2.6404109,7.7001140105,-32.320770265,4.1400188195,-2.9263201954999998
113,0.4708144999999604,26.65738678,-1.8051778079999998,-135.67871474999998,-2.559155524,1.0643101035,9.969325781,-34.698101045,7.626290145,-0.048225250500000004
114,0.474980999999957,26.329125405,-1.763932407,-135.6738167,-0.20654767749999992,-1.9430455115,12.896301265,-39.395177845,4.1300771235,-2.111672461
115,0.4791474999999536,26.003185275,-1.705388248,-135.62802125,-0.6017333864999999,-1.0346681775,7.94884324,-38.94470978,7.564930675499999,0.7126469015000001
116,0.4833139999999503,25.672213555,-1.6535487175,-135.593853,-1.5645102265,-0.007518395999999983,9.013766526,-39.63671112,6.757455008,0.41683369849999996
117,0.4874804999999469,25.320537565000002,-1.623949766,-135.5579071,0.575550944,-0.896427717,12.15329027,-42.066898345,3.8706246015000003,1.1661086680000001
118,0.4916469999999436,24.95353699,-1.588284254,-135.5462227,-1.3376984594999999,-1.032803178,9.711899758,-44.02515793,3.838324547,-1.1298843619999999
119,0.4958134999999402,24.60186291,-1.566502094,-135.5191574,-0.29802436,-0.19661228349999998,8.768264054,-42.088512425,2.5645907599999997,0.6755700705000001
120,0.4999799999999368,24.2331152,-1.5522547965,-135.5099106,-1.1370792985,0.24522614449999997,15.44272995,-44.264564515000004,1.335400641,-0.38846609
121,0.5041464999999334,23.883215905,-1.5575897694999998,-135.51052475,0.03942154349999999,-1.0397857055,7.609212875499999,-41.933321,-1.7537724380000002,-0.9420680254999999
122,0.50831299999993,23.532124515,-1.544237614,-135.4867592,-1.0719510315,-0.330082089,9.33081436,-42.11334419,1.9379940034999996,1.27806893
123,0.5124794999999267,23.173466685,-1.5731245280000001,-135.4976883,-0.8302244435,0.9327476320000001,12.57284117,-43.00053215,-4.837884374000001,-0.9830568730000001
124,0.5166459999999234,22.826838495,-1.551333487,-135.473217,-0.8525413275,-2.0214779524999997,7.450059654,-41.55821228,2.885550618,0.9972732365000001
125,0.52081249999992,22.4764967,-1.5870529415,-135.4830704,-1.1659907100000002,-0.08292001500000001,11.106149676000001,-42.006675720000004,-5.5372121335,-0.593162261
126,0.5249790000000303,22.097716335,-1.5479236245,-135.46003725,-0.815439105,-0.713956952,8.0773334505,-45.407217025,4.7173664545000005,0.06407469499999996
127,0.5291455000000269,21.75780392,-1.576900065,-135.47994235,-2.2880518435,-0.9887684435,15.03371048,-40.784032825,-5.189017534,-1.9637887330000001
128,0.5333120000000235,21.383567810000002,-1.5327469704999999,-135.45009615,0.4343787430000001,-0.7264864895,7.269011141,-44.837747575,5.581046818499999,0.692340851
129,0.5374785000000202,21.0182085,-1.5590780375,-135.4668579,-2.9228488505000003,0.06438255350000001,11.328235147000001,-43.80622673,-4.736284254000001,-1.7741606835000001
130,0.5416450000000168,20.640338895,-1.4884294274999998,-135.4338188,-0.03683650500000013,-1.533919394,9.502467633,-45.274425504999996,8.691067814,0.040630579
131,0.5458115000000134,20.26426029,-1.4905190469999998,-135.4369583,-2.1359536795,-0.2467876825,10.468012335,-45.033096314999995,-1.40743494,-1.267529003
132,0.54997800000001,19.865800855,-1.422324121,-135.3901825,0.6860750915,-1.453783095,9.7600190655,-47.706739424999995,8.949944256,1.7513394805
133,0.5541445000000067,19.475811954999998,-1.3898947835,-135.40143584999998,-4.875282645,-0.660735965,8.4784312245,-46.715471269999995,2.1948132549999997,-3.530961752
134,0.5583110000000034,19.065161705,-1.2993052005,-135.3400383,3.061621845,-0.5246739985,10.946024416499998,-49.137676235,12.0352446525,2.6554583314999998
135,0.5624775,18.655644415,-1.2540743349999999,-135.33826449999998,-5.2790243629999996,-1.5156920555,9.3399400735,-49.008975985,4.182013987500001,-2.5399659760000004
136,0.5666439999999966,18.227596284999997,-1.1718063955,-135.28486635000002,3.220221639,-0.10391628749999998,10.719408991,-51.259239195000006,10.746871651,2.2630546165
137,0.5708104999999932,17.787730215,-1.1005783085,-135.29312895,-6.4149599075,-1.9233175514999998,7.418872832,-52.670394895,6.7833237625,-4.637514949
138,0.5749769999999897,17.341682435,-1.0061309635,-135.2301598,4.8107594255,-0.735011935,12.007094859999999,-53.41221428,12.437584636,3.0666027065000003
139,0.5791434999999865,16.894526485,-0.9168318209999999,-135.24062345,-7.968882322,-0.672155261,10.8413705835,-53.538009645,8.84793234,-5.3808881045
140,0.5833099999999831,16.423360825,-0.822900027,-135.1687622,5.2572432755,-0.598862797,7.5455949295,-56.426792145,12.622789860000001,4.30319345
141,0.5874764999999798,15.98421669,-0.719545975,-135.16605380000001,-8.287593365,-0.6099490745,13.346259593,-52.54338455,10.982251165,-4.1941146855
142,0.5916429999999764,15.498485565,-0.6267903895,-135.09231185,5.4350994825,-0.644975096,3.917216897,-58.200626369999995,12.469065669999999,4.765467763
143,0.595809499999973,15.040520665,-0.4844433885,-135.0851936,-8.044003726,-2.1592470219999997,19.624297145,-54.781368255000004,15.683330534000001,-4.763283491
144,0.5999759999999696,14.54906559,-0.391417444,-134.9849243,6.471814394,-0.514089346,-0.08093893549999998,-58.9102726,13.236970903,8.089285612
145,0.6041424999999663,14.048508165,-0.23870703399999998,-134.99167635,-9.619316099,-0.8474140764999999,18.10620689,-59.872343060000006,16.5549747935,-6.375495434
146,0.6083089999999629,13.53083992,-0.148794461,-134.8830452,6.952197074499999,-1.234937966,2.4853676555,-62.124788285,12.957859039999999,9.3666784745
147,0.6124754999999595,12.995605470000001,0.018021970999999998,-134.8808327,-8.509990692,-1.5700104685,11.432978871,-64.008733745,18.553132055,-5.39881897
148,0.6166419999999562,12.47068548,0.1260766905,-134.77030565,4.577143848,-0.015467286000000025,13.271171095,-63.062761305,14.944745748,9.329905986
149,0.6208084999999528,11.911893845,0.28627274199999997,-134.76419445,-6.7142297025,-1.0453509095,4.275572776500001,-66.84010315,18.0007643695,-4.239968061000001
150,0.6249749999999494,11.351941584999999,0.4099160955,-134.63333895,5.2341783045,-1.4123703239999998,12.20054722,-67.325250625,17.0783596,11.64986181
151,0.629141499999946,10.805902960000001,0.5803191665,-134.6375084,-8.278737545,-0.5144812165000001,7.8287091255,-65.31153678999999,18.999728201,-5.5351636410000005
152,0.6333079999999427,10.221152305,0.7058809994999999,-134.5135422,4.9645700455,-0.826915622,7.4685399530000005,-70.375045775,16.9206156725,11.1632540215
153,0.6374744999999394,9.669344425,0.9089674649999999,-134.5073242,-8.020976305,-1.2956037519999999,11.941685674999999,-66.00286865,23.22170925,-4.3335989715
154,0.641640999999936,9.115450859,1.0658156575,-134.3824768,4.418119073,0.07549523,9.703169345,-66.77214050500001,20.408613205,10.957841633000001
155,0.6458074999999326,8.5515289305,1.269951105,-134.37559894999998,-6.47210598,-1.1174799055,11.283469202,-67.45809555,23.39983082,-4.011623085
156,0.6499739999999292,7.9822049145,1.4582324025,-134.25133895,2.800600648,-1.3883029224999999,6.405192137,-68.71679878,23.90446472,10.753725052
157,0.6541404999999259,7.4257314205,1.693697691,-134.24459075,-6.5954134465,0.521379143,11.358917237,-66.56489754,27.212098124999997,-3.9343429205000002
158,0.6583069999999225,6.8885657785,1.9228251580000002,-134.1177826,3.3740782740000004,-0.2862213055,9.9974803945,-64.98791313,28.583723065,10.910685776000001
159,0.6624735000000328,6.352733612,2.2013958689999997,-134.10478975,-6.27592206,-0.24375760550000003,8.79420948,-64.12078475999999,32.49119663,-3.3521218895000002
160,0.6666400000000294,5.840037107500001,2.485580325,-134.02187725,1.472764701,-1.318301827,10.06582594,-61.980583190000004,34.379714965000005,5.4939147705
161,0.670806500000026,5.3153474329999995,2.8222637180000003,-133.99126055,-4.5953814985,0.1931820515,8.4042925835,-62.89134407,39.690832135,-1.2973644735000003
162,0.6749730000000227,4.812125206,3.165146947,-133.93824765,0.9032841025,-1.126669247,11.032759667,-60.761678695,40.96918106,1.93557179
163,0.6791395000000193,4.313109398,3.5552085635,-133.88202289999998,-4.996530294499999,0.3614722490000001,10.4711201195,-60.039648055,46.337884904999996,1.965076089
164,0.683306000000016,3.8226618764999998,3.9214321375,-133.8641472,1.286027916,-1.9673214555,8.9120852925,-59.03711319,43.41813469,-1.7420978544999999
165,0.6874725000000126,3.3424978254999997,4.340750933,-133.7760544,-4.8902957439999994,-0.32787044049999997,10.4419336315,-58.156404495000004,50.04917526,6.5130189655
166,0.6916390000000092,2.8663358685,4.720133066000001,-133.79594425,1.61928688,-0.7316462694999999,9.771396161,-56.982637405000006,44.763181685,-5.577764034
167,0.6958055000000058,2.415524602,5.174447536500001,-133.70664215,-3.513076067,1.178881794,9.146696566,-54.808410644999995,54.139886855,7.3269708155
168,0.6999720000000025,1.9792791605,5.571238517499999,-133.71832275,0.5375018119999999,-0.486359492,11.2544093145,-52.241899489999994,46.963077549999994,-3.9660805465
169,0.7041384999999991,1.5645542745,6.014441252,-133.65447235,-2.280837983,0.37731969350000005,8.715124129,-50.31879997,52.594161985,4.977931976000001
170,0.7083049999999959,1.1694866419999999,6.411541462000001,-133.67433545,-0.9616555785,-0.867277801,12.099991795000001,-47.1757946,47.023902895,-4.226730347
171,0.7124714999999924,0.821987182,6.8329174515,-133.62016295,-0.45040458450000004,0.365218088,8.077858684999999,-42.229475019999995,49.89000702,4.5953457355000005
172,0.716637999999989,0.4944081305,7.2199602125,-133.6493301,-2.0190243125,0.06718724949999999,11.471490857500001,-38.899534225,45.848009105,-4.737579584000001
173,0.7208044999999856,0.175003145,7.6472723485,-133.5947304,-1.006913811,0.11301475750000001,7.2853354215,-38.959266665,50.550762175,5.2145578865
174,0.7249709999999822,-0.132714856,8.006821394,-133.6439476,-1.0960564685,-0.5799884795,12.087533950000001,-36.13511562,42.59334755,-6.6209352015
175,0.7291374999999789,-0.42039678999999996,8.4027290345,-133.5966568,-0.07600736599999999,-1.245255693,10.357099054999999,-35.106254574999994,46.73503685,4.7508969305
176,0.7333039999999755,-0.7211710215,8.7382936475,-133.63796235,-1.902958274,-0.49184837950000004,7.385179755499999,-35.35960007,39.76602936,-5.2223922015
177,0.7374704999999722,-1.0401402115,9.099052906,-133.6255989,0.5267966295,-0.7579176425,7.620984075999999,-38.39305305,42.527721404999994,1.7258773445
178,0.7416369999999688,-1.3578291535,9.4181027415,-133.66861725,-2.754376292,-1.059287451,12.58321905,-37.301831245,37.839005470000004,-4.9858212475
179,0.7458034999999654,-1.6821333765,9.746569633,-133.68193055,0.6746666429999999,-1.8267832994999997,7.16283226,-38.4179306,38.737729075,-1.7057744265
180,0.749969999999962,-2.0293793675,10.048265934,-133.73384855,-3.295901895,-0.928631127,12.667788505,-40.40873337,35.657219885,-5.6235899925
181,0.7541364999999587,-2.4069776535000003,10.370694635,-133.7531738,0.9301768539999999,-1.4603963495,3.5416072605,-44.99942589,38.21923065,-1.21218586
182,0.7583029999999553,-2.8004633190000003,10.64628363,-133.81839375,-2.5248777870000003,-0.25460800549999996,18.479002,-45.800748825,32.848059649999996,-6.878833294
183,0.762469499999952,-3.2057183985,10.911417485000001,-133.84698865000001,1.272480488,-2.892099142,3.5572234985,-47.901313779999995,31.242669109999998,-2.1151843670000003
184,0.7666359999999486,-3.6534810065,11.148825645,-133.9042854,-2.170994073,-0.767359436,10.074672698499999,-52.430021284999995,28.303613665,-5.667583823
185,0.7708024999999452,-4.1218340394999995,11.35964012,-133.94740675,1.643135607,-1.494867086,9.440703391500001,-55.108011245,24.88957882,-3.781657338
186,0.7749689999999418,-4.6486516,11.54575348,-134.00452425,-3.1608023044999998,-2.4907763605,5.275897026,-61.714437485000005,22.0936436645,-5.5251080990000005
187,0.7791354999999385,-5.183742046500001,11.705165865000001,-134.0770073,1.6404413284999997,-1.5942817029999998,15.67351198,-62.55477333,19.2594029885,-7.309440374
188,0.7833019999999351,-5.7563171385,11.83951378,-134.1508484,-3.23266609,-0.8274449185,3.38787207,-66.91989899000001,16.345481871,-7.7248179915
189,0.7874684999999318,-6.3700692655,12.003078935000001,-134.2409401,0.6488598584999998,-2.6986744405,14.850701808,-71.35017395,19.967295645,-8.860039473
190,0.7916349999999284,-7.008455276499999,12.083618165,-134.32203675,-1.55379197,-2.181068003,9.600955486499998,-74.609355925,10.1728570465,-8.897926333000001
191,0.795801499999925,-7.7220966815,12.163763525,-134.42260745,-0.2526280879999998,-2.221469998,2.6629434225,-83.04595566,10.3874166035,-10.8629579555
192,0.7999679999999216,-8.459927559,12.25274992,-134.49967575,-1.6933852435,-1.225551769,14.104819775,-86.46886062499999,11.183959959,-7.960259199499999
193,0.804134500000032,-9.214762211,12.291996475,-134.61647415,-0.5093402865,-1.4813820125,11.041346075,-87.695632935,6.2274596695,-13.2771945
194,0.8083010000000286,-10.000451087,12.32818556,-134.6724701,-2.2375782725,-1.8100911975,5.419861734,-92.89417648,4.8513980885,-6.286767959500001
195,0.8124675000000252,-10.79980135,12.381277085,-134.79827115,-0.553368747,-1.3329495045000002,13.45747948,-92.641464235,8.2828569395,-13.768867015
196,0.8166340000000218,-11.594645974999999,12.396840095,-134.8454819,-1.410643786,-0.569915244,11.7601847665,-94.21871185,2.369935035,-5.571051121
197,0.8208005000000185,-12.43934393,12.40091372,-134.95880125,-0.5023963450000002,-1.9625714419999998,5.682957172,-98.40501406,2.6020482780000007,-13.302381995000001
198,0.8249670000000151,-13.27718258,12.39619446,-135.00668715,-1.1762632135,-0.6589233575,12.057730675,-99.245250705,0.05614620449999996,-6.030507565
199,0.8291335000000118,-14.127442835,12.367237565,-135.1172867,-1.0940653980000001,-0.9616515335,8.1494412425,-99.26907728,-0.8425731660000002,-13.879818915000001
200,0.8333000000000084,-14.966143605,12.360468865000001,-135.16170885,-1.5071595905000001,-0.9487284945,8.781687497,-99.59109495999999,-0.01500606499999968,-5.6494740245
201,0.837466500000005,-15.791140555,12.324560165000001,-135.2620659,-1.2647877335,0.3324360475,15.24931002,-96.38129425,-1.6658239349999997,-12.95682049
202,0.8416330000000016,-16.604085925,12.28589058,-135.32403564999998,-1.122509122,-1.0630592110000001,2.1466304065,-96.06812286499999,-2.9857800599999997,-8.6343405245
203,0.8457994999999982,-17.41166878,12.2501235,-135.4186783,-2.073329717,-0.2468298115,14.66385889,-94.485733035,-1.4772391320000002,-12.283554555
204,0.8499659999999949,-18.177958484999998,12.209275245,-135.49537275,-1.4181259425000001,0.5634296835,12.205078125,-89.961971285,-2.5389943099999996,-10.53832388
205,0.8541324999999915,-18.907778739999998,12.171945095,-135.5719757,-1.1787996889999999,0.1516865845,5.5185120105,-85.747062685,-1.9251971250000004,-10.34356451
206,0.8582989999999882,-19.596450805,12.149750229999999,-135.6466675,-1.7094902395,0.6158533694999999,16.93163967,-80.83987426499999,-0.1843953135000005,-9.5467317115
207,0.8624654999999848,-20.254112245,12.09809494,-135.70601274999999,-1.0742921235,-0.18211285750000003,5.873925686,-77.418807985,-4.0693610905,-9.1075057985
208,0.8666319999999814,-20.886425015,12.05699015,-135.77588275,-1.6596667765,-0.37137767650000003,11.302372935,-74.220096585,-2.2719960194999995,-9.820002553999998
209,0.870798499999978,-21.4774456,12.010312554999999,-135.8324089,-1.401736885,0.5019290595,14.59326744,-69.495601655,-3.434573649999999,-8.6943883895
210,0.8749649999999747,-22.035305025,11.969518185,-135.8937225,-1.6580560209999997,-0.2763398585,5.0517992975,-65.455135345,-2.485655309,-8.889768362
211,0.8791314999999713,-22.545174600000003,11.929918765,-135.93914415,-1.5377127524999998,1.2038913965,15.523709775,-60.140462875,-2.913390219,-7.182933569
212,0.883297999999968,-23.026457790000002,11.88764429,-135.99940494999998,-1.0628118665000001,-0.07734206300000002,5.9868628975,-56.36201477,-2.509183288,-8.8517045975
213,0.8874644999999646,-23.458622929999997,11.84752464,-136.0307388,-2.0224457975,0.5189341304999999,11.1575341215,-51.127985,-3.564058783,-5.716253519
214,0.8916309999999612,-23.852360725,11.816993714999999,-136.0925255,-1.4718021755000001,0.474588238,14.857740875000001,-45.826105119999994,-1.02046013,-8.4816262725
215,0.8957974999999578,-24.20161915,11.7912879,-136.12402725,-1.826555252,0.7750948965,7.9227182865,-41.17272568,-1.902820051,-5.0874944925
216,0.8999639999999545,-24.51686096,11.77963829,-136.1921921,-1.546034962,-0.297227904,11.48164749,-36.21431923,1.4450871945,-8.3141207695
217,0.9041304999999512,-24.7764473,11.760737895,-136.2133522,-1.489990488,0.9013665319999999,12.89658451,-30.712646485,-1.5629107949999996,-3.656038165
218,0.9082969999999478,-25.02921009,11.738829135,-136.2625504,-0.9058677849999999,-0.4372562245,5.729118824,-29.222849845,-0.4874522385000001,-6.789513588
219,0.9124634999999444,-25.2504282,11.72838068,-136.28575899999998,-2.1157005425,-0.248071618,12.17796183,-26.046051974999997,-0.556752205,-3.444585562
220,0.916629999999941,-25.45197296,11.699274065000001,-136.33047105,-0.7285092695000001,0.16190680850000003,12.56439924,-23.17498398,-1.4449505805000005,-6.6951994895
221,0.9207964999999376,-25.632763865,11.669270515000001,-136.34790805,-1.990006268,-0.24833011600000002,8.6754090785,-21.341212275,-2.9448634090000003,-3.846939087
222,0.9249629999999343,-25.781552315,11.65006399,-136.3906708,-1.3421729205,-0.6150077279999999,11.234002589,-16.89047766,-0.47084730900000005,-5.98416543
223,0.9291294999999308,-25.923846245,11.636440754999999,-136.41351315,-1.4848236739999998,0.01924525199999999,10.5294704425,-16.615165235,-0.8364329930000001,-3.567474842
224,0.9332959999999275,-26.059851645000002,11.607485295,-136.44945525,-0.400676392,-1.1006682215,10.129761698,-15.543746945,-1.8266474005,-5.7316474915
225,0.9374624999999241,-26.191806794999998,11.573496815,-136.4721985,-2.0788417755,-0.785546124,9.3924679755,-15.37542963,-3.054716289,-4.6440606120000005
226,0.9416289999999208,-26.317090985,11.534657955,-136.50172045,-1.2586832645,-0.3401424435,13.158696175,-14.427237985000001,-3.2067167165,-5.56439209
227,0.9457955000000312,-26.435048105,11.500254155,-136.51914215,-1.144344151,-1.5765950085,10.71806383,-13.816454884999999,-3.357002258,-4.128074169
228,0.9499620000000278,-26.543779370000003,11.45664358,-136.5326309,-1.667922616,-0.33742278800000003,9.308620929,-12.833899022499999,-4.562510490499999,-4.1640557055
229,0.9541285000000244,-26.649053575,11.417806625,-136.54963685,-1.3866794704999998,-0.3582949635,9.605336666,-12.322134495,-3.8070125575000002,-4.3152376414999996
230,0.958295000000021,-26.745615004999998,11.37086916,-136.563427,-1.444351971,-1.2061336935,11.0712533,-11.362560273,-4.8399710655,-4.4161188605
231,0.9624615000000176,-26.83143902,11.324643609999999,-136.57207104999998,-1.7213199735,-0.5883147865,10.068018437500001,-10.180975199,-5.057135225,-3.865860939
232,0.9666280000000143,-26.92886257,11.290346145,-136.57609555,-1.148654511,-0.7926954925,6.954300642,-11.7051372535,-3.9920438525,-2.7195470334999996
233,0.9707945000000108,-27.018366815,11.26886463,-136.59014895,-2.4949786065,-1.2821130455,14.59308386,-10.5064153685,-2.1075523494999997,-3.100097537
234,0.9749610000000075,-27.097755435,11.245308399999999,-136.59719085,-0.9373186824999999,0.2796538025,10.8536424655,-9.471587181,-2.699554801,-2.478478372
235,0.9791275000000041,-27.160502435,11.216555594999999,-136.61123275,-1.517127931,-0.285205133,11.450399399999998,-7.290560484,-2.852945596,-3.4866675139999996
236,0.9832940000000008,-27.2096014,11.1983757,-136.61834720000002,-1.445498154,-1.0790869889999999,7.193063497500001,-5.831426382,-2.091850579,-2.1809881925
237,0.9874604999999974,-27.25927639,11.189443585,-136.64117815,-1.815694362,-1.1157037315,11.983691215,-5.540340066,-0.279438555,-3.333481431
238,0.991626999999994,-27.30509758,11.174295425,-136.65110779999998,-0.859431602,-0.8682196435,10.128170489,-5.359728098,-1.6155343055000002,-2.317627549
239,0.9957934999999906,-27.363048550000002,11.15844154,-136.66724395,-1.6826241015,-0.543227635,8.0114338415,-6.7010684015,-1.3733775615,-3.0084685085
240,0.9999599999999872,-27.41033077,11.153488639999999,-136.6785431,-1.4505946785,-0.9829597175,12.337412835,-5.5413775444999995,-0.4823032615,-1.883459687
241,1.004126499999984,-27.46939945,11.1583972,-136.69506455,-2.0315428375,-0.8446804585000001,11.45985126,-6.7981534,0.882890746,-1.8936413525
242,1.0082929999999806,-27.525338175,11.15726137,-136.71370315000001,-0.640152171,-1.003565967,12.707106115,-6.3852505685,0.3415021894999999,-2.4264301059999998
243,1.0124594999999772,-27.58611965,11.159071444999999,-136.72888565,-2.3064872025,-1.395285964,7.424186468,-7.0645411015,0.4681774379999999,-1.9327030185
244,1.016625999999974,-27.647639275,11.156873225,-136.75028225,-1.3870512845,-1.2129758,10.454778669,-7.0022411355,0.3906236289999999,-2.7729972600000004
245,1.0207924999999705,-27.712221149999998,11.16821814,-136.7549591,-1.2856226265,-1.3262202145000002,9.571756839999999,-7.759717703,0.9109126329999999,-0.31111693399999996
246,1.024958999999967,-27.78925419,11.164147855,-136.7629204,-1.686714053,-1.3552050589999998,8.983616114,-9.2012934665,-0.5446997285,-1.504766196
247,1.0291254999999637,-27.86533356,11.18175316,-136.7648506,-0.747369863,-0.777126551,8.359887123,-9.1783819205,1.4388605355,0.344505131
248,1.0332919999999604,-27.94213867,11.187942025,-136.78326795,-2.671263516,-0.6773235280000001,12.21286869,-8.8986103535,1.137387395,-2.006561816
249,1.037458499999957,-28.003032685,11.207436085000001,-136.7947235,-0.18429645849999998,-0.9788978695000001,12.737702845,-7.1580719945,2.151482581,-0.5546633304999999
250,1.0416249999999536,-28.07736969,11.215891365000001,-136.8139534,-1.846719265,-0.1777248455,7.3332486155000005,-8.578131199,1.4297482670000001,-1.9706313014999999
251,1.0457914999999502,-28.14779568,11.231684205,-136.82764815000002,-0.9752641615,-2.1925014855,11.932187079999999,-8.267161132,1.8879868985,-0.9811211449999999
252,1.0499579999999469,-28.214197159999998,11.243567465,-136.84304805,-2.3219878675,-0.960226059,8.9260396955,-7.753711462,1.569236964,-1.3787118645
253,1.0541244999999435,-28.283957479999998,11.249555115,-136.85210800000002,-0.3076386605,-0.27207472899999996,10.771252631500001,-8.256005050999999,0.6035930295,-1.0387340675
254,1.0582909999999401,-28.34493637,11.24557924,-136.8534813,-2.345863342,-0.6146899459999999,9.4914193145,-7.385275364,-0.879112482,-0.8142573835
255,1.0624574999999365,-28.407663345,11.24146366,-136.8545799,0.24370270949999995,-1.5405927300000002,8.2470769885,-7.652605534000001,-0.9140307905,-0.7921587155
256,1.0666239999999334,-28.457749370000002,11.229044915,-136.85886764999998,-2.8680942060000003,-0.02601978199999999,15.12903786,-6.0095796585,-1.6053078175000004,-1.6011523455
257,1.07079049999993,-28.493186950000002,11.199158194999999,-136.86204145,0.035713732,-1.5055387615,10.900916101,-4.315044522,-3.51622653,-2.4926558735
258,1.0749569999999267,-28.511899945,11.16265297,-136.85596085,-1.970017433,-0.23218832650000001,9.617341993499998,-2.549397945,-4.728451967,-1.914933085
259,1.0791234999999233,-28.521478655,11.112441539999999,-136.84895325,-0.6580579579999999,-1.1375036835,8.645816802999999,-1.400701761,-6.223945260000001,-2.592628181
260,1.08328999999992,-28.519306184999998,11.067680835,-136.82515335,-1.6484653950000001,-1.6187524795,9.405838490499999,-0.414361477,-6.5892558705,-0.5396086725
261,1.0874565000000302,-28.51016045,11.019503115,-136.81177524999998,-1.4327896835,-0.24866966150000003,12.867925645,0.6608409879999999,-6.3737825325,-1.8316739794999999
262,1.0916230000000269,-28.50525856,10.985685825000001,-136.78258895,-1.4514563010000001,-1.1570280195,6.5431621075,-0.20054048300000005,-5.738933325,0.6427123245
263,1.0957895000000235,-28.502918245,10.95617199,-136.77444455,-2.033979714,-1.3573150040000002,10.847748275,-0.054423927999999844,-4.110400826,-1.295094371
264,1.0999560000000201,-28.488003730000003,10.949519635000001,-136.75711825,-1.3700139299999998,-0.5601730645,12.264816759999999,1.2321472315000002,-2.2093820574999996,0.9547385795
265,1.1041225000000165,-28.47840595,10.932925225,-136.75505825,-1.59199667,-0.6424251515,10.069228647,1.0152074455,-2.4032748345,-1.1754436879999999
266,1.1082890000000134,-28.44602966,10.92416191,-136.74340055,-0.7255946695,-0.9586231709999999,13.27764273,3.5038805010000003,-2.1107795835,0.261213988
267,1.11245550000001,-28.41617966,10.91179657,-136.7360306,-2.497627139,-1.4544007185,6.863470792999999,3.2683957814999998,-2.2566719055,-0.39316564800000003
268,1.1166220000000067,-28.383434295,10.908614635,-136.72621915000002,-1.4284968675,-0.922792047,10.4812026015,3.580722809,-1.4158653915,0.39270460649999994
269,1.1207885000000033,-28.350499155,10.892013075000001,-136.7071991,-1.210870713,-1.2196502685000001,12.322181225000001,3.3863364455,-3.356861353,0.5680981429999999
270,1.124955,-28.333761215000003,10.86665535,-136.6868286,-0.6257189510000001,-1.533271253,5.710122585,1.352207616,-4.358826458,0.24266931400000002
271,1.1291214999999966,-28.31901264,10.849731445,-136.67292025,-2.4958122969999996,-1.5359522700000001,11.8207798,1.3683381680000002,-3.104899764,0.03897196049999996
272,1.1332879999999932,-28.29819393,10.826339245,-136.6639366,-0.8098008034999999,-1.326201916,11.70406866,2.1625651120000002,-3.5277527575,-0.7965899355
273,1.13745449999999,-28.273447035,10.79968119,-136.6519356,-2.046197653,-0.099035739,11.233715055000001,2.5547766385000004,-4.025987506,-0.7196703255000001
274,1.1416209999999865,-28.23871517,10.76515341,-136.6385536,-0.39718921500000004,-1.2070325610000001,9.9984951035,3.74953413,-4.9389128675,-0.999358869
275,1.145787499999983,-28.20644379,10.73223829,-136.61770245,-1.969774902,-1.910923898,7.1398212910000005,3.2435754535,-5.179006278499999,-0.14591151500000002
276,1.1499539999999797,-28.177477834999998,10.716501715,-136.6120148,-1.3105766995,-0.831070721,13.118621350000002,3.166336,-2.523911595,-0.7330474389999999
277,1.1541204999999763,-28.158885955,10.68414831,-136.59328845,-1.703892529,-1.1442667845,8.1139006615,1.7227750645,-5.003241539,-0.3243338765
278,1.158286999999973,-28.14074421,10.659921650000001,-136.5807495,-1.3276433945,-1.269627854,10.583073616,1.7713589665000002,-3.7911888365,-0.50951837
279,1.1624534999999696,-28.114525795,10.629315855,-136.564621,-1.9981357455,-1.3418617545,8.529477356,2.6411220435000002,-4.669334054,-0.5070978255
280,1.1666199999999662,-28.099177365000003,10.621284005,-136.55856705,-1.4064864515,-1.3852276205,12.2321949,1.573712729,-1.7168072465,-0.2647551345
281,1.1707864999999629,-28.06389332,10.609090805000001,-136.55157855,-2.3753682675,-1.1197684335,14.384250165000001,3.950247407,-2.2156066900000004,-0.4148993195
282,1.1749529999999595,-28.033307075,10.592651365,-136.54556655,-0.9318731425000001,-1.257868648,6.0161025525,3.3407815695,-2.601484537,-0.7530649975
283,1.1791194999999561,-28.003939629999998,10.583796504999999,-136.5324898,-2.3710268735,-0.9643644095,10.826193330999999,3.1492125985,-2.199821003,0.422173813
284,1.1832859999999525,-27.980579375,10.571906564999999,-136.5266876,-0.338900268,-2.1225664615,7.0703492165,2.5450369119999996,-2.1100304125,-0.508455396
285,1.1874524999999494,-27.954284665000003,10.560088635,-136.5023117,-2.6453136205,-0.540285509,11.086997032,2.4753344955000003,-3.1380065679999998,1.4252146335
286,1.191618999999946,-27.925559995,10.547289375,-136.49538805,-0.22176992900000003,-1.073793441,9.019542219,3.169851005,-2.2694339154999996,-0.44292767349999995
287,1.1957854999999427,-27.89364433,10.544930935,-136.47217175,-2.887010813,-1.2280382515,9.6529145265,3.16380626,-2.066704035,1.8419068155
288,1.1999519999999393,-27.854715345000002,10.542215825,-136.4676895,-0.11349236950000008,-1.0563269554999999,13.58541441,4.3908761735,-1.0846481304999998,-0.10359686599999995
289,1.204118499999936,-27.821620940000003,10.537080764999999,-136.44371795,-2.4274584655,-0.945327371,7.401804447,3.3545429705,-2.4033836275,1.7760526835000001
290,1.2082849999999326,-27.776940345,10.537963865,-136.4404831,-0.7299015225000001,-1.8009603025,10.760643479999999,5.1468286515,-0.6421231775,-0.0017033815000000452
291,1.2124514999999292,-27.725610735,10.545707700000001,-136.42420575,-2.7781393525,-0.126221016,7.922399758999999,5.6527867315,-0.605270833,1.6833740175
292,1.216617999999926,-27.65579605,10.54403353,-136.42165375,-0.271876752,-1.3188622895000002,11.62247133,8.1877191085,-0.8610482214999999,-0.246620342
293,1.2207844999999224,-27.57670212,10.54390049,-136.3998871,-2.8130164145,-0.921580404,7.147550106500001,8.870658875,-1.7386884685,1.8204935789999999
294,1.2249510000000325,-27.504781725,10.55591631,-136.39753345,-0.49481572199999996,-1.4831834435,10.198470114,8.367243290000001,0.5854139345,0.5348957775000001
295,1.2291175000000294,-27.414249419999997,10.574899195,-136.3853836,-3.1425670384999997,-1.056719698,14.63139343,10.519518380000001,0.8226647355000001,1.8802834750000001
296,1.233284000000026,-27.314875604999997,10.58536911,-136.37800215,-0.719144851,-0.8781104985,8.110311508,11.62606573,0.16695350399999997,0.9410735069999999
297,1.2374505000000227,-27.201184275000003,10.59963274,-136.36322404999999,-2.0753525495,-0.618972689,10.7713289275,13.167826654999999,0.19150477649999997,1.8849840164999998
298,1.2416170000000193,-27.0792675,10.617805005000001,-136.36072925000002,-0.9185385405,-1.544908941,6.756624459999999,14.43627596,1.2576719525,0.8501879275
299,1.245783500000016,-26.955800055,10.63617659,-136.35317995,-2.619486213,-1.4647515119999999,11.054141999999999,14.50156593,1.0277072784999999,1.3440815805
300,1.2499500000000126,-26.82774925,10.654988289999999,-136.34872435,-0.3786992429999999,-1.2030700445,8.777844429,15.081964970000001,1.216163874,1.096193463
301,1.2541165000000092,-26.703541755,10.6705699,-136.3422775,-2.119333029,-1.2094932495,8.898049354000001,14.659919259999999,0.7922234535000001,1.084795058
302,1.258283000000006,-26.566952705,10.693660735,-136.33241270000002,-1.08452715,-1.8596767185,13.311578749999999,16.0502429,1.4169995785,1.8506417275000002
303,1.2624495000000024,-26.440631865,10.71071577,-136.323246,-1.6271175740000001,-0.760186493,8.4490714075,14.808220865,0.8157816044999999,1.430337667
304,1.266615999999999,-26.310037615,10.72558546,-136.3010254,-0.728419274,-1.4301101565,11.375134465,15.050717835,-0.09725737549999991,2.6981850865
305,1.2707824999999957,-26.174645425,10.743392465,-136.29081345,-2.445676565,-1.6628167034999999,5.7464902405,15.868438245,0.8529287280000001,1.5765115619999999
306,1.2749489999999923,-26.032466884999998,10.759735585,-136.27528765,-0.47574788300000004,-0.9894948605,11.89363432,16.522159575,0.409655452,2.094412565
307,1.279115499999989,-25.889455795,10.7637887,-136.26764674999998,-2.2900473475,-1.3077208995,9.5778937345,16.909262655,-0.4940996169999998,0.583537273
308,1.2832819999999856,-25.75253773,10.75966215,-136.24217225,0.08369043500000001,-1.4288618565,8.53733206,15.727719785000001,-2.2850013975000003,2.042607546
309,1.2874484999999822,-25.60312176,10.7534318,-136.2272873,-2.8698933125,-1.3883131445,13.046433924999999,17.45695019,-1.9658609625,0.8105242850000001
310,1.2916149999999789,-25.448267934999997,10.745430464999998,-136.19291685000002,-1.4455575944999999,-1.1600756644999999,10.065670964999999,17.67706871,-3.162001431,2.838800669
311,1.2957814999999755,-25.284392355,10.73099375,-136.17231370000002,-1.8370127379999999,-1.360276699,12.74010992,19.068694115,-3.139217913,1.003239423
312,1.2999479999999721,-25.121879579999998,10.723523615000001,-136.1342659,-0.9729069175,-1.522707045,3.8549422025,18.456079485,-3.273519129,3.2839187384999997
313,1.3041144999999685,-24.968595505,10.717620375,-136.11380764999998,-2.8301742075,-1.4499504570000001,11.293694975000001,17.843886375,-2.19933477,1.4461224675
314,1.3082809999999654,-24.806521415,10.70328331,-136.07457735,-0.2689343245,-1.7054157255,12.110591415,18.452495575,-4.041941285,3.0349357125000003
315,1.312447499999962,-24.65450954,10.669514655,-136.0481262,-1.9798573254999998,-1.2030732035,7.148264885,17.50918674,-5.5174295905,0.691174794
316,1.3166139999999587,-24.50479889,10.63966751,-136.0095749,-0.6898887455,-2.17691195,8.2593777195,16.97684574,-5.68932724,2.2213374375
317,1.3207804999999553,-24.36223793,10.61413956,-135.98830414999998,-2.6828231815,-1.4263213575,11.268331055,16.493002415,-4.3574880364999995,0.5699488484999999
318,1.324946999999952,-24.211582185,10.59136343,-135.95923995,-0.6169559360000001,-0.72967514,9.7560577395,17.261956214999998,-4.4512172935,1.597323418
319,1.3291134999999485,-24.057090755,10.574958800000001,-135.94043729999999,-2.579442084,-1.092298776,7.731172085,18.025727269999997,-3.239669919,0.780465916
320,1.3332799999999452,-23.87508106,10.56893349,-135.90751269999998,-1.43045173,-1.0797673165,12.9565081615,20.979607585,-2.799534559,2.8797645569999997
321,1.337446499999942,-23.680635455,10.560611725000001,-135.8775635,-1.4945604205,-1.0344863235,7.876205683,22.541631695,-2.8708456160000004,2.3843471405
322,1.3416129999999384,-23.471943855,10.548437595,-135.84017945,-1.4955651165,-0.6594643295,8.691066505,24.09390545,-3.632106185,3.0076569319999997
323,1.345779499999935,-23.24127674,10.545879840000001,-135.8207283,-2.0540487765,-1.1449061635,10.9821476935,27.112511634999997,-1.72325024,1.5379883644999999
324,1.3499459999999317,-22.97137642,10.53874302,-135.78977965,-1.672636345,-0.26925762000000003,12.43330336,31.546291355,-2.7477519514999997,2.5708774329999997
325,1.3541124999999283,-22.68997288,10.547431945,-135.7742424,-1.854146634,-1.0497953295,6.7007756235,33.330505375,-0.28647601600000017,1.6539639830000001
326,1.358278999999925,-22.38175106,10.56938744,-135.74702835,-1.467916537,-1.31898576,12.341452122,36.25520134,0.6578061615,3.565742135
327,1.3624454999999216,-22.069262505,10.5817008,-135.7338829,-1.3682989555,-1.3407082555,7.884816408000001,37.080713274999994,0.24853444099999988,1.548427224
328,1.366612000000032,-21.747032165,10.58082056,-135.69829175,-1.3175688385000002,-1.2643662095,8.006289959,37.7558918,-2.1813213824999997,3.374225378
329,1.3707785000000285,-21.419680595000003,10.603952885,-135.68411635,-2.0815681815,-1.2147358355,9.6256208415,38.837270735000004,1.4343348744999997,2.1314852835
330,1.3749450000000252,-21.063345910000002,10.62250376,-135.64742660000002,-1.27025342,-0.54249759,11.617239475,41.778671265,-0.02350163449999987,4.3973116875
331,1.379111500000022,-20.69207668,10.644865515,-135.6304016,-2.0803884265,-1.52452305,9.014517307,44.084497455,1.255739927,2.3934171795
332,1.3832780000000184,-20.290691375,10.660208225,-135.59556965,-0.5608353915000001,-0.9667290445000001,13.035286905,47.280599595,-0.22819173300000006,4.004409075
333,1.387444500000015,-19.88485432,10.665422915,-135.5687218,-2.37332505,-1.2209002075,5.978171587,47.97668457,-1.0329155925000002,2.7431620355
334,1.3916110000000117,-19.470952035,10.671972275,-135.52634045000002,-1.0999870895,-1.4626904129999998,8.987300396,48.597433089999996,-1.4694132805,4.5093638894999994
335,1.3957775000000083,-19.03211021,10.669782165,-135.4958916,-2.0047572555,-0.44770065699999995,15.028227805,51.859529495000004,-1.9640598314999997,2.8610913755
336,1.399944000000005,-18.56225681,10.640623569999999,-135.4455948,-0.291186273,-1.628195405,8.517071963,55.119527815,-5.718002558,3.938922763
337,1.4041105000000016,-18.08137417,10.621191979999999,-135.40555195000002,-2.5243351460000003,-1.2821424905,8.506538391,56.724716189999995,-4.2343330980000005,3.3084275725000003
338,1.4082769999999982,-17.586873054999998,10.597852705000001,-135.3468437,-0.7035120129999999,-1.351185292,10.418001176499999,57.924058915,-5.319139957,5.2922439575
339,1.4124434999999949,-17.08902073,10.56854725,-135.29978945,-1.800210029,-1.215646252,5.352214694000001,58.571928025000005,-5.5419450999999995,3.7987374065
340,1.4166099999999915,-16.583702085,10.525996209999999,-135.23676685,-1.171131104,-1.648254573,14.780664445,59.144807815,-7.555026053,5.135945797
341,1.420776499999988,-16.069704055,10.480966565,-135.1861801,-2.0672119855,-1.728049338,8.3411505245,60.447624205,-7.3957576145,3.7707802059999995
342,1.4249429999999845,-15.551885125,10.45787048,-135.12639235,-1.9374981519999999,-1.4892987015,9.113120554,60.685501099999996,-5.0869257455,5.4735822679999995
343,1.4291094999999814,-15.011898044999999,10.42979288,-135.08105849999998,-1.2377227245,-1.2918025850000001,15.23965311,63.729293825,-5.196668269,3.839664698
344,1.433275999999978,-14.482667445,10.375769615,-135.01942445,-1.371507019,-2.1000638005,3.5806869270000004,62.065601345000005,-8.632801532999999,4.863180399000001
345,1.4374424999999746,-13.977376934999999,10.34854889,-134.97574615,-1.0638919265,-1.904740453,9.819716456,59.55600929,-4.9658943419999995,3.740131855
346,1.4416089999999713,-13.468408109999999,10.3016057,-134.91625975,-1.5115636435,-1.5754201415,10.2550711615,59.696678160000005,-7.6566971555,5.005543947
347,1.445775499999968,-12.9585495,10.247616765,-134.87675860000002,-1.3796462265,-1.9435842635,7.7732419964999995,60.202833174999995,-7.905910971,2.6113414765
348,1.4499419999999645,-12.441307065,10.208611014999999,-134.8017731,-1.8569500595,-1.24262245,11.589282988,60.332183834999995,-7.024349689499999,7.088424206
349,1.4541084999999612,-11.92850399,10.188491339999999,-134.75513074999998,-1.6061066240000001,-1.9137120840000001,6.6915299895,60.45612335,-4.057903409,4.433076381499999
350,1.458274999999958,-11.415938855,10.145637987,-134.69073865000001,-1.2710157629999999,-1.551727593,14.038434030000001,60.04317093,-7.0860853195,5.8650381565
351,1.4624414999999544,-10.897757055,10.121666907000002,-134.64168545,-1.808874473,-1.6788278815000002,5.148241639,61.020513535,-4.475289464,4.6832385065
352,1.466607999999951,-10.373934745,10.115048885,-134.57299425,-1.6777658235000001,-0.9323336335,10.585115672499999,61.315954205,-2.7824320809999996,7.232478857
353,1.4707744999999477,-9.822472572,10.0692958815,-134.5237808,-0.8466783465000001,-1.087086171,12.199629305999999,65.023777005,-6.957584859499999,4.332896113
354,1.4749409999999443,-9.264995575,10.042870998,-134.4507904,-1.8010951874999999,-1.4041452405000001,2.0512688160000003,65.24518204,-5.051975249000001,7.317093849
355,1.479107499999941,-8.683020592,10.022961618,-134.40199665,-1.510893345,0.0982412845,19.284690855,68.734580995,-3.7936367985000006,4.898731828
356,1.4832739999999376,-8.077622413499999,9.970159532,-134.33258055,-0.8384388684999999,-2.048058152,5.189408779,71.103500365,-7.979703188,6.626663208
357,1.4874404999999342,-7.4554469585,9.9279756555,-134.2760582,-1.362733364,-1.6451485155,10.367731572,73.36592102,-6.449212558999999,5.4826705454999995
358,1.4916069999999308,-6.818549633,9.884171488,-134.1996269,-0.930962801,-0.40292555100000005,9.549557448,74.760326385,-6.853876831,7.743004322
359,1.4957734999999275,-6.1770057675,9.8041772845,-134.14935305,-1.540566564,-0.905526906,6.907039821500001,75.835479735,-10.740896703,4.369145632
360,1.499939999999924,-5.483973503,9.7568736075,-134.0820732,-1.49942404,-0.691354627,12.478316783,81.68298339500001,-6.9612417220000005,6.6565966605
361,1.5041064999999205,-4.7553331855,9.687842368999998,-134.00756455,-1.2920999975,0.03032088300000002,13.968602180000001,85.846130375,-9.5710756505,7.612070322
362,1.508273000000031,-4.00469172,9.5937108995,-133.938961,-0.10027194049999988,-1.4477947955000001,4.553977251,88.60718155,-12.403305054,6.614116430499999
363,1.5124395000000277,-3.2273414135,9.500914096999999,-133.8578606,-1.726297587,-0.8460402485,11.14529562,91.55121994000001,-12.24922991,8.4326803685
364,1.5166060000000243,-2.400585294,9.392337322,-133.7809868,-0.4720020285,0.525712639,10.297895905,97.59842682,-13.989631175,7.9242675305
365,1.520772500000021,-1.5361391305,9.257413864,-133.6985359,-1.72149986,-0.4422353805,7.6116157775,102.018405925,-17.0457949625,8.739821433
366,1.5249390000000176,-0.6286468505,9.133844852,-133.6417465,-1.0793301315,-0.9043709785,14.292927745,107.69019315,-15.478222371000001,5.881762266
367,1.5291055000000142,0.294229478,8.99636364,-133.55368425,-1.2939351275,-1.163173407,7.7921118755,108.99072265000001,-17.066264155,9.9470958695
368,1.5332720000000108,1.242275238,8.8442707065,-133.50100705,-0.6553470140000001,-1.2954560814999998,12.489255905,112.69378664999999,-18.69700718,5.9193723205
369,1.5374385000000075,2.210961938,8.6715803145,-133.41516109999998,-1.5245607045,-1.446362734,10.640177248,114.5582008,-20.939680575,10.385448932500001
370,1.541605000000004,3.148115039,8.508083343500001,-133.35646055,-0.87195611,-1.081787318,3.2713457345,111.3266373,-19.811556340000003,7.2345535755
371,1.5457715000000005,4.1216936109999995,8.3226122855,-133.2810211,-1.3126157520000001,-0.999972999,18.314475535,115.39011005,-22.175872804999997,9.914584637
372,1.5499379999999974,5.0902831555,8.150510788,-133.22567370000002,-1.6271385549999997,-2.8569588660000003,7.65059948,115.16882325,-20.596453665,7.6197643280000005
373,1.554104499999994,6.045302868,7.9593942165,-133.17038345,-0.7345245485,-1.2659784705000001,11.684769155,113.58791350000001,-22.72401333,8.3018517495
374,1.5582709999999906,6.991708994,7.7805559635,-133.1259384,-1.8553649185,-0.965365991,9.4792413695,112.74716185,-21.273324969,7.1195595265
375,1.5624374999999873,7.9006917475,7.6083948615,-133.06497955,-0.4281346800000001,-2.7679398060000002,5.1203869585,107.9969025,-20.075105188499997,9.395007132
376,1.566603999999984,8.8259563445,7.427937030500001,-133.03619385000002,-2.2528723029999997,-1.071418047,17.778456685000002,110.4904404,-21.48059654,5.9714570044999995
377,1.5707704999999805,9.740561962000001,7.2617771625,-132.97920225,-1.375456691,-1.5838164985,4.667154908,108.7703285,-19.11863613,9.454604149
378,1.5749369999999772,10.664814475,7.0812711715,-132.94367985,-1.6365008355000001,-1.644139528,19.02021122,110.29511640000001,-21.11957645,7.4277319905
379,1.579103499999974,11.564006325,6.9280188085,-132.88832095,-0.7770030495000001,-1.5079684555000001,4.2028371095,107.00575635000001,-17.35470295,9.3712906855
380,1.5832699999999704,12.429436684999999,6.7649765015,-132.8465652,-1.411864281,-0.9909762444999999,11.095796584999999,103.1860275,-18.6598773015,8.3203084485
381,1.587436499999967,13.305639745,6.6203370095,-132.80591205,-1.3338344395,-1.8454406859999999,11.277256965500001,104.45302965,-16.3804849365,8.175948621
382,1.591602999999964,14.135129455,6.4523222444999995,-132.74819565,-0.9893330265,-1.909003317,7.695206643,98.68611528,-18.511561750000002,10.864616394
383,1.5957694999999603,14.9795208,6.3231863975,-132.7322464,-2.0489518645,-1.4049648345,14.358620645,101.0148773,-15.110100508499999,5.1398710009999995
384,1.599935999999957,15.793444155,6.1811172965,-132.6641502,0.05191248650000002,-1.5611888170000001,4.814755678,96.70934295500001,-14.824268757499999,11.8275089275
385,1.6041024999999536,16.598586085,6.0611109735,-132.67569350000002,-2.4259918335,-2.73805666,15.445551394999999,96.679157255,-14.8326239865,2.0004051025
386,1.6082689999999502,17.371091845,5.92124486,-132.6200943,0.771481585,-0.434069496,6.949991702,91.92995071499999,-14.652906654999999,10.7431936245
387,1.6124354999999468,18.121501925,5.839832306,-132.65932465,-4.569732189,-3.0763968229999996,11.6787920015,90.455337525,-11.378738149,-2.2437986135
388,1.6166019999999435,18.840536120000003,5.7235286235,-132.5949898,1.9622317555,-2.121896565,11.776201245,85.43343734999999,-11.364090444,11.162470818
389,1.62076849999994,19.503166200000003,5.6670715805,-132.6602898,-4.3330657485,-2.8479095694999996,10.825978757000001,80.21607208,-9.575637937,-5.803956747
390,1.6249349999999365,20.127289775,5.5567934515,-132.58447265,1.9648230075000002,-1.5500127970000002,5.687455177,73.93262863,-9.958434105,12.42698193
391,1.6291014999999334,20.68054104,5.545078039,-132.63766095,-4.8677238225,-3.8070815805,8.4880804995,66.938049315,-4.1437653305,-6.115301132
392,1.63326799999993,21.20655918,5.4397313595,-132.5605774,2.9552099855,-1.1502828895,12.75258923,62.165662765,-9.104370833499999,12.524439335
393,1.6374344999999266,21.66340065,5.430130243,-132.62104035,-4.6322152615,-2.638945818,9.933538914,55.442674635,-4.348092675,-7.001183509500001
394,1.6416009999999233,22.10662365,5.331361055,-132.54331209999998,1.8854003544999998,-1.0445941685,10.058479786,52.23490715,-8.113336563,12.489757534999999
395,1.64576749999992,22.491094590000003,5.330458403,-132.58443450000001,-3.8092089895,-2.520977378,13.41533661,46.54057884,-2.6459302004999996,-5.3039047715
396,1.6499340000000302,22.837306974999997,5.264111519,-132.5020218,0.8565329909999999,-2.8159589765,8.700335325500001,40.548135755000004,-4.0757232905,11.739195344999999
397,1.6541005000000268,23.127603530000002,5.304380655,-132.5156517,-4.325750708499999,-1.7588511110000002,6.1246125695,34.920173645,3.187694907,-4.040886759999999
398,1.6582670000000235,23.357445714999997,5.241852045,-132.43034365,2.0932869985,-1.6237459185,9.397134065,26.56234741,-3.4548441170000004,11.776428695
399,1.66243350000002,23.555048945,5.253427267,-132.45917129999998,-2.257196739,-2.1258596775,6.9760074615,23.982831005,-0.7188254594999999,-4.369912267
400,1.6666000000000165,23.750883105,5.204285860000001,-132.37443159999998,0.28116184499999997,-0.1013737475,10.509913444,22.484786035,-1.9202997089999998,11.104475977
401,1.6707665000000134,23.92486763,5.217091799,-132.3930092,-2.7063064575,-1.637988448,16.06863737,21.04050636,-0.14614203599999998,-3.3711032794999998
402,1.67493300000001,24.109311105,5.192600727,-132.3150101,0.9722219405,0.029664158999999968,11.2449727075,21.20020199,0.5315852165000001,9.179178474
403,1.6790995000000066,24.268595695000002,5.21834898,-132.3184395,-4.238102436,-1.9920606615,4.6900268789999995,19.10244274,2.0186841784999996,-2.300620079
404,1.6832660000000033,24.40500736,5.2044456005,-132.24318695,3.1343559025,-1.0840960145,8.391322613,15.467577935000001,1.6555645465,8.453218459
405,1.6874325,24.522241594999997,5.2172281745,-132.2478142,-4.7075542215,-1.0410999060000001,10.6450190565,14.075749394999999,0.5199298855000001,-1.833889365
406,1.6915989999999965,24.668591499999998,5.1951088905,-132.20120625,3.9128240345000003,0.27698804450000003,9.39098501,16.970044135000002,-0.6761520505,5.6415561445
407,1.6957654999999932,24.812125205,5.2161352635,-132.19573975,-5.785400033,-0.5357830825,11.278450965000001,17.13465977,1.9219199415,-1.15285182
408,1.69993199999999,24.993068694999998,5.187462568500001,-132.1733284,4.5184733865,-1.1023056805,16.285377500000003,21.38802433,-2.5706521270000002,3.3546023815
409,1.7040984999999864,25.183641435,5.188975334,-132.1823502,-4.602269411,1.9940971134999999,7.350836038500001,22.929421425,-0.9641208644999999,-1.7890006900000002
410,1.708264999999983,25.382240295000003,5.139405966,-132.19479755,3.351636529,-1.8177593795,8.8430473805,23.901545525,-6.5904756785,0.6692488194999999
411,1.71243149999998,25.58380699,5.117349625,-132.19741820000002,-4.0637568235,-0.2231194675,11.384714605,24.176220895,-3.1874946355000002,0.1458986405
412,1.7165979999999763,25.788752555000002,5.0513813495,-132.24149705,2.5974646100000003,-0.597402379,12.583189964999999,24.993061065,-9.991331576499999,-1.8361514209999998
413,1.720764499999973,26.001520155,5.035581112,-132.2303276,-3.998954415,-0.685692329,8.446753025,25.376914024999998,-1.7918384745,1.308542341
414,1.7249309999999696,26.22172356,4.9452397825,-132.2836037,1.7764409479999999,-1.0749913755,12.921704295,26.91136646,-13.1120967855,-1.4630029795
415,1.7290974999999662,26.422134399999997,4.9096865655,-132.27999115,-2.280191362,-0.5289713405,9.7751435015,23.976247790000002,-4.268076323,1.628688365
416,1.7332639999999628,26.605354310000003,4.842369556,-132.3263321,-1.0483392475,-1.7542863485,5.449531078,22.393799780000002,-10.264403822,-1.844757497
417,1.7374304999999595,26.7932415,4.7769081589999995,-132.3302193,0.9263376295,-0.016275554999999997,14.278664111000001,22.53199291,-7.8761598825,2.45255816
418,1.741596999999956,26.929897305,4.673443079,-132.404644,-2.4211191535000003,-1.753212258,8.471809623,17.08852005,-15.638334036500002,-2.7922863959999997
419,1.7457634999999525,27.078730585000002,4.628426075,-132.40113065,1.1114793420000002,-1.3246011735,5.758086323500001,17.774786,-5.263535501,2.179400861
420,1.7499299999999494,27.191440585,4.5413470270000005,-132.461689,-3.8536494375,-0.307586599,14.818933484999999,14.041651725000001,-13.141143325,-2.127096236
421,1.754096499999946,27.303194044999998,4.4652688505,-132.47260665,3.37103951,-0.553511873,10.813721659,13.48209429,-9.3709964755,2.337837458
422,1.7582629999999424,27.399188045,4.4161667825,-132.52333065,-5.8156836035,-1.3219071035,10.52677965,11.926411625,-8.5570658425,-3.1232208015
423,1.7624294999999393,27.488244055000003,4.338855027999999,-132.53656385,2.9566409585,-0.9451916515000001,11.87425852,10.76474905,-9.6362361915,2.1627833695
424,1.766595999999936,27.543938635,4.2570581435,-132.5744095,-2.7145063279999997,-0.8928003015000001,10.935111046,6.9724198585,-11.32959366,0.08351528649999995
425,1.7707624999999325,27.588448524999997,4.189498186,-132.59548185,0.14416563550000006,-1.814435065,5.760363102,5.4984990355,-9.052487133,0.7574898155
426,1.7749289999999291,27.60263157,4.10459733,-132.62877655,-0.9265265165000001,-0.3953314775,12.5536336895,1.924839884,-11.422397019,0.728315443
427,1.779095499999926,27.60776234,4.0286815165,-132.66818619999998,-0.6766039805,-1.6005555985000002,9.907968761,0.9305461644999999,-10.937341093,-0.676971197
428,1.7832619999999224,27.596240039999998,3.9539502855000004,-132.69007495,-0.8475490215,-1.0502900185,6.294512987499999,-1.2554751635,-9.69534898,1.3951117174999998
429,1.7874285000000325,27.564675335,3.8799762725000004,-132.7500534,-1.511500597,-1.4546018840000001,16.45751715,-3.336511016,-11.885751007,-2.9946761129999997
430,1.7915950000000294,27.53031826,3.786252022,-132.7785225,0.5265505540000001,-0.14252597099999997,6.4053013325,-3.9254723195,-12.119596243,1.665745139
431,1.795761500000026,27.48419762,3.736626625,-132.84054565,-2.105475664,-1.0548678384999999,10.912881134000001,-5.0832737685,-9.4379897715,-4.638789654
432,1.7999280000000224,27.426423075,3.6343710419999997,-132.8775444,1.1041454149999999,-1.027003519,12.449818610000001,-6.685149191,-13.489584919999999,1.2404719295
433,1.8040945000000197,27.35314083,3.5917288065,-132.94583895,-2.9888165595,-1.1127153635,9.036491157,-8.299525974,-9.0330142975,-5.7188780305
434,1.808261000000016,27.286168095,3.499475956,-132.9616737,0.760531064,-0.1802103,7.727280378500001,-7.9627883455,-11.2714691145,2.8988785745000003
435,1.8124275000000125,27.19012928,3.455510974,-133.0203476,-2.270961523,-1.7066709995,13.40818739,-11.119825842000001,-8.6510999205,-4.679561376500001
436,1.8165940000000087,27.10643196,3.329764247,-133.0551529,1.3992065565,0.05491942150000001,9.834565162499999,-9.8285369855,-15.8909688,2.685838759
437,1.820760500000006,27.005925175,3.2902618644999997,-133.1050262,-3.523674488,-0.6920497045,9.5929682235,-11.7508339885,-7.691779413,-4.0333148245
438,1.8249270000000024,26.90136623,3.154771924,-133.141861,1.325356603,-1.197523892,12.57952499,-12.322713376,-17.070762155,2.917340815
439,1.829093499999999,26.78442192,3.110947728,-133.18804169999999,-2.353711486,-1.2090412675,10.1788840295,-13.75557041,-7.961937667999999,-3.469045758
440,1.8332599999999957,26.64961147,2.9573361875,-133.247242,1.099897623,0.13411131499999995,11.02431774,-15.837679865,-20.224261285,1.4437532725
441,1.8374264999999923,26.503307345000003,2.9037096499999997,-133.28710554999998,-2.2838397025,-1.780406773,6.7496409415,-17.3261838,-8.6617953775,-2.299742758
442,1.841592999999989,26.35795212,2.7330299614999998,-133.3489571,0.3506582974999999,-0.028764963499999963,14.21068382,-17.118791584999997,-22.21199417,1.96520859
443,1.8457594999999856,26.201339725,2.6695132255,-133.38653945,-1.1880192755000003,-0.8131207675000001,7.7443337445000004,-18.590109830000003,-9.634843347499999,-1.6527014975
444,1.8499259999999824,26.049215315,2.4988695385,-133.45126340000002,-0.659041405,-1.643306434,12.180191515,-17.95055294,-22.368885040000002,1.54738909
445,1.8540924999999788,25.875289915,2.438119769,-133.48487855,-0.644743681,-0.662934668,6.109523772999999,-20.706131935000002,-9.09662652,-1.3672947885
446,1.8582589999999755,25.71605778,2.2679368259999997,-133.56905745,-1.2462176084999999,-0.085566014,16.408450125,-18.73884821,-23.364362240000002,-0.744004041
447,1.862425499999972,25.53459263,2.206678033,-133.60509875,-0.22550582899999982,-1.612022519,2.9818286295000003,-21.615615845,-9.268736691,-1.6474310755000001
448,1.8665919999999687,25.36741543,2.0369647145,-133.6945114,-1.4424979684999997,0.04021456099999998,17.956709385,-19.708877565,-23.575174805,-1.457021117
449,1.8707584999999651,25.177027705,1.9670712355,-133.7352524,-1.519255519,-1.2818305045,2.2305963335,-22.69054508,-10.411649228,-1.710532494
450,1.874924999999962,24.997753144999997,1.8457586765,-133.79486085,-1.9178130625,0.00012207050000001551,17.121432305,-21.307798384999998,-16.79966402,-0.8443351685
451,1.8790914999999584,24.820261955,1.8137552735,-133.80298615,-1.3409130575000001,-1.3752169909999998,3.4634605645,-21.2984395,-4.6441316605,-0.1687781815
452,1.8832579999999557,24.630724905,1.72043854,-133.82794189999998,-2.4722945689999998,-0.037986576499999924,17.205724715,-22.66382885,-12.0261664405,1.3848466875
453,1.887424499999952,24.45774269,1.7436798809999998,-133.81500625,-0.6777888539999999,-1.2777708175,6.4006552695,-20.859378815,2.4555377950000006,-0.6087605949999999
454,1.8915909999999485,24.27047825,1.680529058,-133.81358335,-2.9789039495,-0.2549859885,8.105973481,-22.477611539999998,-7.4107525325,2.748465061
455,1.8957574999999447,24.093969344999998,1.7374649645,-133.77495195,-0.47925934200000003,-1.2771000565,17.56016922,-21.37452984,7.355291845,0.4588216544999999
456,1.899923999999942,23.905711175,1.7317797545,-133.7504234,-2.268742412,0.08832446099999999,3.1306265595,-22.67670155,-0.07243872000000007,2.2918990255000002
457,1.9040904999999384,23.723504069999997,1.808773875,-133.71058655000002,0.1269454955,-1.5391937489999998,15.97052145,-22.048446655,9.6109739565,-0.3293342589999999
458,1.908256999999935,23.51335144,1.7967156174999999,-133.6877289,-1.305787578,-0.49714529500000004,6.671196460999999,-25.321871755,-0.8615485430000001,2.438067496
459,1.9124234999999317,23.286131855,1.8788435455,-133.6762657,-0.4423873425,-1.835959427,7.7278068065,-27.33169937,8.8496158125,-3.5658880474999997
460,1.9165899999999283,23.067827225000002,1.8677970175,-133.61653135,-1.1740829945000002,0.8212182969999999,15.589787479999998,-26.458792685,0.9891891464999993,6.496159373999999
461,1.920756499999925,22.832985875,1.9267974495,-133.63420865,-0.24265944949999985,-1.942045271,7.435094832,-28.12997055,4.897043228,-5.7624395495
462,1.9249229999999216,22.58450508,1.9296083450000001,-133.5601463,-1.688027926,0.14326200249999999,8.7588968275,-30.129501345,3.0620945695,7.301650523999999
463,1.929089500000032,22.33876419,1.967568338,-133.58687975,0.14615512249999998,-1.1328836679999998,13.151082989999999,-29.407735825000003,2.2257120610000003,-5.6824525595
464,1.9332560000000285,22.058359145,1.9402098055,-133.5241432,-1.658638477,-1.5285476409999998,6.1772542,-33.92387772,-0.8713010250000001,7.4402568339999995
465,1.9374225000000247,21.788096425,1.9677742719999998,-133.57443235,-1.044438511,-0.9873445034999999,10.9005751595,-32.241747860000004,0.05274695149999997,-7.831469774
466,1.941589000000022,21.50705147,1.9455211165000001,-133.49410245,-1.290933907,-0.9666282534999999,14.246754169999999,-34.08221626,0.4088674189999999,9.190505504499999
467,1.9457555000000184,21.20800686,1.9498825075,-133.53263855,-0.5173295735000001,-1.2974376085000001,8.520850897,-35.740394595,-1.960790783,-5.5115044115
468,1.949922000000015,20.879279135,1.9331454634999998,-133.47146225,-1.5923201740000001,-0.638917118,8.622791529,-39.72664833,0.09962023800000003,6.8122956755
469,1.9540885000000117,20.508136745,1.949345052,-133.4925079,-0.9743387105000001,-0.9601288735,9.339890721,-44.46095848,0.24138402899999978,-3.861723602
470,1.9582550000000083,20.123539925,1.9593422409999999,-133.4454956,-1.204528928,-1.8107466099999998,9.335729599,-46.38305855,2.4958702325,4.2960737945
471,1.962421500000005,19.704140665,1.989934385,-133.43951794999998,-1.993424296,-0.5348583165,10.886641979,-50.370029450000004,3.0252079215,-1.3747573495
472,1.9665880000000016,19.277119635,2.0203626750000003,-133.40981675,-0.9555914700000001,-1.811651468,9.926704881500001,-51.405866625,4.03663373,1.535647392
473,1.9707544999999984,18.842748645,2.0791403055,-133.36648175,-2.2369015215,-0.8250270265,10.3080785285,-52.33198738,7.758879185,1.9902352090000002
474,1.9749209999999948,18.41002846,2.129521489,-133.35868835,-1.2413511575,-0.534157902,11.407168385999999,-52.001321794999996,5.4639977215,-1.558552958
475,1.9790874999999915,17.956004145,2.213243127,-133.29961395,-1.0619600415,-0.480481535,9.6479890365,-54.777297974999996,11.176591398,3.0420508385
476,1.983253999999988,17.492725370000002,2.2836834195,-133.29234695,-0.7461603210000001,-1.287450403,9.395762919,-55.658987045,7.705316427,-2.4082631465
477,1.9874204999999847,17.01882362,2.3753327129999997,-133.24409105,-1.8612630365,-0.342659496,11.68270731,-57.132061005,11.6080656035,1.587069154
478,1.9915869999999811,16.508422850000002,2.4689415695,-133.2290001,-0.6335147175,-1.436480343,8.036967279,-61.343847275,10.6435542125,-2.2460241315
479,1.995753499999978,15.986666679999999,2.600218415,-133.17256545,-2.478435874,-1.215669334,11.762403485,-62.93710518,16.405704975,1.3958082795
480,1.9999199999999746,15.470033645,2.7476840019999997,-133.14397815,-2.0428809525,-0.597389147,7.963708639,-62.174350735000004,17.321178435,-2.2886019945
481,2.0040864999999717,14.925932405000001,2.9297305345,-133.0737915,-2.1301700475,-0.79730469,10.077625752,-65.73470306499999,22.685722355000003,1.724850431
482,2.008252999999968,14.36856699,3.156901956,-133.00826645,-1.5880438085000002,-1.012455061,9.732135534,-67.31784820499999,27.7320652,-0.06057843600000007
483,2.0124194999999645,13.82061863,3.3930732015,-132.95162965,-2.71443975,-1.718715787,10.0570900455,-66.170858385,28.547029495000004,-0.981483594
484,2.016585999999961,13.254129410000001,3.67520225,-132.854641,-1.233924359,0.0945870875,9.45049572,-68.709960935,35.009197235,2.589228511
485,2.020752499999958,12.669591905,3.973157048,-132.80374905000002,-1.8980880975,-0.3611491325,9.3344693205,-70.5679245,35.60231781,-2.8120357990000002
486,2.0249189999999544,12.099261765,4.327301025500001,-132.7100029,-2.5322396755,-1.609547913,10.4952642935,-69.273521425,43.300971985000004,1.059559584
487,2.029085499999951,11.525157929999999,4.6697175505,-132.6488304,-0.8475939035000001,0.4046193655,12.114048005,-69.479789735,41.117240905,-1.966453865
488,2.0332519999999477,10.921679975,5.064678192000001,-132.56996535000002,-2.352855474,-2.2672776580000003,7.328529595999999,-73.234867095,47.72286606,-0.7328733204999999
489,2.0374184999999443,10.311964515,5.468348503,-132.5003929,-1.6120364070000002,-0.816862807,11.4033956535,-73.94283676,48.549518585,-1.4619888364999998
490,2.041584999999941,9.705814362,5.8932790755,-132.44369890000002,-1.640264988,-0.5815404654999999,7.611250877,-73.421424865,50.797683715000005,-2.9639866945000004
491,2.0457514999999376,9.077974796,6.350564957,-132.3615379,-1.5677433165,-0.5076334775,8.7376089095,-76.40320968500001,55.15841675,0.07588887200000016
492,2.049917999999934,8.46216774,6.802333832,-132.3401642,-1.764236301,-1.3886030914999998,10.965847015,-74.20066070499999,53.384178164999994,-6.499171495500001
493,2.054084499999931,7.829554796,7.2858977315,-132.24741365,-0.9897629695,-0.00458318000000002,8.810356379,-77.29688263,58.443498615,2.130853653
494,2.0582509999999274,7.2025535105,7.7409374715,-132.2607956,-1.6295072435,-1.2350967824999999,13.52353954,-75.03751373,53.351917265,-9.4544119825
495,2.062417499999924,6.567887545,8.2316269875,-132.19213485,-0.7672734560000001,-0.9825992585,9.679226396499999,-77.31649780000001,58.87286949,0.412027687
496,2.0665839999999207,5.9204125405,8.6956887245,-132.22678375,-1.894497156,-0.3166287689999999,8.891081335500001,-77.08703231999999,54.34082222,-10.860399725
497,2.070750500000031,5.284721136,9.1728248595,-132.1726265,0.7180366814999999,0.3718847635,10.758738995,-77.30382919,57.05329132,0.1744533775
498,2.0749170000000277,4.6346793175,9.644476413500001,-132.21727370000002,-2.586022258,-1.157288298,6.4379572865,-77.14318085,55.371906280000005,-10.751008985999999
499,2.0790835000000243,3.9946888685,10.10036564,-132.2033157,0.8757344785000001,-0.17739359300000002,12.482957365,-77.12085342,54.137008664999996,-2.9862964155
500,2.083250000000021,3.355461955,10.54481697,-132.2508049,-2.7208996715,-1.5314538475,9.287208557500001,-75.69953537,52.313741685,-9.612582683500001
501,2.0874165000000175,2.7215374705,10.941385745,-132.2602806,1.5894042255,-0.4008404015,11.585175989,-75.9091568,46.928251265,-4.067466378500001
502,2.091583000000014,2.061081827,11.35546732,-132.3367424,-3.1544057725,-0.364843637,5.8254090545,-77.48872757,48.722063065,-11.67555523
503,2.095749500000011,1.3979039785,11.72398329,-132.37250135,2.2275118235,-0.03330610700000003,12.682419777,-78.771965025,43.53971672,-5.9714889525
504,2.0999160000000074,0.7281820475,12.05663252,-132.47208405,-2.157060534,-1.6890188305,8.5650918485,-77.88849640000001,39.15008354,-12.965964315
505,2.104082500000004,0.073847102,12.35010338,-132.511364,1.3569690735,-0.951767802,11.93351173,-77.62179184,34.65562439,-5.2831425665000005
506,2.1082490000000007,-0.619569212,12.6251626,-132.6193733,-1.9282765240000002,-0.553031951,5.476394593499999,-80.433517455,32.523163795,-13.011450289999999
507,2.1124154999999973,-1.3245786425000001,12.843987944999999,-132.68034745,1.3439372180000002,-0.84996894,11.582920552000001,-83.04454422,25.84612465,-7.105354307000001
508,2.116581999999994,-2.0336022375000002,13.037725925,-132.78480915,-1.6187473534999999,-0.825788379,11.6284399,-82.30910492000001,23.0556309215,-12.047472002
509,2.1207484999999906,-2.7669787405,13.168720245,-132.87202075,1.3604070245,-1.1386627555,3.7929526565,-85.693286895,15.6029384115,-9.911910295999999
510,2.1249149999999877,-3.5032263995,13.29467154,-132.9907303,-2.104082048,-1.566216946,17.026006695,-85.10264587500001,15.3037568355,-13.451858045
511,2.129081499999984,-4.2905766960000005,13.37155056,-133.0824051,1.0069836374999999,-1.694509208,1.2700000999999999,-92.046375275,9.404057266,-10.476366044
512,2.1332479999999805,-5.12176013,13.421164035,-133.2219124,-1.7612761855000003,-0.518552482,16.78768444,-95.91511535999999,6.730459452,-16.17591286
513,2.137414499999977,-5.965680122,13.44729805,-133.3322525,0.17661011250000003,-2.8730101585,5.016462326,-98.25263212,3.8343845310000004,-12.959843635
514,2.141580999999974,-6.8257632255,13.46518612,-133.4560776,-1.3051432369999998,0.6800692454999999,11.9867167465,-99.84134674,3.1859517079999997,-14.374915125000001
515,2.1457474999999704,-7.700333595,13.423781394999999,-133.57979964999998,-0.015636563499999978,-1.3311626315,10.737699509999999,-101.55012515,-3.63138485,-15.46465063
516,2.149913999999967,-8.618754387,13.38835669,-133.6788902,-1.1672917605,-2.308311105,2.143309575,-107.48295974999999,-3.1050863250000003,-12.404986855
517,2.1540804999999636,-9.514890194,13.317709924999999,-133.80378725,-0.6245365139999999,0.163136691,21.533470155,-104.16553114999999,-6.6069555289999995,-16.212820530000002
518,2.1582469999999603,-10.417994025,13.237220285,-133.89551925,-0.7640469074999996,-0.8015077785,2.7693345545,-105.9315872,-8.216144563499999,-12.54165077
519,2.162413499999957,-11.356146335,13.153790955,-134.00730894999998,-1.682857681,-1.94228971,12.89332533,-109.587883,-7.891463396499999,-15.114593505
520,2.1665799999999535,-12.264558795,13.04436445,-134.0853386,-0.814879179,0.34275612200000005,9.099672316,-106.9362221,-11.5280998935,-12.084046364999999
521,2.17074649999995,-13.200860975000001,12.95384264,-134.1918602,-1.670844346,-0.1785991935,5.9536056515,-109.55886459999999,-8.378163335,-14.920880314999998
522,2.174912999999947,-14.10583353,12.859613894999999,-134.27189255,-0.7425177100000002,-0.43722534150000003,17.08005905,-106.52397155,-9.378197194999998,-12.01021385
523,2.1790794999999434,-15.00988388,12.731636524999999,-134.3809433,-1.2714459900000001,-1.1354863045,3.5232194665,-105.69948959999999,-12.1840243035,-16.613110065
524,2.18324599999994,-15.880778789999999,12.632870675,-134.44626614999999,-1.4848008154999999,0.938274644,17.563352584999997,-102.844375595,-9.923892259,-10.97940302
525,2.1874124999999367,-16.762459755000002,12.53103018,-134.5488968,-1.6821228265,-1.2817109819999999,2.1426843405000002,-103.187603,-8.883486747500001,-15.39878559
526,2.1915789999999333,-17.63007259,12.42831278,-134.61798095,-1.0649658439999998,0.38445398950000004,15.0767436,-102.43181225000001,-9.9688947185,-11.621384145
527,2.19574549999993,-18.480781555,12.325398920000001,-134.7178993,-1.2342683669999999,-0.9313508865,9.253434419,-99.572536445,-8.644128086,-15.440127369999999
528,2.1999119999999266,-19.315966605,12.230278965,-134.7681427,-1.442485869,0.1830701975,10.570483207999999,-99.003566745,-9.420252802,-9.6470861415
529,2.2040784999999232,-20.115097050000003,12.110583305,-134.8543854,-1.9662448465,-0.21879065000000003,13.791952134999999,-93.788295745,-10.6466360085,-14.863134384999999
530,2.20824499999992,-20.886496545,12.02177334,-134.8927536,-0.8489436505000001,1.2627691625,4.580409169,-91.69714737,-8.935513259,-8.3352115155
531,2.21241150000003,-21.614313125000002,11.925760745,-134.96825410000002,-1.959943235,0.990983993,15.447538855000001,-85.512527465,-8.063395977,-12.910795685
532,2.216578000000027,-22.296177864999997,11.84228468,-134.9952698,-1.2492701409999998,0.631406337,4.5472741125,-81.2489624,-8.634392974499999,-7.090966224500001
533,2.2207445000000234,-22.905570984999997,11.74309778,-135.04963685,-1.455121577,1.6805363295,17.898895265,-71.85588074,-9.069918452,-10.931517125
534,2.22491100000002,-23.46983242,11.659077165,-135.07143025,-1.4099301695,1.046864599,5.362275124,-67.29780197,-8.870042445,-6.54383707
535,2.2290775000000167,-23.976605415,11.566322804999999,-135.1104927,-1.4350545405,1.5191177725,16.7260108,-59.951332095,-8.881698249,-9.137228966
536,2.2332440000000133,-24.40973091,11.471357345000001,-135.1377373,-0.7166353464999999,0.7747120265,6.523479700499999,-51.45109558,-9.697476387,-7.8311798569999995
537,2.23741050000001,-24.779791834999997,11.362382409999999,-135.16096495,-1.941232055,1.494194984,16.191970825,-43.93012619,-11.2882590285,-8.3689095975
538,2.2415770000000066,-25.101456640000002,11.25434971,-135.1875992,-0.5509837865,0.3096019325,5.893664956,-38.056108475,-10.965469358,-8.748694658
539,2.2457435000000032,-25.38319683,11.15726185,-135.2178192,-2.3937563594999998,1.304857552,13.720560075,-33.190270425,-9.555196524,-8.615524054
540,2.24991,-25.60778141,11.053018569999999,-135.24956129999998,-0.948839795,0.49776785050000005,9.2843542095,-26.284321785000003,-10.212262986999999,-9.201818465999999
541,2.2540764999999965,-25.790522575,10.954812050000001,-135.27867129999998,-1.885043502,0.393432036,10.2486913205,-21.368746755,-9.6669414655,-8.625003337999999
542,2.258242999999993,-25.931488039999998,10.859160424999999,-135.30166625,-1.479561821,0.6441298870000001,12.70326519,-16.463147640000003,-9.68157828,-7.901623964
543,2.26240949999999,-26.053616525000002,10.781772615,-135.32598875000002,-1.9365216625,-0.1022441235,6.5372786524999995,-14.209413055,-7.623243688,-7.066469908
544,2.2665759999999864,-26.1337471,10.699884415,-135.36371995,-1.5167807340000001,0.840543896,16.85977364,-8.888364792500001,-7.4947329155,-8.577869654
545,2.270742499999983,-26.176521299999997,10.625927925,-135.38101195000002,-1.646721512,-0.2770509045,6.6029038425,-4.83556509,-7.599968433000001,-6.1800169945
546,2.2749089999999796,-26.202306749999998,10.5615859,-135.4114685,-2.0191118715000003,-0.236660283,13.714907645,-2.537122369,-5.9090059265,-6.9806170465
547,2.2790754999999763,-26.20797348,10.515750409999999,-135.41615295,-1.112954855,0.04057621,10.5473632805,-0.6510562895,-5.228935717000001,-3.3793634175
548,2.283241999999973,-26.22712898,10.456418039999999,-135.45153425,-1.7069573105,-0.6298890785,7.0719773770000005,-1.6364874244999998,-5.075335982,-7.31246233
549,2.2874084999999695,-26.227760314999998,10.40936899,-135.4533348,-1.6667740940000002,-0.623166084,15.619824885,-0.11375272300000006,-5.5038468825,-3.1384676695
550,2.291574999999966,-26.232833865,10.36471367,-135.48106380000002,-1.9951763155,-0.8491486610000001,6.6312043665000004,-0.11067903049999994,-3.891936496,-5.739952326
551,2.295741499999963,-26.231725695,10.35066128,-135.4912186,-1.323777467,-0.6052000824999999,11.8127808565,0.2514035699999999,-1.5148516890000001,-2.252880931
552,2.2999079999999594,-26.236763955,10.316517355,-135.5229225,-1.364808023,-0.6871369329999999,10.8397674545,-0.03124904599999989,-2.5980141165000004,-5.516224622999999
553,2.304074499999956,-26.24641514,10.293698785,-135.5252037,-1.4715212135,-0.48178450800000006,6.8639752865000005,-1.2087678315,-2.8717529775,-1.8891331555
554,2.3082409999999527,-26.273999215,10.273834705,-135.56427380000002,-2.298879147,-1.5310291645,15.09694195,-2.575818539,-0.6531309485000001,-5.583608627
555,2.3124074999999493,-26.30322361,10.26743698,-135.5718918,-0.6748598665,-0.6219507155,9.216509342,-3.434337258,-0.8226778505000003,-1.5914571880000001
556,2.316573999999946,-26.3488903,10.23886251,-135.6127472,-2.5319781900000002,-1.3256340025,8.678853035,-4.7202878,-1.4895573855,-6.2308747765
557,2.3207404999999426,-26.39477444,10.25394726,-135.63505555,-1.069346994,-0.897352945,11.74554682,-5.132304907,2.2631776329999997,-1.9960980714999998
558,2.324906999999939,-26.455078125,10.248442175000001,-135.66848375,-1.681696713,-0.7243241069999999,8.8943481445,-6.621133089,0.6038434504999999,-4.2237300875
559,2.329073499999936,-26.533991815,10.25197983,-135.68864825,-0.9330118,-1.2980965675,9.2938139435,-9.151262760000002,0.912487745,-2.3708539005
560,2.3332399999999325,-26.61686993,10.246409889999999,-135.71415715,-1.926876418,-0.945714831,13.919094085,-9.5179166795,0.1752593520000003,-3.3518021105000004
561,2.337406499999929,-26.71192074,10.25238943,-135.73311615,-1.0419827405,-1.3577311635,7.955417633,-11.095697878,1.112900153,-2.1221714915
562,2.341572999999926,-26.81870937,10.25800371,-135.75020215,-1.7829964755,-0.708378449,8.046307086999999,-12.563533305,0.9658231735,-1.9060004055
563,2.3457394999999224,-26.92563629,10.25612545,-135.77806470000002,-0.940262735,-0.9934247735,13.108036994999999,-12.334294321,0.7561135289999998,-3.483766675
564,2.3499060000000327,-27.040885924999998,10.251030445000001,-135.7856903,-0.9875459225000001,-0.6611157950000001,6.8018388750000005,-13.777765275,-0.7005749045,-1.462451562
565,2.3540725000000293,-27.172127725,10.239523890000001,-135.809433,-1.8033480645000002,-1.5835004444999998,11.134183409999999,-15.352515695000001,-0.4808561805,-3.5597583055
566,2.358239000000026,-27.298916815,10.228200435,-135.81074525,-1.39943722,-0.2066253945,12.649150850000002,-15.298559665,-1.6811778545,-1.1805922315
567,2.3624055000000226,-27.42782211,10.20393896,-135.83298109999998,-1.5596830655,-1.0685136615,7.1300945285,-15.09199333,-1.9127625225,-4.1094914675
568,2.366572000000019,-27.551613805,10.211332795,-135.8428192,-2.0189587475,-0.47804301949999994,10.99217939,-14.758104325,0.7923189399999999,-1.0546150805
569,2.370738500000016,-27.671075825000003,10.20186758,-135.8596306,-0.9417778405000001,-0.668875843,12.344664094999999,-14.069499015,-0.6177129744999998,-2.7404611115
570,2.3749050000000125,-27.793911935,10.181494715,-135.8586273,-0.570960522,-0.6311783565,7.1846003535000005,-14.88133526,-2.7637825015000006,-1.4432086645
571,2.379071500000009,-27.91546917,10.144707679,-135.86728665,-1.573094845,-1.1935453415000001,11.694839,-14.51107597,-3.9554858205,-3.407251239
572,2.383238000000006,-28.025844569999997,10.110996725,-135.85247420000002,-1.0709806535000002,-0.08758172400000003,11.139075757499999,-13.683017255,-4.9407562595,-0.7622092965
573,2.3874045000000024,-28.135778424999998,10.0718474375,-135.85118485,-1.2462639285000001,-0.7219729724999999,7.1087226865,-13.317509654999999,-4.7527478335,-2.5118989945
574,2.391570999999999,-28.23167896,10.046319006000001,-135.8493652,-1.8295176924999998,-0.023314430999999997,11.70681429,-11.661285875,-3.3333283364999997,-1.6931973695
575,2.3957374999999956,-28.314483645,9.9997720725,-135.8433266,-0.9826131535,-0.9498901365,11.30362272,-10.159343482,-5.788088081000001,-2.46968019
576,2.3999039999999923,-28.397291185,9.9593572625,-135.83086775,-1.1177452804999999,-0.905963123,7.453467846,-10.316672323999999,-5.4984419355,-1.4425169825
577,2.404070499999989,-28.481697085,9.927684305500001,-135.8246765,-1.9216169715,-0.641937904,13.348789215,-10.364557265,-4.222071767,-1.60909909
578,2.4082369999999855,-28.55113697,9.8829350485,-135.8156166,-1.762630999,-0.9418808815,10.79956818,-8.6527462005,-5.781659128,-2.0265089275
579,2.412403499999982,-28.610815045,9.852558611500001,-135.8047333,-1.75349465,-0.6984119255000001,7.7860622405,-7.4846081735,-4.3506168725,-1.050708771
580,2.416569999999979,-28.66346359,9.844988824,-135.81508635,-1.9813658295,-0.18826624050000001,11.91810417,-6.229606867,-0.765353508,-1.904668391
581,2.4207364999999754,-28.705620765,9.830282689,-135.8085327,-1.2753949165,-1.0557682215,10.158959867,-5.296287894000001,-2.452524543,-0.61586228
582,2.424902999999972,-28.7624073,9.8110604285,-135.81561275,-1.1808911415,-0.40126574600000003,8.039172888,-6.794630765999999,-2.1522617339999996,-2.2769711615
583,2.4290694999999687,-28.813037870000002,9.799213886499999,-135.80770875,-1.622591585,-1.0567340555,13.605493545,-6.348264456,-2.2255571485,-0.3113411035
584,2.4332359999999653,-28.8611784,9.779997348999999,-135.8087654,-1.176531941,-0.994978771,10.463635445,-5.895366907,-2.507262349,-1.63383615
585,2.437402499999962,-28.90742016,9.772051811499999,-135.7915802,-1.4912912845,-0.398221351,9.360191345,-5.996888638,-2.3522259439999997,0.8814563154999999
586,2.4415689999999586,-28.95605087,9.760502814999999,-135.79774095,-1.8716130855,-1.155926466,10.310705185,-5.8317922355,-1.3908019064999997,-1.7460520865
587,2.445735499999955,-28.993108745,9.743737221,-135.7785835,-0.6854802225000001,-0.942896478,11.21907616,-4.946576714500001,-3.3885337115,0.5581854104999999
588,2.449901999999952,-29.051095009999997,9.7320070265,-135.7770233,-1.694099635,-0.31149180950000005,6.0317192075,-7.123235941,-1.8778821229999998,-0.9113289190000001
589,2.4540684999999485,-29.108839035000003,9.7353105545,-135.76794815,-1.209459692,-1.504186213,13.61154747,-7.2329542635,-0.7043786345,0.688664414
590,2.458234999999945,-29.15940952,9.723908901,-135.76285935,-2.159412384,-0.018382050499999983,11.678578375,-6.317200661,-2.045239806,-0.536727071
591,2.462401499999942,-29.216763495000002,9.724605560499999,-135.7668991,-1.1385139895,-0.9515175819999999,9.2413449295,-6.898099661,-0.22824852199999998,-0.8153267200000001
592,2.4665679999999384,-29.258951189999998,9.746928215,-135.77193069999998,-2.6087280515,-1.0909421445,10.837215425,-5.0956380370000005,2.0654488955,0.4042438715
593,2.470734499999935,-29.306825635000003,9.770290375,-135.79008105,-1.337775946,-0.4288436955,11.19935799,-5.488266349,2.966384411,-0.9489114435
594,2.4749009999999316,-29.365797999999998,9.805529594,-135.7954369,-1.526830107,-0.9299454245000001,6.8210095165,-7.100170851,3.447740376,1.1102106864999999
595,2.4790674999999283,-29.41795635,9.835187436,-135.83055115,-1.636642218,-1.052119464,12.56074238,-5.6676883700000005,4.6106271745,-2.3115570545
596,2.483233999999925,-29.45742416,9.8685355175,-135.82873915,-1.3658988765,0.18527834399999998,11.9514575,-4.925887108,2.8304947615,1.7395397424999999
597,2.4874004999999215,-29.49709797,9.899534704499999,-135.8608856,-1.5831101465,-0.9999070164999999,9.032632351,-4.19324255,4.5737932919999995,-1.915573537
598,2.491567000000032,-29.510055545,9.952001096,-135.85956955,-1.4906166795,-0.9078680575,11.130090715,-1.7218081955,4.8452082875,2.84281528
599,2.4957335000000285,-29.524097445000002,9.992068289999999,-135.89746475,-1.868653178,-0.3416100965,11.419796465000001,-1.019139171,5.861324310500001,-1.973224461
600,2.499900000000025,-29.5291481,10.0402741445,-135.8918686,-0.7197420004999999,-1.080592752,8.6553235055,-0.8548880219999999,4.145350739,3.0331417325
601,2.504066500000022,-29.540397645,10.071777823,-135.92998125,-1.7880757155,-1.50737226,9.067026139,-0.6861670014999999,4.979753435499999,-2.488659859
602,2.5082330000000184,-29.54947472,10.120305063,-135.9325409,-0.6384354829999999,-0.3406719865,12.62287283,-1.2079674825,4.648158431,2.23370862
603,2.512399500000015,-29.560747149999997,10.144697664,-135.96905515,-2.1772673725,-1.2682982685,10.530246733,-0.6720982935,4.1365453005,-2.748381853
604,2.5165660000000116,-29.548895835,10.189889430000001,-135.97094725,-0.894633204,-0.396137275,9.928541184,1.3135622740000001,4.255017519,2.114576876
605,2.5207325000000083,-29.54126167,10.239735605,-136.0149536,-1.9423654675000002,-0.415336281,7.6891338825,1.7230633499999999,7.2373473645,-2.0121454595
606,2.524899000000005,-29.526034355,10.29371548,-136.02821735,-0.8510833680000001,-0.982617557,12.435774805,1.9751329420000001,5.850599587,1.4302734135
607,2.5290655000000015,-29.501900675,10.331553935,-136.0642624,-1.485049471,-0.7052678095,8.644718647,3.546073437,5.516948223,-1.909669578
608,2.533231999999998,-29.473514559999998,10.369106295,-136.0797005,-0.850019753,-0.623373508,11.241871355,3.5503768620000002,4.260147333,0.2509874705
609,2.537398499999995,-29.441679954999998,10.401806834999999,-136.1218109,-1.6559658645000002,-1.2161776125000001,11.149757385000001,4.6475367545,5.3241243659999995,-2.844076872
610,2.5415649999999914,-29.403808595,10.439826015,-136.13428115,-1.1322642120000002,-0.763082237,11.152820590000001,4.6673429015,4.1363470555,0.5717033035000001
611,2.545731499999988,-29.360761645,10.47316122,-136.1734009,-1.870273471,-0.958218396,9.2370080945,5.8971977235,5.218663752,-2.505411595
612,2.5498979999999847,-29.313267709999998,10.517382625,-136.19096374999998,-1.059302151,-1.056444824,8.6011095045,5.9273078439999995,5.091521504,0.39612415450000005
613,2.5540644999999813,-29.25723553,10.55596495,-136.2213135,-1.1225422265,-0.847141892,12.90045357,7.2710175515,5.2587311255,-1.310353976
614,2.558230999999978,-29.209566115,10.581705095,-136.22309875000002,-0.7731179294999999,-1.4319295285,7.6968095305,5.570443392,2.255154252,0.9149853495
615,2.5623974999999746,-29.170248035,10.611907485,-136.2310791,-1.6290893555000001,-1.406547725,10.70498371,4.8068767784999995,3.0848442315,0.5073668960000001
616,2.566563999999971,-29.126785275,10.63165474,-136.2370224,-1.1539942925,-1.0853593350000001,9.3715448355,5.1936256885,1.8580691514999998,0.14513024699999993
617,2.570730499999968,-29.061504364999998,10.65165472,-136.2412949,-1.0837071835,-0.1458607015,14.715037344999999,7.8020250805,1.811432177,0.2816796305
618,2.5748969999999645,-28.980592729999998,10.651934149999999,-136.24834825,-1.447120905,-1.4526136520000001,8.078722477,9.7176446895,-0.13161277800000004,-1.0938433335
619,2.579063499999961,-28.87981606,10.67511463,-136.24655535,-1.2941482364999999,-0.085635988,9.266489981,11.9088668805,1.8047487735,1.0929661335
620,2.583229999999958,-28.739628789999998,10.68189955,-136.2506332,-1.4535067305,-0.3798613025,13.423696995,16.72531891,0.38243889799999975,-0.410231337
621,2.5873964999999544,-28.565966605,10.704389575,-136.2300644,-1.3824433985,0.16788297900000002,7.7876253129999995,20.288716315000002,0.6682757734999999,2.9846035840000003
622,2.591562999999951,-28.352647779999998,10.69446659,-136.22626495,-0.924921006,0.053765702000000005,12.51405859,25.367002485,-1.8127207905,-0.5760965645
623,2.5957294999999476,-28.09401131,10.708560945,-136.1953201,-1.254533768,-0.7302891165,8.793677569,30.21071434,-0.7634072155,3.5691480635
624,2.5998959999999443,-27.80056095,10.701980115,-136.18695445,-2.03591986,0.00023323299999999936,14.264526844999999,34.881469725,-1.708003849,0.09276212750000001
625,2.604062499999941,-27.467225075,10.71112728,-136.15167235,-0.3669284135,-0.7289618849999999,9.461051939,39.087610245,-1.4862293004999998,3.748564839
626,2.6082289999999375,-27.108067509999998,10.708503245,-136.13447575,-2.0231022235,-0.374467894,8.826497552500001,42.51638794,-1.7281298634999995,1.209986418
627,2.612395499999934,-26.71911335,10.698977945,-136.08962630000002,-0.22003966549999998,-0.5411444905,13.688540934999999,45.597723005,-3.9502501480000003,3.7559440134999997
628,2.6165619999999308,-26.309563635,10.66209364,-136.04353335,-1.141618818,-1.1232576965,5.930637001999999,47.975887295,-6.9149284365,2.440318167
629,2.6207284999999274,-25.87213707,10.633563995,-135.99333955,-0.8174861815,-0.5658590345000001,12.039395809999998,51.235015865,-6.205286503,3.363496542
630,2.624894999999924,-25.414935115,10.58295202,-135.9425659,-1.2939329444999998,-0.9483998415,11.26501465,53.600904465,-8.617082120500001,2.3728004394999997
631,2.6290614999999207,-24.92121506,10.52022028,-135.88327405,-0.539419599,-0.45903506899999996,11.1651268,57.80451584,-10.3148512845,2.680915475
632,2.633228000000031,-24.406165125,10.45334196,-135.81692505,-2.128864884,-0.982163621,8.8593924045,60.163282394999996,-11.104263305,3.372669697
633,2.6373945000000276,-23.868603704999998,10.396159175,-135.74284745,-0.9453539849999999,-1.0047096905,9.970613479,62.80547905,-10.373616218,4.731407881
634,2.6415610000000243,-23.298445700000002,10.33488512,-135.65945815,-2.113128841,0.05625147,10.305451868,66.4832859,-11.215694665000001,5.6589574815
635,2.645727500000021,-22.701760295,10.29141903,-135.57581325,-1.622376263,-0.78040874,9.295283793,69.65953827,-9.185983269000001,6.600721836
636,2.6498940000000175,-22.053554535,10.24370098,-135.49962615,-2.08663398,-0.1098744985,15.165362835,76.03307724000001,-9.235549090500001,5.668287754
637,2.654060500000014,-21.38920021,10.21038008,-135.42409135,-1.3500853775000001,-1.5584736465,4.190813899,77.967895505,-7.5434906505,6.355918884499999
638,2.6582270000000108,-20.708403585,10.193311215,-135.3626671,-1.4709238705,-0.802025616,12.863838675,80.214691165,-5.012356281000001,5.5197644235
639,2.6623935000000074,-20.014347075,10.17107582,-135.29876325,-1.3781094255,-0.558816215,6.656011105,81.846626285,-5.66286087,5.70858264
640,2.666560000000004,-19.30098438,10.151298995000001,-135.2377205,-2.197157204,-1.6231747865,12.270100119999999,84.17509842000001,-5.1730622055,5.4951777459999995
641,2.6707265000000007,-18.55638218,10.142035962000001,-135.16843415,-1.358103305,-0.5166764255,10.4570538995,87.76264190500001,-4.2343206385,6.947865247499999
642,2.6748929999999973,-17.791431425,10.152784350000001,-135.1085663,-2.0157800015,-0.90203011,7.888987303,90.40351104999999,-1.4724938869999997,6.554160356500001
643,2.679059499999994,-16.968036650000002,10.1639356595,-135.0328102,-1.1579876540000003,-0.37004254000000003,15.54249239,97.076347355,-1.9218159915000002,8.5022499565
644,2.6832259999999906,-16.116486549999998,10.159692765500001,-134.95180514999998,-1.393579632,-0.6816785335000001,6.5177962780000005,100.303646105,-3.7103775740000002,8.500742912
645,2.687392499999987,-15.248684885,10.166540625,-134.8618927,-0.901597545,-0.5929860325,10.459826945,102.140678405,-2.615338057,10.001267431
646,2.691558999999984,-14.33881521,10.167951105,-134.77187345,-1.4894663394999998,-1.102129906,8.495788335,107.1632538,-3.0482476354999997,9.765879633
647,2.6957254999999805,-13.38187504,10.154783725000001,-134.66902165,-0.7184835,-0.1759302505,10.757187841,112.5219841,-4.972513795,10.962368965
648,2.699891999999977,-12.373192785,10.118471146000001,-134.55793,-1.12615785,0.336508859,10.0840992905,118.59529495,-7.660876333,11.21964455
649,2.7040584999999737,-11.31887627,10.071354389,-134.44190595,-0.9956887065,0.389739111,9.4444091305,123.94452285,-8.8744854905,11.798815725
650,2.7082249999999704,-10.176790715,10.028996945500001,-134.32089235,-1.476507723,0.2308827635,14.308792115,134.37446595,-8.145044087,12.483460425
651,2.712391499999967,-8.949000835500001,9.9601974465,-134.19060894999998,-1.128186449,0.844976902,10.658962727,144.5357132,-11.232602119500001,13.366027835
652,2.7165579999999636,-7.666581869,9.8919758795,-134.06264115,-1.6831272245000002,-0.20124633599999997,10.4374308575,151.15340425,-10.777244095,13.09320259
653,2.7207244999999602,-6.337691069,9.825170517,-133.9325943,-1.080977768,-0.805523198,10.9141054145,156.6626282,-10.3604474075,13.830460075
654,2.724890999999957,-4.968461752,9.762888432,-133.78962324999998,-1.9331745205,-0.511317074,11.669415950000001,161.298439,-9.6051025375,15.44639635
655,2.7290574999999535,-3.564556837,9.6808776855,-133.6634979,-1.214339301,-0.8459264040000001,9.520121096,165.7837677,-11.45044422,13.6947937
656,2.73322399999995,-2.143162787,9.633423805,-133.53774645000001,-1.5800670984999998,-1.6807308795,11.98673582,167.90979765,-6.9332561495,13.856853959999999
657,2.7373904999999468,-0.7096823455,9.568645954,-133.4120903,-1.7233628035,-2.3005598185,12.25403786,169.41468809999998,-8.6769367445,14.249275205
658,2.7415569999999434,0.7097389700000001,9.494449615499999,-133.2973595,0.160132572,-1.421546429,10.581068518,167.9546814,-9.4296455365,12.922942160000002
659,2.74572349999994,2.119180322,9.3925485615,-133.1958046,-1.0995533915,-2.7435172795,10.934473037,167.00854495,-12.453984739000001,11.88565302
660,2.7498899999999367,3.490249157,9.283620834499999,-133.09568405,-0.3333464265,-2.395332098,8.078807592499999,162.4786682,-13.0107948785,11.89868259
661,2.7540564999999333,4.8337435725,9.12449646,-133.01032635,-0.7191742059999999,-2.1121069785,9.5722162715,159.4627838,-18.836546894999998,10.9959821685
662,2.75822299999993,6.189868688500001,8.9717431065,-132.92337035,-0.4392838035,-2.422771573,16.530387405,160.95830535,-17.792663572,11.43958902
663,2.7623894999999266,7.4907524585,8.772197723000001,-132.841835,-0.3586663905,-2.463300705,6.3950337175000005,154.51319885,-23.158156395,12.00038052
664,2.766555999999923,8.7566189765,8.538834095,-132.7870445,-0.5020784140000001,-1.9357905985,16.319420815,150.8469238,-27.380141254999998,9.6094975495
665,2.77072249999992,9.998913767000001,8.287088394,-132.73003384999998,-0.9489911645,-3.261347413,7.3733241555,147.95285795,-29.234724045,11.165155885
666,2.77488900000003,11.20721817,8.0219624045,-132.68481824999998,-0.634569809,-1.777947605,13.809688565,144.1747742,-30.879174235,10.288353918
667,2.7790555000000268,12.365738870000001,7.752644062,-132.67062375,-1.3395318095,-2.03553468,8.5339734555,138.66384125000002,-31.825708390000003,7.823951006
668,2.7832220000000234,13.449156285,7.4948606495,-132.63537215,-0.5745989235000001,-3.740973234,10.116478204,129.3802223,-29.79903793,10.2735757815
669,2.78738850000002,14.508404254999999,7.2493879795,-132.64385985,-3.0913976435,-2.5313476325,10.5329318,127.1103325,-29.351549145,5.751232147
670,2.7915550000000167,15.48787737,7.026647806,-132.60768124999998,-0.44695723050000014,-2.9260460139999998,9.427361964500001,116.93162535,-25.300261974999998,10.347035885
671,2.7957215000000133,16.427641870000002,6.8044946195,-132.63167190000001,-2.8734456,-3.7928442955,14.22151327,113.0023727,-26.953486445,4.139771581
672,2.79988800000001,17.29508877,6.6152327065000005,-132.595253,0.04165542150000001,-2.310206056,7.874790430499999,103.5041008,-21.059220789999998,10.101599691
673,2.8040545000000066,18.098649025,6.449904442,-132.61551285,-3.880819559,-3.424547553,12.320446489,96.60020447,-20.193789961500002,3.2121045589999997
674,2.808221000000003,18.822678565,6.3101012705,-132.5702629,0.821224289,-3.523052454,9.783405303,86.19519806,-14.765915873,9.881758211000001
675,2.8123875,19.446163175,6.2129197125,-132.58171465,-4.7816313505,-3.78703475,6.0275171995,74.88414764500001,-12.059731484,1.9043518905
676,2.8165539999999964,20.012955665,6.1034877299999994,-132.51935575,2.628453195,-1.9019640084999998,7.4732248765,67.11765288999999,-10.40119076,10.935017590000001
677,2.820720499999993,20.490767475,6.033517360499999,-132.515625,-4.595214963,-3.6390067334999996,11.143543245,57.209253315,-8.302738426000001,2.7384771105
678,2.8248869999999897,20.938104629999998,5.96659112,-132.4518814,0.8226237594999999,-2.249866098,13.89551973,52.77605629,-5.352967513499999,9.520175457
679,2.8290534999999863,21.30222988,5.9719433785,-132.41762925,-4.3848581315,-2.5796813965,11.037338734999999,43.18431091,1.4744223135,2.9679327015
680,2.833219999999983,21.581435205,5.9818537235,-132.3371277,1.019524857,-3.636718273,4.894959569,32.421171189999995,4.055405141,7.978631258
681,2.8373864999999796,21.821474074999998,5.993357658000001,-132.3132477,-2.2906204465,-0.690843895,8.810273172,28.4249382,1.7363390925000006,1.525155984
682,2.8415529999999762,21.986115455,5.987856388,-132.23732760000001,1.210134685,-1.554984324,8.003471851499999,18.727235795,2.1880325075,8.092135906
683,2.845719499999973,22.10412788,6.055975199,-132.1772957,-4.297171235,-4.351929426,11.767148975000001,13.3419847495,9.640636444,2.896407485
684,2.8498859999999695,22.210554125,6.091740608,-132.08710865,1.415420368,1.229402546,12.54730368,11.538544654999999,7.4526307885,7.791154623000001
685,2.854052499999966,22.262888904999997,6.1512064935,-132.02126314999998,-3.1711114645,-2.2599877415,3.4735196085,5.38399148,8.950839517,3.8936781885
686,2.8582189999999628,22.305205344999997,6.1864948275,-131.92930985,1.959148109,-1.188809961,7.508332728499999,3.8216066065,7.4937347155,7.972233534000001
687,2.8623854999999594,22.365670205,6.252619505,-131.8732567,-4.2950719594999995,1.8272337915,16.498861314,6.4410920140000005,9.287406923,2.58144784
688,2.866551999999956,22.421958925,6.2607867719999994,-131.80833435,3.071546912,-2.104968011,9.9324252615,5.841986418,3.2741913815,6.2269039155
689,2.8707184999999527,22.511198995,6.3451542855,-131.73459624999998,-4.07392633,-0.05002622300000001,9.556268216,9.672762154,12.10550022,3.6218725445000004
690,2.8748849999999493,22.602757455000003,6.339550972,-131.7175522,1.7985045315,-0.03512156000000005,13.199535845,10.676387549,-0.42099046749999935,1.579309881
691,2.879051499999946,22.72029114,6.3671023845,-131.6612625,-1.0402702090000002,-0.521275818,2.7470827699999996,13.306421754999999,5.0287759315,4.292844772
692,2.8832179999999425,22.848540305,6.327312708,-131.6851082,-0.7157577274999998,0.9337456975,13.025763034,15.628337380000001,-6.081507655,-1.322399199
693,2.887384499999939,23.01078129,6.317809581500001,-131.65325545000002,0.8562027215000001,-0.8169898985,10.39220071,18.98056507,-0.17360723050000004,3.3354740145
694,2.891550999999936,23.211359025,6.2362158295,-131.6906891,-1.753929019,0.7397883534999999,9.584056379,24.495793345,-11.323126792,-0.788675636
695,2.8957174999999324,23.428254125000002,6.184222698499999,-131.67766569999998,0.33874571350000005,-0.29241666200000005,14.188426969999998,25.77564812,-5.6875367164999995,3.3634458780000003
696,2.899883999999929,23.652067185,6.1072382925,-131.7347641,-2.4121890235,-1.6324868795,2.9998527170000004,27.523248674999998,-11.730405569,-3.020970941
697,2.9040504999999257,23.903079034999998,6.036679983,-131.72530365,1.9997099635,0.917798087,13.334566115000001,29.931632045,-7.8781650045,3.8842998745
698,2.9082169999999223,24.137674330000003,5.9261288645,-131.809433,-4.336479723,-1.4899876045,11.234763145,29.121714595,-16.73622179,-4.210746765
699,2.9123835000000327,24.372051235,5.846948623499999,-131.7996788,3.2130863365,-1.0194509029999999,3.4069780109999996,27.95295906,-8.790996550000001,4.350254893500001
700,2.9165500000000293,24.6067276,5.7373373505,-131.87059405,-5.438173413,-0.8037759065,13.7435455335,28.93241596,-16.006333353,-2.674199104
701,2.920716500000026,24.80756378,5.60716629,-131.8824463,4.516847848499999,-0.8912635595,8.6807723055,24.19492531,-15.388492820500002,4.630807996
702,2.9248830000000225,25.006051065,5.4995253085,-131.95343780000002,-6.183282375499999,-0.7596884070000001,7.1222935895,24.55792618,-15.812927007499999,-2.6764199735000003
703,2.929049500000019,25.19334793,5.322302103,-131.9732399,5.1335583925,-0.8198117165,12.60032749,22.64669228,-20.884572025,6.2449352739999995
704,2.933216000000016,25.34159374,5.1923403740000005,-132.0395622,-6.25133729,-1.793560624,9.332336186,18.45560169,-18.010809899999998,-0.938205063
705,2.9373825000000124,25.49303055,5.012645006,-132.06668475,3.582199514,-0.5483186615,9.577695371,18.393927575,-21.50138426,5.6717121605
706,2.941549000000009,25.5930891,4.8792779445,-132.12211225000001,-5.1013116835000005,-1.332958579,9.897882937999999,12.523554325,-17.825600625,0.4897057414999999
707,2.9457155000000057,25.680333134999998,4.685051918,-132.17943194999998,3.017891705,-2.0179047585,12.622765545,10.971064089999999,-24.58634567,3.3031432625
708,2.9498820000000023,25.736165045,4.542865991499999,-132.24157714999998,-4.1024285554999995,-0.892754614,6.664139986,7.24537924,-19.13455105,0.25404197000000006
709,2.954048499999999,25.784379004999998,4.3456203935,-132.3255119,1.6016682384999998,-0.6561719030000001,11.8199963585,6.490478754,-26.30487633,0.615317911
710,2.9582149999999956,25.80797005,4.193342685999999,-132.37465285,-2.952573627,-1.010657355,6.028044939,3.2316906449999996,-19.552795410999998,2.195716828
711,2.9623814999999922,25.84005451,3.9978599545,-132.4746323,-0.46689379250000007,-1.10526669,15.286753180000002,4.62389791,-26.947929385,-1.168676719
712,2.966547999999989,25.846127510000002,3.8381503820000002,-132.51316450000002,-1.0706709625,-1.0477817355,3.9582956435,1.0096424815,-19.814361691,3.7165638210000003
713,2.9707144999999855,25.8559351,3.6403778795,-132.62809375,-1.4106534715,-0.9773803130000001,17.20090675,2.0065014960000003,-27.978474615,-2.6526248455
714,2.974880999999982,25.839580535,3.487294078,-132.66891099999998,-1.2907118794999999,-1.4842872994999998,2.4994235785,-1.712011248,-19.222752569999997,3.116529703
715,2.9790474999999788,25.829322815,3.3186528685,-132.77456285,-2.925893247,0.33315329250000003,17.000731469999998,-0.5157172455,-24.386790275000003,-3.2734241485
716,2.9832139999999754,25.82144165,3.187523246,-132.79306795,0.7813301084999997,-1.168895781,8.9633231165,-0.899065882,-15.694222567499999,4.362399697
717,2.987380499999972,25.803964614999998,3.037087679,-132.90356445,-4.007947445,-1.2362181545000002,9.1885123255,-1.3998968599999997,-22.697255135,-4.807852745
718,2.9915469999999686,25.79099083,2.9329564575,-132.90121845,1.640026152,0.09255412200000002,11.5562129005,-1.6343548895,-11.69824028,5.1815816165
719,2.9957134999999653,25.767513275,2.8119441270000003,-132.994278,-4.938419103499999,-1.672204077,8.3497805595,-2.2972774504999998,-18.617758755,-4.496215224
720,2.999879999999962,25.74770737,2.7246479985,-132.99287415,1.9737597705,-0.4827813505,9.8107306975,-2.4442192315,-9.9199657455,4.2179796695
721,3.0040464999999585,25.725312234999997,2.6511365175,-133.0513649,-6.6198699475,-0.15531146499999998,10.798151972500001,-2.394642949,-11.661771774999998,-3.209047735
722,3.008212999999955,25.70396042,2.5932688710000003,-133.01504515,4.119936347,-1.1135149599999998,12.245788095,-2.8147167115,-4.91863811,6.4652638435
723,3.012379499999952,25.689200405,2.559229851,-133.06383135,-7.8766744135,-1.201074839,10.663434030000001,-1.558786422,-6.903600333999999,-4.25441587
724,3.0165459999999484,25.648208615,2.5154458285,-133.01844405,5.2716259955,-0.13188517100000002,7.866025925000001,-5.1966807845,-2.996757509,6.570590377
725,3.020712499999945,25.59368706,2.5316609144999997,-133.04323195,-8.794395447,-1.0165679305,11.914212225,-6.444566903999999,-0.2422915695000003,-4.3296642305
726,3.0248789999999417,25.561724665,2.5206160545,-132.9912567,4.6981430055,-0.4580824375,9.445641994999999,-4.1587212085,0.867368549,5.568721533
727,3.0290454999999383,25.513807295,2.5656807425,-132.9903641,-7.435181141,-0.45619913949999996,12.397054675,-5.7846547365,4.1728019715,-3.1296240685
728,3.033211999999935,25.462040899999998,2.5727518795,-132.9292183,3.8371574875,-0.7224957645,9.297600748499999,-6.5787103175,3.285186261,5.6096715925
729,3.0373784999999316,25.422488209999997,2.6705887319999997,-132.91760635,-8.1829888825,-0.8399267939999999,10.243948935999999,-4.841994703,10.4711852065,-4.6325851675
730,3.041544999999928,25.384928705,2.706990004,-132.8496437,4.4117775555,0.2860867005,13.08260298,-4.9258036615,6.797026279,4.823654294000001
731,3.045711499999925,25.350308415,2.835446358,-132.8144455,-6.882638216,-0.6059708895,10.95840645,-4.3781971935,14.939459325000001,-3.7781705855
732,3.0498779999999215,25.321502685,2.8952513929999997,-132.7583809,3.048509419,-0.7080981654999999,9.356169698999999,-3.830699265,8.704576255,2.3124021295
733,3.054044500000032,25.283394815,3.033029318,-132.70288465,-5.1832101345,-0.46210262899999993,11.1082654,-4.939475298,17.053370475,-1.9132427575
734,3.0582110000000284,25.23794174,3.1063711645,-132.64222335,1.979265067,-0.500933632,9.639173984500001,-5.864808917,10.390960691,2.1018211245
735,3.062377500000025,25.19707203,3.2848726509999997,-132.56952665,-5.0272743705,-1.0437488849999998,9.7265162445,-5.4161590935,22.329705715,-2.1583587525
736,3.0665440000000217,25.1487236,3.3631607295,-132.5048218,1.9469780920000002,-0.5886825474999999,11.90615892,-6.270455479500001,11.1112127315,2.2647083400000003
737,3.0707105000000183,25.090933800000002,3.5380852220000003,-132.42556,-3.8239391445,-0.379074947,9.8854713415,-7.5263755324999995,22.279233935,-1.221722841
738,3.074877000000015,25.02867794,3.6223685740000002,-132.3740463,0.49435371150000007,-1.142744511,8.937601328500001,-7.8744580755,11.0853185655,0.5449492335
739,3.0790435000000116,24.966252325,3.778834462,-132.2835922,-2.1037466080000002,-0.12665513150000002,10.1227412205,-8.210248947,20.8677721,1.040239245
740,3.083210000000008,24.905200954999998,3.843908429,-132.23669815,-0.1378876565,-0.03483653050000002,11.054623605,-7.7048330315,8.745385646999999,1.012005568
741,3.087376500000005,24.8530035,3.989415646,-132.15258790000001,-1.9625005425000002,-1.457318783,10.112616538000001,-6.9729218485,19.310460565,0.857924104
742,3.0915430000000015,24.788765910000002,4.0268279315,-132.1107063,0.024372816000000075,-0.3488717675,10.444450378500001,-8.058924675,5.476702988,1.880546525
743,3.095709499999998,24.723527905,4.154515147,-132.03199385,-2.1804240345,-1.194330409,10.268126965,-8.518485544499999,17.095351700000002,1.2074689865
744,3.0998759999999947,24.651698115000002,4.181656599,-132.00876614999999,-1.1348303559999997,-0.559119001,10.3690848365,-8.8177518855,3.4153636695,0.36904311199999995
745,3.1040424999999914,24.573327065,4.311332941,-131.922142,-0.9855926034999998,-0.9685213564999999,8.2259955405,-10.182891367500002,17.711508275,2.0379518269999997
746,3.108208999999988,24.49206257,4.341621637499999,-131.8867378,-2.5399482549999997,-0.0318428875,11.374421118499999,-10.070366146000001,4.3672020135,1.5598108764999998
747,3.1123754999999846,24.41064739,4.4738276005,-131.8160095,-0.6913351715,-1.9465216395000002,10.13449764,-10.436178683,17.203693389999998,0.25849318499999985
748,3.1165419999999813,24.32829666,4.5220565795,-131.7660446,-1.674228989,1.1843932585,10.103764055,-10.341845034,7.035789489499999,2.2608283755
749,3.120708499999978,24.252965930000002,4.6471171380000005,-131.69906235000002,-1.002205029,-1.6854981185,10.916079519,-9.7038364425,16.25649786,0.3007378580000002
750,3.1248749999999745,24.1768589,4.7004055975,-131.63942715000002,-2.4317352325,-0.16797417399999998,12.144832130000001,-9.696852685,8.055197478,3.0807271005
751,3.129041499999971,24.108807565,4.8463129995,-131.5807724,-0.14289760549999997,-0.7923606785,7.499379158,-8.765456914000001,18.10435867,-1.6461125610000003
752,3.133207999999968,24.037475585000003,4.9127986435,-131.49663925,-2.9941137735,0.95790194,14.75581741,-9.409819603,10.7225103395,5.212343633000001
753,3.1373744999999644,23.981290819999998,5.076179028,-131.45627595,-0.0972266195,-2.5316689610000003,7.7248294355,-7.1769390105,19.17151165,-4.3699324725
754,3.141540999999961,23.917078975,5.181097984,-131.35541915,-3.1671782134999997,1.453458935,11.211545945000001,-8.777322530500001,15.710534095,5.135219239
755,3.1457074999999577,23.86729431,5.364839554,-131.32431795000002,0.11751753050000002,-1.620550096,10.0677227955,-6.322044611,20.954515455,-6.3547801945
756,3.1498739999999543,23.814424515,5.495001078,-131.19905855,-3.4044954780000003,-0.5032408534999999,9.391961097500001,-7.7546494,19.64958477,6.6102298489999995
757,3.154040499999951,23.76937389,5.712993145,-131.18395995,-0.268516779,-0.251015231,12.310690404999999,-5.5816144945,23.938311575,-9.7600293155
758,3.1582069999999476,23.728736875,5.8793218135,-131.0377846,-3.101821065,-0.528986812,6.5582449435,-6.632477045,24.602270124999997,7.150960921999999
759,3.162373499999944,23.704886435,6.1196713445,-131.01796339999999,-0.8652636705,-0.5342836529999999,14.695691109999999,-3.1147448570000003,26.68053627,-10.184675691999999
760,3.166539999999941,23.69163227,6.302373170999999,-130.8566475,-2.790095925,-0.9425908585,8.2868278025,-3.6702731254999996,27.113628390000002,8.021020174
761,3.1707064999999375,23.67516899,6.564878702,-130.82956315,-0.7862215935,-0.20574373,13.67062044,-2.3278948739999996,29.434804919999998,-10.520441531500001
762,3.174872999999934,23.672903060000003,6.759451628,-130.67094805,-1.8290250895,-0.6309633855,8.5247547625,-2.463847995,28.275190355,7.146260977000001
763,3.1790394999999307,23.650990489999998,7.0265471935,-130.62628555,-0.7210453450000001,-0.5216105135,12.495786665,-3.2540994879999996,30.796908379999998,-8.7815547005
764,3.1832059999999274,23.630951885,7.2216904164999995,-130.49636075,-2.069382012,-0.2912401855,7.773271799,-4.3205416205,26.94959259,3.9703563455
765,3.187372499999924,23.59431076,7.4828851225,-130.45163345,-0.556727037,-0.9016411304999999,14.17269468,-5.0595159535,30.135668755,-8.515800476999999
766,3.1915389999999206,23.562035559999998,7.6698799135,-130.35240175,-1.481359422,-1.317470744,8.65991354,-5.423106313,24.58419132,1.0396182535
767,3.195705500000031,23.516143795,7.892588614999999,-130.3124275,-0.39557164899999997,-0.121188134,13.94864273,-6.1528830525,25.769201275,-6.961576223
768,3.1998720000000276,23.444036485,8.076430559,-130.2376709,-1.257227618,-0.9439231305,6.1411581040000005,-9.877718449,23.079276085,-1.430459656
769,3.204038500000024,23.333006855,8.264334201499999,-130.20978925,-0.649187818,-1.3082717659999998,12.1480097785,-13.756164075000001,21.28826618,-6.7666504385
770,3.208205000000021,23.209978104999998,8.422667026500001,-130.16067885,-0.8176378009999999,-1.378415793,11.53080273,-15.610881805000002,19.058129788499997,-2.9574777485
