,time,Euler_X,Euler_Y,Euler_Z,Acc_X,Acc_Y,Acc_Z,Gyr_X,Gyr_Y,Gyr_Z
0,0.0,-6.949511528,16.730776785000003,4.2191925000000055,-3.2292444705,-0.589801684,9.8101141445,-9.2833285335,66.57181168,-8.6988863945
1,0.0041664999998829,-7.046658992499999,16.92608833,4.194046049999997,3.289027095,-0.647906991,4.717910886,-12.1150674815,23.259929655,-0.331883857
2,0.00833299999999325,-7.169125557,17.43918705,4.077117900000005,-6.7123389245,-0.27059715999999995,10.8679056185,-12.047967435,62.42491722,-5.991254806500001
3,0.0124994999998762,-7.3214030265000005,17.687786105,4.065170299999991,2.7786602975,-2.8589859005,1.309559822,-19.17383194,29.41217041,2.0921921135
4,0.0166659999999865,-7.4896128175,18.144023895,3.974685649999998,-2.544939041,0.537285596,-0.659661651,-18.34060955,55.290304185,-3.4873054025
5,0.02083249999986945,-7.5955066680000005,18.489518165,3.974105800000004,1.9259617325,-2.21888876,1.4737423064999997,-14.018162255,40.75440788,5.060708761
6,0.02499899999997975,-7.730019331,18.87274456,3.883094750000012,-2.9446121455,-0.047063574,7.6756682395,-14.13178158,46.624145505,-4.4360041615
7,0.0291654999998627,-7.885749817,19.239182475,3.9059448000000003,0.225101441,0.0628024865,4.4367398025,-20.916160585,42.85730934,8.225560427
8,0.03333199999997305,-8.083716154000001,19.637252805000003,3.8002090499999923,-1.6402822735,-1.314634323,2.6100507375,-21.02465057,48.638072965,-5.5300633910000005
9,0.03749849999985595,-8.2139012815,19.986943245,3.8116225999999926,-0.8243416845,-0.3756653215,0.07217261199999997,-17.418287275,41.002202985,6.906698942
10,0.0416649999999663,-8.367980003500001,20.344697,3.7263335999999896,-0.471604958,-1.154890627,0.269228429,-16.44808388,43.535610195000004,-3.638726711
11,0.04583149999984925,-8.459786415,20.664628025,3.7170944500000047,0.027838321,-0.19635411349999998,5.258800507,-11.960865495,37.776132585,4.2722814085
12,0.04999799999995955,-8.598117351500001,20.9914732,3.614410399999997,-1.4107724425,1.2052570585,7.315625429000001,-13.702600480000001,40.16680908,-5.8980069165
13,0.0541644999998425,-8.722066879500002,21.337047575,3.6011963000000122,0.29111629,-1.0377235415,2.1483450535,-15.63520527,40.864253995,4.4656379225
14,0.0583309999999528,-8.858089447000001,21.610273365,3.5209655499999997,0.6668826345000001,-0.3669675255,0.975142151,-14.28382635,33.446025844999994,-4.169932127
15,0.06249749999983575,-8.963853836,21.897559164999997,3.518783599999992,-1.935263574,-1.191784978,0.24459669,-13.927469255,33.741704940000005,4.7814981935
16,0.0666639999999461,-9.054464817,22.18371296,3.4668503000000044,1.271432221,0.6499431725,-1.7263934015000002,-10.0007553115,34.49951553,-0.694838077
17,0.07083049999982904,-9.116279601999999,22.40764713,3.4790344000000033,-1.1207745075,-0.5544750095,3.549784422,-9.304032325,25.967743874999996,5.260079145500001
18,0.07499699999993935,-9.1771306995,22.642679215,3.45264435,0.31466180850000003,-0.22002032400000002,6.5635201930000004,-7.55415535,27.991820335,1.2273581624999998
19,0.0791634999998223,-9.214879036,22.87345505,3.441474900000003,-0.7688793835000001,2.0523370505000003,1.4736267325,-5.343542814,27.182035445,2.8875329494999997
20,0.0833299999999326,-9.2407717705,23.03657532,3.4178924499999965,1.4596586825,-1.9220294949999999,0.008114576500000026,-3.4716645479999997,19.425676345,0.197946869
21,0.08749649999981556,-9.241015434,23.160315515,3.413101150000003,-0.7823719680000001,-0.6318901180000001,3.8293952940000002,-1.1360939445,14.38794041,1.5435780285
22,0.09166299999992585,-9.2595887185,23.26829052,3.395164500000007,0.761319697,1.666061759,1.8634610175,-2.844019294,12.797123435,-0.2386798635
23,0.0958294999998088,-9.225991249,23.35136318,3.385559050000012,-1.3453995585,-1.533587277,0.912299067,3.1561415195,9.656816959,0.237796165
24,0.09999599999991915,-9.156499862499999,23.370152475,3.3999099499999943,3.228392959,1.675785184,3.780046463,6.169406414,1.6572538615,1.600428641
25,0.1041624999998021,-9.084696769499999,23.3551054,3.3966293499999978,-1.858231127,0.2618932055,4.6805667875,7.4438169005,-2.0765843989999997,-0.964721739
26,0.1083289999999124,-8.975886822,23.28946495,3.4432906999999915,2.2632420064999996,-1.500328362,4.198919654,9.349044323,-8.894865512500001,3.5233798025
27,0.11249549999979536,-8.872453213,23.20919323,3.4424438499999894,-1.50896126,0.8976607025000001,5.1600091455,11.122214320000001,-9.85220957,-1.9058531525
28,0.11666199999990565,-8.759970188,23.085170745,3.5031127999999967,0.13655448050000002,-0.903688759,4.9964032175,9.1674776075,-16.025882725,3.9632786509999995
29,0.1208284999997886,-8.631961346,22.9788475,3.504592900000006,-0.2706438525,-0.242205296,5.033172130500001,13.9616704,-12.98793268,-2.087932348
30,0.1249949999998989,-8.4887690545,22.786649705000002,3.5607605000000007,-2.0579831005,-0.416115695,5.0620914695,13.066489215,-24.027466775,2.400215447
31,0.12916149999978185,-8.323106289,22.60291958,3.5764464999999888,0.7025963664999999,-0.39368318,3.8174738885,17.824159625,-22.41479683,-1.8265076875
32,0.1333279999998922,-8.109954357,22.30813026,3.643600500000005,-1.6579098105,-0.948671609,4.064433575,21.031733510000002,-36.358074189999996,1.9485355615
33,0.1374945000000025,-7.942382574,22.1274004,3.663047750000004,1.5857465265,1.0760076345,8.3929924965,17.896440505,-22.12773609,-1.2088582515
34,0.14166099999988546,-7.757944107,21.845521925,3.7284469499999915,-3.3863147495000003,-2.0105444195,7.0038375854999995,17.692403795,-34.788213729999995,2.2957428695
35,0.14582749999999575,-7.5535469055,21.593037605,3.756484999999998,2.0927538869999998,0.438446,6.152213573499999,21.953860285,-30.79491711,-1.2590308785
36,0.1499939999998787,-7.390795708,21.31171513,3.8253249999999923,-4.299329757500001,-1.041162759,8.6875600815,15.03771925,-34.741622925,2.8667935135000002
37,0.15416049999998904,-7.2175135610000005,21.088131904999997,3.8422470000000004,1.5291044120000001,-1.3266846535,5.124131918,18.729755405,-27.20384884,-1.8528397085
38,0.158326999999872,-7.054068327,20.836212155,3.9031295999999998,-5.166040897,-0.881633803,12.019135474999999,15.4929533,-31.12095833,2.7408924105
39,0.1624934999999823,-6.966360330500001,20.62116432,3.9179458499999953,1.075283289,-1.4112332459999999,5.7759269475,8.565739154500001,-26.165932655,-1.8180099725
40,0.16665999999986525,-6.8671638965,20.499794005,3.961349499999997,-5.2431008815,-1.263474643,8.7006788245,8.570870399,-15.32072258,2.8077818155000003
41,0.17082649999997554,-6.7940557004999995,20.24598408,3.9759063500000025,1.724344373,-0.3066450205,2.8633527755,6.833858490000001,-30.785740855,-2.3128011225
42,0.1749929999998585,-6.740235805499999,20.202148435,4.004333500000001,-4.4918310644999995,-1.364369601,14.988196371,3.7731431719999997,-5.875213861000001,2.289118707
43,0.1791594999999688,-6.741746426000001,19.967722895,4.037986750000002,1.89101243,-0.31951810449999996,6.2845394595,-2.901672423,-28.732122420000003,0.153563872
44,0.18332599999985175,-6.731454134,19.97915077,4.044250500000004,-7.489460944999999,-2.027264595,9.55484143,-0.5257706045,1.0130494835,0.5839148759999999
45,0.1874924999999621,-6.7738001345,19.887250899999998,4.091064450000005,3.504251838,-1.7772321105,8.212181897,-8.3300960065,-11.92422247,3.633840561
46,0.19165899999984504,-6.8368823525,19.889697075,4.079208350000002,-7.788125753499999,-1.527965307,11.9603865125,-8.595907211,0.18563288450000004,-1.5470358135
47,0.19582549999995535,-6.876729965,19.84271145,4.158569350000008,4.6999557015,-0.4492901695,-1.978545189,-9.349261282,-7.0193903445,7.9063220025
48,0.1999919999998383,-6.9125125405,19.806458475,4.1252898999999985,-6.838158131,-0.12128212699999999,14.240909097500001,-4.454930067,-4.133855581,-4.4878442285
49,0.2041584999999486,-6.957265854,19.843012809999998,4.220008849999999,3.7484914065,0.05909025700000001,17.57343864,-10.556967734,2.7100570205,10.828734875
50,0.20832499999983156,-7.0486989025,19.683682445000002,4.201408400000005,-3.394182801,-0.44051006449999996,7.2118682865,-11.73700571,-18.9747715,-4.64518857
51,0.21249149999994185,-7.033175945,19.769361495,4.294876099999996,0.16830586649999998,-0.072390029,9.091699359500002,-3.2554864885,8.5571088795,11.42028141
52,0.2166579999998248,-7.066967249,19.61883545,4.287704450000007,-1.3384482265,-0.48154354099999996,16.247914315,-5.283923626,-18.07723713,-3.250011444
53,0.22082449999993514,-7.0758183005,19.650372505,4.396491999999995,-2.8879963159999997,-1.1196264325,9.5685520175,-6.7807290555,1.890202701,12.345818995
54,0.2249909999998181,-7.0476050375,19.493104934999998,4.386894250000012,0.6494591905,0.5918771844999999,10.764980315,2.252010703,-18.839307785,-3.629839182
55,0.2291574999999284,-6.969233989499999,19.422866825,4.486145000000008,-2.770223141,-0.19814828049999994,17.087183955,4.105117321,-10.084877015,9.7977032645
56,0.23332399999981135,-6.9566698075,19.284434320000003,4.4928436000000005,-1.1050778625,0.12220627050000002,15.61229801,-0.282928486,-16.814647675,-1.492874861
57,0.23749049999992164,-6.871671438,19.181360245,4.546607949999995,-1.5373914245,-0.964975685,8.5878705965,6.7431919575000006,-13.361361030000001,4.2407063245
58,0.2416569999998046,-6.777538061,18.966231345,4.533966050000004,-1.431370527,0.936122194,15.824848175,10.263765333999999,-25.686055185,-4.715116024
59,0.2458234999999149,-6.645956278,18.91983509,4.553237949999996,-4.5416891575000005,-0.5770291985,17.41025591,13.708209035,-6.135346413000001,1.1975488365
60,0.24998999999979785,-6.5071940425,18.769662855,4.530426050000003,0.968837589,1.5930909514999998,16.94318342,16.00981903,-17.818966865,-4.881236315
61,0.2541564999999082,-6.3597722055000006,18.595888135,4.535835299999988,-4.3755341770000005,-2.239429414,11.432549,16.151383875,-21.140221595,-2.0448752045000003
62,0.25832299999979114,-6.141835451,18.532811165,4.551177949999996,-3.0350919965000003,0.3926701245,19.662560465,24.042222975,-7.9188489915,0.6530223785
63,0.26248949999990145,-5.942859411000001,18.34310532,4.566986099999994,0.478155613,-1.672591567,9.433719871500001,21.947121619999997,-23.17710495,-0.92544952
64,0.2666559999997844,-5.6713707445,18.205003740000002,4.6183929500000005,-0.4750285745,-0.5094301399999999,8.6273298265,29.11684227,-17.27552414,3.9073913095
65,0.2708224999998947,-5.3891277315,17.991932865000003,4.641159049999999,-1.2501283289999998,-1.702230245,19.911637305,31.691117285,-26.049331665,-0.20013071600000001
66,0.27498899999977766,-5.131559372,17.83126736,4.695518450000009,-5.1364338395,1.2041007875,26.78706646,27.380638124999997,-19.951325415,4.154511213
67,0.279155499999888,-4.8940868375,17.633162499999997,4.699707050000001,-0.8354333635,-1.6641576885,14.822248935000001,27.013890265,-24.072052005,-1.9216971395
68,0.2833219999999983,-4.6736285685,17.434877399999998,4.775939949999994,-1.372167766,-1.185076058,13.160001755,22.170883179999997,-24.611679080000002,6.457021475
69,0.28748849999988124,-4.4806280135,17.205738065,4.770515449999991,0.556295067,-2.111421764,21.24385357,22.02326965,-27.709317210000002,-3.1354162690000003
70,0.29165499999999156,-4.331171750999999,16.91604996,4.846313449999997,-4.307492733,-3.8502386805000004,11.623009685,13.738430025,-35.48819542,5.7585995195
71,0.2958214999998745,-4.167540312,16.69022465,4.849533100000002,-2.4027240274999997,-1.2307416795,13.31681633,18.19347763,-27.401457785,-1.960822761
72,0.2999879999999848,-4.0554778575,16.4133997,4.9233475000000055,-4.2631275655,-0.8990893515,19.881303785,9.403688430999999,-33.90297699,5.845982075
73,0.30415449999986777,-4.005443096,16.200525759999998,4.927551249999993,0.6396072655,-4.4173243045,17.514819145,4.532672882,-25.866552355,-1.6333056095
74,0.3083209999999781,-3.9568499325,15.95789671,4.9765396500000065,-5.9398958685,-0.19945779449999995,11.496423244999999,2.685693145,-29.589728355,3.3874083754999997
75,0.31248749999986103,-3.929999232,15.77777958,4.980606050000006,-0.05318677399999999,-3.2318432925,14.818208215,1.7576495410000001,-21.946350095,-1.3380242585
76,0.31665399999997135,-3.916588068,15.558662415,5.0353622499999915,-5.270502329,-2.22574687,21.773651125,-1.676721573,-26.81841373,4.2903866765
77,0.3208204999998543,-3.9747016429999995,15.37158394,5.0452193999999935,0.374802634,1.069201082,20.766830445,-8.621474743,-22.825535775,-0.725075364
78,0.3249869999999646,-4.068123936499999,15.208492755,5.090713500000007,-4.5991632935,-2.961172104,15.065766810000001,-14.165768145000001,-20.041241645,3.6710469725
79,0.32915349999984755,-4.1785146,15.106419085,5.12524415,-3.886036873,-2.9423937794999997,14.234650134999999,-15.66462755,-12.85553932,2.789282203
80,0.33331999999995787,-4.298227429500001,15.04773998,5.148162849999991,-4.785856962,0.6019004210000001,19.112429615,-16.586930275,-7.372822046,1.918590009
81,0.3374864999998408,-4.464565277,14.994882585,5.1487808500000085,-0.789909929,-3.6928917165,14.434942244999998,-21.31426239,-6.6808300015,-0.7305503485
82,0.34165299999995113,-4.614073038,14.96303129,5.144401549999998,-3.0063109399999997,-0.057999595499999994,10.9667410835,-19.31232643,-3.9241083860000003,-1.001715392
83,0.3458194999998341,-4.7451596259999995,14.955859664999998,5.146392800000001,-2.7853103875,-0.961429149,12.503419395000002,-17.125167845,-1.2275240125,-0.1559523045
84,0.3499859999999444,-4.859915494999999,14.970672605,5.116172800000001,-4.946791887,-3.28234148,19.027192120000002,-14.342834475,1.9040985705,-3.5272474285
85,0.35415249999982734,-4.962176561,14.98845053,5.120086700000002,0.059766912,1.057990849,21.820549964999998,-13.725428105,1.735543966,0.3181544465
86,0.35831899999993766,-5.144928694,15.014234545,5.074439999999996,-5.600434065,0.47913852349999997,17.662796020000002,-22.026081085,3.3909227845,-5.1643121245
87,0.3624854999998206,-5.305900812,15.140996935,5.077857999999992,-2.6525264980000003,-2.446339488,15.60567236,-20.758013724999998,14.76035833,1.4635534285
88,0.3666519999999309,-5.4883890155,15.155959605,5.035194399999995,-2.675412178,-1.38922143,13.347887035,-22.074773790000002,2.0901672839999996,-4.907977342500001
89,0.37081849999981387,-5.639789104,15.30546856,5.0169296499999945,-0.9255025385,-0.292973,12.329377175,-18.926951405,17.709210395,-0.676542729
90,0.3749849999999242,-5.7646017075,15.340542795000001,4.971405000000004,-1.9632331724999998,-3.578877091,10.774815558,-15.057573795,4.5454003815,-4.944201231
91,0.37915149999980713,-5.8656842705,15.457633495,4.955177300000003,-4.5254663225,-0.3328369035,21.8384161,-12.945821765,13.817204955000001,-0.7656737265
92,0.38331799999991745,-6.00123024,15.48797083,4.917106649999994,2.217080593,0.613445103,18.113700870000002,-16.56837988,3.906415224,-4.111111640500001
93,0.3874844999998004,-6.1612060070000005,15.5104785,4.916290250000003,-4.6969225405,-2.5198801755,13.07530689,-20.505584715,2.344855845,-0.122762658
94,0.3916509999999107,-6.323923111,15.6176548,4.881774900000011,-1.7315360905000001,-0.47418655449999997,21.702186585,-19.9388113,13.05328989,-2.675459504
95,0.39581749999979365,-6.524006128,15.609128955,4.8691558999999955,-1.2437545060000001,-0.7651664615,15.71576309,-24.937662125,-1.204535782,-1.879253387
96,0.39998399999990397,-6.699407816,15.623364445,4.848747299999999,-2.333242774,-2.1885294315,4.96444118,-21.917117115,1.8059515955,-2.244493246
97,0.4041504999997869,-6.7939796445,15.7106204,4.823425299999997,-6.008429289,-1.2442751825,15.432261945,-11.862518309999999,10.391453264999999,-1.9924420120000002
98,0.40831699999989723,-6.885929346,15.64010811,4.8005218499999955,1.9380287529999998,-1.0837756989999998,18.40532446,-11.820229055,-8.2590560915,-3.7114009855
99,0.4124834999997802,-6.973242282999999,15.648047925,4.806228649999994,-5.2583014965,-0.2502389105,20.54276848,-11.99631214,0.5148845915,0.45043917
100,0.4166499999998905,-7.1119725705,15.665555,4.78370670000001,-2.014440715,1.814038813,20.24828148,-17.444309235,2.238057137,-2.4221594335
101,0.4208165000000008,-7.2593531605,15.62414789,4.780212399999996,-3.4212161305,-1.6588587165,12.676329135,-18.907241820000003,-5.22982645,-1.3389333485
102,0.42498299999988376,-7.3580179215,15.580027099999999,4.782333350000002,0.3930425795,-2.1322299245,9.582479000500001,-13.439945699999999,-5.4506332870000005,-0.5156147035
103,0.4291494999999941,-7.424991369,15.544302465000001,4.782112099999992,-4.1367914675,0.2917042375,12.214018345,-9.364475726999999,-4.597487211,-0.8949998915
104,0.433315999999877,-7.399278402,15.506162645,4.799331699999996,-2.0782399775,-1.3807612065,18.177646635000002,1.0078176635,-4.963898181999999,1.2859754565000001
105,0.43748249999998734,-7.3700747490000005,15.36438179,4.809753400000005,-0.0471203055,0.179167926,18.536278725,1.8387438655,-17.377289769999997,-1.307901591
106,0.4416489999998703,-7.3635616299999995,15.22299862,4.838729849999993,-2.88758409,1.747500837,17.931105615,-1.6613907815,-17.416210175000003,1.049889207
107,0.4458154999999806,-7.3708515165,15.11796999,4.857849099999996,-2.7887808085,-2.738682389,16.678569795,-2.808882952,-13.133419035,0.2636666
108,0.44998199999986355,-7.3528018,14.95915699,4.884521449999994,-0.2492390015,-0.8081247954999999,12.93058014,-0.1955711395,-19.458602905,0.5388596355
109,0.4541484999999738,-7.3482120040000005,14.778225899999999,4.900772100000012,-2.7090078595,-0.7485373095000001,12.751805305,-1.2821338175,-22.124087335,-1.226653367
110,0.4583149999998568,-7.326539755000001,14.60586739,4.933494549999992,-2.281538248,-4.647552967,14.746183395,0.1102501005,-21.141829495,0.904477358
111,0.4624814999999672,-7.243142128000001,14.386236665,4.969154349999997,-3.6545090675000003,-0.16615340099999998,15.87325001,7.6058895584999995,-27.017572405000003,0.44473384699999996
112,0.46664799999985,-7.180183411,14.13314724,5.0199203499999925,0.929509401,0.9876085075000001,17.00712967,4.568174362000001,-31.013739585,1.819085896
113,0.4708144999999604,-7.172398567,13.920311925,5.054038999999989,-4.5100471970000005,-3.1809432505,20.542858125000002,-1.390674591,-26.185936925,0.4312415615
114,0.4749809999998434,-7.2042217255,13.735526085,5.106147750000005,-3.5407320259999997,-0.33292526,19.715954779999997,-6.798449516,-22.89747715,3.0102437735
115,0.4791474999999536,-7.2876639364999996,13.44888258,5.126236000000006,0.2029373645,-1.8398682475,9.936309340000001,-11.914129729999999,-34.766307835000006,-2.3281446095000002
116,0.4833139999998366,-7.3201861385,13.195596219999999,5.175262450000005,-3.3529657125,-3.0333002805,7.221768379,-6.7402889725,-31.011627195000003,1.569782376
117,0.4874804999999469,-7.3109390735,12.98162222,5.190956100000008,-3.360328317,-0.9697597625000001,17.796604155,-0.6496798994999999,-26.04967976,-1.770828426
118,0.4916469999998298,-7.303516865000001,12.702115535,5.23411560000001,-3.538746357,0.263755277,21.6129694,-1.73781234,-34.04955101,0.4956616085
119,0.4958134999999402,-7.3268475535,12.45782232,5.282714850000005,-2.2197641135,-0.536771506,17.692063335,-5.4025845530000005,-30.15038776,1.59494853
120,0.4999799999998231,-7.372027159,12.271586894999999,5.3149643,-5.565331458999999,0.204248272,18.238743785,-7.7311103345,-22.787701605000002,0.641060591
121,0.5041464999999334,-7.4259278774999995,12.00601816,5.356162999999995,1.2178719045,-1.7030453085000001,11.474145889999999,-8.840455055,-32.575101855,0.37330220999999997
122,0.5083129999998164,-7.444749593999999,11.81276798,5.375511199999991,-5.2970352169999995,-1.0927433965,11.750329975,-4.217910528,-23.43096447,-0.9937047960000001
123,0.5124794999999267,-7.4581274985,11.64463282,5.404228200000006,-1.9719893929999999,-0.8834006114999999,17.99130535,-3.63847816,-20.793299675,0.4088161515
124,0.5166459999998096,-7.4495515825,11.425617695,5.411781300000001,-4.4168143275,-2.4610998035,13.764353275,-0.6274913879999999,-26.319754605,-2.7886233325000003
125,0.52081249999992,-7.3989765645,11.23576975,5.448318499999999,-0.6515734645,0.381692208,15.61285019,3.874840021,-23.495597840000002,1.000716597
126,0.5249789999998029,-7.399413109,11.134395125000001,5.442634599999991,-4.781179428,0.6528658345,22.27184963,-1.3955532910000001,-12.127868175,-2.488000512
127,0.5291454999999132,-7.4196994305,10.988263605,5.466308549999994,-1.4200463295,-1.8005815745,17.176709175,-4.3112225535,-18.098163605,0.1855047495
128,0.5333119999997962,-7.437255144,10.85477209,5.487640350000007,-1.2263415455,-0.7602601050000001,8.0503234865,-4.073470831,-16.366539000000003,0.1863115525
129,0.5374784999999065,-7.3907885555,10.774086955,5.50240325,-6.496042013,-1.3725893645,12.2698259365,3.9124081134999997,-10.175870895500001,0.153909523
130,0.5416449999997894,-7.2757029535,10.66525459,5.527252199999992,-1.443756521,-1.61687392,15.94326973,11.786790374999999,-13.490317345000001,0.9656952619999999
131,0.5458114999998998,-7.1674985885,10.562520025,5.560317999999995,-2.9180805684999997,0.099397086,20.121210095000002,10.922847269999998,-13.06952429,2.0011126399999997
132,0.5499779999997827,-7.1155059335,10.50880289,5.575386050000006,-3.5713872909999997,0.872334927,20.905259135,4.4421102999999995,-6.781650543,0.6735903325
133,0.554144499999893,-7.067200184,10.460170745,5.592613200000002,-2.6998690365,-2.1723935604999998,11.998474125,4.0879808665,-6.391699791000001,0.9821779724999999
134,0.558310999999776,-7.008809328,10.39392805,5.627868650000011,-0.564402491,-1.464286983,10.617330553,4.770305991,-8.572854519,2.896547675
135,0.5624774999998863,-6.9581348895,10.394899845,5.640823350000005,-5.1674401759999995,-2.8067532775,11.3744673735,4.4701321125,-0.420925092,1.209696293
136,0.5666439999999966,-6.8373253345,10.4267292,5.682136500000013,-4.09479785,-1.5247751475,16.506175995,12.140132425000001,3.0282242295,5.0181305405
137,0.5708104999998795,-6.772762537,10.405769345,5.7052460000000025,-1.2058873774999999,-0.015774965499999988,17.958705424999998,5.915204525,-3.1722270249999998,2.0936756135
138,0.5749769999999897,-6.756499052000001,10.53510666,5.7572555499999964,-7.106034516999999,-1.340241313,16.912941935,-0.6454085039999999,14.50410271,7.6545856
139,0.5791434999998728,-6.7607557775,10.65871382,5.774498000000008,-1.424759865,-1.371041596,13.2280941,-2.224596739,14.137830735,3.4520311355
140,0.5833099999999831,-6.791295767,10.815170765,5.80716704999999,-3.9775980715,-1.3372595905,12.572724818000001,-5.8567607405,17.992162705,5.7846693995
141,0.587476499999866,-6.8153190615,10.99306536,5.796379099999996,-1.8038396835000001,-1.681008458,9.424708607,-3.9711171385,20.994713785000002,0.952388793
142,0.5916429999999764,-6.884665966,11.138118745,5.806411749999995,-4.204797983000001,-1.6066858174999998,10.238738536500001,-10.009777068,16.935625074999997,2.993139386
143,0.5958094999998594,-6.965457678,11.311565875,5.7688751499999995,-1.6036229730000002,-1.781899035,14.304141519999998,-10.151374338,20.84181213,-2.1946798565
144,0.5999759999999696,-7.064753055500001,11.544354915,5.743476849999993,-3.3465920689999997,-1.4291290045,9.110279321,-12.76505661,27.87744236,0.195833802
145,0.6041424999998526,-7.219927311,11.671919345,5.695457449999992,-0.734995335,-1.2068158985,6.8175256255,-18.796081545,15.537500855000001,-4.0136888025
146,0.6083089999999629,-7.334833622,11.884418485,5.67146305,-3.4700883630000003,-2.1123793125,11.1577427365,-14.648869040000001,25.430508615,0.1810031385
147,0.6124754999998459,-7.478570461,12.077733514999998,5.606803900000003,0.3249454345,-0.1336658,7.907991888,-16.974039079999997,23.63027668,-4.842259407
148,0.6166419999999562,-7.660943984999999,12.2213068,5.57444000000001,-3.0363442894999997,-0.7867237925,7.941863537,-22.515118595,17.35236168,-1.7396943569999999
149,0.6208084999998391,-7.8275067805,12.480510715000001,5.496948250000003,-0.8463496265,-2.1075173615000002,5.4695708750000005,-19.333088875,31.691078185000002,-5.1226673125
150,0.6249749999999494,-7.9679031369999995,12.67473936,5.455528299999997,-5.30227685,0.532816005,7.225922346500001,-17.20602894,23.520147325,-1.857929885
151,0.6291414999998324,-8.138795853,12.95646429,5.3754729999999995,1.9324811105,-1.3503208755,8.475073337,-19.71228027,34.433223725,-4.848704337999999
152,0.6333079999999427,-8.311560153999999,13.151328085,5.31241605000001,-5.262963533500001,-1.4703125655,3.576842934,-20.463922500000002,23.95905304,-4.1902620795
153,0.6374744999998256,-8.479289055,13.532258989999999,5.2473983999999945,-1.5512988564999999,0.05516108850000001,9.1951198585,-19.660762785000003,45.975170135,-1.1626071335
154,0.641640999999936,-8.6760063175,13.82611084,5.150169349999999,-1.957303703,-1.2413479685,3.7353451254999994,-22.28254509,36.310396194999996,-6.1965479850000005
155,0.6458074999998189,-8.828300475999999,14.10396051,5.141395549999999,-1.7201102375000001,-0.5817084315000001,7.0183697485,-19.354626654999997,32.75516415,3.7398239374999998
156,0.6499739999999292,-9.034871578499999,14.580616,5.003471400000009,-0.7632559985,-0.452625051,-0.23228883750000007,-22.12152958,58.738733295,-7.2056422235
157,0.6541404999998122,-9.151647091000001,14.765294075,5.009788499999999,-2.151220918,-0.3885790705,3.274972022,-15.537769795,21.414319990000003,3.8970929385
158,0.6583069999999225,-9.288041591999999,15.24320221,4.859222399999993,-1.722737193,-0.5602620545,4.496252954,-13.118143085,59.142301555,-8.302637577
159,0.6624734999998054,-9.411147594500001,15.521409515,4.8292999500000064,0.6671133935,0.723808378,8.1410098075,-15.154397965000001,33.150390625,1.691181719
160,0.6666399999999159,-9.519560814,15.889372824999999,4.7072906500000045,-4.6299209595,-0.1020591635,2.1665485799999997,-10.4693016985,45.608743665,-6.916087388999999
161,0.6708064999997987,-9.579398632,16.158684254999997,4.676033050000001,4.221729517,0.1068314195,1.452916741,-7.478845596499999,32.114343645,1.4957383275
162,0.674972999999909,-9.682296752,16.55537319,4.576309199999997,-4.088248372,-0.9423935415,7.3189313385000005,-10.4010343535,48.582052235,-3.619907379
163,0.679139499999792,-9.7257099135,16.83422661,4.544975300000004,1.593931496,-0.045031361500000006,5.1761188505,-5.462554216,33.2365036,1.773025334
164,0.6833059999999022,-9.798298834,17.101425175,4.4811172,-3.2302461864999996,-0.9543497865,3.7174206969999997,-7.9374616145,32.5449791,-1.914255917
165,0.6874724999997852,-9.8678288455,17.31179714,4.440811150000002,2.3177987335,-0.1736328305,2.839441955,-8.2457900045,25.311079025,-0.5574428735
166,0.6916389999998955,-9.926653863999999,17.539452555,4.3954239000000115,-0.9228056965,-1.276013732,-0.108664872,-6.880077362,27.50909233,-0.5809696165
167,0.6958054999997785,-9.9718608845,17.69317818,4.345397949999992,0.7232604920000001,0.17191077,3.88662076,-4.9416151045,18.806015015,-2.7636488674999997
168,0.6999719999998888,-10.006359575000001,17.868495940000003,4.331321700000004,-1.1236257555,-0.07792607700000001,6.7218334675,-5.0747711655,20.69743633,1.9158046245
169,0.7041384999999991,-10.089518546,17.941410065,4.278640750000008,-0.19562510200000002,-0.8201649785,4.990445614,-9.369188309,9.312874794,-4.716093063500001
170,0.708304999999882,-10.1208348265,18.050260545,4.288696299999998,-1.4471790195,-0.6805398465,1.356387615,-5.5781474115,12.355726245,3.2675507065
171,0.7124714999999924,-10.1601128585,18.04240799,4.239822349999997,0.28790040299999997,-1.0081990955,0.287287415,-4.229819536,-0.2956394925,-5.9736497405
172,0.7166379999998753,-10.147223952000001,18.072227480000002,4.266143799999995,-1.240448177,-0.41489914049999993,3.2798663379999997,-0.87343907,2.688310027,3.4273318049999997
173,0.7208044999999856,-10.1639156365,18.016554829999997,4.225189200000003,0.821315646,-0.23588219299999996,3.1276738645,-1.812488914,-6.1037569045,-6.094984054999999
174,0.7249709999998686,-10.159511565999999,17.98389912,4.2530670499999985,-0.242180951,0.39648741499999995,2.72834456,-1.9459645745,-4.726159334,2.2821900250000002
175,0.7291374999999789,-10.169404508,17.89468098,4.2303619500000025,-0.013845101000000005,-0.5668910444999999,2.488990784,-1.6800121665,-10.431307795,-4.758791685
176,0.7333039999998618,-10.1510295865,17.808280945,4.247161900000009,-0.102992449,-0.31244051450000004,2.8449469805,0.146801613,-10.854059695,-0.08940011250000002
177,0.7374704999999722,-10.1435832985,17.6792202,4.244766200000001,-0.572125286,-0.6294623910000001,3.0388092995,-0.3511391955,-15.54751062,-3.3176201585
178,0.7416369999998551,-10.126752377999999,17.535387995,4.242774949999998,-0.6120913925,-1.1870668085,3.291491151,0.682696298,-17.24933052,-3.4975857735
179,0.7458034999999654,-10.119784832499999,17.383589745000002,4.2605132999999995,-0.36632646599999996,0.2736222745,3.785332918,-1.134000063,-18.639861105,-1.5213386414999999
180,0.7499699999998484,-10.126917837499999,17.20901489,4.235076950000007,-0.697414279,-1.8515754345,1.9961221215,-1.383399844,-20.42691231,-6.692336321
181,0.7541364999999587,-10.09934664,17.009147645,4.277175900000003,0.7483398910000001,1.1636326984999998,3.6919441219999998,0.48992371549999997,-24.809907915,0.2229720135
182,0.7583029999998416,-10.1212587365,16.777693745,4.254280100000003,-0.926591456,-2.344406307,3.7144467830000005,-3.236373305,-27.183625220000003,-7.6934838295
183,0.762469499999952,-10.109745981500001,16.577489855,4.320297199999999,-2.3871725794999996,-0.984554246,2.5631881950000004,-2.2226252555,-25.335001945000002,2.932447314
184,0.7666359999998349,-10.140544892000001,16.37619209,4.299056999999991,0.488942191,0.11632072899999996,3.7807396655,-4.377218723,-23.659088135,-6.872418165
185,0.7708024999999452,-10.107407092999999,16.184053419999998,4.389213549999994,-2.9119457005,-0.8018810599999999,4.1654033665,-0.387812514,-24.873111725,5.852842808
186,0.7749689999998282,-10.12106085,15.99665308,4.353012100000001,-1.362091005,-0.6996167265000001,2.0576690435000002,-1.835376203,-21.71776962,-8.2763736245
187,0.7791354999999385,-10.086537359000001,15.862906935,4.446167000000003,-1.547543168,-0.3836939745,0.1233264805,-0.257538363,-18.03705597,7.450344085499999
188,0.7833019999998214,-10.071897508,15.637186525,4.40234375,0.8300172985000001,-1.392443597,4.230671167000001,1.7920369505,-26.09613037,-9.9641094215
189,0.7874684999999318,-10.0501632665,15.548329355,4.4872284000000064,-5.499048948,-0.7981408835,7.0598423485,-1.4621631505,-12.562028885,7.4801630975
190,0.7916349999998147,-10.056540014500001,15.40056181,4.435676599999994,3.370985627,1.6058933135,4.189260006,-0.4982610195,-16.734256745000003,-9.2225227355
191,0.795801499999925,-10.036922455500001,15.348266605,4.499313349999994,-5.9896481035,-1.1360281705,4.717935800499999,-1.003136575,-7.813526392,5.8370161055
192,0.799967999999808,-10.079158785,15.244529725,4.473327600000005,3.0395083425,-1.4004386665,4.0573022365,-5.628401756500001,-12.04804611,-5.3965675829999995
193,0.8041344999999182,-10.093474387499999,15.232388975,4.50862124999999,-5.132802010000001,1.7756905555000002,4.3642475605,-4.1643435955,-2.500340104,3.4487841125000003
194,0.8083009999998012,-10.1339097,15.172870155,4.492614749999987,1.4826046225,-2.5765600205,3.020421743,-5.728764534,-7.025639534,-3.34272182
195,0.8124674999999115,-10.1539630875,15.243258,4.51489260000001,-5.867837906,-1.1610158085,3.1846259835,-4.4412269595,7.5104141235,3.7111442085
196,0.8166339999997945,-10.1816701875,15.163496495,4.500648499999997,4.1960805655,1.021305889,2.945783079,-4.2451690435,-9.447318553999999,-3.6060556175
197,0.8208004999999048,-10.200305941,15.266126154999998,4.513374299999995,-8.4351730345,-2.4656726125,3.3448151945,-3.970206976,11.50939894,3.3089625834999996
198,0.8249669999997878,-10.1947326655,15.25842714,4.4821472,5.833812475,0.4183136,3.0356401505000004,0.2878463415,-0.5908690990000001,-4.011265874
199,0.829133499999898,-10.192838671,15.34509516,4.479072549999998,-9.3344511985,0.2236867995,5.629135132,-1.0088423635,9.94810915,1.1707371174999999
200,0.833299999999781,-10.225716592000001,15.397135734999999,4.476913449999998,7.9963290695,-1.6651417015,3.9040976765,-5.2422480584999995,5.8678371904999995,0.565408647
201,0.8374664999998913,-10.246458054,15.46071482,4.4587860000000035,-8.024659872,0.6515409125,7.3155920505,-3.2436972855,7.5303680895,-1.0265033245000001
202,0.8416330000000016,-10.306978228,15.542787075,4.471687349999996,4.9799935820000005,-0.706043392,5.9331042765,-9.036306381500001,9.1040301325,2.9126076695
203,0.8457994999998846,-10.38771677,15.640681745,4.45048525,-6.6162443159999995,-0.511785656,4.3353028295,-10.3394184115,11.646653175,-0.6173032075
204,0.8499659999999949,-10.433813095,15.727538585000001,4.472084049999992,4.3991324899999995,-1.8130892515,-0.904810131,-7.588269711,9.480700492499999,4.011663436999999
205,0.8541324999998778,-10.447679515,15.751317025,4.439605749999998,-4.180433035,-1.439496219,2.575987458,-1.939958096,3.1359765525,-3.489312291
206,0.8582989999999882,-10.40570116,15.794602869999999,4.489524849999995,3.1949173215,0.301929772,5.975008726,2.066313386,3.7506415845000003,6.249387264
207,0.8624654999998711,-10.41716671,15.822766305000002,4.425910949999988,-5.761346817,0.26764669999999996,11.246902465000002,-0.6312244535,4.302487373,-6.929752588
208,0.8666319999999814,-10.457261565,15.859494685000001,4.507873549999999,3.2736109495,1.6755532029999998,12.305692194999999,-8.8416185375,2.305287838,9.751218319
209,0.8707984999998644,-10.550858975,15.832965849999999,4.422981300000004,-3.5208408835,-2.4991460444999998,-0.8344636265,-9.7850284565,-1.6936966180000002,-10.53069782
210,0.8749649999999747,-10.526281354999998,15.8288188,4.528862000000004,3.5272197724999996,-1.3183511495,-2.876785636,-1.8580693305,-3.0395003555,11.565377715
211,0.8791314999998576,-10.471104624999999,15.797019005,4.453735350000002,-3.943969965,-0.07212308049999999,8.344195604,7.745464325,-2.520786822,-9.543954849
212,0.883297999999968,-10.41072178,15.724789144999999,4.570938099999992,-1.0001454655,-0.9570795894999999,13.8604641,2.085511625,-11.291782855000001,11.381164075000001
213,0.8874644999998509,-10.45480776,15.64942932,4.502220149999999,0.15579811500000001,1.023143023,8.482348204000001,-4.3969397545,-7.8058230875,-9.758972647
214,0.8916309999999612,-10.46471119,15.667739869999998,4.596069350000008,-2.2003413435,-1.8272432090000001,4.1598021984999995,-5.573568344,-0.12271137550000003,10.711988925
215,0.8957974999998441,-10.456390859999999,15.544889925,4.53438564999999,0.439909175,-1.390959978,3.3634331225,1.6566523315000001,-13.55244446,-10.005537511
216,0.8999639999999545,-10.390869615,15.442200185,4.659690900000001,-1.45322144,-0.238192627,4.2711698115,2.5013718605,-15.05840874,11.681349749999999
217,0.9041304999998374,-10.3322596555,15.368099215,4.590156550000003,0.7651942075,0.579406433,11.724777696,7.9187908175,-7.6496617790000005,-9.840447903000001
218,0.9082969999999478,-10.2354598045,15.15432167,4.731155400000006,-2.7596359255,-0.2652904095,10.399338485,5.8140070435,-28.47255516,11.154093265
219,0.9124634999998306,-10.23032427,15.07722521,4.682167050000004,3.0549563170000003,-0.8786266745,12.256183625,0.8170430660000001,-8.446718216,-7.5495407585
220,0.916629999999941,-10.154309751,14.84426975,4.7957992499999875,-5.79552412,-1.21261847,-0.14141750350000004,4.2562184335,-30.15585804,7.680166006
221,0.920796499999824,-10.0308470715,14.73166418,4.788368250000005,2.5659058095000002,-0.032847285500000045,10.0823891145,13.71373606,-13.504173755,-3.548020959
222,0.9249629999999343,-9.9412174215,14.51364231,4.872650100000001,-4.6572904585,-2.234615326,14.589920996,6.856423378,-27.7789011,4.762893677
223,0.9291294999998172,-9.8807401645,14.29803562,4.906127949999998,3.427335143,0.5848857464999999,14.646479604,4.9277853965,-26.507061955,-0.9435906410000001
224,0.9332959999999275,-9.800120352,14.172998425,4.954628000000014,-8.247950553999999,-1.960380703,0.986021757,6.8963727949999996,-16.061404225,2.6549355985
225,0.9374624999998105,-9.700328351500001,13.810266975,5.035942050000003,8.424878119999999,0.20782846200000005,10.523505686,8.285253048,-44.85176849,1.6370663639999998
226,0.9416289999999208,-9.608387470499999,13.742586135,5.020362849999998,-12.369208335,-1.7542848364999999,14.681336405,10.130085944000001,-8.017820597,-3.4908878805
227,0.9457954999998038,-9.499867916,13.433355335,5.146484350000009,8.474289894,0.22616720199999996,12.7340826975,8.1366558075,-39.38618851,8.0320599075
228,0.949961999999914,-9.421084404,13.279735565,5.106620800000002,-10.829082015000001,-0.8207262455000002,12.521347525,9.211368561,-17.732203485,-7.9654538630000005
229,0.954128499999797,-9.2961616515,13.001412389999999,5.251419100000007,5.3337168695,-1.106211409,11.3007259345,9.709933756,-36.055631635,10.947911265
230,0.9582949999999072,-9.179615974,12.82280588,5.1943512,-6.879659653,-0.8420831409999999,15.196972845000001,14.17164707,-20.39649868,-10.379560472000001
231,0.9624614999997902,-9.062400341,12.532686235,5.33864595,2.538128495,0.5634548665,17.872088429999998,8.93534708,-37.401714325,10.841637615
232,0.9666279999999003,-8.954100132,12.313777925,5.285316499999993,-7.811069488499999,-0.8773636519999999,14.7358193405,13.02324152,-25.28546238,-10.62307024
233,0.9707944999997835,-8.768764496,12.100775720000001,5.420379650000001,3.434933305,-0.519555092,11.414339543,17.483229635,-28.045568465000002,11.404544829999999
234,0.974960999999894,-8.658158779,11.761912344999999,5.361579899999995,-3.77963686,-1.107031405,14.93945646,13.382346155,-39.467582705,-13.314468385
235,0.9791274999997766,-8.475077152499999,11.58394766,5.500411999999997,-0.1835484725,-2.891094923,14.62069082,17.269159315,-23.897936819999998,12.6258955
236,0.9832939999998872,-8.318579197,11.345378395000001,5.445281999999992,-3.8851290940000003,-0.6899089965,10.099073885,18.743889805,-27.69583321,-10.910779475
237,0.9874604999999974,-8.102333546,11.131365299999999,5.56736755,-0.45089207600000003,-0.8508043585,17.874581815,21.76464653,-27.82043171,10.231489659000001
238,0.9916269999998804,-7.951587439000001,10.87617302,5.523101799999992,-5.269615412,-2.6035568715,19.629723544999997,17.753603935,-29.91573143,-9.7606096285
239,0.9957934999999906,-7.768258810000001,10.710513590000001,5.641357450000001,-3.4728741645,-0.0100525245,17.23171997,18.012304305,-21.948678015,10.76758051
240,0.9999599999998736,-7.633895636,10.550675389999999,5.59787750000001,-1.4238898455,-0.049722552000000086,20.48164749,15.733283995,-18.64755726,-7.9617922305
241,1.004126499999984,-7.547527075,10.366519924999999,5.694183350000003,-0.938748658,-3.2263516185,13.968503475000002,6.934449196,-23.75518513,8.029471159
242,1.0082929999998669,-7.453416347499999,10.186784744,5.669296250000002,-0.8812274035000001,-2.3705258369999997,14.194183825,10.474267484,-21.32611561,-6.045115947499999
243,1.0124594999999772,-7.3441627025,10.0605969405,5.760398899999998,-7.1770112515,-0.9756355210000001,15.758825304999998,9.857090949,-16.750459675000002,8.4028544425
244,1.0166259999998601,-7.260076046,9.914983748000001,5.726364149999995,2.2102377415000003,-1.901360005,15.311625005,9.439514637,-17.155228615,-6.4773938655
245,1.0207924999999705,-7.161077737499999,9.798380852000001,5.796302799999992,-7.674218654500001,-1.3234512995,20.37753296,9.1117281915,-15.268342494999999,6.127835989
246,1.0249589999998534,-7.15841198,9.658408165,5.775802600000006,3.665595174,-1.2795289754999999,16.04929018,-0.6228358445,-16.698575975,-4.7638773919999995
247,1.0291254999999637,-7.1201150415,9.529420376000001,5.843208300000001,-5.9094347955,-2.7873876095,12.64068556,1.914069176,-16.698072435,5.669309377499999
248,1.0332919999998467,-7.078858137499999,9.436195373499999,5.8250046,-1.4532007574999999,-2.6181721685,11.192571639499999,3.9486335515,-11.172629355,-3.768321991
249,1.037458499999957,-6.989550352,9.36211586,5.858711249999999,-6.0948092935,-1.053175196,22.320941925,8.7249512675,-9.6611518875,2.5475535395
250,1.04162499999984,-6.9640495775,9.299200058,5.870208700000006,0.644904956,-0.669614628,19.81149197,1.469732165,-8.0014529225,0.224457549
251,1.0457914999999502,-6.9470016955,9.1873793605,5.890342700000005,-1.7969170805,-1.122318238,14.459019184999999,0.325166393,-13.958070755000001,0.4251067305
252,1.0499579999998332,-6.957607269,9.1464223865,5.920158400000005,-2.966574788,-1.526621461,18.894075395,-3.2036494015,-5.644135237,2.661306262
253,1.0541244999999435,-6.9918470379999995,9.110728264,5.9280853500000035,-5.225135088,-2.437685907,15.59064388,-5.594021082,-4.715337515,0.0952785835
254,1.0582909999998265,-6.993317604,9.154022694,5.9583663999999885,-3.22546494,-0.574609369,14.061433789999999,-2.114608705,4.3763968945,3.9591411355
255,1.0624574999999365,-7.0002093315,9.1474580765,5.939857500000002,-0.5665184855000001,-2.5277347565,15.196700575000001,-1.8062517045,-0.864928633,-2.5898679495
256,1.0666239999998197,-7.0204415325,9.183467388,5.966186550000003,-1.4563943145,-0.571665123,16.240888595,-4.292830229,3.5671405795,3.3851259945
257,1.07079049999993,-7.0371608734999995,9.2072472575,5.957435599999997,-5.511526823,-3.3908187155,8.7744636535,-3.1716761589999996,2.6085089445,-0.9984620209999999
258,1.074956999999813,-6.97943902,9.285405159,5.9657821499999955,-2.226525307,-0.772044003,19.768123625,5.403489828,8.843789100999999,1.894467533
259,1.0791234999999233,-6.965380907,9.3122267725,5.951576250000002,-3.9440137144999996,0.033130616,23.35302925,0.6307058,3.04869616,-1.5982771515
260,1.0832899999998062,-6.989061117,9.456329822499999,5.947853100000003,-1.8479532600000002,-1.706169188,16.71290922,-4.1245715615,16.876993175,1.3904562595
261,1.0874564999999166,-7.006245851499999,9.530149937000001,5.923881550000004,-2.6204168794999996,-0.754632741,9.8743727215,-2.9220848085,8.787156105,-2.0535957815
262,1.0916229999997995,-7.0095090865,9.690344810500001,5.925178549999998,-1.364596784,-1.9206393955,19.836925505,-1.7737733125,18.717336654999997,2.2387742995
263,1.09578949999991,-7.065140009,9.7671771045,5.877258299999994,-2.136981368,-2.8736617564999998,14.613976955000002,-7.03719759,9.493077755,-4.811384439499999
264,1.0999559999997925,-7.098503113,9.9237780595,5.871337850000003,-4.299770951,-0.5114243175000001,12.314329149999999,-5.2397451405,18.394080165,1.3590723875
265,1.104122499999903,-7.1362745765,10.034688473500001,5.835159300000001,1.0701518355,-3.166957736,8.5531086915,-5.1135623455,13.38455248,-2.9061658384999998
266,1.108288999999786,-7.1589677335,10.2078380595,5.8314590500000065,-6.666522026,-1.8414771854999998,19.420648575,-4.001098752,20.328629495,1.8826212880000002
267,1.1124554999998963,-7.2069988254999995,10.356242179999999,5.7811736999999965,1.0596702395,-1.54093349,17.414055825,-6.0199620725,18.060129165,-3.980005145
268,1.1166219999997793,-7.263743162,10.46743393,5.7916946,-6.383171797,-1.4332182555,20.337714195,-8.395925045,12.73733425,2.649511337
269,1.1207884999998896,-7.3622841835,10.63732195,5.760108950000003,1.6403393149999999,-0.46453175700000005,16.915731905,-12.46551323,20.343508720000003,-1.409212649
270,1.124955,-7.514712095,10.68438101,5.758636500000009,-3.8801380395000002,-2.2602136135,12.77244997,-19.61467743,5.2836740015,0.274565503
271,1.1291214999998829,-7.6656987665,10.902311325,5.738800049999995,-0.53441748,-2.9824935195,18.4904995,-19.00623989,25.87762642,0.8217950759999999
272,1.1332879999999932,-7.8315618035000005,10.941672324999999,5.710021949999998,-3.348287821,-1.1551522615,12.4366183265,-20.596761705,4.803823470999999,-3.0453161
273,1.1374544999998761,-7.9926819805,11.113873485,5.692176799999999,-5.143586397,-0.007041905,17.284131525,-20.259700775,20.4055233,0.439867154
274,1.1416209999999865,-8.176458359,11.2251482,5.644256599999991,2.29963696,-2.8099148275,11.536514996,-22.29314041,13.672701360000001,-3.9888114925
275,1.1457874999998694,-8.313343763,11.308797835,5.652053849999987,-5.9015641215,-1.7404175995,9.047869206000001,-17.94361782,9.451931,2.0295637845
276,1.1499539999999797,-8.433391571000001,11.473395345,5.586441050000005,-2.5951606035,-0.629526883,20.28735542,-14.19998837,20.324573515,-5.066933632
277,1.1541204999998627,-8.575287342,11.56076431,5.577537550000002,-2.52297461,-0.814233541,20.933797835,-18.149638175,10.173516275499999,0.203902189
278,1.158286999999973,-8.7471518515,11.66152048,5.5400008999999955,-1.1635917425,-0.6864249554999999,11.429951195000001,-21.069190980000002,12.277125835,-2.8349336385
279,1.162453499999856,-8.901975154999999,11.81625605,5.523506150000003,-4.8617415425,0.5032384545,14.463567730000001,-19.511533739999997,18.295855525,0.615503982
280,1.1666199999999662,-9.057622909500001,11.909039020000002,5.491332999999997,-1.563580543,-2.92544651,17.812384605,-19.23789978,11.244833945,-2.2840479609999997
281,1.1707864999998492,-9.2081713675,12.03033018,5.504875200000001,-1.0883880855,-2.8844571114999997,8.974448918,-19.737826345000002,13.767336844999999,3.565336585
282,1.1749529999999595,-9.352015018500001,12.124163625,5.4704513499999905,-2.5793205500000003,1.178718567,10.197007654,-17.704045295,11.45859003,-2.6791026595
283,1.1791194999998424,-9.4930648805,12.305655004999998,5.4629593000000085,-2.7764358524999997,-3.6852872375,18.463686940000002,-18.07083511,21.276112554999997,2.3880103825
284,1.1832859999999525,-9.6529369355,12.31903887,5.422523499999997,-0.46774803099999995,-1.5937994720000002,14.288261415000001,-19.453781125,2.0676522255,-4.919311285
285,1.1874524999998357,-9.7757458675,12.435692315,5.403663600000002,-5.630488634000001,0.993082505,10.720308303500001,-15.58711529,13.82088375,-0.1344043485
286,1.191618999999946,-9.8725504875,12.459812639999999,5.3488617000000005,2.4955481295,-1.238382906,11.6454238875,-11.504199985,3.643701911,-6.342123985000001
287,1.195785499999829,-9.966596604,12.514616015000001,5.349479650000006,-3.118084788,-1.9789702295000002,17.59589958,-12.63743687,6.1149892805,0.8919005689999999
288,1.1999519999999393,-10.0926909455,12.536199095,5.305618249999995,-2.505270243,0.8695961240000001,14.85149336,-15.342116355,3.1045804025,-4.9043006899999995
289,1.2041184999998222,-10.1933975245,12.638641835,5.282684349999997,-4.8561456204999995,-0.9302816655,12.20657587,-12.819004535,12.22365332,-0.7953605655
290,1.2082849999999326,-10.275058744999999,12.599432945,5.261695849999995,1.5828441385,-2.2092468735,10.4507465345,-10.551311015500001,-4.4957466125,-3.773412585
291,1.2124514999998155,-10.341341495,12.608539584999999,5.250495900000004,-5.165147543,-0.50091964,10.490228178,-8.9953479765,0.9609949289999999,-1.4132398965
292,1.216617999999926,-10.3743867895,12.560528275,5.234512350000003,0.2606350855,-0.567358207,10.73512888,-4.8999655245,-5.6736946105,-3.164767265
293,1.2207844999998085,-10.378218652000001,12.48842621,5.2485809500000045,-4.450262308,-1.476268321,10.1741530915,-2.1594593525,-9.157883167,-0.2535105105
294,1.224950999999919,-10.3619699475,12.45944643,5.252548200000007,-0.0002456029999999996,0.15073299399999998,14.890404225000001,0.5458905545,-3.8053148985000003,-0.6931084095
295,1.229117499999802,-10.3569121345,12.44610214,5.240478499999995,-2.5844961399999997,-0.929335624,10.50294304,-0.4139836595,-1.6703811885,-1.9915707705
296,1.2332839999999123,-10.367666722,12.306456565000001,5.2703171,1.921835959,-1.835690916,6.717194795499999,-3.361100912,-17.41471386,-0.086985966
297,1.2374504999997953,-10.344940661999999,12.28577232,5.252906800000005,-5.675147533500001,-1.0928816645000001,11.452085975,1.8388460875,-2.4228633645,-2.7765574455
298,1.2416169999999056,-10.316754341500001,12.212689875,5.279289249999991,-0.8117858170000001,-0.423888594,10.001051902499999,1.4058630465,-9.485887050999999,0.9616609215
299,1.2457834999997885,-10.3030018785,12.1560874,5.235511799999998,-3.706029773,-2.1059363484999998,12.79838324,1.426328778,-6.112876415500001,-6.584690094
300,1.2499499999998989,-10.2669949515,12.08651209,5.269103999999999,-2.5550435780000003,0.5380726155000001,10.5659194015,2.1697947975,-9.2207283975,1.872848809
301,1.254116499999782,-10.2492823605,12.100351329999999,5.184700050000004,-3.6596586705,-1.99944526,4.8809934855,2.9143110515,3.0496438745,-9.7639551165
302,1.2582829999998921,-10.216758728999999,12.009408475,5.208679200000006,-0.023594677499999994,-1.3118480145,11.215424062,1.9961428645000001,-11.545897960000001,0.3227137325
303,1.2624495000000024,-10.2195353515,12.04611492,5.101165800000004,-4.336468935,-0.7371674775,8.1657042505,1.0215471685,6.2250287535,-11.952398774999999
304,1.2666159999998854,-10.2081108105,11.999378205,5.127761849999999,-2.1801273820000002,-1.414650649,5.010953903500001,-0.6014414730000001,-6.3803780075,1.571907282
305,1.2707824999999957,-10.2215914705,12.098974705,5.0039825500000035,-3.7496134045,-1.119428098,10.1471717345,0.148741916,13.988539695,-12.494616035
306,1.2749489999998787,-10.2493939405,12.18854189,5.0203171,-1.4904368520000002,-2.0650448795,1.2860696315,-5.0549758675,9.92919779,3.297198653
307,1.279115499999989,-10.274621487000001,12.26904726,4.940872200000001,-1.6697612405,0.2013462335,8.047103167,-2.3399760725,10.8152928345,-7.7704381940000005
308,1.283281999999872,-10.286870954,12.51642132,4.939735450000001,-4.793810129,-2.528576374,4.414038479,-2.7456687095000003,28.923192975,4.666865826
309,1.2874484999999822,-10.331700327,12.63297033,4.890777600000007,0.7622807625,0.23369804,11.0096869445,-5.433279753,14.434226989999999,-3.4592672585
310,1.2916149999998652,-10.4310112,12.945911405,4.8767852499999975,-4.1644928455,-1.6669220325,1.4094624519999999,-12.85090923,36.92440605,4.663871765
311,1.2957814999999755,-10.501846315,13.19900751,4.846771250000003,-1.8301819565000002,-2.3767484430000003,4.235375047,-9.018690107000001,30.1506958,1.742012858
312,1.2999479999998584,-10.59546137,13.49733591,4.812225350000006,-3.4637950655000003,-0.43227034050000007,4.5467205935,-11.582835674999998,35.6211071,2.105492711
313,1.3041144999999685,-10.769851209999999,13.821374415000001,4.768516550000001,0.9393997489999999,-1.765352547,7.2343697549999995,-21.022408485,38.802612305,1.8819322585
314,1.3082809999998517,-10.91276646,14.171613220000001,4.687873850000003,-2.7240873575,-1.2393352389999999,-4.372718692,-16.11267805,42.732130049999995,-1.8012092705
315,1.312447499999962,-10.992458345,14.450040815000001,4.689407349999996,0.522378534,-0.693572059,3.785222411,-10.942181586,32.415550235,6.2071671485
316,1.316613999999845,-11.11835146,14.764931205,4.602180450000006,-3.4041175839999998,-0.2904785425,13.79482174,-13.77713728,38.710044859999996,-3.1493775845
317,1.3207804999999553,-11.29081345,15.02859926,4.616607700000003,1.4006448985,0.47108309000000004,6.799859285,-22.475610735,30.36001396,7.475037575
318,1.3249469999998382,-11.52148199,15.283735754999999,4.512702950000005,-1.871723115,-1.9496441485,-2.5653191805000004,-25.78215122,32.03646755,-6.0068931580000005
319,1.3291134999999485,-11.615744115,15.526352880000001,4.52534485000001,2.035221279,-2.236984253,-2.6312264205,-13.047698494999999,27.876750944999998,6.9539380075
320,1.3332799999998315,-11.677844525000001,15.617799755,4.4506912000000085,-1.230768502,1.4715362195,8.595353842,-6.4172320365,12.12822199,-6.4627485280000005
321,1.337446499999942,-11.743909355,15.71608305,4.477096549999999,-0.815515161,1.3127196429999999,9.4992156045,-10.118681433,10.57954502,5.063800812
322,1.3416129999998245,-11.846164224999999,15.69945812,4.42483519999999,3.2051273585,-1.1227502525,1.3733708409999998,-11.940270425000001,-1.07984516,-6.5529036519999995
323,1.345779499999935,-11.86954737,15.672927855000001,4.4565506,-3.012519121,-0.8788223565,4.6391966345,-5.1682741645,-4.2174481155,2.6117686035
324,1.349945999999818,-11.86684561,15.51241827,4.460258500000009,2.5669038295,0.256269321,6.7127156255,-1.1629059315,-19.298994065000002,-3.770448804
325,1.3541124999999283,-11.833431245,15.363401415,4.498573300000004,-1.7916710375,-0.9762719795,3.062849879,1.453537941,-18.76014805,0.3458627495
326,1.3582789999998113,-11.760398864999999,15.063597205,4.536972049999989,0.6432574395,0.5964660125,10.142210961,6.1868567465,-36.48605919,-3.2270644905
327,1.3624454999999216,-11.693528175,14.80077934,4.5947723499999995,-0.569113016,-0.891136572,4.6257272955,4.9047076700000005,-32.59036636,-0.1650390625
328,1.3666119999998045,-11.563229085,14.42554188,4.659110999999996,-0.8019754885,0.13707418700000001,5.2757647035,12.322899345,-45.96870041,-1.9910305735000002
329,1.3707784999999149,-11.427618030000001,14.09378624,4.713279749999998,-1.9759661560000001,-1.265981555,7.3689508440000004,13.341272355000001,-40.61427689,-2.081083119
330,1.374944999999798,-11.26512289,13.639409539999999,4.806991549999992,0.7494348885,-0.35582934650000003,9.9788351075,15.4376235,-55.968156815,-0.2404543905
331,1.379111499999908,-11.092391015,13.315809725000001,4.8640671,-4.139067173,-1.1706300975000001,5.1972692015,17.80118561,-39.73421669,-1.316221535
332,1.383277999999791,-10.908070565,12.812777045,4.975158699999994,0.15130623050000003,-0.13144316550000001,2.4495400785,17.792661665,-62.049091340000004,0.7949023395
333,1.3874444999999014,-10.692131995,12.48025656,4.998130799999998,-4.8171656135,-0.7562509700000001,9.865907191,23.97947788,-40.04663849,-5.1631994245
334,1.3916109999997843,-10.5046258,12.073426725000001,5.0744247499999915,-0.7623961269999999,-2.517388701,5.4411280465,19.238912579999997,-49.95054245,-0.617957793
335,1.3957774999998946,-10.316075804,11.7342391,5.058273299999996,-3.6198663715,-0.09029931599999999,10.9398956325,21.696191785,-40.03676033,-9.5493106825
336,1.3999439999997776,-10.135967730499999,11.370298864999999,5.109306349999997,-1.618301213,-1.837419927,0.11765050900000018,19.069972040000003,-44.365606310000004,-2.2700983285
337,1.404110499999888,-9.959061625,11.06841946,5.087951649999994,-1.9455498455,0.5900496095000001,9.447892667,20.39731407,-35.57955742,-9.121716976
338,1.4082769999999982,-9.808391094000001,10.777065754999999,5.114524849999995,-3.2047098875,-1.8720645905,3.9093507520000004,16.15630865,-35.303539275,-3.3354068995
339,1.4124434999998812,-9.670773028,10.5746088,5.101142899999999,0.122505002,-1.4065759185,10.325412749,15.482170105,-24.0280056,-5.993600607
340,1.4166099999999915,-9.511773586,10.266162875,5.1331024499999955,-4.2723178865,-1.0053231715,-0.3445682525000002,17.065828325,-37.44831848,-2.8715903755000003
341,1.4207764999998744,-9.378436088499999,10.187968256,5.1307449500000075,-0.7490496634999999,-1.806214869,5.9090555904999995,14.72095394,-9.561821937000001,-2.1396728755
342,1.4249429999999845,-9.2522883415,10.015521049,5.150054949999998,-5.371826410000001,-1.0188136475,7.00460887,13.41131401,-21.11531258,-1.5212815405
343,1.4291094999998677,-9.150858879000001,9.9023189555,5.186363249999999,1.6717962025,-0.0033141970000000187,6.7508678435,10.08752823,-14.447674275,1.747083366
344,1.433275999999978,-9.0665888785,9.848226547,5.169517500000012,-4.997891903,-1.3599247335,3.7323513029999997,9.1361370085,-6.4221167564999995,-3.4141218665
345,1.437442499999861,-8.9995880125,9.8251037595,5.231567350000006,-0.5372085870000001,-2.184331179,-0.8781001715,5.437505245500001,-4.2439973355,6.491428852
346,1.4416089999999713,-8.8953909875,9.850276472000001,5.2153701500000125,-4.427242994,-1.8084412214999999,6.053080797,11.515521045,2.9502347705,-1.844148278
347,1.4457754999998542,-8.828447819,9.8332858105,5.2637711,0.239646252,0.09740331800000002,10.1578030585,5.7090935705,-3.24673295,5.020825863000001
348,1.4499419999999645,-8.8475108145,9.875231265,5.268135100000009,-3.3593220715000003,-1.6687684360000001,5.2843796014999995,-3.70166707,4.5615751745,0.872830719
349,1.4541084999998475,-8.8682541845,9.967695234,5.301826500000004,0.630040616,-1.5970557335,-0.037912428499999984,-4.517966628,9.998644827,5.328952074
350,1.458274999999958,-8.8932037355,10.060155865999999,5.281417849999997,-4.1877777575,-1.7092723250000001,2.8534796235,-3.8905718325,11.002927305,-1.0936381815
351,1.4624414999998405,-8.9114904405,10.248936655000001,5.32621764999999,-1.3328000305,-0.9536400734999999,5.062598228500001,-4.4751034975,21.210094455,8.4156126975
352,1.466607999999951,-8.9657282825,10.3777647,5.290840149999994,-2.056107342,-0.9993121025,2.158248365,-7.0705356595,15.587270735,-2.140678048
353,1.470774499999834,-9.004797935500001,10.541654585,5.347038250000011,-1.142017603,-2.1087411644999996,0.12027993800000003,-7.2456161975,18.037882805,9.304335594000001
354,1.4749409999999443,-9.057569026500001,10.668174265000001,5.317718499999998,0.49035935099999994,0.5606933535,3.271233797,-7.003548384,15.202551365000001,-1.4531343579999998
355,1.4791074999998273,-9.095902919499999,10.81641102,5.366752649999995,-2.857875228,-2.1329517365,6.586457491,-7.0295915605,16.301869395,8.19724226
356,1.4832739999999376,-9.1801719665,11.02688694,5.344276399999998,-1.454675436,0.22237879049999998,5.4096424575,-10.917146684999999,25.024464605,0.9651257695
357,1.4874404999998205,-9.279270648499999,11.18656778,5.3780670000000015,0.27779990450000003,0.8666871785000001,2.8383524419999997,-14.007517335,17.922924995000002,6.6848642824999995
358,1.4916069999999308,-9.420161247,11.36160183,5.37860105,-1.4701356885,-3.3958888055000003,1.2470798495,-18.233488084999998,20.38312721,3.0383309125
359,1.495773499999814,-9.512047291,11.53243065,5.394752499999996,-0.628101826,0.779382467,2.4384115934999997,-12.745135784999999,19.555772779999998,4.928616047
360,1.499939999999924,-9.6240000745,11.729725835,5.381805400000005,-3.7334259750000003,-0.8264992535,2.6750121115,-14.431673525,23.269360544999998,1.9863342045
361,1.504106499999807,-9.743478298,11.922305585,5.4118118500000065,2.2917211055,-2.0148820875,4.553183794,-16.410116675,21.83611202,7.045609236000001
362,1.5082729999999174,-9.8724727645,12.06777525,5.4067230499999965,-4.3050904275,0.9091201124999999,7.159638882,-16.659698965,16.976495745,1.9242832065000002
363,1.5124394999998003,-10.0405283,12.31423616,5.4069748,0.9019323884999999,-1.8441200850000001,1.8984774055,-21.508478165,28.772874835,4.8283400535
364,1.5166059999999106,-10.1772427545,12.44774866,5.406562800000003,-1.3078110815000001,-1.8823624849999998,1.1686677635,-17.69794655,15.45691729,2.2918732165
365,1.5207724999997936,-10.3544015905,12.64025259,5.426765450000005,0.069577079,1.2528254985,3.2657601835000003,-23.12124729,21.958372115,6.130682707
366,1.524938999999904,-10.50973177,12.75656271,5.384124749999998,-1.2855374815,-2.2247280475,0.8090755345,-18.81225681,14.310936925,-2.8771458865
367,1.5291054999997868,-10.657776355,12.95082712,5.390113849999992,-2.399737954,-0.629753381,-0.811214622,-19.2605238,22.436282159999998,4.656620264
368,1.5332719999998972,-10.81184101,13.050048830000001,5.31176760000001,0.575437024,2.3315995335,5.892182350500001,-17.66267395,13.089635375,-7.304183482999999
369,1.53743849999978,-10.97828865,13.2896266,5.280937200000011,-5.6530799865,-2.866961062,3.7332745794999997,-20.465904235,28.561061860000002,1.580880284
370,1.5416049999998904,-11.095951079999999,13.39190531,5.218971249999996,6.1561777595,0.24197125399999997,2.343979418,-13.71839237,13.097298625,-5.163261414
371,1.5457715000000005,-11.218044755000001,13.563446995,5.19892879999999,-7.445437908000001,1.604729906,5.878139973,-15.426391124999999,20.298146244999998,1.3712652324999999
372,1.549937999999884,-11.325997350000002,13.67589998,5.1803436499999975,7.067511082,-1.2398227290000001,2.451849878,-13.718048095,13.34108305,0.0014087705000000172
373,1.554104499999994,-11.376247880000001,13.793520449999999,5.159751849999992,-7.253958702,0.6309276225,2.925061941,-6.7777707575,13.96238565,0.10552427150000002
374,1.558270999999877,-11.45329523,13.87157106,5.169631949999996,4.1400578025,0.031231790499999967,3.1978324655,-10.8158688565,8.640041351,2.4662029739999998
375,1.5624374999999873,-11.510493275,13.943294049999999,5.167884850000007,-3.8011622425000002,-2.1551167365,2.4649634955,-8.146447658500001,8.1250982285,1.195563674
376,1.5666039999998702,-11.511973860000001,13.96151972,5.194252050000003,3.3337711094999998,1.6318388284999998,2.2102216485,-2.2215032575,1.221075237,2.9200544355
377,1.5707704999999805,-11.50386858,13.924932004999999,5.202392549999999,-1.2705365419999999,0.5660913590000001,6.299521446,-0.5968630144999999,-4.840142727,-0.26649685949999996
378,1.5749369999998635,-11.44375372,13.907578465,5.238624549999997,1.3068970439999998,-1.403373927,4.1512994765,4.8851730825,-3.1910859350000003,3.1995000840000003
379,1.579103499999974,-11.353714945,13.80596113,5.253334049999992,-1.6210350395,0.9808260125,7.2459168435,9.049830914000001,-12.640473365,-1.0494025645
380,1.5832699999998565,-11.221465585,13.733757015,5.319396949999998,-0.448252559,1.246082276,11.668633459999999,12.697504995,-10.314765929,5.340928078
381,1.587436499999967,-11.142457005,13.5441699,5.3237381,-1.2632333335,-1.2857792375,7.0094864365,8.025251627,-22.765048025,-4.2329208849999995
382,1.59160299999985,-11.028785225,13.46357918,5.385459900000001,-0.12606047850000002,-1.080851078,1.3928614555,10.5898108475,-11.2124424,4.829744338999999
383,1.5957694999999603,-10.83637953,13.163312909999998,5.402862549999995,-2.2368904355000003,-1.092979759,3.5363518,21.2773819,-36.11203003,-5.1587917805
384,1.5999359999998433,-10.63362122,13.054914475,5.4754410000000036,0.16963429,-0.49835649149999994,7.878352404,21.06968117,-14.67011166,5.3899037839999995
385,1.6041024999999536,-10.442821980000002,12.747211935,5.502517700000013,-4.199218034499999,0.5258142055,11.95608473,20.840620989999998,-37.228969570000004,-3.9606972935
386,1.6082689999998365,-10.308884622,12.626663685,5.5993118500000065,1.849902213,-0.329867497,8.864054679999999,12.233479975,-16.581420899999998,8.0185272695
387,1.6124354999999468,-10.1286187145,12.368568419999999,5.6036834500000055,-6.1806216240000005,-0.9027780590000001,4.0612394215,20.18836975,-30.919108389999998,-5.316164255
388,1.61660199999983,-9.947071075,12.259259225000001,5.701911899999999,3.0318369865,-0.9271630945,5.925597429000001,17.982379915,-15.23512268,8.529890060500001
389,1.62076849999994,-9.771708009000001,12.031744,5.677482650000002,-6.653987884499999,-1.9900987745,10.006444453,20.3296299,-26.756711005,-7.824222088
390,1.624934999999823,-9.614254951,11.925285814999999,5.771430949999996,1.4956566690000002,-1.8269108535,9.2790851605,15.22642708,-14.793790815000001,8.375064850000001
391,1.6291014999999334,-9.482881546000002,11.816447735,5.717926000000006,-6.9320282935,-0.48363508299999997,9.2739703655,15.754336355,-12.186067105,-8.6877884865
392,1.6332679999998163,-9.3927760125,11.79427004,5.796516400000002,-0.5245131255,-3.3000707625,7.411918400499999,7.5892426969999995,-4.455955267,8.1552271845
393,1.6374344999999266,-9.3436713215,11.792283535,5.7218170000000015,-1.0297442374999999,0.578906067,11.422735215,6.3929924965,0.8421831875,-9.017338276
394,1.6416009999998096,-9.282058716,11.687556265,5.821723949999992,-2.0255587695,-1.92622602,2.1687916515000003,3.6604349615,-14.616567135,9.0393362045
395,1.64576749999992,-9.263093948,11.824415205000001,5.750267050000005,-4.9618074895,-1.915727556,14.431844235,2.690974712,17.20975494,-5.967638254000001
396,1.6499339999998028,-9.273502350000001,11.861088755,5.83499144999999,0.10265813049999999,-1.9420946540000001,8.824007866999999,-4.6660038235,2.3956865069999997,10.186371324500001
397,1.6541004999999132,-9.304270744499998,11.923223494999998,5.809188850000012,-4.274652243,-1.1704226585,12.2252252105,-4.3852468725,7.495071411,-2.1168885824999997
398,1.658266999999796,-9.329038619999999,12.153260710000001,5.839645349999998,-1.6168404815000001,-0.882737197,7.719527960000001,-5.063207388,26.320194245,7.642665148000001
399,1.6624334999999064,-9.3661522865,12.104358675,5.866386399999996,2.1034196615000003,-1.436508119,4.0911230965,-6.4604225155,-6.651517868,1.821620464
400,1.6665999999997894,-9.3461260795,12.2289052,5.905471800000001,-1.3061507345,-0.215776682,14.013011930000001,0.09281958649999998,13.662045955,6.571358442499999
401,1.6707664999999,-9.3541145325,12.170712945,5.947227500000011,0.774676472,-0.45248582949999994,18.065011025,-3.3497723345,-8.0377411845,3.3813803195
402,1.6749329999997824,-9.354986668,12.2607646,5.995346049999995,-5.462921858,-0.25353237950000007,12.790912630000001,-2.6473594905,9.408493521,6.931916952
403,1.679099499999893,-9.323271275,12.15969944,6.045310950000001,2.236266434,-1.4167268575,11.311681508500001,1.2051436545,-13.26895189,3.505020976
404,1.683265999999776,-9.2301068305,12.113396645,6.1205672999999905,-4.4804534915,-0.6467238665,18.49820042,7.964080334,-7.2409141065,7.4094171525
405,1.6874324999998862,-9.129495144,12.099504945,6.147171,0.2470582795,1.1260457689999999,8.2892713545,10.07266474,-2.4949867725,2.4986495975
406,1.6915989999999965,-8.968239307000001,11.936249735,6.212837250000007,-1.2547503115,-1.7719258665000002,15.207997325000001,16.38704443,-20.89538288,4.158928156
407,1.6957654999998795,-8.792631149,11.879128455,6.2221832500000005,-7.0256137845,1.253643572,22.827729225,19.512334825,-7.292804241500001,-0.302203253
408,1.69993199999999,-8.567719459500001,11.79277754,6.242996200000007,-3.538005352,0.25359128400000003,16.514923095,25.187511445,-10.92625189,0.314222839
409,1.7040984999998725,-8.307455778000001,11.68084335,6.263923649999995,-0.3107910675,-0.730664626,13.20186043,29.391739845,-13.998403549999999,0.140436571
410,1.708264999999983,-8.027751446,11.541163445,6.270660399999997,-0.662386015,-0.8813862335,16.45956135,32.085234645,-17.03822422,-2.0079791545
411,1.712431499999866,-7.7349424365,11.406795975,6.305778499999988,-5.142098904,-1.354140103,19.486364365,32.97101402,-16.888022895,1.5546066760000001
412,1.7165979999999763,-7.41915226,11.260810375,6.3148345500000005,-2.7472070455,-0.8671499495,12.338931085,36.35854912,-17.842374805,-1.6438342330000002
413,1.7207644999998593,-7.073725939,11.124331,6.354919450000011,-0.4088988455,-1.371029824,15.033237455,39.19140625,-17.192468644999998,2.2865097524999998
414,1.7249309999999696,-6.774244547,10.937978269999999,6.351493849999997,-1.87490654,-2.840325117,16.919405935,34.691156385,-22.48888588,-3.476382375
415,1.7290974999998525,-6.485377073,10.814998150000001,6.372619650000004,-1.2208314835,-0.959117949,21.103072165,32.857284545,-15.296325205,0.44960713350000003
416,1.7332639999999628,-6.2818796635,10.630099770000001,6.362052900000009,-4.2708337305,-4.188593625999999,9.3551754955,23.331259725000002,-22.250351905,-4.0869727135
417,1.737430499999846,-6.0031342505000005,10.477755545,6.400169399999996,-3.927765369,-2.1034560205,14.488414290000001,31.283791545,-19.007732394999998,2.1858189699999997
418,1.741596999999956,-5.768408537,10.313585755,6.399528500000002,-2.7790168525,-1.639804542,23.590075495,26.852746965,-19.930467605,-2.453051925
419,1.745763499999839,-5.608431101,10.288347245,6.478202850000002,-3.3535985950000002,-3.5038636925,17.280493735,16.179279805,-4.285217762,8.6226825715
420,1.7499299999999494,-5.4856817719999995,10.2068648325,6.474449149999998,-1.4415060880000001,-1.198128313,15.32455349,13.475241185,-10.0354661945,-1.7148733135
421,1.7540964999998323,-5.427681923,10.189187525,6.531158449999992,-2.3785874844999997,-2.512718439,16.425307275,4.421951771,-3.097426772,6.150617361
422,1.7582629999999424,-5.44008708,10.21874666,6.5286331500000045,-6.475404978,-4.624706983499999,17.268326285,-2.7704741360000003,3.2115896939999997,-0.28620065
423,1.7624294999998256,-5.474515676499999,10.297964095,6.53618625,-2.3015533685,-1.0705750585,11.943630695,-5.6265192035,9.0280399325,1.474361956
424,1.766595999999936,-5.5145797729999995,10.402437209999999,6.508422850000002,-5.4609913825,-1.7158869505,14.39125538,-5.5474491115,12.44268799,-2.3695157765
425,1.7707624999998188,-5.587314129,10.526312825,6.50302889999999,-1.1474573015,-2.5034406185,22.17809391,-9.944934366,14.505870340000001,0.48901428300000005
426,1.7749289999999291,-5.7898635865,10.643037320000001,6.439117449999998,-4.9171118735,-2.255940914,17.26665974,-24.233047485,14.337340354999998,-6.441542625
427,1.779095499999812,-5.94728899,10.79406786,6.444496149999992,-4.095088959,-3.6925338505,8.615524767,-20.34596825,17.612901685,2.161247134
428,1.7832619999999224,-6.0780808925,10.968281745,6.363563549999995,1.587802827,-0.6389539355,11.620793820500001,-15.206949235,21.434978485000002,-7.567589760000001
429,1.7874284999998054,-6.2453849315,11.173619745,6.321006749999995,-4.268925905,-0.651824165,18.405343055000003,-20.430905340000002,24.68434525,-2.653944373
430,1.791594999999916,-6.3925499915,11.37548351,6.240859999999998,-1.5963876245,-2.3013275865,21.187278749999997,-17.12526226,24.75986099,-6.979737997
431,1.7957614999997984,-6.5700695515,11.554992200000001,6.186599749999999,-5.912464619,-1.9013559815,9.8267214275,-21.344425205,21.772771835,-4.2284142970000005
432,1.799927999999909,-6.679463625,11.698721885000001,6.086936949999995,-0.2469327505,0.24205991599999999,17.54604626,-12.061397555,18.12801647,-9.920238494
433,1.804094499999792,-6.798077345,11.842160225,6.017295799999999,-4.7909655575,-2.279269576,19.669222835,-13.864305975,17.70365143,-6.426825762
434,1.8082609999999024,-6.899175644,12.062671665,5.915878300000003,-0.004296109500000006,0.571833536,18.018992425,-10.96313143,27.332062725,-8.903233528000001
435,1.8124274999997847,-6.9896726605,12.171603205,5.825439450000005,-6.073358059,0.378733635,14.79415226,-9.9167847635,13.909263135,-9.274878025
436,1.8165939999998955,-7.055366993,12.385345455,5.727760350000011,1.1520524920000002,-2.5863111615000003,16.6263175,-6.7528135774999996,26.492731095,-8.4341077805
437,1.8207604999997784,-7.134674311,12.390294075,5.624778750000004,-1.98602438,-2.4230951665,8.6033866415,-8.199207544,1.7307541965,-12.223038195
438,1.8249269999998887,-7.1311709885,12.57284164,5.544052100000002,-2.0981814865,-1.6804149745,13.764815329000001,1.14950338,22.545660974999997,-6.8651824
439,1.829093499999999,-7.095390797,12.55613613,5.424377450000009,-1.773025632,-1.98246032,13.6228470815,6.083842516,-0.603951782,-14.467550275
440,1.833259999999882,-7.060892581999999,12.605566979999999,5.366180450000002,-2.546475649,0.438023731,24.705731395,4.293624878,6.361513615,-6.21380949
441,1.8374264999999923,-7.080885172,12.645265105,5.232040399999988,-0.5840796825,0.6702416835,21.143972395,-0.21396208549999998,6.311285257,-15.319058420000001
442,1.8415929999998757,-7.083912611,12.56941509,5.189826999999994,-2.096498966,-3.320116401,8.753345489500001,-0.6286694405000001,-8.788513183500001,-6.1940348145
443,1.8457594999999856,-7.066529989,12.58331871,5.061973600000002,-4.962331772,-1.2295505704999998,17.16763544,4.093885541,3.149885535,-14.9765563
444,1.8499259999998685,-7.0410163400000005,12.522062305,5.017387400000004,1.935303092,-1.673089057,13.203014371999998,2.8552188875,-7.0197865964999995,-6.250488281
445,1.8540924999999788,-7.0126137735,12.410736565,4.910690299999999,-4.767897606,-3.099376202,9.9123573285,4.839555025,-12.07757664,-14.36906433
446,1.858258999999862,-6.9515366555,12.429261685,4.8708343499999955,-2.0198625325,-2.667309165,17.08688688,6.9868335725,2.408288956,-4.523538351
447,1.862425499999972,-6.9136128425,12.281833175,4.752128600000006,-3.9618760350000004,0.229808405,17.58590174,6.265654564,-16.230480675,-16.263356205
448,1.866591999999855,-6.852867603,12.192092895,4.715194699999998,-1.2889239190000001,-2.4682782885,13.206991195,6.8616001605,-10.5362057685,-5.7658872605
449,1.8707584999999651,-6.7957553865,12.11098385,4.586883549999996,-3.8244674204999995,-2.7125957009999997,18.793689725,8.762804984999999,-8.225482463999999,-16.419581415
450,1.8749249999998483,-6.7752077580000005,11.965276240000001,4.574104300000002,-0.3505933505,-0.6445773244999999,16.64900446,1.4213148355,-17.546438215000002,-3.7377512455
451,1.8790914999999584,-6.7937035560000005,11.87010622,4.450714099999999,-5.219206333,-0.4557046295,14.821444034999999,-0.495212883,-9.977886676499999,-16.058758734999998
452,1.8832579999998416,-6.7481520175,11.78333664,4.422241200000002,-2.816017628,-2.7924269434999998,14.23537636,4.801888465999999,-10.30724573,-4.729477167
453,1.887424499999952,-6.720155716000001,11.615386959999999,4.329696649999988,-1.1690479815,-2.7443161015,14.000219824999999,4.2788916825,-19.088920594999998,-13.481091020000001
454,1.8915909999998348,-6.6902618405,11.53784752,4.2997893999999945,-4.9615681170000006,-0.847355872,13.726286415,2.9440495970000002,-9.192322731,-4.7631471155
455,1.8957574999999447,-6.687563181,11.433647155,4.218757599999989,1.0604104994999999,-2.154977798,12.5007905985,0.9269537480000001,-11.65807724,-11.236197950000001
456,1.899923999999828,-6.691656113,11.309421539999999,4.190483100000009,-3.532739639,-3.4502147434999997,13.480187895,-1.186477214,-14.77867508,-5.222654104
457,1.9040904999999384,-6.720163106999999,11.269245145,4.129852249999999,-1.324655354,-3.197802782,16.163830755,-3.329902053,-4.3046646115,-7.967013836
458,1.9082569999998211,-6.742037535,11.154993055,4.090278649999988,-5.2788634299999995,0.2118357275,17.56790638,-3.0607026815,-13.429871085,-6.4292700289999996
459,1.9124234999999317,-6.805863142,11.041423795,4.040771499999991,-0.36090250500000004,-1.7215176225,16.118518355,-7.849292278,-13.194573875,-7.712563276
460,1.9165899999998146,-6.873134374499999,10.92781496,3.9893569999999983,-5.315783977500001,-2.051615596,14.77416468,-8.2535738945,-13.171227455,-7.8551449775
461,1.920756499999925,-6.9257040025,10.82983589,3.967254650000001,0.0156616345,-1.582911551,15.200565335,-7.141044855500001,-11.709305285,-4.3103892805
462,1.924922999999808,-6.9809541705000004,10.72881746,3.915412900000007,-4.326535224500001,0.15752050099999998,12.401521684999999,-6.8196120265,-11.64895916,-7.7594883445
463,1.9290894999999184,-6.9973971845000005,10.718969345000001,3.8996582000000046,-4.6932163235,-0.6243165135,17.37362671,-2.954019427,-1.2979821265,-2.3100775479999998
464,1.9332559999998007,-7.015949011,10.67865896,3.8762436000000093,-2.698856354,-2.0652466415,15.214507105,-3.0539854765000003,-4.8207273485,-3.5743641855
465,1.9374224999999115,-7.0375318525,10.61192608,3.8963012499999934,-0.600602359,-1.9323250655000002,11.144395353,-4.367304325,-8.5876984595,1.051605403
466,1.9415889999997944,-7.0423676964999995,10.574339864999999,3.883628849999994,-1.281211555,-1.107995361,9.6042962095,-1.6407455204999999,-4.642016411,-2.331458926
467,1.9457554999999047,-7.003018856000001,10.614550115,3.921890250000004,-2.299054146,-1.0493802429999999,14.457177165000001,2.5451711415,3.8868957760000002,4.749506474
468,1.9499219999997877,-6.987580776,10.59180069,3.9217529499999983,-4.2249069210000005,-1.1781919005,20.055055615,0.512515193,-3.0604400634999998,-0.618711859
469,1.954088499999898,-7.0170731545,10.554069994999999,3.9635391500000026,-1.8006082175,-2.3518317939999998,14.99495411,-5.7921731475,-5.445125817999999,4.0202955005
470,1.958254999999781,-7.0240395069999995,10.5539217,3.9493713499999927,-4.9187588694999995,-1.498652339,11.334284785000001,-1.8702362775,-0.16598660499999998,-1.925870359
471,1.9624214999998917,-7.0235562325,10.541713715,3.9867629999999963,1.49919498,-1.877166033,14.18498898,-2.096345842,-2.344317317,3.885308385
472,1.9665880000000016,-7.071150064499999,10.52011347,3.96826935,-4.778338671,-0.5723810495,18.77127838,-6.649648428,-2.6559531685,-2.761944771
473,1.9707544999998845,-7.1340589525,10.54096222,3.9866638000000023,-2.2126477955,-1.773232162,13.961126805,-9.286716938,1.8646076919999999,2.144148767
474,1.9749209999999948,-7.177850962,10.5197978,3.9568405499999955,-3.4486802814999997,-1.707939267,10.2699551585,-5.943925141999999,-2.4349792005,-4.0818338395
475,1.979087499999878,-7.218929529,10.471556665,3.9924011500000063,-2.1038818360000002,-0.9132196680000001,12.197376255,-7.039880514,-6.6189615725,3.1179825064999998
476,1.983253999999988,-7.258031845,10.444562435,3.96261595,-3.1103612185,-1.112740025,13.65657711,-5.388454199,-3.1254235505,-4.1637990474999995
477,1.987420499999871,-7.280514479000001,10.364309785,4.003593449999997,1.634278655,-1.4743801355000001,8.707226279,-4.918798089,-10.51402283,3.264451146
478,1.9915869999999811,-7.3064899445,10.31764364,3.97927095,-5.4896855355,-0.8175715205,13.970165255000001,-3.9374268055,-5.542568207,-3.8297828435000003
479,1.9957534999998645,-7.322835445,10.310355659999999,4.004852299999996,-0.374333173,-0.353053145,14.640576835,-3.8440309765,-1.6021064520000001,2.5692615510000003
480,1.9999199999999746,-7.3947629930000005,10.2486090675,3.954559350000011,-3.2078746555000004,-1.0775932369999999,9.329006671,-8.8973875045,-6.9390125275,-7.1223464015
481,2.0040864999998576,-7.423486709500001,10.2326407425,3.9771652000000017,-1.263638556,-2.2691524625,13.024838925000001,-5.2625021935,-2.5946388245,2.0798693894999998
482,2.008252999999968,-7.4412107469999995,10.1936521515,3.9217834500000066,-3.0732545855,0.8593633475,7.142943859000001,-2.2923524975,-4.1474761964999995,-7.3640227315
483,2.012419499999851,-7.394120454499999,10.252822398,3.923904400000012,-3.487157345,-0.5540301019999999,10.992300515,4.2728586195,6.6592731475,0.8480554519999999
484,2.016585999999961,-7.364065647,10.1735320115,3.9055709499999978,-0.7820947764999999,-2.450808704,11.329484938,2.6547683475,-9.513018608,-3.6413263085
485,2.020752499999844,-7.296137333,10.229869843500001,3.901062049999993,-5.2726039885,1.708989203,14.19058752,6.9141151905000005,6.4235889915,0.011097357000000002
486,2.0249189999999544,-7.2613761425,10.258793829,3.8724517999999932,0.1318968775,-2.607885778,7.708157541,3.435317159,3.513158679,-3.1590036155
487,2.0290854999998373,-7.206637144,10.222940443999999,3.869430550000004,-4.648874283,-1.7211650610000002,12.4421401,5.30105114,-4.5718784335,-1.2202813625
488,2.0332519999999477,-7.1435124875,10.355195045,3.847793550000006,-1.29329741,1.5252947805,9.640663385,6.693378925499999,15.707658769999998,-0.8131432835
489,2.0374184999998306,-7.095590115,10.330150125,3.822090150000008,-3.067549586,-3.0989627840000002,9.9587469085,4.9709165095,-2.9551911355,-3.696928501
490,2.041584999999941,-7.019234419,10.440731045,3.813247700000005,-2.206041217,-0.2149728835,16.157808785,8.009738922,12.939494135,0.3364173995
491,2.045751499999824,-6.992889166,10.522008415,3.765426599999998,-2.1813663245,-0.6378325355000001,6.5387197725,2.871547699,10.0174717915,-4.7247765059999995
492,2.049917999999934,-6.916267395,10.54947758,3.7647323500000027,-3.052387238,-0.7519499654999999,9.412949562000001,7.863364935,2.9240953925,0.059950117
493,2.054084499999817,-6.845388651,10.724075795000001,3.690681450000014,-3.1733639240000002,-1.3326657415,11.7103495625,8.8115057945,21.497128484999998,-6.4702618125
494,2.0582509999999274,-6.796357631499999,10.76993227,3.665596050000005,-0.7956523595,-0.9241170139999999,5.761309624,5.0956959725,5.456869601999999,-2.532658696
495,2.0624174999998104,-6.736520529,10.931447030000001,3.5661468499999955,-1.1490833165,-2.0515052675,4.0537545685,8.0944344995,20.27718449,-9.6718997955
496,2.0665839999999207,-6.656485796,11.056556225000001,3.507179300000004,-5.9022276405,-0.30851700899999995,8.5271341805,9.60033369,15.3609128,-5.377556801
497,2.0707504999998037,-6.5796399115,11.247956275,3.401412999999991,-1.2068716885000002,-0.545650035,12.29257059,10.3442907345,23.899225235,-10.041862963
498,2.074916999999914,-6.551005125,11.390127185,3.3391342000000037,-2.2099817995,-1.7917946575,2.662543923,3.5510559085,17.426238060000003,-5.5627725125
499,2.079083499999797,-6.521533489,11.70041466,3.2410812500000077,-2.73222363,-0.6261399240000001,7.8010933395,4.557828188,37.953222275,-7.53598547
500,2.0832499999999077,-6.498693943,11.89678812,3.197341899999998,-1.0185589195,-3.3419145345,0.2566514015000001,2.4282184245000002,23.617749215,-2.504843116
501,2.08741649999979,-6.476477861499999,12.21859217,3.1326675499999936,-4.3717098235,-0.2760338485,12.387573483,2.956059456,38.874183654999996,-3.5157440905
502,2.0915829999999005,-6.501906633,12.51860523,3.1149063000000012,-0.080814287,-0.9234507974999999,2.8189120279999997,-3.9833186865,35.62811661,1.931180954
503,2.0957494999997834,-6.5418276785,12.82739496,3.0661163000000045,-1.4090728165,-2.222121,5.4346852315,-4.8388038875,37.10975647,-1.7932034730000002
504,2.099915999999894,-6.5729010105,13.24821806,3.0352783000000017,-4.0177870984999995,-1.313893497,4.563669842,-4.2859363555,50.200601575,2.1185579299999997
505,2.1040824999997767,-6.6788506505,13.497839925000001,2.997909550000003,-0.2743808705,-1.6748849154999998,5.61473608,-13.01028919,29.904942509999998,-1.2013086975
506,2.108248999999887,-6.7690939905,13.958697319999999,2.948081949999988,-1.4657832979999998,-1.5425703524999999,-2.363713965,-10.806702135,55.220478055,0.6333649905000001
507,2.1124154999999973,-6.8622062205,14.29033804,2.905967750000002,0.552806869,-0.7922296225000001,3.6360452174999995,-11.273532388500001,39.74331093,-0.457944788
508,2.1165819999998803,-6.920754433,14.69675732,2.8503647,-3.804744363,-1.0095687805,6.2717710735,-6.7499349115000005,48.81223679,-0.6550790519999999
509,2.1207484999999906,-6.9959836005,15.011184215,2.8380355999999978,0.5297046005,-0.8628690834999999,4.6153508425,-9.9825525305,37.272377015000004,2.8374654054999997
510,2.1249149999998735,-7.0927183629999995,15.37720871,2.8151855499999954,-3.625575066,-1.207569391,5.591450691,-12.288259029999999,43.535835265,2.6692897085
511,2.129081499999984,-7.1829378605,15.71886015,2.803138700000005,2.34214592,-0.046235948499999985,2.046401605,-11.77306986,40.499809264999996,3.3988926409999998
512,2.133247999999867,-7.287569284,16.02177477,2.78173065,-2.368387222,-1.1287871,2.1570999625000002,-13.25608826,35.989826205,2.0420718195
513,2.137414499999977,-7.3670682905,16.353152275,2.7537537000000043,2.2590571644999997,0.023040712000000005,2.6244039535,-9.937402246000001,39.498214725,1.5578471425
514,2.14158099999986,-7.416600942500001,16.574004175,2.724983249999994,-4.025791645,-1.8214067815,0.32530698150000004,-6.371276378499999,26.324715615000002,0.045042663499999996
515,2.1457474999999704,-7.373380661,16.720137595,2.710388199999997,3.2896045445,-0.050220713,5.1025083065,4.3559384345000005,17.253797535,0.274078764
516,2.1499139999998533,-7.3249454499999995,16.781746865,2.689399750000007,-2.5288003679999997,0.6009327545,10.4931554805,5.1352448465,7.2622122765,-1.536341965
517,2.1540804999999636,-7.348348617499999,16.89434433,2.699897750000005,4.605995654999999,0.9457767605,9.2804312705,-4.505058050000001,12.89484835,2.6048017740000002
518,2.1582469999998466,-7.3255889419999995,16.870225904999998,2.658607449999991,-5.6247160435,-1.6286629440000002,1.1917228105,2.7876551149999997,-2.6333933475,-5.235761166
519,2.162413499999957,-7.191151618999999,16.762512209999997,2.7355957000000046,4.506684303,-1.309067577,-0.6804311275,12.130271435000001,-14.290346145,6.821361542
520,2.16657999999984,-7.0772073265,16.65013409,2.685852049999994,-2.569962859,-0.16966962400000002,11.410359382,13.98441124,-13.04788971,-7.4337847230000005
521,2.17074649999995,-6.891861438499999,16.37660122,2.787483249999994,1.24215132,0.3697873505,5.1723929645,17.44499588,-34.35073471,7.297876596
522,2.174912999999833,-6.733378887000001,16.251401425,2.7575225999999873,-2.468855381,-0.876278043,7.899319408,18.63225174,-14.881467820000001,-5.312625408000001
523,2.1790794999999434,-6.530268192,15.810701844999999,2.865440399999997,1.6368546485,-0.43704523149999996,8.2987296595,19.46627331,-54.315052030000004,5.937512398
524,2.1832459999998264,-6.3363656995,15.676032545,2.8419189500000073,-4.701936245000001,-1.5645064115,7.5589296809999995,22.649389265,-16.121917725,-4.6486284735000005
525,2.1874124999999367,-6.0702853205,15.189935205,2.9673996000000074,1.727308512,-0.4808202835,-0.7406740190000001,26.593993185000002,-59.905597685000004,7.802689314
526,2.1915789999998196,-5.8248729704999995,15.0025568,2.9414520000000124,-6.189249754,-0.6640250089999999,16.1499910355,28.880886075,-22.419904709999997,-5.462069273
527,2.19574549999993,-5.5982613565,14.675438405000001,3.051910399999997,0.8408726155,-2.6733192205,6.0511879935,22.467415805,-40.682384495,8.538329124
528,2.199911999999813,-5.367830515,14.325466630000001,3.0568085000000025,-2.3540455099999997,-0.45882121499999995,9.5320693275,26.12446499,-42.223865509999996,-3.58605206
529,2.2040784999999232,-5.115267514999999,14.160543445,3.132858299999995,-5.4369699955,-1.40543811,8.891067984,26.732758525,-20.864198684999998,6.6800074575
530,2.208244999999806,-4.927801132000001,13.83396387,3.1412353500000023,1.8120913505,-1.9397519824999998,3.7362042669999997,20.8758564,-39.488996505,-2.5906153915
531,2.2124114999999165,-4.7018916609999994,13.70570278,3.15673065,-8.875549316,-0.8824273925,8.7106268405,25.336403845,-15.837178705,0.18199571250000002
532,2.2165779999997994,-4.5096359255,13.55736113,3.133995049999996,2.2025194165,-1.4823978245,7.5902757649999995,22.341783525,-17.89377785,-4.217841625
533,2.22074449999991,-4.330465436,13.361314775,3.1065215999999936,-6.7292912010000006,-2.1545690895,8.413888931,20.937407495000002,-23.556079865,-5.335609674500001
534,2.2249109999997927,-4.172015786,13.486145019999999,3.088096649999997,-1.2592951655,-1.6560309530000001,6.0886542795,18.156448365,14.733936785000001,-1.1841915250000001
535,2.229077499999903,-4.0379213095,13.292989734999999,3.042800900000003,-2.5533167125,-1.730251074,-0.6140508649999994,16.017071719999997,-23.08893776,-7.242718458500001
536,2.233243999999786,-3.859943032,13.462960245000001,3.0642394999999993,-3.486724138,-0.8039610085,13.649048924999999,19.39647007,19.813777925,3.7166410685
537,2.2374104999998963,-3.7873715165000004,13.436264035,3.0066604999999953,0.31808458250000005,-1.470900893,4.607975961999999,8.9827275275,-3.098816812,-7.2232980730000005
538,2.241576999999779,-3.692836404,13.521430015,3.0605239499999897,-1.5903974175,-1.9315707684999999,4.151078045,8.4722423555,9.4276533125,6.7596611975
539,2.2457434999998895,-3.6478197574999998,13.656683445,3.0272827499999977,-4.701459646,-1.902718723,8.465405941,5.0062520505,16.094234945,-3.1461844445000002
540,2.24991,-3.633605003,13.69670105,3.0942992999999888,1.0064303875,-2.5358897445,2.652865276,-1.5564748495,3.9368957279999997,7.9073967935
541,2.254076499999883,-3.673761487,13.951294895,3.0549926999999997,-1.869734824,-0.1507845075,6.906102896,-5.0238137245,30.42872524,-2.9433982375000003
542,2.258242999999993,-3.662552357,14.008612155,3.1257400500000045,-3.17608273,-2.5345724825,1.5915379225,-2.068567365,5.9788115025,8.4670033455
543,2.262409499999876,-3.6956717969999997,14.209253310000001,3.105018600000008,-1.86722213,-1.831126511,7.330113411,-4.700816393,23.829037665,-1.179344028
544,2.2665759999999864,-3.7713429925,14.341406345,3.1683273499999984,0.3381030335,0.6991030425,9.924127342,-12.313830374999998,14.987098215,8.1714043615
545,2.2707424999998693,-3.9222688674999997,14.539586544999999,3.140876800000001,-2.9032052755,-2.5135313275,1.5564341845,-18.623855589999998,23.589037894999997,-1.9063536525
546,2.2749089999999796,-4.0335172415,14.7421546,3.2080001500000037,-1.307519853,-4.252581835,-3.5333441495,-16.74303913,23.34987736,9.240687847
547,2.2790754999998626,-4.0965212585,14.936366079999999,3.165657049999993,0.125182927,1.9895385505,6.7875449655,-7.5929858685,23.242087365,-3.5628522635
548,2.283241999999973,-4.168646693,15.16277361,3.2306442499999974,-5.557245731,-0.9034214429999999,10.856877805,-12.0362668,26.19805908,9.2372436525
549,2.287408499999856,-4.294832468,15.446283345000001,3.1925125000000065,1.1458415385,1.3494570255,8.423539161499999,-15.26946354,33.901468275,-2.2043186425
550,2.291574999999966,-4.447644949000001,15.64792013,3.2222137499999945,-3.618814349,-0.906855887,1.8246926965,-20.649798394999998,23.507248875000002,5.037946700999999
551,2.295741499999849,-4.601216555000001,15.936911585,3.2317886499999986,0.6045978365,-3.2681365015,-1.458863378,-20.074193004999998,34.12896156,3.521123171
552,2.2999079999999594,-4.674058914,16.119813920000002,3.2318573000000015,-1.6611103415000001,-1.6449579600000002,-0.27565097800000005,-10.097335337,21.517447475,1.541254044
553,2.3040744999998424,-4.736753224999999,16.391618725,3.2598495499999984,-2.7427930834999996,0.511214817,6.990521669,-9.796231272,31.88849068,5.569827557
554,2.3082409999999527,-4.82640028,16.679387095,3.2434768500000075,1.097894788,0.3589439095,6.455820084,-11.55197668,34.212236399999995,0.7562675775000001
555,2.3124074999998356,-4.931488752,16.904694560000003,3.291557299999994,-2.806229353,0.2545818575,5.163909674,-15.611198425,26.115387915,7.4870979785
556,2.316573999999946,-5.0910851955,17.21279335,3.269462599999997,1.638379872,-1.6579166650000001,3.0533772705000004,-19.727113725000002,36.69263649,0.45362879300000003
557,2.320740499999829,-5.163213253,17.45622349,3.3106765499999966,-3.7843877075,-0.3631653695,0.42524790749999997,-11.461329934999998,28.320392605000002,6.995510101000001
558,2.324906999999939,-5.2648382184999996,17.77453995,3.2998733499999986,1.8223689195000001,-0.3966213985,0.560339713,-13.154325485000001,37.793577195,1.984721899
559,2.329073499999822,-5.3500282765,17.97158146,3.3457717499999973,-1.952608466,-2.509852767,6.5458493235,-13.24627447,22.706757545,7.089787245
560,2.3332399999999325,-5.48579669,18.25577831,3.3267517000000026,-0.049878897,1.5443838835,5.642477512499999,-16.934276585,33.79726219,0.805703133
561,2.3374064999998154,-5.587485790000001,18.49400139,3.323204050000001,-1.4420831205,0.4751760065,0.3425295635,-13.40170002,28.1410799,2.03869015
562,2.341572999999926,-5.7216911315,18.73530388,3.301078799999999,0.160025276,-3.1018543244999996,0.17085230350000008,-16.610230925,28.704913134999998,0.092787653
563,2.3457394999998087,-5.82194829,18.937515259999998,3.253776550000012,-1.3061265945,1.5701739789999998,3.576621413,-11.53229046,24.329605105,-3.222080231
564,2.349905999999919,-5.9187312125,19.217308995,3.199913049999992,-3.476315379,-1.1820590795,0.07065719349999999,-10.857015132499999,33.66593933,-2.8978952170000003
565,2.354072499999802,-5.953448534,19.43465519,3.195350650000009,3.3352371455,0.6732486560000001,4.0452520845,-5.317415714,25.64202881,1.8671379090000002
566,2.3582389999999123,-5.999750853,19.60710239,3.146659850000006,-3.0239545105000003,0.996331066,8.873522758,-4.9587128165,20.798086165,-3.57875824
567,2.362405499999795,-6.0149490835,19.834964755,3.176994350000001,-1.5117582084999999,-0.7466743440000001,6.6164596079999995,-4.3838409185,26.48197365,5.950510502
568,2.3665719999999055,-6.0191698075,20.016147615,3.128585799999996,0.547328562,1.410080612,3.4698700904999997,0.11765259499999997,21.835759165,-3.401827693
569,2.3707384999997885,-5.9962837695,20.181282995,3.1711349500000097,-0.978622109,0.43772814400000004,3.0998381375,-0.34066294099999994,18.852916720000003,6.527303695500001
570,2.374904999999899,-5.9078445434999995,20.275307655,3.130088799999996,3.2109196185,-1.9495221374999998,0.3655311585,10.962690354,11.344175815,-3.6853767635
571,2.379071499999782,-5.7373344895,20.35575485,3.176330550000003,-3.752464175,1.8929859995,6.9753508565,17.20488739,8.725011825500001,5.8354816435
572,2.383237999999892,-5.574435472499999,20.30059242,3.1554641999999973,5.884978533,1.1048758625000001,13.33068514,19.064720155,-6.7110342979999995,-3.2449146505
573,2.3874045000000024,-5.454371929000001,20.37049389,3.188034049999999,-5.5651707644999995,0.05636939400000002,11.566465375,11.718667985,7.6459786895,4.1347146035
574,2.3915709999998853,-5.3139526845,20.24839401,3.176864600000002,3.9645009045,-0.533815667,5.555040598,15.98486376,-14.816341874999999,-2.9478151795
575,2.3957374999999956,-5.1050543785,20.142654415000003,3.231964099999999,-2.683138251,-1.3506994845,1.7571423949999998,21.454970359999997,-13.54942608,4.710063696000001
576,2.3999039999998786,-4.8399236205000005,20.0212822,3.222389199999995,0.7837651375,0.6329870820000001,10.2699041385,30.85427189,-14.76998949,-2.5829418895
577,2.404070499999989,-4.5568745135,19.80903435,3.288948050000002,-2.037797749,0.23381821449999998,7.5888339254999995,29.915211675000002,-26.348272325,5.080167532
578,2.408236999999872,-4.3020238875,19.70666504,3.268630999999999,0.1121275625,-1.319510877,14.956615925000001,30.047109605000003,-12.42287588,-3.474125624
579,2.412403499999982,-4.006393194,19.414962765,3.3686829000000102,-2.1203924415,-1.0286840795,1.2032759189999997,30.127459525,-36.080371854999996,8.4289703365
580,2.416569999999865,-3.7262071375,19.31891918,3.3520202999999924,-2.2890977855,0.29299396299999997,13.520938874999999,32.958600995,-11.71765423,-2.99045217
581,2.4207364999999754,-3.4410153625,19.09613514,3.444580099999996,-2.155228078,-2.3760123255,7.0382904995,29.239432335,-27.68630123,8.482409000499999
582,2.4249029999998584,-3.228228092,18.934399605000003,3.4191208000000017,-2.3507401345,-1.156981498,12.8399088385,25.20057583,-19.55377102,-4.3376846315
583,2.4290694999999687,-3.0253579615,18.967501645,3.4533996500000086,-5.2972199915000004,-1.7142122385,5.8481666015,21.67573547,3.4049783945,3.7896658185
584,2.4332359999998516,-2.8519023655,18.693097115,3.440895100000006,1.303397596,-1.6542747915,5.2085916995,19.940145495,-33.164050105,-3.3460302355
585,2.437402499999962,-2.6495044229999998,18.917879105,3.424667350000007,-7.8704769615,-0.2564690115,12.478988410500001,23.582962035,26.681468965,-0.8745989200000001
586,2.441568999999845,-2.49418366,18.7153492,3.4204559499999903,6.212388992499999,-0.5754362345,4.213455436,17.473269935,-24.60474205,-1.8695396185
587,2.445735499999955,-2.342202544,18.784552570000002,3.3899994000000078,-10.852458475,-2.222001761,13.578111172,18.080332759999997,8.093211652,-3.4405374525
588,2.449901999999838,-2.278345108,18.952892300000002,3.414680450000006,2.3619179725,-2.217661917,9.1386201405,5.37631464,19.722173689999998,3.3011637925
589,2.4540684999999485,-2.294345021,18.922867775,3.383163449999998,-3.8173508645,-2.49583143,6.5467772485,-2.0263548045,-3.8069154025000005,-4.0339473485
590,2.4582349999998314,-2.2291027905,19.204439165,3.4006119000000012,-2.2226003405,-0.179682139,13.223685977999999,5.815013647000001,33.335384364999996,2.994511962
591,2.462401499999942,-2.252149522,19.21495247,3.3819580000000116,1.701581776,-2.22577548,3.7124407285,-3.3626879455000003,0.9926731735000001,-2.3757075075
592,2.4665679999998247,-2.263653338,19.378437045,3.3946914499999963,-4.556239605,-1.420691788,16.2169380175,-3.215279341,19.199439045,1.8845167755
593,2.470734499999935,-2.315473437,19.578766825000002,3.40187834999999,-1.3048388960000001,-1.7188934085,8.501700402500001,-7.840406417500001,23.63614941,1.463239491
594,2.474900999999818,-2.394817114,19.621311185,3.4360123000000016,-0.6313458829999999,-0.9619822055,7.2268481255,-12.224010945,4.595603943,3.750001192
595,2.4790674999999283,-2.4684439895,19.86237621,3.427413900000005,-1.514229536,-0.44782105850000004,14.66761589,-9.820063591,28.59057331,-0.0636578275
596,2.483233999999811,-2.53953135,19.949311254999998,3.452209449999998,-1.8832681175000001,0.42259730399999995,9.3975081465,-10.8757095355,9.955210686000001,2.936883688
597,2.4874004999999215,-2.5770230290000002,20.08128643,3.477912900000007,-1.488215208,-0.8308665155000001,10.6510770335,-6.8873231415,15.340803619999999,3.2803901435
598,2.4915669999998045,-2.608669877,20.104619024999998,3.4964904500000102,0.7915401455,-1.5380283295,11.502727509500001,-5.8956160545,2.3570732475,1.906582952
599,2.495733499999915,-2.614362359,20.09797764,3.509170499999996,-1.8625997305,0.28761556699999996,11.823472025000001,-2.5392801765,-1.2119119615,1.0688180624999999
600,2.499899999999798,-2.5878744124999997,20.1514864,3.5390930500000053,-0.739536583,0.044269382499999954,14.114791395000001,0.6136530335,5.91731143,3.3455135819999997
601,2.504066499999908,-2.5795588494999997,20.014607429999998,3.536140450000005,-1.5002877115,-0.948347129,15.175943375,-0.21443593500000002,-16.742491725,-1.3942599595
602,2.508232999999791,-2.5107495785,20.01120758,3.5501403999999894,-2.2649282215,0.456678212,17.000354764999997,6.35295105,-0.819828391,1.2402988675
603,2.5123994999999013,-2.4542961119999998,19.830194470000002,3.532424899999995,2.58193779,-0.7559726234999999,8.9838440425,6.1655159,-21.96366501,-3.250204444
604,2.5165659999997843,-2.3551096915,19.5996685,3.5158996499999944,-4.193910122,-0.7301239669999999,13.855023384999999,11.240649224999999,-27.89925194,-3.350524068
605,2.5207324999998946,-2.22635299,19.403972625,3.4930801499999973,-1.4089193345,-0.059291094499999974,20.901306155,15.03329754,-23.70975399,-3.83728385
606,2.5248989999997775,-2.0932676789999998,19.132199285,3.4746246499999955,-1.698206067,-1.6858513355,11.722551345,15.37210655,-32.85044861,-3.639889598
607,2.529065499999888,-1.913961649,18.858729359999998,3.4575881999999893,-0.8903180655,-0.015559241499999987,11.8804554925,20.850508689999998,-33.076711655,-3.3993786575
608,2.533231999999998,-1.725524187,18.537832260000002,3.47145845,-0.535912037,-1.9478754399999998,18.105157849999998,20.75023556,-38.87552643,0.03642350450000001
609,2.537398499999881,-1.542558551,18.275143625,3.4783554000000123,-2.06461966,-1.0819030105,18.556980135000003,20.363681794999998,-31.881303789999997,-0.435705049
610,2.5415649999999914,-1.3436718585,18.007736205,3.525443999999993,-4.57512784,-0.4040944875,14.12729454,20.778736115,-32.551488875,4.2410631180000005
611,2.5457314999998744,-1.14335987,17.757602695,3.556304950000012,-1.6261719465,-1.034210026,21.28491211,21.570216180000003,-30.433088305,2.5467050075
612,2.5498979999999847,-1.0039806665,17.374876025,3.5958861999999954,-0.4690063595,-3.0149822235,15.60295773,13.962239740000001,-46.339801785,3.3495227095
613,2.5540644999998676,-0.838650435,17.03254509,3.629440299999999,-1.6778383854999999,-0.526515454,15.066441059999999,17.316764835,-41.48328781,2.8628696199999997
614,2.558230999999978,-0.692147106,16.6620245,3.6659851000000003,-3.0882092715000002,-3.0104100705,12.299236775,14.97947693,-44.849571225000005,3.2857747075
615,2.562397499999861,-0.5419545395,16.35984516,3.6889037999999914,-0.9052153825,-1.0380555390000001,23.02277088,15.911354065,-36.63663101,1.9245154260000001
616,2.566563999999971,-0.4605084885,16.001503945,3.6946868999999936,-6.0835216045,-0.493776936,19.193512915,8.250666857,-43.33937073,-0.028284609000000016
617,2.570730499999854,-0.38550545,15.698666095,3.7236480500000084,-0.848316729,-3.5606410505,14.854946134999999,6.7201852795,-36.71253395,2.7534441945
618,2.5748969999999645,-0.3614520115,15.34682751,3.7279663000000056,-3.8018602135000004,-2.2590572835,12.9361577,1.4178973435,-42.556253435,-0.08997017100000004
619,2.5790634999998474,-0.3604001255,14.993821619999999,3.7391967999999878,-0.0603409035,-3.2059435845,12.971370225000001,-1.5594804290000002,-42.716474535,0.7117118389999999
620,2.583229999999958,-0.366094692,14.663399694999999,3.741386399999996,-2.204462528,-3.6163342,14.64677477,-2.0788092615,-39.98618698,-0.310086343
621,2.5873964999998407,-0.3991550605,14.3803792,3.780052150000003,-4.7950325015,-1.853669107,17.048312185,-6.465410471,-34.339473725000005,3.9472728970000004
622,2.591562999999951,-0.497367017,14.068146705,3.754974400000009,-2.8624767065,-1.047406018,23.064884185,-12.42459917,-37.780244825,-3.3293046955000003
623,2.595729499999834,-0.6275896505,13.77657795,3.7755889999999965,-5.397228955999999,-2.635082126,20.04616356,-17.55679989,-35.35806465,1.7385557295
624,2.5998959999999443,-0.7935834079999999,13.484322545000001,3.7414169500000014,-0.7518286405000001,-0.834081173,11.247421739,-20.336048130000002,-35.356960295,-4.5099112990000005
625,2.604062499999827,-0.9217447045,13.19866991,3.735374450000009,-1.0786512195,-1.011583641,13.605305195,-16.546524044999998,-34.612792965,-1.5348967315
626,2.6082289999999375,-1.1187455355,12.987353325,3.6903839000000005,-4.688301802,-3.6714254615,20.92671299,-23.801975249999998,-25.59904766,-5.791973591
627,2.6123954999998205,-1.3349736335,12.820130344999999,3.688713099999987,-6.4110791680000005,-0.814554408,19.244883535,-27.239299770000002,-20.406234740000002,-0.9419324545
628,2.6165619999999308,-1.559025109,12.728113650000001,3.652778650000002,-4.831465721,-0.21470908449999998,10.7650136935,-27.31749535,-11.274274824999999,-4.561303377
629,2.6207284999998137,-1.7361658814999998,12.66264486,3.639762850000011,-0.120330468,-3.8362603185,10.7057790765,-22.249533655,-8.1595597265,-2.0597823855
630,2.624894999999924,-1.933085144,12.636403085000001,3.5958175500000067,-3.452385068,-0.0914626905,20.26659584,-23.858103749999998,-3.3266569375,-5.3199961185
631,2.629061499999807,-2.180012524,12.646862505,3.5725479000000036,-3.4536318780000004,-2.8694616555,11.36691475,-30.356318475000002,1.0020232945,-2.993262768
632,2.6332279999999173,-2.3389050365,12.678883075,3.5349654999999984,-5.542173624,-1.5646863579999999,16.12963438,-19.46450806,3.6638485195,-4.307073593
633,2.6373944999998002,-2.5225656030000003,12.67879772,3.495079050000001,-1.4404441415,-0.6207984385,17.99520683,-22.32656574,-0.16150417899999997,-4.975349188
634,2.6415609999999106,-2.730882287,12.764567849999999,3.471092249999998,-3.9574645754999995,-2.41926229,21.338828085,-25.74785042,10.059120178499999,-2.406081319
635,2.6457274999997935,-2.969533443,12.839648725,3.4318924000000095,-1.9884412885000002,-0.9377422035,12.276416300000001,-28.933600425,8.8771641255,-4.444309949999999
636,2.649893999999904,-3.2207669020000003,12.97438097,3.399131749999995,-3.2865594625,-0.3034410255,18.73303318,-30.65919209,15.99774027,-3.009899974
637,2.6540604999997868,-3.5088942055,13.009302615,3.358596800000001,-2.4263557195,-3.443480611,14.56941557,-34.819652555,4.1113388535,-4.7986335755
638,2.658226999999897,-3.7900003195,13.144304275,3.3193053999999904,-3.845321536,-1.4815815689999998,10.181433201,-34.057462695,16.104335785,-3.6038310525000004
639,2.66239349999978,-4.081382036,13.210515025,3.263382000000007,0.630797654,-2.2562659380000003,8.553317546,-34.773075105000004,8.024187088,-6.280534506
640,2.6665599999998904,-4.371565342,13.36761236,3.201881400000005,-5.0810387135,-3.22141695,17.983018875,-34.51502419,18.970849989999998,-5.8391315935
641,2.6707265000000007,-4.6635763645,13.462458134999999,3.139083850000006,-2.23847723,0.654217124,14.303813455,-34.630083085,11.572134015,-6.7192687985
642,2.6748929999998836,-4.9448435305,13.587991715000001,3.072441099999992,-6.867663622,-0.10317799449999998,17.92268944,-33.24908447,15.311734675,-6.6539974215
643,2.679059499999994,-5.2101752755,13.748299124999999,3.0345993000000107,1.4403641820000002,-3.5037748815,15.494383334999998,-32.103719715,19.19908428,-3.0003014805
644,2.683225999999877,-5.5145812035,13.849593160000001,2.9850464000000017,-4.653496265499999,1.468701601,16.57063675,-36.4818573,12.28866911,-4.7663733955000005
645,2.687392499999987,-5.8555407525,14.078851225000001,2.946975699999996,-1.738483131,-1.1084762815,19.195534705,-41.149534225,27.462640765,-2.0010778905
646,2.69155899999987,-6.17664361,14.162275795,2.892486550000001,-2.6409516335000003,-3.3825734855,10.17563534,-38.30247307,10.266206267,-5.4310262205
647,2.6957254999999805,-6.455890179000001,14.297945975000001,2.869598400000001,-2.3627449274999996,1.356701672,9.0591921805,-34.170980455,16.123731615,-1.1709177495
648,2.6998919999998634,-6.737977743,14.46969509,2.7984619000000066,-0.899100676,-1.4889696534999999,15.11845589,-33.091398240000004,21.06907177,-6.0312001705
649,2.7040584999999737,-6.979222536,14.58026123,2.792686450000005,-4.554663419500001,-3.381715417,16.871438025,-30.11241722,12.902978425,0.6033054295
650,2.7082249999998567,-7.237150669,14.671226025,2.7187194499999947,-1.0878867509999999,1.3690161105,14.09745073,-30.06990623,11.54013157,-7.3731534485
651,2.712391499999967,-7.460129976,14.793517115,2.7068787000000043,-5.771818876499999,-1.1234678919999999,16.26555109,-27.733594895,14.380207535,0.1970760795
652,2.71655799999985,-7.689512730000001,14.924408435,2.653511050000006,-0.5756432115,-0.2976808585,17.574468615,-27.284026145,16.010616775,-4.1151483055
653,2.7207244999999602,-7.913326025,15.02868795,2.6324768500000033,-3.7624840739999996,0.61213772,13.73386908,-27.541830065,12.377742770000001,-1.0291934905
654,2.724890999999843,-8.100675821,15.158869745,2.590744050000012,-0.12219779,-0.5761481675,11.187682155000001,-22.536500930000003,15.78879833,-2.8270899060000003
655,2.7290574999999535,-8.2461185455,15.276943684999999,2.5695037999999926,-4.5825858114999996,-0.4575010745,11.39705324,-18.11858177,14.024093624999999,-0.733873725
656,2.7332239999998365,-8.299283743,15.359022615,2.565742499999999,-1.8286023734999999,-1.2241105435000001,14.92727947,-7.655736922999999,9.437527179,0.8995976750000001
657,2.7373904999999468,-8.327942133,15.42650175,2.560020449999996,-0.6746049225,0.8463022259999999,14.404762745,-4.5898342135,7.756983757,0.20356274
658,2.7415569999998297,-8.351607561,15.459925174999999,2.5777511499999974,-1.7102063895000001,0.553162798,18.27786541,-4.764273405,3.3181830645,2.3903844354999997
659,2.74572349999994,-8.420788288,15.54129124,2.572639449999997,-2.9530082945,-1.4104646445000002,16.787693975,-9.4720425605,9.3960704805,0.5227993575000001
660,2.749889999999823,-8.485654831,15.57290554,2.588516200000001,-1.063233495,-1.6439931395,7.618186712,-9.696281908,3.109593749,2.298595905
661,2.7540564999999333,-8.50522995,15.652659414999999,2.592735300000001,-4.849229574,-2.7997457985,8.291343212000001,-3.8187881705,9.043055534499999,1.5795019865
662,2.7582229999998162,-8.4885935785,15.643435955000001,2.591339099999999,-0.2810858415,-0.8642230929999999,12.037484645,0.6443324385,-1.443925619,-0.4077145755
663,2.7623894999999266,-8.45528698,15.66514492,2.588279700000001,-3.407380581,-1.284744382,16.238256455,2.764256239,2.2779957055,-0.2865912765
664,2.7665559999998095,-8.45115757,15.672657964999999,2.5751876499999895,-3.1293411255,0.6215303465,16.5275712,-0.4702324865,0.7454830404999999,-1.4679453375
665,2.77072249999992,-8.459174633,15.710060120000001,2.5707168499999966,-0.905771613,-0.063084558,13.274206164999999,-2.1503280399999998,4.164964556499999,-0.16802938099999998
666,2.7748889999998028,-8.493894576999999,15.687247275,2.5607147500000025,-2.0326458815,-1.498221964,10.698421002,-5.2338335515,-2.9059605595,-1.650120258
667,2.779055499999913,-8.4829587935,15.730998995,2.5704040499999934,-3.30084455,-2.813340068,7.978034973,-0.33507250250000004,4.676640272,1.564190924
668,2.783221999999796,-8.439059734499999,15.653864865,2.587478649999994,-2.277929187,-0.5145616829999999,7.179546118,3.322108865,-9.8142933845,0.489456028
669,2.7873884999999063,-8.376885891,15.7497139,2.5642090000000053,-4.9564285275,-0.2846368105,11.91293478,6.8837120535,11.421172145,-1.296426296
670,2.7915549999997893,-8.3514351845,15.71901226,2.5530471499999976,-0.6152755025,-2.510265827,5.458491294,2.025829911,-3.82699728,-1.9106044174999999
671,2.7957214999998996,-8.330585241000001,15.771533965,2.4889373500000005,-3.163110137,0.3042340355,8.639299868,3.2565939425000003,6.959695816,-6.7332143785
672,2.7998879999997826,-8.342781544000001,15.866076464999999,2.4284363000000013,-2.768793941,-2.172810793,11.880010605,-0.8759557455,11.87003565,-5.374405383999999
673,2.804054499999893,-8.386565208,15.992894175,2.358024599999993,-3.564752102,-1.2192928795,7.3031191825,-4.2695231435,15.88674736,-6.143127918499999
674,2.808220999999776,-8.4349684715,16.116461275,2.2863769500000046,-1.2651904225,-0.742552042,3.7760636805,-4.823353767,15.507539275,-6.10680604
675,2.812387499999886,-8.4768509865,16.214061735,2.2528686499999964,-1.040087372,-2.658872008,4.2621231075,-5.2388864755,11.801152705,-2.418887019
676,2.8165539999999964,-8.50753355,16.46964741,2.1890563999999983,-4.3152122495,-1.262022942,9.550591944499999,-2.922291875,31.04722881,-2.8472805025000003
677,2.8207204999998794,-8.5725307465,16.578305245,2.1753387500000088,2.5428150890000003,0.4684869945,1.8590140345000004,-8.6659369455,12.7772665,0.0728725085
678,2.8248869999999897,-8.606033801999999,16.797326085,2.1470336999999944,-7.7232632635,-1.431909263,10.6173779505,-4.435491085,26.103916169999998,0.5785874424999999
679,2.8290534999998727,-8.715758800500002,17.060518265,2.130714399999988,3.3510632515000003,-0.7066558304999999,3.4423363184999998,-13.9331069,31.152293205,2.5998345615
680,2.833219999999983,-8.7865896225,17.238768575,2.1038436999999988,-6.196701765,-1.217697978,5.096994638,-8.949213982,21.236227035,0.10239934049999999
681,2.837386499999866,-8.857642174,17.5760088,2.070999150000006,1.9790213105,-0.5081178845,2.6345841885000003,-8.6831998825,40.213832855,2.1846414805
682,2.8415529999999762,-8.936235428,17.73186779,2.061431849999991,-3.1264350414999997,-0.9360925254999999,3.3867544535,-10.4822583225,18.274469375,1.698326826
683,2.845719499999859,-8.9725899695,18.07231617,2.0511932,0.5174368695,-0.324969046,4.2854049204999995,-5.317189216499999,40.18494987,4.8855123515
684,2.8498859999999695,-9.026452064499999,18.207507135,2.0344619499999936,-3.386162758,-0.33783150500000003,7.5972437855,-7.242861748,15.947183129999999,0.5500529855
685,2.8540524999998524,-9.1013813015,18.472136499999998,2.046859749999996,2.634178162,-0.48462122649999995,2.867151737,-10.793105125,30.7835865,6.0809526445
686,2.8582189999999628,-9.1276483535,18.643477439999998,1.996276850000001,-5.020337104999999,-1.0101942720000001,3.781235695,-2.622949958,20.839225765000002,-2.536591411
687,2.8623854999998457,-9.1311903,18.79517174,2.012184149999996,2.494113326,0.069404349,8.72701025,-2.3697142005,17.33447647,4.3560471535
688,2.866551999999956,-9.177581310499999,18.932165145,1.938842749999992,-3.643808961,-0.156849485,4.900836229,-4.1228173975,17.1819582,-5.724872589
689,2.870718499999839,-9.126228809,19.00906277,1.9857254499999897,3.116719365,0.607807964,4.637299776,3.0016236305,7.912680149,6.4008510115
690,2.8748849999999493,-9.1096754075,19.044557570000002,1.9152298000000059,-1.5188348889999999,-0.4130791015,6.8867628575,3.3415439129999998,5.102099657,-7.333266258
691,2.8790514999998322,-9.0115976335,19.030043605,1.9867553999999927,0.9501669405,-0.2876358925,5.0202206375000005,7.63965106,-3.3470380305000003,7.4166924954999995
692,2.8832179999999425,-8.9020371435,18.85835838,1.9607314999999943,-0.3009859625,0.8691165445,6.785158872999999,12.760864734999998,-20.260690689999997,-6.244689465
693,2.8873844999998255,-8.73322773,18.744241715,2.0323562499999923,-0.4967382255,-1.2278228105,5.9051538705,16.15628767,-15.128644940000001,5.6198170185
694,2.891550999999936,-8.558405876,18.4652586,2.016403199999999,1.2797339555,0.612522822,7.949468614000001,20.18868923,-33.19351578,-6.935979605
695,2.8957174999998188,-8.366692543,18.21488953,2.102142299999997,-2.199505448,-0.03464204100000001,12.5547256465,18.437953945,-31.502009395,4.9109842775
696,2.899883999999929,-8.1725730895,17.831285475,2.1172561499999887,1.5936404469999998,-0.1883369235,0.8591740135000001,21.332940105,-46.167879105,-5.0195946695
697,2.904050499999812,-7.8737905025,17.504717825,2.196640000000002,-4.5422639845,-0.22358906250000005,8.5951979175,31.633540155,-40.418373110000005,3.18942821
698,2.9082169999999223,-7.621902704,17.119401935,2.2065964000000093,1.9648054840000002,-0.797642183,10.423450587,28.481754305,-46.332487105,-5.224914311999999
699,2.9123834999998053,-7.367055893,16.67143059,2.2920455999999945,-5.0129632950000005,-0.619221777,9.6345064655,26.272965435,-54.92252731,2.385423124
700,2.9165499999999156,-7.1532380579999995,16.40688801,2.253707850000012,-0.18070845300000002,-1.691949904,3.5405234099999996,25.57802868,-31.29415989,-8.5111613275
701,2.9207164999997985,-6.8904607295,15.83229828,2.3344955499999998,-2.2261589165,-1.2086967530000001,7.4204010955,27.510436055,-69.91780853,0.496470481
702,2.924882999999909,-6.659482241,15.58421421,2.2788696000000073,-2.367497683,0.20933425450000004,11.076997995500001,28.134854315,-29.165557865,-10.006632802999999
703,2.929049499999792,-6.448017597,15.08185005,2.3250579499999873,-1.8413472175,-2.2558704615,6.780528424,22.58010006,-60.84595871,-1.8886532185
704,2.933215999999902,-6.2477817535,14.799640655000001,2.3010711499999985,-0.7962265905,-1.6695287525,6.445805192,23.381657599999997,-33.71216011,-6.6150910855
705,2.937382499999785,-6.0379593375,14.401462555,2.331298849999996,-3.933398843,-0.5634085385000001,8.4035942555,22.933979035,-48.22900772,-1.9451240900000002
706,2.9415489999998954,-5.8607916835000005,14.105015275,2.3415832499999993,0.21233104149999998,-2.5705534815,4.952628493000001,19.568855284999998,-35.868047715,-2.5932911635
707,2.9457154999997783,-5.706460476,13.88605213,2.3605804499999863,-5.9077541825,-1.3413643089999998,11.5830779085,16.637867925000002,-26.71169853,-0.773384094
708,2.9498819999998886,-5.562594413999999,13.528824805,2.414260900000002,2.2308393715,0.042512207999999996,0.6573884484999999,14.35070944,-43.635364535,1.9339296225
709,2.954048499999999,-5.4216139315,13.387948035,2.412750250000002,-3.90811944,-1.599068701,9.468609812,15.628198625,-17.159495355,-2.115160346
710,2.958214999999882,-5.2940495015,13.11439848,2.490859950000001,-1.41884613,-2.1705226300000002,6.2402296065,11.76879311,-33.89731407,5.9512822629999995
711,2.9623814999999922,-5.1876688,12.951228145,2.4870376499999907,-3.5436255935,-0.37101843949999996,4.755503416,11.53689337,-19.805708885,-2.5516976115
712,2.966547999999875,-5.0630726815,12.79732561,2.5673980999999912,-0.060448632,0.143354058,6.1588084695,11.412608145,-19.597923275,7.6533842085
713,2.9707144999999855,-4.9981415275,12.670661925000001,2.5548247999999916,-3.0438388585,-2.869118094,4.7587962155,6.790297031,-15.360527040000001,-3.116510272
714,2.9748809999998684,-4.8868064879999995,12.60336256,2.641639749999996,-2.9946841005,-1.75736165,0.86007455,9.693522928,-9.286500930999999,9.3693881035
715,2.9790474999999788,-4.766353130000001,12.464316844999999,2.625579849999994,1.526977837,0.020789340500000003,7.0210397245,13.540254115,-16.816367145,-3.594472647
716,2.9832139999998617,-4.7365779875,12.372372625,2.7246398999999997,-5.1992440225,-1.135402888,12.766305445,-0.36590581349999995,-12.319015024999999,10.569575310000001
717,2.987380499999972,-4.791359663,12.325959205,2.7136917000000125,2.517942667,-3.570586443,2.9926211535,-7.627395153,-5.793774366499999,-2.053250015
718,2.991546999999855,-4.7774124145,12.289197445,2.7910690500000044,-5.21135664,-0.07000685450000001,-0.3025601505,-1.6874019805000002,-5.513721466,8.587596416499998
719,2.9957134999999653,-4.763168812,12.340349675,2.7917099000000007,-0.30654570449999996,-2.1959272624999997,2.7072389725,0.3600401345,5.7593224045,0.26495365049999997
720,2.999879999999848,-4.7122244835,12.354030609999999,2.8770980999999978,-2.6992409229999996,-0.5815674065,9.321092605499999,2.5676096680000002,0.4575983885,9.904513833500001
721,3.0040464999999585,-4.7667975425,12.40114212,2.8828888000000035,-1.388107181,0.46332803349999996,7.5433931350000005,-8.0316517355,5.2272765635,0.8293506205000001
722,3.0082129999998415,-4.836946249,12.42957783,2.9724197500000002,-0.039569895,-1.9797105784999998,3.600443125,-12.081685545,2.16950047,10.52685022
723,3.012379499999952,-4.858438015,12.482105255,2.9852676499999973,-3.1035828590000003,-1.2263354955,5.1233159305000004,-4.2455852035,5.802456617500001,1.7129136325
724,3.0165459999998347,-4.901527882,12.61652231,3.065025300000002,-2.4313367605,-1.0362665355,2.6284518245,-8.619935751,14.918427945000001,10.53030968
725,3.020712499999945,-4.9160790445,12.649829865000001,3.1004944000000023,2.0982367995,-0.860153511,4.694953203,-4.009421945,3.2751643655000002,4.162825584
726,3.024878999999828,-5.0102376935,12.779932975000001,3.1645737000000054,-4.5528743265,-0.37293809650000004,7.292793035499999,-14.362649919999999,14.54702234,8.6746997835
727,3.0290454999999383,-5.0921936035,12.834047795,3.1921463000000045,2.607675433,-0.5077596605000001,5.5637459755,-11.90097141,5.831766844000001,3.46946764
728,3.0332119999998213,-5.187489986499999,13.03636074,3.2047500500000012,-6.8672933574999995,-2.3242746590000003,-0.12112332850000002,-13.14543104,23.690638545,3.4907672405000003
729,3.0373784999999316,-5.2581300735,13.090745925,3.2651366999999993,5.746293545,1.5134676249999999,3.8771919009999998,-11.446747779999999,5.502540827000001,7.309587479
730,3.0415449999998145,-5.38717103,13.253812790000001,3.2383575500000035,-8.535491943499999,-4.033211112,7.606546879,-16.094880105,19.427382465,-1.578221917
731,3.045711499999925,-5.4545941355,13.40891361,3.3088379000000003,4.535537958,1.9410814045,3.3650921580000004,-11.373480794999999,17.397387504999998,9.636207581
732,3.049877999999808,-5.597803354,13.572643280000001,3.220565800000003,-6.716446638,-2.4260733125,1.530217171,-16.08266306,20.191304205,-8.535986900000001
733,3.054044499999918,-5.698367596000001,13.725996495,3.33362575000001,4.484360933,-0.978685722,5.9434740545,-16.601812365,16.661275865,14.617412569999999
734,3.058210999999801,-5.849876404,13.909659385000001,3.1955719000000045,-7.259515523999999,-0.840883657,3.045601845,-15.56520748,23.20202351,-14.08357763
735,3.0623774999999114,-5.95019722,14.13246727,3.3172607500000026,3.1268076899999997,-0.8358764350000001,1.1984460129999999,-16.90910053,24.78474331,16.5274992
736,3.0665439999997943,-6.141578436,14.27466106,3.1782455499999998,-3.774118185,-3.2272080185,6.6258471015,-20.205831529999998,18.326758384999998,-14.596220495
737,3.0707104999999046,-6.267852068,14.57681799,3.296546950000007,-0.35135359299999996,2.8544040920000002,2.3072389365,-20.02448082,34.206300735,17.273121834999998
738,3.0748769999997876,-6.460353851000001,14.725405695,3.1349639999999965,-1.3230782744999998,-3.9549694065,-1.3112761975,-19.561608315,19.44054127,-16.85579395
739,3.079043499999898,-6.5891115665,15.016953945000001,3.261871350000007,-1.4941785335,-0.6956430375,5.8482022285,-20.694142345000003,32.73331451,18.286249159999997
740,3.083209999999781,-6.793076753499999,15.22124767,3.06587214999999,-1.429990649,1.034276277,2.271737754,-19.71094704,26.632075309999998,-19.884840965000002
741,3.087376499999891,-6.908802509,15.520088675,3.191040049999998,-1.306159437,-0.6286343485000001,0.9212658850000001,-19.202228545,33.52353096,18.342384340000002
742,3.0915430000000015,-7.0966944695,15.694282054999999,3.02079775,-0.9499714674999999,-1.568652764,6.642647028,-18.41703701,22.78221989,-17.175462725
743,3.0957094999998844,-7.196768522499999,16.07643366,3.1086197000000055,-3.134202838,1.437548492,1.9143889845,-16.228503225,43.88834953,15.449316025
744,3.0998759999999947,-7.348490715,16.19510174,2.969879149999997,2.913140774,-0.6462180915,3.4028384684999997,-14.945926669999999,15.785536765,-14.259004115
745,3.1040424999998777,-7.425353765500001,16.602576255,3.035652150000004,-6.915840149,-1.1707999709999999,4.715714693,-12.787256719999998,47.165542605,13.47899628
746,3.108208999999988,-7.4980602265,16.729534145000002,2.9213333000000006,6.1245734689999995,2.7384918335000004,1.9133078159999999,-6.1587910655,16.448583605,-11.249493600000001
747,3.112375499999871,-7.5446321965,17.057785985000002,2.961051949999998,-8.253044605500001,-3.0333250165,4.942603111,-8.309064865,38.102750775,9.361593723
748,3.1165419999999813,-7.562238216500001,17.184747695,2.9166183500000074,7.533662318999999,2.1515160875,3.6404570339999998,-1.9060834645,15.40643978,-3.2505366804999998
749,3.120708499999864,-7.507204056,17.458524705000002,2.8984833000000094,-7.3636114599999996,0.3676425219999999,0.241599649,5.916958332,32.49179077,1.9316866995000002
750,3.1248749999999745,-7.405672073,17.493127819999998,2.907363900000007,6.4645235539999995,-1.017396599,3.5735055205,10.493377684999999,3.618298769,1.3659623865000001
751,3.1290414999998575,-7.3082108495,17.686551095,2.8828812,-5.801235199000001,-1.341673076,5.5222833155,11.249572279999999,23.028527259999997,-0.12563143699999998
752,3.133207999999968,-7.1803643704999995,17.687521935,2.9125442499999963,3.4242902995,0.53849715,4.489726782,12.88956499,-0.6794112775000001,3.197470188
753,3.1373744999998507,-7.01737833,17.75666332,2.8914489499999974,-3.449085832,-1.1460644604999999,7.6051177975,18.995799065,8.182451725,-1.6877545120000002
754,3.141540999999961,-6.837309122000001,17.66021919,2.9205017000000026,1.699415326,1.737348959,10.697694776999999,19.16415691,-12.257927415000001,1.7619398835000002
755,3.145707499999844,-6.7169950005,17.63071728,2.9020538000000045,0.29141137,-0.726701021,6.7444238665,13.7751441,-3.615718484,-2.8296302559999997
756,3.1498739999999543,-6.500715494,17.51616001,2.949203450000013,-3.448317647,-1.147595525,3.790315874,22.8644352,-14.643451215,3.6277085545
757,3.1540404999998373,-6.222811699,17.254157065,2.9422149499999932,2.421872616,-0.9290824235,5.1490039825,32.267356875,-31.504580500000003,-4.5966618065
758,3.1582069999999476,-5.961148977500001,17.079806325,3.011489900000001,-2.3002426624999996,-0.5573066175000001,12.182776449999999,27.55824852,-22.014077184999998,5.5500094895
759,3.1623734999998305,-5.706696987,16.79619694,2.9872741500000046,0.08026140949999996,-0.22327464800000008,12.87584257,30.049972535,-33.92027664,-6.5495467185
