,time,Euler_X,Euler_Y,Euler_Z,Acc_X,Acc_Y,Acc_Z,Gyr_X,Gyr_Y,Gyr_Z
0,0.0,-6.8715274335,18.522800445,-116.67387769999999,-5.1521869895000005,-1.219099969,7.3869770755,-7.5510146615,64.22931099,-2.295893967
1,0.0083330000002206,-6.9942154885,18.75448227,-116.74320220000001,1.2971919774999998,-1.1088336705,3.511435272,-12.1941976565,28.022736545,-4.932543695000001
2,0.0166660000004412,-7.102065325,19.22762203,-116.7987747,-3.5902617575,-1.13627553,3.0238142024999997,-10.920040610000001,56.580711365,0.268477023
3,0.0249990000002071,-7.267397880500001,19.553176880000002,-116.87046434999999,0.4123984574999999,-0.4551118614999998,1.441354096,-17.11461353,39.250881195000005,-3.6387383345
4,0.0333320000004278,-7.3769671915,19.93052101,-116.89922709999999,-2.068216905,-0.9673433305,5.0981123450000005,-12.196099757499999,44.820653915,2.115458071
5,0.0416650000001936,-7.5216653345,20.323760985,-116.9641609,-1.4880263805,-0.33089998350000005,3.3522751335,-14.754758835,47.173431395,-1.60024637
6,0.0499980000004143,-7.6607255940000005,20.704590795,-116.97057724999999,-1.4958426655000001,-1.3725941179999999,0.786857784,-16.575966835,44.8449173,4.9115140440000005
7,0.0583310000001802,-7.8222658635,21.08454132,-117.0391502,0.13173305999999996,0.5828221215,2.442300856,-16.578861715000002,45.693660734999995,-1.956419468
8,0.0666640000004008,-7.9547696115,21.427574155000002,-117.03900145,-0.7429794075,-1.665530011,3.4579514265,-16.035434245,40.232076645,5.1863405705
9,0.0749970000001667,-8.1183526515,21.80652523,-117.10525895,-1.1683406829999998,0.16982696200000003,2.4578737615,-16.828881260000003,45.54380417,-1.442238152
10,0.0833300000003873,-8.244529724,22.128834724999997,-117.12793735,-0.3895723820000001,-0.468101084,2.2018463315,-14.30476475,38.14500427,2.5031291245
11,0.0916630000001532,-8.385920048,22.49575043,-117.2054634,-1.5236653835,-0.4207732755,2.7375334505,-13.5094609245,44.25279808,-2.6165887115
12,0.0999960000003739,-8.525931835000002,22.81269932,-117.22748949999999,1.095873341,-1.282632768,1.4574412105,-15.90903759,37.436410905,2.6908429265000002
13,0.1083290000001397,-8.6768217085,23.112270355,-117.29473114999999,-1.184672475,0.426297605,1.8709165154999998,-15.08653784,36.13895607,-2.4548714165
14,0.1166620000003604,-8.791430949999999,23.409856795000003,-117.3135338,-0.9352452160000001,-0.9149258135,1.2511562485,-12.985332015000001,35.0663929,2.889750153
15,0.1249950000001263,-8.906291484499999,23.71459103,-117.357193,-0.646885395,0.7211425155,0.2327710425,-11.81718683,36.35552597,0.39323058750000006
16,0.1333280000003469,-8.982055187,23.955836295,-117.36300655,0.2405605314999999,0.09535563,3.5072072745,-8.9820935705,28.191964149999997,3.3676019605
17,0.1416610000001128,-9.0337848665,24.23215866,-117.3923607,-2.3622719645,-0.10007911950000004,3.1562258005,-4.8471529485,32.695627215,1.5488751305000001
18,0.1499940000003334,-9.0858578685,24.46205044,-117.40139769999999,2.00392735,-0.26955467450000004,-0.7615357045,-5.9231560205000005,26.854405405,2.8766847844999996
19,0.1583270000000993,-9.1418414115,24.64169884,-117.40761950000001,-0.1293062905,-0.14371329500000002,3.2899917365,-6.5393300055,20.877518655,2.2580434979999997
20,0.16666000000032,-9.166252136,24.798297885,-117.41664885,-0.385732144,-0.10550644999999997,3.48911345,-2.596189767,18.168514725,1.53336443
21,0.1749930000000858,-9.1736712455,24.961769099999998,-117.43313595,-0.640008092,0.36058759649999994,-0.8415679335,-0.18918710949999995,19.136677745,0.8653903004999999
22,0.1833260000003065,-9.1633524895,25.04882908,-117.44664,1.0399947465,0.49668449149999994,1.3467943594999998,1.7516039685,10.051980735499999,-0.28882610799999997
23,0.1916590000000724,-9.121023655,25.098017695,-117.4418945,-0.137858629,0.10761708,5.440403104,4.766271788999999,5.1828225405,0.978732765
24,0.199992000000293,-9.0580215455,25.1281271,-117.44822690000001,-0.629546199,-0.07227695,5.310398817499999,7.756259679999999,3.138895966,-0.5957871374999999
25,0.2083250000000589,-8.976676464,25.117081645,-117.42263415,0.095140457,-0.09764057400000004,3.425516367,8.3430640685,-2.2617506985000007,2.0598653254999997
26,0.2166580000002795,-8.888817787499999,25.09679699,-117.41750335,-0.9576613469999999,-0.138761908,3.085127592,10.1475603585,-3.0249066055,-0.3167456685
27,0.2249910000000454,-8.778875828,25.002960205,-117.37604905,0.9891082645000001,-0.318265021,2.4344221355,10.974934576999999,-12.333655596,2.2494302245
28,0.2333240000002661,-8.653337001499999,24.890709875,-117.36001205,-1.0361391305,0.42096042599999994,3.802954078,14.058505535000002,-14.05958223,-0.8253617879999999
29,0.2416570000000319,-8.517660141,24.72982502,-117.31834029999999,1.0981507899999998,-0.6065966489999999,4.549594402,14.126286985,-20.332395555,1.148082435
30,0.2499900000002526,-8.3675584795,24.556505199999997,-117.29382325,-1.6541522739999999,0.636827614,5.3317952155,16.63440275,-21.49585915,-0.9059637785000001
31,0.2583230000000185,-8.201855182500001,24.321578025,-117.2506561,0.5063388350000002,-0.979028046,5.498201728,17.63685894,-29.08941841,0.13238763799999997
32,0.2666560000002391,-8.01687932,24.09397507,-117.21120455,-1.300497174,0.14773271249999997,6.0205893515,20.11187744,-28.17489147,-0.06662368749999992
33,0.274989000000005,-7.828409671999999,23.86236,-117.17182919999999,-0.817623496,-0.5186277625,6.9742751125,20.589948655,-28.633312225,-0.027310610000000013
34,0.2833220000002256,-7.6497273445000005,23.596138005,-117.1294937,-1.656863391,-0.6513693485000001,6.6604824065,19.191846845,-32.75160408,-0.20589375499999996
35,0.2916550000004463,-7.458500385,23.31751919,-117.0741768,-0.6118295194999999,-0.923299849,4.177343845,20.255075455,-34.508864405,1.1875488760000001
36,0.2999880000002122,-7.3007991315,23.0994854,-117.04669955,-2.5089775325000003,-0.5285549015,8.6961605545,17.46975708,-26.86087799,-0.8510788675000001
37,0.3083210000004328,-7.1276032925,22.8259716,-116.9907608,-0.604050398,-1.7146191000000002,6.519657373499999,18.05927849,-33.84247017,1.5365674495000001
38,0.3166540000001987,-6.999269008500001,22.62273598,-116.9668312,-3.1998889445,-0.168162912,3.0153754355,14.131612775,-25.05171299,-0.8692134620000003
39,0.3249870000004193,-6.878372907999999,22.385890005,-116.92599870000001,0.6095072029999999,-1.7249100805,6.270372867500001,12.52631903,-29.262619020000002,0.5893967150000001
40,0.3333200000001852,-6.793759823,22.220958709999998,-116.90926745,-4.830933571,-0.369339116,7.3417783985,9.18072176,-20.328184125,-1.0216940639999998
41,0.3416530000004059,-6.7067484855,22.00419617,-116.87008665,1.967651665,-1.8518360555000002,10.768048048,8.6199784275,-26.910951615000002,0.8109545709999999
42,0.3499860000001717,-6.6565127375,21.91583157,-116.849041,-7.878318071500001,-0.9229100645,5.7720246335,4.9355368615,-11.3198726195,0.6033947470000001
43,0.3583190000003924,-6.6584522725,21.830595969999997,-116.8412819,2.479359627,-1.992405593,4.9189865575,-0.6937104315,-10.75831318,-0.8011427520000001
44,0.3666520000001583,-6.659017086,21.731785775,-116.7990265,-5.376876235,-0.0208281575,11.228439809,-2.0877014395,-12.84017515,2.8172335029999998
45,0.3749850000003789,-6.6933825015,21.723595619999998,-116.7995224,1.359345399,-1.3248432575,3.948956897,-4.2153217795,-1.472472683,-0.6415536400000001
46,0.3833180000001448,-6.746846914,21.60682106,-116.73836514999999,-3.7618489265,-0.5263961850000001,3.5413645505,-9.318211796,-15.161128045000002,4.639245391
47,0.3916510000003654,-6.795816898,21.644107814999998,-116.75203325000001,-0.695470154,0.054707959500000014,15.952028275,-5.339301109,4.055131197,-1.4476335569999998
48,0.3999840000001313,-6.813682318,21.526632305,-116.67463685000001,-1.8019183575,-1.5211629864999998,12.468485835,-5.7279584405,-15.54829359,6.515686512
49,0.408317000000352,-6.8789663315,21.61171246,-116.6972542,-3.5212409494999997,0.18808639049999998,4.1728169325,-6.9679627415,9.946564672000001,-1.7635210154999998
50,0.4166500000001178,-6.925959348499999,21.51048374,-116.60881425,2.6878275875,-1.1315483469999998,12.588637592,-9.653757812999999,-13.760373115,7.8418192865
51,0.4249830000003385,-6.9477555755000004,21.47533131,-116.59898375,-5.1402142049999995,0.6221684815,14.053171634999998,-3.185290724,-4.812652588000001,0.09792327849999993
52,0.4333160000001044,-6.958988189499999,21.43675709,-116.5177422,1.104098074,-0.9057963490000001,8.74932289,-5.0945692065,-6.137889206,8.004014255000001
53,0.441649000000325,-6.9850251675,21.36430454,-116.50795744999999,-3.324949622,0.07058766500000002,11.465647220000001,-3.6546647544999997,-9.320508479,-0.4426074029999998
54,0.4499820000000909,-6.9244787695,21.257267955,-116.41832355,1.0328665975,-0.017872192000000002,13.759696485,3.241464496,-14.481154919999998,7.966325404
55,0.4583150000003115,-6.901916503500001,21.186704634999998,-116.3948059,-3.4546717405000003,0.086870834,12.760198115000001,1.5120277405000002,-9.2043361665,1.0982296465
56,0.4666480000000774,-6.8448753355,21.007799145,-116.34597015,0.8110954985000001,-0.6402103605,12.770182134999999,4.5995253325,-22.484226225,2.5016878845
57,0.4749810000002981,-6.7702007295,20.951031685,-116.3412285,-5.493784666,0.6152518204999999,13.947784425,8.57405877,-7.3065636175,-0.7760794159999995
58,0.4833140000000639,-6.661725520999999,20.76808834,-116.3130951,2.173149049,-0.532197744,16.615329745,11.626936914,-22.595329285,0.17573356649999994
59,0.4916470000002846,-6.514553547,20.643566135,-116.31768034999999,-6.6347284315,0.3735720515,12.7161693595,17.73162079,-15.352566714999998,-2.7087540625
60,0.4999800000000505,-6.3875727655,20.53167534,-116.33185195,0.3319367915,-0.6906912175000001,11.768945219999999,15.712200164999999,-13.658308985000001,-3.4628095620000003
61,0.5083130000002711,-6.1801416875,20.368198395,-116.31146240000001,-1.742069423,0.413665548,21.02090168,23.87029743,-20.23788738,-0.3645100590000001
62,0.516646000000037,-5.987168312,20.250665665,-116.32008365,-0.9699431655,-0.230276115,13.2320761665,23.36183357,-14.416400433,-2.7496902944999997
63,0.5249790000002577,-5.777316332,20.10729313,-116.283947,-5.5313801765,0.004320978999999947,12.78695059,23.526028635,-18.01021576,1.7995746135
64,0.5333120000000235,-5.5607786175000005,19.94601059,-116.26750945,-0.5709022205000001,-1.3668904899999998,19.48371887,25.09665966,-19.847660065,-0.4062724114999998
65,0.5416450000002442,-5.26829648,19.77659321,-116.21481320000001,-2.1767417045,-1.438195348,15.650123595,32.844759945,-21.37039566,3.5230945945000003
66,0.5499780000000101,-5.034337759,19.57827473,-116.19922255,-0.5369927284999999,-0.48220755149999994,13.109226225,27.269420625,-24.34825516,-0.677578926
67,0.5583110000002307,-4.792140484,19.400292395,-116.13826755,-2.9510074855,-0.7765193585,16.57465696,26.47810173,-22.348876955,4.5565716025
68,0.5666439999999966,-4.5589051245,19.152639389999997,-116.1369743,-1.312264234,-1.9601875839999998,18.939142224999998,27.750386235,-30.118032455,-2.5790750385
69,0.5749770000002172,-4.33302331,18.944248199999997,-116.07582855,-3.760977745,-2.755881369,9.6095340265,24.58390522,-25.94171715,4.499158144
70,0.5833100000004379,-4.1926591395,18.671115874999998,-116.054348,0.33412338799999997,-2.263977617,14.64087963,15.786456585,-33.258319854999996,-0.3690631835
71,0.5916430000002038,-4.030369043,18.45071411,-115.99908445,-4.4465324875,-0.7603319885,19.45608139,17.29193497,-27.397053715,3.9081145525
72,0.5999760000004244,-3.93073535,18.17340565,-115.98861310000001,-0.9817980675,-1.4835091235,14.85708475,11.38645792,-33.75597191,-1.5144372955
73,0.6083090000001903,-3.8724210264999996,17.95534325,-115.9488983,-4.4138355255,-3.2670710085000003,11.11519718,5.4087883235,-26.888874055000002,2.2702617349999996
74,0.6166420000004109,-3.855821252,17.70356369,-115.9242935,-2.390956819,-1.852353573,18.357782365,0.9172652960000001,-30.807276725,0.35367500799999996
75,0.6249750000001768,-3.835111499,17.51325798,-115.89543915,-3.5035263299999997,-2.7777980345,17.946795459999997,1.3407585325,-23.486593245,1.2975407245000001
76,0.6333080000003974,-3.8470878600000002,17.31289196,-115.87504195,-1.9685235615,-0.10601532450000017,11.611292365,-2.3580480219999997,-24.52584076,0.26410865799999994
77,0.6416410000001633,-3.8989019395,17.158447265,-115.84157565000001,-3.7978773114999997,-1.7844042779999998,12.109543324499999,-7.4703557494999995,-19.31956911,2.119712807
78,0.649974000000384,-3.993247986,17.0002079,-115.80256274999999,-3.4752579929999996,-2.73204124,15.386905195,-12.84094763,-19.722214700000002,2.7026490865
79,0.6583070000001499,-4.06530118,16.899924275,-115.77655795000001,-2.8333162665,-1.7467810215,20.09053707,-9.6637663845,-12.692854405,1.6635937095
80,0.6666400000003705,-4.1775057315,16.793423654999998,-115.7513504,-2.2068673370000003,-1.6179699895000001,13.056948185,-14.488152979999999,-13.422971725,1.5317955915
81,0.6749730000001364,-4.316258192,16.78152561,-115.74993895,-3.7340810299999996,1.0676026345,13.786967275,-16.80388117,-1.9191659685,-0.404704988
82,0.683306000000357,-4.4961652755,16.72796726,-115.7362747,-3.5328676105000003,-3.7378896475,14.29168129,-22.20713806,-7.000560047,0.6543418764999999
83,0.6916390000001229,-4.6192753315,16.756795885000002,-115.75963594999999,-3.2885861394999996,0.7924653289999999,19.479830745,-14.119056225,3.1687122585,-2.7125866414999997
84,0.6999720000003435,-4.756992817,16.737109185,-115.7625809,-1.1318307374999999,-2.7296110395,13.357167245,-16.563566684999998,-2.802941501,-0.948130233
85,0.7083050000001094,-4.9037058355,16.803544045,-115.79455945000001,-4.5135980845,0.43092417699999996,12.77897453,-16.6486187,7.7574658395,-3.308925152
86,0.7166380000003301,-5.080974102,16.805950160000002,-115.7901344,-2.3314886095,-2.6231291294999997,18.066615104999997,-21.5733695,-0.23929454399999997,0.14809554800000002
87,0.724971000000096,-5.2122056484999995,16.920885085000002,-115.83400725,-3.488935232,-0.7528331875000001,18.43328571,-14.371640204999999,13.68670225,-4.0837173465
88,0.7333040000003166,-5.342133522,16.944594385000002,-115.8433304,-1.1113461255,0.80828318,15.05518961,-15.39605379,2.4546511175,-1.2427197694999998
89,0.7416370000000825,-5.520918131,17.06545448,-115.8907585,-4.645600557,-2.5525676605,10.567837238500001,-19.944032665,14.451416495,-4.3520908355
90,0.7499700000003031,-5.6427493095,17.14334011,-115.90548325,-1.6631451844999998,-0.4136020545,18.96901989,-14.222703935000002,8.982004644,-1.2022427915
91,0.758303000000069,-5.79395628,17.192010879999998,-115.9402351,-1.7262586355,-1.3258135915,13.11826134,-17.065577984999997,5.7065458295,-3.702256799
92,0.7666360000002896,-5.955746889,17.32042885,-115.9583893,-3.2520029545,-1.1114347275,11.373629095,-18.87118101,15.05896044,-0.9750386180000001
93,0.7749690000000555,-6.104411602,17.31084442,-115.9780121,-1.6632696390000001,-2.237084985,20.70328903,-17.29762697,-1.4095644955000002,-2.6731215120000003
94,0.7833020000002762,-6.2381083964999995,17.376018525,-115.99870684999999,-2.7247725725,-0.7990521195,13.510292766000001,-15.40473032,7.5445661545,-1.9896824285
95,0.791635000000042,-6.400145769,17.435931205,-116.01776505000001,-1.3618053795,0.3589847679999999,10.6411829,-18.91414547,6.8864405155,-1.7038148865
96,0.7999680000002627,-6.5549397465000006,17.40418911,-116.0292206,-3.547830343,-2.457055628,19.70730591,-18.270023350000002,-4.123406291,-2.1945642235
97,0.8083010000000286,-6.678810358,17.47247696,-116.05572129999999,-3.443455458,0.1176505685,16.480261804999998,-14.068107130000001,7.988478661,-2.404959183
98,0.8166340000002492,-6.794692516,17.475945475,-116.06597135000001,-0.437114954,-0.8872584700000001,11.564893483,-13.632730006500001,0.056447357000000004,-1.5764478445
99,0.8249670000000151,-6.919389725,17.45096588,-116.0820541,-4.1167076824999995,-0.24247336400000008,16.323371885,-14.534253360500001,-3.259379566,-2.5409708655
100,0.8333000000002357,-7.048046589,17.44235992,-116.09215929999999,-2.2092943194999997,-1.6525898425,14.85109949,-15.16879177,-1.3762207625,-1.739892423
101,0.8416330000000016,-7.1314065455,17.42085552,-116.0907478,-1.7456566095,-0.29424330600000004,15.977982525000002,-10.209303854,-3.0880331995,-0.5014499429999999
102,0.8499660000002223,-7.2137408255,17.375360485,-116.09490205,-2.7234779595000003,0.3819264585,16.34537697,-9.8293220985,-5.8552732465,-1.5916109084999999
103,0.8582990000004429,-7.263484716500001,17.322789195,-116.07631305000001,-3.162517667,-2.1952146289999996,15.774039745,-6.746892214,-7.017737746,0.83861655
104,0.8666320000002088,-7.284854412,17.272309305,-116.0744095,-0.921425462,1.5653145709999998,14.704424385,-2.7411082985000004,-6.5396032335,-0.955756962
105,0.8749650000004294,-7.2986085415,17.172549250000003,-116.0491333,-2.437815547,-1.2502642229999998,13.087656975,-2.6645281329999997,-12.73696184,0.8830448985000001
106,0.8832980000001953,-7.290954113,17.021267889999997,-116.03144075,-2.7917377945,-0.6785932035,17.816751005,0.18478226650000007,-18.769383429999998,-0.6746784450000001
107,0.891631000000416,-7.258620500499999,16.891219139999997,-116.00628664999999,-1.5010031165,-0.9248065354999999,15.546468255,2.848258495,-16.360718730000002,0.543789983
108,0.8999640000001818,-7.223831415,16.744624135,-115.99102020000001,-1.981318951,-0.150440574,13.95488024,3.5218043925,-18.17811966,-0.8487343195
109,0.9082970000004024,-7.1975967885,16.537415505,-115.95705029999999,-2.9168885945,-1.7832661269999999,16.05698204,1.825213984,-25.674220085,0.411685109
110,0.9166300000001684,-7.168287039,16.354129789999998,-115.93424605000001,-2.2299373745,-2.419020176,13.945680615,2.6359363795,-22.661102295,-0.5200393199999997
111,0.924963000000389,-7.133028984,16.14905119,-115.88658525,-2.034919739,0.19453401849999996,14.161122800000001,2.4757965205,-25.61732197,2.040936679
112,0.9332960000001548,-7.1164610385,15.938131335,-115.85855480000001,-2.9905439615,-1.714310795,15.60387659,0.9423036574999997,-26.030686375000002,-0.28600203999999985
113,0.9416290000003756,-7.0965309145,15.6984539,-115.80594255,-3.6303399800000005,-1.83571004,16.496643065,0.5277633669999999,-29.81358814,2.131349474
114,0.9499620000001414,-7.108750581500001,15.48214531,-115.78225325,-0.7217169645,-1.60949843,12.5774376405,-2.3503511699999997,-26.604374885,-0.8846584705
115,0.958295000000362,-7.128779411,15.241426465,-115.737011,-3.30264771,-0.32964301100000004,14.086908815000001,-3.9900218840000004,-29.835710525000003,1.289351441
116,0.966628000000128,-7.162453175,14.972033025,-115.71256635,-2.2394316195,-2.451004267,18.052248,-4.9091011285,-32.93085766,-1.658459067
117,0.9749610000003486,-7.1809477805,14.741055485,-115.67494965,-4.1784927845,-1.4875163735,14.46560526,-3.4796831604999996,-28.555921555,0.4021245095
118,0.9832940000001144,-7.2144682405000005,14.520795345,-115.6441803,-1.485265365,1.203995228,11.819288254,-5.0565555085,-27.180729865,-0.18900144099999994
119,0.9916270000003352,-7.2595732215,14.23714924,-115.60429385,-4.1940817835,-1.9290931839999998,17.2154274,-6.7373656055,-34.882064815,-0.009547680499999989
120,0.999960000000101,-7.2870357035,14.04048681,-115.5715561,-2.704013705,-1.017471701,15.511299130000001,-4.3449707029999995,-24.393795965000002,0.294755995
121,1.0082930000003216,-7.2969937325,13.80265665,-115.5366936,-1.639533937,-0.49455860249999994,15.878000735,-2.302080676,-29.34026909,-0.05571737900000001
122,1.0166260000000875,-7.3013000485,13.58250809,-115.5081749,-3.8317340615,0.078920573,19.862683295,-1.416186333,-27.12469959,-0.5830188465
123,1.0249590000003082,-7.3307025435,13.393023490000001,-115.4934616,-4.2433115245,-2.1301952895,11.258399961999999,-4.0733374355,-23.30749893,-1.5062907335
124,1.033292000000074,-7.328743458,13.22325468,-115.46913525,-2.4367411135,-0.26268565650000003,13.501892091999999,-0.5573598149999999,-21.085082049999997,-0.1770520285
125,1.041625000000295,-7.3337073329999996,13.037216664999999,-115.46593475,-3.6838645935,-0.23838376249999998,17.232049945,-0.8090257644999999,-22.731662749999998,-2.7845054865
126,1.0499580000000606,-7.323925733499999,12.918596745,-115.448204,-3.3370299340000003,-2.395370364,13.7341184605,0.579458475,-14.906176564999999,-0.13970003250000002
127,1.0582910000002812,-7.3082995415,12.789070605,-115.43305205,-1.6175922155,1.086936325,12.994121074999999,1.3386258185,-16.186433315000002,-0.5302020015
128,1.066624000000047,-7.284206867,12.65449905,-115.4144249,-3.3169375655,-2.250501871,17.787543295,2.2791936175,-16.821812155,-0.255770989
129,1.0749570000002675,-7.223201513,12.554661755,-115.3914566,-4.3694653510000006,0.32816168650000005,17.89030266,6.5843396185,-12.768807885000001,0.8541133555
130,1.0832900000000336,-7.1536643505,12.48405981,-115.37047575,-1.433626473,-1.0850687625000002,11.5270853045,7.680518387499999,-9.248148441,1.035064921
131,1.0916230000002545,-7.0843272205000005,12.39044571,-115.3504982,-4.6075918675,-0.18878072499999998,14.689718724999999,7.6680274585,-11.982700825,0.6175657514999999
132,1.09995600000002,-7.0197782515,12.293290615,-115.32827,-1.601378441,-1.0957415995,16.17871714,7.078112246,-12.4219725135,0.7771688105000001
133,1.1082890000002408,-6.9315021035,12.27023935,-115.30487819999999,-4.1944537165,-0.7766447065,16.41014433,9.8572478315,-3.627353609,2.0734916925
134,1.1166220000000069,-6.8576164245,12.19526529,-115.28432085,-2.4079629185,-1.5580349565,12.28810978,8.243085504,-9.755478383,0.9278435110000001
135,1.1249550000002273,-6.7881028655,12.19630098,-115.2467804,-5.3525280955,-3.2237414120000003,14.732846735,7.2553734775,-0.947925508,4.088275671
136,1.1332879999999932,-6.7294108865,12.228067875,-115.22541430000001,-1.971102953,1.0046600405000001,12.344018460000001,6.409489274,2.9627735615,2.479842514
137,1.1416210000002138,-6.6906564235,12.276830669999999,-115.18392945,-4.4007072449999995,-2.3877719045,12.06192255,3.467124224,4.69060123,5.2187085154999995
138,1.1499540000004345,-6.685344696,12.344172,-115.1575012,-4.761137962499999,-1.8517047165,14.39431572,-0.13674819449999998,7.135434388999999,3.5797945264999997
139,1.1582870000002004,-6.6603763105,12.50120306,-115.12322995,-2.4673630595000002,-0.9119157790000001,13.337409015,2.0185046495,17.71386242,5.7146782875
140,1.166620000000421,-6.671564817,12.603981014999999,-115.10667035,-2.0574023725,-1.9952189325,11.500745774999999,-1.8808085620000001,11.489970679999999,2.9454324245
141,1.1749530000001869,-6.707560301,12.84129524,-115.09807205,-4.3434450625,-0.8645826875,10.0280704495,-4.6382035015,27.631337165,3.8533827064999997
142,1.1832860000004075,-6.769138813,12.963145735,-115.1160507,-1.276092438,-1.5162110925,11.1640520085,-7.0243659019999996,14.265051365,-0.816223621
143,1.1916190000001734,-6.841435194000001,13.132434844999999,-115.12301255,-2.727437437,-1.1256628035,8.2113645075,-8.556734084999999,19.699814795,1.1288515925000002
144,1.199952000000394,-6.965800047,13.355231284999999,-115.15568545,-2.5601694585,-2.052506447,6.7732498625,-14.14888096,26.466226579999997,-0.9508198499999998
145,1.20828500000016,-7.1067278384999995,13.521569255,-115.1938667,-0.73286248,-1.7366297244999997,10.9704344255,-15.931103705000002,19.810240745,-2.4298311475
146,1.2166180000003806,-7.2369303705,13.664369104999999,-115.2322807,-2.55233264,-0.04794258650000001,7.743917465,-14.663439275000002,17.01512146,-2.6570041775
147,1.2249510000001465,-7.407321453,13.940073965,-115.28352355000001,-2.9483917355,-1.198335886,6.830038665,-19.06701851,33.035030365,-2.1582453845
148,1.233284000000367,-7.5636098385,14.036523814999999,-115.32369615,-0.6998183725,-0.6604811844999999,6.97411561,-17.718614575,11.559388635000001,-3.491375327
149,1.241617000000133,-7.741746425500001,14.339595795,-115.38373185,-4.21927762,-1.7449374199999999,8.6993758695,-19.6798954,36.40480995,-2.5414802395000002
150,1.2499500000003536,-7.906948805,14.485659125,-115.4379654,-1.5369218139999998,0.0489556345,6.158757925,-18.331176759999998,17.67850113,-4.2078638075
151,1.2582830000001195,-8.0777652265,14.81881475,-115.511158,-3.4054359195000004,-0.5018886699999999,6.1216113565,-18.354487419999998,40.215581895,-3.310177535
152,1.26661600000034,-8.239566325999998,15.045980929999999,-115.55971145000001,-0.297448895,-1.575001836,4.9723397049999996,-18.04985523,27.235040665,-2.01309526
153,1.274949000000106,-8.4255800245,15.3221612,-115.64593885,-5.255916357,-0.4800649134999999,4.572984816,-19.690541265,33.678834914999996,-5.543422341
154,1.2832820000003269,-8.584179878,15.755589485,-115.70248415,-0.29662841549999996,-0.784602016,3.7493953705,-17.352754115,51.86697769,0.9261291620000001
155,1.2916150000000926,-8.7901649475,15.889035225,-115.75664900000001,-1.2300414444999999,-0.5015178920000001,3.2102138995000002,-23.019309999999997,16.20425558,-4.2359576225
156,1.2999480000003132,-8.932809353,16.489543915,-115.8371544,-3.5981018545,0.2925576345,6.8596591955,-14.56245422,72.06644439499999,1.644096177
157,1.308281000000079,-9.100482941,16.573455815000003,-115.89487455,-0.077208884,-0.3527914215,4.442790389,-18.233519555,10.435839891499999,-5.4297528265
158,1.3166140000002995,-9.2078108785,17.109737395,-115.98077774999999,-1.9520541725,-0.4609877765,4.7219815255,-10.02773762,64.53490829500001,0.173505241
159,1.3249470000000656,-9.349756241,17.345468525,-116.06175995000001,-1.851229429,0.6770753265,0.5117075445000001,-14.2409958855,28.86699009,-5.027445793
160,1.3332800000002862,-9.4560518265,17.7166481,-116.12578965,-0.867775671,-0.873162091,5.7430856225,-10.590535403499999,44.575019835,-0.2547796965
161,1.341613000000052,-9.538939476,18.05149174,-116.20494844999999,-1.0109788925,-0.152264234,4.981755495,-7.104553461,40.56106758,-2.7523429395
162,1.3499460000002728,-9.6007332805,18.373224255,-116.25647355,-0.7148688435,-0.17553850999999998,1.5733929575,-5.6216468815,38.4690361,0.3252370055
163,1.3582790000000386,-9.685228824500001,18.680536269999998,-116.3162384,-1.4783816934999998,-0.4730737655,2.4772337075,-7.944430353,36.947004315,-0.9854064585
164,1.3666120000002593,-9.749929905,18.91962147,-116.35661694999999,0.8499396445,-0.3030887245,3.1493234635,-6.3302435875,28.48251629,-0.024596027999999992
165,1.3749450000000252,-9.815041542,19.18179703,-116.4067497,-1.3275108635,-0.8548544495000001,2.5724657775,-5.929328561,31.419318195,-0.7306211885
166,1.3832780000002458,-9.8836169265,19.36494541,-116.45058825000001,0.4111554624999999,-0.4701368975,3.108348727,-6.627161026,21.947772975,-1.4881874475
167,1.3916110000000117,-9.922397137499999,19.54388523,-116.47733305,-0.6324988005000001,-0.18688856049999997,5.05679512,-3.6530398065,21.106943135,0.24314934
168,1.3999440000002323,-9.980153083,19.663783074999998,-116.5202904,-0.251111984,-0.22843591850000003,2.0112636235,-5.330848694,14.446904655,-2.6607171895
169,1.4082769999999982,-10.016128539,19.771289825,-116.52815245,0.04316949849999996,-0.763821155,2.0792099835,-4.0666832920000004,12.30175066,0.9041501285
170,1.4166100000002189,-10.062952996,19.828789710000002,-116.56477355,-1.1477462649999999,-0.23611108949999998,2.181901336,-4.2645783425,6.9545338155,-3.24243623
171,1.4249430000004395,-10.080690859499999,19.877537725,-116.5642891,0.6754727960000001,-0.448718235,3.0432708259999997,-2.2068843245,5.1867803935,0.613377571
172,1.4332760000002054,-10.104498864,19.87085247,-116.5901413,-1.928955197,-0.35176919399999995,1.6965055465,-1.951676756,-0.8250793220000001,-3.389961243
173,1.441609000000426,-10.115653994999999,19.860858915,-116.5868416,1.3522903920000002,-0.194384098,2.504151404,-1.5098698139999998,-1.8238484855000001,-0.30610370649999963
174,1.449942000000192,-10.122068405,19.792103765,-116.5947151,-2.762628913,-0.5595749095,3.7666158675,-0.6089334489999999,-8.523073673,-2.6980957999999995
175,1.4582750000004123,-10.117195129999999,19.724168775,-116.59261325,1.8775405885,-0.3111944795,3.9036164280000003,0.4706554410000001,-8.634930848,-1.6538274289999997
176,1.4666080000001784,-10.10413885,19.616094590000003,-116.58338545000001,-3.382826902,-0.8879229125,2.5834817885000003,1.015803188,-13.509738445,-1.6168868515000003
177,1.474941000000399,-10.1016202,19.50154114,-116.59114075,2.3050616385,-0.31625624,2.5473902225,0.593488574,-13.9489791415,-3.7275564644999997
178,1.483274000000165,-10.08578587,19.35512638,-116.57221985,-3.396698177,-0.7861276564999999,1.476632744,0.9514729974999999,-18.22479105,-1.3324589709999999
179,1.4916070000003856,-10.09135342,19.175774575,-116.59270475,2.888122946,0.0032413599999999987,2.3390978575,0.13422542799999992,-21.362514495,-6.5062925830000005
180,1.4999400000001517,-10.064597606,18.98058796,-116.5605202,-3.7761372325,-0.8639724550000001,3.246389389,1.76003778,-24.26172733,-0.8675210475000004
181,1.508273000000372,-10.065601825,18.769335750000003,-116.58332440000001,1.6177011135,-0.16637696300000002,3.6265512705000003,0.755748466,-25.077227595,-7.4266141055
182,1.516606000000138,-10.046703337499999,18.594626429999998,-116.5384483,-4.4303480980000005,-1.2130297975000002,0.759797752,0.36111581350000005,-22.099306105,1.0080435275
183,1.5249390000003586,-10.056518077500002,18.379523275,-116.55842204999999,2.2408180235,0.5278040765,0.9817909899999999,-0.4437412285,-25.588873865,-7.1953050505
184,1.5332720000001243,-10.019227983,18.173636440000003,-116.4897194,-3.6449260115,-1.0042638775000001,2.3509118554999997,1.7261503784999999,-26.256895065,3.067858368
185,1.5416050000003452,-10.036369325999999,17.9806509,-116.4966164,0.7874099014999999,-0.394923389,2.6378189325,-1.8536899685000001,-23.23807621,-5.2685939075
186,1.549938000000111,-10.0291686075,17.786545755,-116.4227257,-2.7538447975,-0.7806863335,3.279417992,-1.9975911974999998,-24.98089886,3.9149333239999997
187,1.5582710000003317,-10.033837794,17.613071445,-116.44534304999999,-0.7147077505,0.6858718095,5.0023728604999995,0.18875774750000002,-20.60760689,-6.6382257935
188,1.5666040000000976,-10.011587619499998,17.48767376,-116.3873558,-3.5244402885,-1.7950103285,2.8634638785,0.44901111750000006,-16.554203985,3.5906686785
189,1.5749370000003182,-10.021107197500001,17.36781311,-116.41246795,0.278740585,0.311867071,0.06356596950000004,-0.3278875350000001,-14.217229365,-5.8081123825
190,1.583270000000084,-10.0214147575,17.23154354,-116.36130905,-2.1002675295,-1.494268119,3.867702961,-1.9726362225,-17.699660305000002,2.594331801
191,1.5916030000003047,-10.043391226,17.14823341,-116.37501904999999,-1.7544306514999999,-0.361143023,4.0808734300000005,-2.2407143415,-10.130648373,-3.759952128
192,1.5999360000000706,-10.0428447745,17.075318335,-116.35304645,-2.35215348,-0.4216169715000001,2.5624185205,-0.8167678115000001,-9.6428904535,0.640336633
193,1.6082690000002913,-10.0547523485,17.051833155,-116.35992429999999,-1.22014305,-0.5532824620000001,3.7901978495,-1.2807885625,-3.1904065609999996,-1.7375608085
194,1.6166020000000572,-10.072303295000001,17.013918875,-116.33515545,-0.8811565635,-0.9930544495,2.802276671,-3.084165394,-5.567337930500001,1.693164468
195,1.6249350000002778,-10.0938139,16.99020767,-116.33929065000001,-1.9444828035,-0.04100036600000001,1.909102678,-2.536564946,-3.2680048944999998,-1.4362730979999998
196,1.6332680000000437,-10.115908144999999,17.03094387,-116.33911895,-2.5463894605,-0.12531524900000002,2.248123884,-2.7717038389999997,4.2184416675000005,0.5830125805000002
197,1.6416010000002643,-10.133739949999999,17.052161214999998,-116.3496513,0.23069524750000003,-0.32763454350000004,2.701720476,-1.86193718,2.1643902065,-1.2173289065
198,1.6499340000000302,-10.15608692,17.118440630000002,-116.35809325,-3.087162137,-1.3347488195000001,5.150811076,-2.494250417,7.409162161499999,0.13480186500000002
199,1.6582670000002508,-10.184300425,17.16097927,-116.361454,0.16904637199999994,-0.011795103500000015,2.7460371255,-3.354466438,4.5402585265,0.04453718649999994
200,1.6666000000000167,-10.198526385000001,17.238760945000003,-116.38646700000001,-3.1296354534999997,-0.1674624385,3.6409020425,-0.9339337350000001,9.101488115,-1.4689639810000001
201,1.6749330000002374,-10.220068935,17.325073240000002,-116.38178635,-0.5587193965,-1.508458853,4.6042062040000005,-2.837641358,9.543564083,1.8889093399999997
202,1.6832660000000033,-10.253206255,17.424669265,-116.40073394999999,-1.8551315365,0.552590918,2.2746877370000003,-3.4106894435,11.561153412500001,-0.32405209550000014
203,1.691599000000224,-10.288140775,17.48392105,-116.38249205,0.7256715,-1.081478089,4.616127491,-4.935729146,6.066610575,2.8493018450000003
204,1.6999320000004443,-10.327371595,17.542193410000003,-116.3967018,-1.7264909295000002,-0.1422095895,6.3523123265,-4.2868560555,6.5880651475,-0.721168399
205,1.7082650000002104,-10.35017681,17.61014366,-116.371521,-0.9361480474999999,-1.684589207,3.809607506,-3.74292469,6.958203554,3.8212725819999998
206,1.716598000000431,-10.396194935,17.650244715,-116.40384295,-0.20497018050000015,0.2830260395,4.791216612,-4.4478286505,4.8067039255,-3.1064239145
207,1.724931000000197,-10.396780015000001,17.671762465,-116.36069485,-0.8788022994999999,-0.28533136849999996,5.298334122,-1.731747629,1.0957710745,4.8463676575
208,1.7332640000004176,-10.42904806,17.66716576,-116.4099922,-0.38710951799999993,0.558616936,5.008254168500001,-2.1908626855,-0.111825332,-5.949085951
209,1.7415970000001837,-10.425927640000001,17.641695024999997,-116.3394852,-0.6719118355,-2.407457888,5.4082546234999995,-2.2778998615,-5.025750577499999,6.9063096045000005
210,1.749930000000404,-10.422426699999999,17.64778233,-116.3860016,-2.0178092715,0.7143391964999999,8.512182473,1.9934152365,1.0882720685,-5.4041239025
211,1.75826300000017,-10.396803855,17.631406785000003,-116.315815,-0.7490317824999999,-1.7175420525,4.799771010500001,0.43738222150000006,-3.9393416644999997,7.0746519565
212,1.7665960000003906,-10.41283226,17.576698305,-116.34850309999999,-1.6588970424999998,1.1782982945,2.3435518145,-0.8645000459999999,-6.372656106999999,-5.1649830340000005
213,1.7749290000001563,-10.391772745,17.516464235,-116.28413775,0.9634464980000002,-2.0599460604999997,4.9086960555,0.13008838899999997,-9.0000875005,5.4735193255
214,1.7832620000003772,-10.389847755,17.480560305,-116.32238385,-2.2892503735,1.0996368675,9.662185432,1.4724344015,-4.0294398665,-5.399365663499999
215,1.791595000000143,-10.35007,17.31261349,-116.22794345,0.12501835799999972,-2.1171906595000003,4.238488555,1.3258443775,-22.341507915,6.549736261
216,1.7999280000003637,-10.310721874999999,17.28647804,-116.268692,-1.5578048230000001,1.2598806770000002,10.915603876999999,6.0289642815,-2.826000214,-5.4803720115
217,1.8082610000001296,-10.245440485,17.116918565,-116.17511365,-1.1751713749999997,-1.648202449,8.3287255745,4.470295429,-22.504872319999997,6.473361092
218,1.8165940000003504,-10.186114785000001,17.01711178,-116.1888771,-0.2954968215,0.351738289,6.500817299,7.435258269,-12.088073255,-4.000472902
219,1.824927000000116,-10.12454176,16.839675905,-116.10982895,-2.3099479675,-1.2153139560000001,4.7860643265,4.607208967,-23.12629509,4.7306125155
220,1.8332600000003367,-10.057441710500001,16.725223545,-116.10472105,-0.3974812030000001,-0.4955053925,11.066590192,7.687500954,-14.194530965,-2.1744904524999997
221,1.8415930000001024,-9.948358536,16.49213028,-116.03972625,-1.3785630465,-0.21125128099999999,11.634797809,10.8561425225,-29.42133236,2.0587902075000004
222,1.8499260000003237,-9.849368572,16.366330145,-116.00209425,-0.8169614285,-1.3576916755,4.119462669,10.409515382,-16.194917205,1.3470306384999997
223,1.8582590000000887,-9.8141207695,16.074623585,-115.94241335,-1.4619783675,-1.264404014,7.124615669000001,2.2205584645,-36.23213005,0.35174751000000004
224,1.8665920000003096,-9.709821701500001,15.98200464,-115.90286635,-3.2048955555000003,-0.06221324249999999,11.3416361805,11.01966953,-12.29742384,2.2432374955000007
225,1.874925000000076,-9.609055995999999,15.65808153,-115.8554611,1.4076206685,0.04280221500000003,14.244773388,10.488737823000001,-39.833078385,-1.4136710185000005
226,1.8832580000002963,-9.5120739935,15.551384925,-115.79751205,-4.762807846,-2.2242338655,11.351698401,9.5975551595,-14.308015586,4.092175009
227,1.8915910000000624,-9.416898727,15.258572574999999,-115.79104995,0.11510586749999996,0.984407395,9.328758242,11.153680804,-35.37348652,-5.332067372499999
228,1.8999240000002828,-9.3169932365,15.106509684999999,-115.70022965000001,-3.2654410605,-2.3045273425,13.9194183345,9.009811878,-20.26790142,6.9118832815
229,1.9082570000000487,-9.2043643,14.815322875,-115.6998825,-0.01083302499999994,0.6785010395,12.894698622,13.41940451,-35.08657646,-5.8636184935
230,1.9165900000002691,-9.0659246445,14.632406235000001,-115.60580445,-3.1186773035,-1.7128951255,12.865434171499999,13.619765281,-23.97153568,6.8763242975
231,1.9249230000000352,-8.974677086,14.385293010000002,-115.62264635,-0.5646241900000002,0.08038675749999999,14.409322265,11.3539433455,-29.56417179,-6.889122606
232,1.933256000000256,-8.815062523,14.09809065,-115.52095034999999,-2.966031015,-1.4732286929999998,15.642580984999999,16.060111045,-36.44231033,5.9133226875
233,1.9415890000000215,-8.6809911725,13.9175148,-115.5484619,-3.0734651535,1.341723323,13.16445923,16.774852275,-21.512425425,-6.7675807475
234,1.9499220000002424,-8.497742176,13.624530315000001,-115.45068739999999,0.2026495934999999,-2.051548004,13.318584920500001,19.10185051,-37.030332564999995,5.5802428719999995
235,1.9582550000000083,-8.3497252465,13.403741835000002,-115.46855545,-4.16028744,0.32677429950000003,13.23628092,18.147036555,-26.4851799,-6.2514414785
236,1.966588000000229,-8.171947002,13.168831825,-115.3870392,-1.6747404335000002,-3.2529898885,16.789892199999997,18.985406875000002,-29.84116554,5.0265047549999995
237,1.9749209999999948,-8.006059885,12.942385195,-115.39393235,-4.82727921,-0.7025827170000001,14.75715637,20.00373173,-27.349402425,-5.086294174000001
238,1.9832540000002157,-7.860963821,12.726691725,-115.31365205,0.6282036904999999,-3.2343074080000003,14.20795536,15.172087665,-27.50391769,5.397405147500001
239,1.991587000000436,-7.70596385,12.512989995,-115.31638715,-4.078864008,0.138295092,19.790348055000003,18.58287668,-25.93010616,-4.2585368155
240,1.999920000000202,-7.5588765145,12.36018801,-115.2530403,-2.929824173,-0.4196856615,13.275546551000001,15.94392157,-19.724458695000003,4.513845682
241,2.0082530000004226,-7.456125736000001,12.209757804999999,-115.26000214999999,-3.10049057,-2.228370607,13.300196645,12.40436506,-18.35009718,-3.6400657595
242,2.0165860000001885,-7.333989858500001,12.040754795,-115.1991768,-2.2337743635000002,-3.1487782,14.717458725,13.049781320000001,-21.597999575,4.073792502
243,2.024919000000409,-7.2484431265,11.873820304999999,-115.19488525,-2.0109394044999997,-0.8449042795,17.526423455,10.04836583,-20.489245415,-2.515083075
244,2.033252000000175,-7.1338181495,11.750480175,-115.14764785,-2.0320361255,-2.46162045,18.441085815,12.54745817,-15.942267895,3.2284262179999996
245,2.041585000000396,-7.0681393145,11.638519285000001,-115.13467405,-3.0546641494999998,1.012733817,13.576146604,7.4539368145000005,-14.07964945,-0.620691538
246,2.0499180000001616,-7.0217416285,11.50790882,-115.1119652,-2.200682819,-2.983362317,10.237135884499999,4.9647378920000005,-16.448781015,0.29214239100000006
247,2.058251000000382,-7.0001175405,11.36913252,-115.095047,-3.888176799,-1.9239411949999998,16.703899385,2.0853966325,-17.324290275,-0.5224022865000002
248,2.066584000000148,-6.9500849245000005,11.273124695,-115.06993865,-0.8672192539999999,-2.788788557,22.679430005,5.345524788,-12.3658628455,1.1196817159999999
249,2.0749170000003687,-6.8986530305,11.17589569,-115.0514297,-3.6724693775,-0.21204933550000005,11.48715496,5.611529231,-12.418551919999999,0.4479988815
250,2.0832500000001346,-6.8967313765,11.106220245,-115.04717255,-2.4910337924999997,-0.42789910000000003,13.98958397,0.06515645950000026,-8.9234495165,-0.929623723
251,2.0915830000003552,-6.884649276499999,11.059432505,-115.0226326,-4.129476070500001,-2.798517585,17.09307003,0.7901929619999999,-6.482142927,1.729722619
252,2.099916000000121,-6.8816933635,10.997363565,-115.00509265,-2.694581747,-1.4767665865,14.830334664999999,-0.11915075800000008,-8.2056863305,0.719381928
253,2.1082490000003418,-6.8686327935,10.988682749999999,-114.97686385,-2.3570656775,-2.7974649664999998,15.258385180000001,0.7963146865000001,-2.0068497059999997,2.877195906
254,2.116582000000108,-6.8703854085,10.96613836,-114.97722245,-2.0991310475,0.917770654,19.31357956,-0.285784401,-3.2516120675,-0.7523604634999999
255,2.1249150000003283,-6.8569340705,11.012471675,-114.9581108,-4.284513116,-0.9075130225,14.214376925,1.0623886885,4.678657651,2.5791231395
256,2.133248000000094,-6.9017031195000005,11.029471395000002,-114.9555893,-3.064216554,-3.1107724905,8.293325663,-5.5082647805,1.4266429544999997,0.09475356349999997
257,2.141581000000315,-6.9026629925,11.075359344999999,-114.94916914999999,-1.840019286,-1.4897510410000003,20.440171239999998,-0.377028689,4.804589987,1.093836665
258,2.1499140000000807,-6.8934957985,11.110191825000001,-114.95629505,-2.7873268125,-1.741948679,16.647358895,1.188852787,3.692676425,-0.8010404409999999
259,2.1582470000003013,-6.879026413,11.202203274999999,-114.95654300000001,-2.8218086660000004,0.719545454,14.16982889,1.636396885,10.391734601500001,0.9570631085000001
260,2.1665800000000672,-6.932990551,11.292096614999998,-114.97229765,-4.163179636000001,-3.2840504645,12.031741144,-6.188650309,10.3749775885,-1.0045584440000002
261,2.174913000000288,-6.908253431,11.40275383,-114.98093030000001,-2.2485584615,-0.690496832,21.115232470000002,3.071665764,12.7289123555,0.2548232375
262,2.1832460000000538,-6.922041416,11.48927879,-115.00509645,-2.0342289805,-2.341721207,11.809529781,-1.1604209989999998,10.093213079,-2.0362679365
263,2.1915790000002744,-6.9266791345000005,11.66669178,-115.02003859999999,-2.616882086,0.09093892550000005,12.937329290000001,-0.2978744955,20.771780970000002,0.4777249395
264,2.1999120000000403,-6.990245581,11.770170215,-115.045578,-2.6250692605,-1.452164024,13.3928113,-7.091122627500001,12.1355013865,-1.930929288
265,2.208245000000261,-7.0071709155,11.947805405,-115.06906509999999,-3.069724321,-3.0213873385000003,16.716596125000002,-1.526058227,20.931384084999998,-0.6049507855
266,2.216578000000027,-7.069668054499999,12.04247427,-115.0918388,-2.011758834,-1.658635706,15.332425115,-7.016444444999999,11.0502257355,-1.729569361
267,2.2249110000002474,-7.118694544,12.240728855,-115.10646055000001,-1.908635795,-2.947407007,14.358978749999999,-5.6045964955,23.241503719999997,0.8711786865
268,2.2332440000000133,-7.199742079,12.30343151,-115.1143608,-2.2100264725,0.5214358345,16.311003685,-9.607362271500001,7.027086496500001,-0.44993311150000004
269,2.241577000000234,-7.31397748,12.51427841,-115.13545605,-3.568905711,-2.7602899670000003,13.2683424925,-13.262650015,24.83441353,0.392416835
270,2.24991,-7.4214468,12.561477185000001,-115.13762285,-1.7361631985,-1.5183821320000002,16.41294718,-12.92497206,5.0970805885,0.007011651499999827
271,2.2582430000002205,-7.575534105499999,12.71433258,-115.16715239999999,-3.254047513,-3.2062392235,10.732735632499999,-17.808498385,18.05948019,-1.4069841805
272,2.266576000000441,-7.7133369445,12.856226445,-115.1730194,-1.9171193835000002,-0.2307052020000001,16.680799485,-16.466210365,16.41560793,1.128890231
273,2.274909000000207,-7.8782935145,12.91928244,-115.20571515,-1.3947786095,0.17641127099999998,13.4573135395,-19.023736954999997,7.442768812,-3.1239385605
274,2.283242000000428,-8.056547403,13.124887470000001,-115.22819135,-4.918604374,-3.001609087,9.863533499,-20.859296800000003,24.236421585000002,0.36549007850000004
275,2.291575000000193,-8.208848715,13.164459225,-115.25608825,-1.0276091025,-0.8284703720000001,20.364269255,-17.62476349,4.596296549,-2.9159121515
276,2.299908000000414,-8.3493518825,13.315299034999999,-115.28511044999999,-3.4796241524999996,-1.8220432404999998,13.94051266,-16.13769436,17.83863449,-1.216017529
277,2.30824100000018,-8.5140414235,13.440390585,-115.3185158,-1.655736685,0.247260213,9.5096783635,-18.94628334,14.848309995000001,-2.001868367
278,2.3165740000004007,-8.6848053935,13.52705765,-115.33463285,-3.6916644575,-1.7751083970000001,18.94814205,-20.116739275,10.002439975,-0.762196958
279,2.3249070000001666,-8.8112096785,13.64962864,-115.36408614999999,-3.0581009985,-1.7950345875,18.620373725,-14.44660711,14.489076135,-1.52581485
280,2.3332400000003872,-8.948864937,13.79664755,-115.3744278,-0.992827833,-0.529036105,9.278652666500001,-16.29230738,17.049913404999998,1.0709321495
281,2.341573000000153,-9.109838486000001,13.88965559,-115.39424514999999,-3.086198628,-1.080747694,12.55943775,-18.86313152,10.817695618999998,-0.8849720354999999
282,2.3499060000003738,-9.262365340999999,13.99733019,-115.40016175,-3.1598237605,-1.001748383,19.22687149,-18.201406,12.298065184999999,0.9171499015000001
283,2.35823900000014,-9.421444893,14.091710565,-115.43175885,-2.0623145995,-2.353629321,8.56013608,-18.29071045,11.2080245,-2.1466590165
284,2.3665720000003603,-9.565766334500001,14.193320275000001,-115.44880295,-1.602563724,-0.6578108665,11.079515455,-16.88862324,11.785651205,-0.4015607834999999
285,2.374905000000126,-9.7073469165,14.24425316,-115.48539735,-2.645750612,0.4333058745,16.464019775,-16.0357213,6.1757099625,-3.5353987215
286,2.383238000000347,-9.8190636635,14.354659080000001,-115.52064515000001,-1.73638583,-1.820851147,12.52008581,-12.423940183000001,13.183568475,-2.253849387
287,2.3915710000001127,-9.9170207985,14.38486719,-115.54954910000001,-2.8241557775,-0.909066975,9.002467631,-10.987253903,3.5952787395000003,-3.1577935220000004
288,2.3999040000003333,-10.017588136,14.41643906,-115.57227325,-1.912571698,-1.3055361935,14.782172205,-11.452817915499999,3.6231084765,-2.4081040025
289,2.408237000000099,-10.097099781,14.4252696,-115.59327315,-1.9985589980000003,-0.8361339790000001,13.310081960000002,-9.008642673499999,0.9187892675,-2.6927288175
290,2.41657000000032,-10.152485375000001,14.45069599,-115.61298755,-1.121156573,-0.36055001650000007,11.117584705,-6.131869077999999,2.8229448794999996,-2.1023843285
291,2.4249030000000857,-10.209381585,14.42784214,-115.6221199,-2.641705066,-0.7713547645000001,11.600471500000001,-6.6554112435,-3.0590443615,-2.000478268
292,2.4332360000003064,-10.26631832,14.443368435,-115.63730240000001,-2.9908885955,-0.28975343750000004,9.5008430485,-6.43548131,1.5790472325,-1.8596706389999997
293,2.4415690000000723,-10.27080822,14.37042093,-115.63021470000001,-1.8161647024999998,-0.918862343,13.14786148,-0.8491634130000001,-9.3124847415,-1.2202109095
294,2.449902000000293,-10.280221465,14.31028843,-115.6344719,-1.8927893635,-0.7115832120000001,10.53777361,-1.0774946215,-7.5985404265,-2.1365789174999996
295,2.458235000000059,-10.284763815,14.288020135,-115.6259384,-2.7013006209999997,-0.5949119705,6.5917921065,-0.9040671585,-3.3584685025,0.02709960950000001
296,2.4665680000002794,-10.283037185000001,14.2045145,-115.6355896,-1.1865249869999999,-1.2839479745,13.82138443,0.40141993750000005,-10.251713750499999,-3.2017095084999996
297,2.4749010000000453,-10.25042725,14.13497925,-115.60665510000001,-2.9304498134999997,-1.348878622,11.471681595,2.956824303,-9.36294508,1.3510229589999998
298,2.483234000000266,-10.223330494999999,14.084961415,-115.6390381,-2.5766576679999997,-0.017784536000000017,9.602100851500001,4.1043742895,-5.8207969665,-5.098488867
299,2.491567000000032,-10.202397345000001,14.024690629999998,-115.6220932,-2.866491556,-2.4570375679999996,6.4835135935,1.916412413,-8.026233673,0.19300985299999995
300,2.4999000000002525,-10.19216633,13.941274165,-115.65837479999999,-1.4419968125,-0.20585590599999998,11.89949608,2.1797845364999997,-9.693618536999999,-6.2405378815
301,2.5082330000000184,-10.17289114,13.944697380000001,-115.67163085,-3.9048530160000006,-1.681920677,8.388056755000001,2.5891640185,0.12501692750000004,-1.9139279125000002
302,2.516566000000239,-10.144235135,13.869890215,-115.7275391,-0.9291779994999998,-0.18296301399999992,6.072261095,4.943867922,-8.2826840875,-8.27825284
303,2.524899000000005,-10.147643565,13.914844035,-115.74131395,-4.2373067735,-2.5650522705,5.656730175,-0.10952010750000002,5.0377059730000004,-1.0921205875000002
304,2.533232000000225,-10.156321049999999,13.877970220000002,-115.82439045000001,-1.200937986,-0.026841581000000003,6.4010447275,1.2267680914999999,-3.24186641,-10.575171472000001
305,2.541565000000446,-10.158844949999999,13.94226599,-115.83125684999999,-3.4468221665,-1.628151454,6.0100550644999995,-0.17693673099999999,7.171589136,0.10904622050000001
306,2.549898000000212,-10.179125785,14.061027525,-115.9168205,-3.3674428465,-0.45580720900000005,5.9448950289999996,-0.0736665575,15.19684696,-7.578428507
307,2.5582310000004327,-10.214595315,14.132400035,-115.92125705000001,-3.0591609474999997,-2.174928427,5.572203397999999,-4.1965025664999995,7.952753784,0.5550222395000002
308,2.5665640000001986,-10.231944559999999,14.386376855,-115.9833908,-2.901976109,-0.645186007,6.351213455,-0.38482874599999994,30.68932724,-1.9675077500000002
309,2.574897000000419,-10.310674665,14.498500825,-115.97611615,-2.6060903075,-1.3445671055,1.004883349,-9.734115839,12.518332959999999,2.7748486994999997
310,2.583230000000185,-10.37806082,14.87365723,-116.02649305,-2.5540469884999997,-1.1854561195,6.261929274,-6.6874406335,44.761711125000005,2.026275456
311,2.5915630000004057,-10.483294964999999,15.058090685,-116.0373039,-2.911428988,-1.3245297595,5.1709692480000005,-12.36556005,21.42031622,2.335169435
312,2.599896000000172,-10.563135625000001,15.39519215,-116.0763626,-0.11991262449999995,-1.0760286765,-1.5420053005,-8.4725677965,40.025177005,2.598154604
313,2.6082290000003923,-10.719633105,15.689233305,-116.13576889999999,-2.8585342765,-0.5188172010000001,3.7918498515000003,-16.944068905,35.377829555000005,-0.6861993074999999
314,2.616562000000158,-10.85359192,16.01430607,-116.1599426,-1.5901727680000002,-2.338201523,7.3998396395,-15.399954795,38.268466950000004,4.217466831
315,2.624895000000379,-10.980356220000001,16.333313945,-116.2278671,-1.989179224,-0.10229152450000001,3.215747222,-13.015426636499999,38.503536225000005,-0.9006493094999999
316,2.6332280000001447,-11.111890315,16.64722729,-116.23686219999999,0.04216420649999997,-1.282865133,-0.9144960344999999,-15.583869455499999,36.59798336,5.8098032475
317,2.6415610000003653,-11.2975235,16.925800324999997,-116.30965805,-1.6543420254999999,0.21481186149999998,2.9949430230000003,-19.83047104,33.85728073,-2.172045052
318,2.649894000000131,-11.43375969,17.18024826,-116.32217785,1.200187981,-1.926467061,5.242241621,-16.0100345625,29.638949395,4.218291520999999
319,2.658227000000352,-11.551833155,17.354239465,-116.3817177,-1.591813743,0.3645158410000001,3.4203165174999994,-12.13319397,21.27004051,-2.9954327044999998
320,2.6665600000001177,-11.642733575000001,17.496492385,-116.38260650000001,1.4971250294999998,0.08358225250000001,2.8330913779999998,-10.9569480725,16.160851477999998,2.9035082455000003
321,2.6748930000003384,-11.744033815,17.53962612,-116.42082214999999,-0.5878593919999999,0.532085918,6.442996738,-10.8626300075,5.4010520285,-3.7109842445
322,2.683226000000104,-11.792774675,17.5692482,-116.41874695,0.540688179,-1.240557164,8.012100222,-6.0061159135,2.8490391970000006,0.5679895880000001
323,2.691559000000325,-11.792797565,17.490643499999997,-116.41557695,-0.7635086400000001,0.5668651465,1.9567107785,-0.21455734950000005,-9.8604397785,-2.051278591
324,2.6998920000000908,-11.80883026,17.35724926,-116.3983345,1.2991193085,-0.36468184,5.7514581685,-2.5981348755000004,-16.6525502205,-1.7613298895000002
325,2.7082250000003114,-11.768980025000001,17.181570055,-116.36872865000001,-1.6356983185,-0.7167851030000001,7.718976736,3.622341454,-21.886271475,-1.4598783255
326,2.7165580000000773,-11.699463365,16.885471345,-116.3171387,1.248878032,0.4724870025,2.5910188554999998,6.4688734435,-36.57596302,-1.8142111300000001
327,2.724891000000298,-11.6178174,16.627757074999998,-116.27007295,-2.447456956,-0.6492599845,8.6121647355,8.0627486725,-31.942053795,-1.4263186454999999
328,2.733224000000064,-11.49243021,16.24931908,-116.21534729999999,0.3760418895,-0.35022904,6.6067969799999995,13.120990755,-46.33060837,-3.303447664
329,2.7415570000002845,-11.334019184999999,15.904353140000001,-116.14188385,-2.5602995749999997,-0.6254471985,7.5442399975,16.46654081,-42.81937218,-0.36027252649999997
330,2.7498900000000503,-11.191342355,15.47240734,-116.07507325,0.11667770150000001,-0.8116515875,4.8290885685,14.889339925,-52.921966555,-2.9245054425
331,2.758223000000271,-11.013538359999998,15.107555864999998,-115.98945235,-4.3396781685,-0.31543146050000004,5.1641145785,18.525035855,-45.43597031,0.8218408825000001
332,2.766556000000037,-10.822914125,14.671079635,-115.93442915,-0.08401717249999999,-0.301069986,9.9416189185,21.07948303,-53.21648407,-4.028381467
333,2.774889000000257,-10.605549335,14.283210754999999,-115.8635788,-3.70745945,-1.2309426665,7.4294719695,23.869343755,-47.828804015,-1.0326659755
334,2.7832220000000234,-10.41615963,13.93195772,-115.85367585,-0.793359041,-1.4230302575,3.7847670095000003,22.31059456,-42.234449385000005,-6.918072939
335,2.791555000000244,-10.237457275,13.51136303,-115.8004303,-3.7665292025,-1.186078906,1.5687834995,19.85729599,-51.33266449,-3.407534838
336,2.79988800000001,-10.069507125,13.243095875,-115.8214722,-1.463014729,-0.8121661845,9.245868206,20.611005785,-31.836025239999998,-8.4602639695
337,2.8082210000002306,-9.890067100500001,12.87114239,-115.79568865,-3.2289850710000003,-0.7037778985,7.513650658,20.783576965,-45.044641495,-5.2270707485
338,2.8165539999999964,-9.713045597,12.654722695,-115.81098940000001,-1.3549948185,-1.5588275194999999,4.6452533005,21.514658925,-25.867815020000002,-6.542612075499999
339,2.824887000000217,-9.571196079,12.373942374999999,-115.79928205,-4.7769725325,-1.0025971235,0.8796512485000001,16.673493385,-34.013243675,-4.749394596
340,2.8332200000004377,-9.447206974,12.18305302,-115.7877617,-0.824527793,-1.753694624,4.8557803779999995,14.453257085,-23.392683984999998,-2.8154808879999997
341,2.841553000000204,-9.313332558,12.05286026,-115.7911682,-3.8738280530000004,0.009880035999999981,8.464534997,16.11058807,-15.915960311500001,-3.3962585929999998
342,2.849886000000424,-9.180720329500001,11.85204744,-115.75392915,-1.901352167,-1.6484469769999999,-1.565368652,14.855306145,-25.065393444999998,0.07729721100000031
343,2.85821900000019,-9.072201252,11.7748847,-115.76138305,-1.7366373540000002,-0.7518777249999999,5.519567847,13.165310385,-9.5692119595,-2.7895257475
344,2.8665520000004108,-9.013078213,11.712641715,-115.71124265,-3.6764832735,-2.0833652315,7.4209362255,5.7486422059999995,-8.872989895,4.23934257
345,2.8748850000001767,-8.926837444,11.676373004999999,-115.71592709999999,-1.7542401555000002,-0.5189439054999999,3.929835737,10.408684252499999,-4.781621218,-1.677195191
346,2.8832180000003973,-8.850758076,11.666424275,-115.67340085000001,-2.7329230365,-1.548097968,2.895907486,7.9861149785,-2.5189552155,4.351647541
347,2.891551000000163,-8.8207507135,11.707346914999999,-115.6737709,-2.621236563,-0.1514093875000001,2.4676528125,3.5518173575,4.291089058,0.2532801625000003
348,2.899884000000384,-8.793720245500001,11.76805735,-115.64159394999999,-2.3289711475,-1.585222423,1.0546669359999998,2.3534361125,6.050543785,4.447938025
349,2.9082170000001497,-8.7868800165,11.871626379999999,-115.65260315,-2.5438070295,-1.1652411520000001,3.8532321455,1.0257601735000001,11.91340685,0.1609858275
350,2.9165500000003703,-8.789414405999999,11.999991415,-115.614666,-1.747336298,-1.7431964875,2.2586874365,-1.345464684,13.9747839,6.355123281500001
351,2.924883000000136,-8.840085029499999,12.09567976,-115.62296675,-0.6208196875,-0.42564421900000005,2.101659715,-5.944462538,10.928916933499998,0.3391261099999999
352,2.933216000000357,-8.898169994,12.232266899999999,-115.57995985,-2.6369206905,-1.87939024,5.450466871,-8.154294014,14.842467785,7.130198002
353,2.9415490000001228,-8.961987972500001,12.392612934999999,-115.60009385000001,-1.7369321885,0.8064461350000001,3.529911518,-7.219970464999999,18.814964295000003,0.18826484699999996
354,2.9498820000003434,-9.0021438595,12.564214230000001,-115.57108305,-1.9070042985,-1.6172375155,1.577813029,-5.6620473865,19.231165885,6.1835405825
355,2.9582150000001093,-9.078476429,12.75620031,-115.57297515,-1.070834935,-0.9919671115,1.1296504735,-9.1888174985,22.227645875,2.935213685
356,2.96654800000033,-9.161516666499999,12.89747429,-115.54377364999999,-0.336295977,-0.7710798979999999,2.0749006865,-10.8336596495,15.6187973,5.6701738835
357,2.974881000000096,-9.264288425,13.075276855,-115.5407753,-3.0776901245,-0.5283533635,4.3490348160000005,-12.492741585000001,20.444569585,3.298481226
358,2.9832140000003164,-9.3500247005,13.285100934999999,-115.53795245,-0.565315127,-0.708694965,2.3873483535,-10.4639854415,24.213395114999997,4.0296213625
359,2.9915470000000823,-9.4592814445,13.45241785,-115.5283699,-1.202505976,-1.377174489,3.354223609,-13.45666361,19.065402985,3.9307496544999996
360,2.999880000000303,-9.582769871,13.641845700000001,-115.51337434999999,-0.203321576,-0.6347002389999999,3.3384281395000004,-15.34250021,21.543032645,5.1359262465
361,3.008213000000069,-9.7013111115,13.80080414,-115.512146,-2.6862946155,-0.381777033,0.9372756409999999,-14.338739874999998,18.22041321,2.880924106
362,3.016546000000289,-9.837504386500001,14.013773440000001,-115.50297545000001,0.8764612675000001,-1.1837020219999999,-0.084045857,-16.712647435,24.41976166,5.036659002
363,3.0248790000000554,-9.993369104,14.136475565,-115.49296185,-1.346020579,-1.1032076474999999,1.6465226485,-19.076958655,13.744879725,3.2284388545000002
364,3.033212000000276,-10.14654112,14.32311535,-115.48033145,-1.5634300709999998,-0.22647607349999999,2.101814866,-18.860318184999997,21.19902897,5.034103393500001
365,3.041545000000042,-10.285885335,14.483187675,-115.4986725,-1.7985182999999998,-0.15866196200000005,-1.3160615265,-16.26222563,18.736432075,0.8422091005000003
366,3.0498780000002625,-10.45880032,14.66992569,-115.49805835000001,-0.15036904799999995,-1.5677822825,3.3061369660000004,-20.864515304999998,21.426172255,3.7640331384999994
367,3.0582110000000284,-10.607620715,14.820690155000001,-115.54590225,-2.7307275495,0.649759293,4.76816082,-16.498163225,18.26959419,-2.613607644
368,3.066544000000249,-10.752034665,15.021731375,-115.5921974,0.496793032,-0.534659639,2.649492562,-15.996762754999999,24.08630848,-1.1176531315000005
369,3.074877000000015,-10.899466035,15.133299350000001,-115.63513945,-0.1185770035,-0.931892991,0.46608579150000007,-16.448040965,13.546496865000002,-2.8434114459999997
370,3.083210000000236,-11.04529762,15.28024864,-115.67313005,-1.9041000005000002,-0.426677942,3.8078362945,-16.395393845,17.534918310000002,-1.2875137329999995
371,3.091543000000001,-11.170236585,15.42428684,-115.700943,-1.0657019915000001,0.40134620649999997,0.482146382,-14.201025965,17.03893137,-0.309193611
372,3.099876000000222,-11.2820549,15.554216865,-115.72640229999999,0.03556203849999995,-0.263162007,4.5876533985000005,-12.6856472515,15.25704765,-0.19012927999999985
373,3.1082090000004428,-11.370882985,15.659997465,-115.71178055,-1.3641076085000001,-0.6835022565,5.158546925,-11.2332544325,11.570466517,3.678725004
374,3.1165420000002086,-11.437637805,15.755226615,-115.7391205,-0.2700988055,1.5980385185000001,1.7438009385000002,-7.2019691465,11.219677926500001,-1.1789529325
375,3.1248750000004293,-11.458006860000001,15.80620527,-115.71593855,-1.0131001469999998,-0.0830813425,2.794396639,-3.2999972105,4.9143984915,3.3640275004999998
376,3.133208000000195,-11.450344565,15.831344125,-115.7240524,0.2180383800000001,1.122289054,5.458443880500001,1.100201845,2.538339138,-0.650083065
377,3.141541000000416,-11.408454895,15.831479545,-115.6851883,-1.238445818,-0.6747441885,4.871074200000001,3.655074537,-1.4278331994999998,3.924838066
378,3.1498740000001817,-11.37018156,15.788742065000001,-115.68181609999999,0.4919868145,-0.2049307075,5.4143745899999995,4.401486337,-5.698565813,-0.9768947365
379,3.1582070000004023,-11.26441002,15.711455345,-115.62472915000001,-1.7270505430000003,-0.049620405000000006,4.9665149455,10.737530469000001,-10.948539735,4.1757742165
380,3.166540000000168,-11.16997099,15.58531189,-115.61800769999999,0.31168276100000003,0.527055498,4.5610193015,11.0216698665,-15.592711444999999,-2.501800254
381,3.174873000000389,-11.051522255,15.451840879999999,-115.55321119999999,0.104761243,-0.4526649119999999,8.442789076,12.048479082,-17.725619795,3.799412251
382,3.1832060000001547,-10.90220404,15.25877428,-115.54170225,-2.30255115,-0.23056489199999997,6.0064437385,17.431616310000003,-23.588373185,-3.4338467120000002
383,3.1915390000003754,-10.735812185,15.06250286,-115.48049545,0.38878381250000005,-0.9675609765000002,5.9084274,17.98579216,-25.031124114999997,2.081030697
384,3.1998720000001413,-10.576563360000002,14.875124455,-115.4596748,-3.375079114,-0.0803593695,10.850124838500001,18.33889675,-23.135319709999997,-2.1110372545
385,3.208205000000362,-10.3848691,14.622899055000001,-115.37377545,-0.3277827499999999,-0.7177757845,3.1824576855,20.324449065,-32.14069557,3.8397846815
386,3.216538000000128,-10.21511984,14.468409059999999,-115.3637619,-3.1788272859999998,0.002702329500000003,9.244387626,19.933239935000003,-19.042647365,-2.4828149679999996
387,3.2248710000003484,-10.0102057465,14.20625591,-115.26764295000001,-0.2411714195000001,-1.148115927,8.018047333,21.668995860000003,-33.495799065,5.0198855405
388,3.2332040000001143,-9.834630966,14.086765285,-115.27577205,-4.259854555,-0.7571340504999999,9.579513550000001,21.16848564,-14.554796695,-3.707649112
389,3.241537000000335,-9.649861336,13.878375055,-115.19163515,-1.3501975535000001,-2.2428328989999997,3.6905342340000002,19.66967678,-26.8698349,4.9659005405
390,3.249870000000101,-9.538828373000001,13.842529295,-115.22803875,-4.861602783,-0.743234694,7.6424388885,14.23211813,-4.1246999505,-5.202944039999999
391,3.258203000000321,-9.406821728,13.70709467,-115.1643257,0.8495786935,-1.6196055409999999,5.3846707345,13.96408081,-17.818987845,4.192220173999999
392,3.266536000000088,-9.327715397,13.63376045,-115.19356535,-3.5790400505,-1.0298029185000002,8.493560791,10.176229953,-8.7157568945,-5.106205711
393,3.274869000000308,-9.2461047175,13.60621071,-115.15047455,-2.8981200455000002,-2.080730796,5.4972052575,8.5322449185,-4.644387484,3.9713146669999997
394,3.283202000000074,-9.2121419905,13.63435793,-115.17170335,-3.544238448,-1.180408627,12.583405496500001,4.520989656499999,3.1508136395,-2.2114627380000003
395,3.2915350000002945,-9.191239357,13.666538715,-115.1394081,-2.1763453485,-1.9548559184999998,7.5487735885000005,1.5645302535,2.6308444735,3.879488232
396,3.2998680000000604,-9.184717655,13.838904855,-115.1562576,-2.2477208975,-0.7515854255,3.6400984524999997,1.118055105,20.163977623,1.0387761595000002
397,3.308201000000281,-9.2290978435,13.74818802,-115.1037483,0.6534358265,-1.771549642,8.4615416525,-6.8763349055,-12.3068876245,3.8373923304999997
398,3.316534000000047,-9.248308181999999,13.975005150000001,-115.09516905000001,-6.5837705135,0.10856339300000001,11.97045243,-2.6777261795,26.139717105000003,4.9843230255
399,3.324867000000268,-9.269439219999999,13.97916222,-115.05955885,3.3106989265,-1.1166519225,14.5898880965,-3.6163651945,-0.7543138565,3.71316862
400,3.333200000000033,-9.250726700000001,14.066226955000001,-115.03183365,-6.0902912615,-0.31038159099999996,11.553866383999999,1.342500329,9.2402470115,4.397241652
401,3.341533000000254,-9.2619776725,14.114620689999999,-114.99274065,3.655519485,-0.7176752385,10.360473154000001,-2.5892731545000003,4.394795062,5.1576499935
402,3.34986600000002,-9.234154701,14.069196225,-114.9302826,-5.798698186999999,-0.885786146,13.782175539,1.413304001,-7.1007285115,5.813824507
403,3.3581990000002406,-9.18529892,14.100833415,-114.89186475,1.5058113335,-0.5946210325,14.082875725,4.6459872725,2.4283385280000003,4.7539190635
404,3.3665320000000065,-9.1160058975,13.955434799999999,-114.81777575000001,-2.511102557,0.8508023020000001,12.616272930000001,6.0504883545000006,-19.15392971,5.2683116805
405,3.374865000000227,-9.0227484705,13.957477095000002,-114.79782485,-2.708044529,-0.694564238,17.75117731,10.528163911,-0.7209768295000001,2.054518342
406,3.383197999999993,-8.852750301499999,13.82333517,-114.74677275,-2.684418887,-1.108647883,15.90809345,18.80789232,-17.388607975,2.9003601075
407,3.3915310000002137,-8.6664862635,13.73001242,-114.72297284999999,-2.0799209700000003,-1.0453510285,17.599923134999997,21.61855316,-12.0543990125,0.5807464124999999
408,3.3998640000004343,-8.424747467,13.64242792,-114.6968384,-3.3953908084999997,1.688212037,13.24107504,28.155165670000002,-11.418937685,1.0316575765
409,3.4081970000002,-8.170585632,13.511482234999999,-114.6896324,-0.9270622285000001,-0.06732302900000009,16.23108578,30.243170739999996,-16.230567455,-1.893385768
410,3.416530000000421,-7.8712966445,13.424391270000001,-114.66722105,-3.3289185165,-2.589319348,14.22796345,35.193490985,-11.282097338,0.6685765385
411,3.4248630000001867,-7.5874562260000005,13.250359055,-114.64905544999999,-1.926091671,-0.8795311450000001,14.738986015,33.492761615,-21.53945446,-1.1657180784999999
412,3.433196000000408,-7.255817175000001,13.131165979999999,-114.62643815,-2.0701871515,-0.5220586585,18.608108525,39.075990680000004,-15.098225594999999,0.381140351
413,3.4415290000001733,-6.9460856915,12.959534165,-114.61954879999999,-1.2510571185,-1.221021816,16.19026327,36.916929245,-21.100746155,-2.202571154
414,3.449862000000394,-6.624572277,12.798911095000001,-114.600132,-4.2048783305,-2.6518528459999997,17.091416835,37.960750579999996,-19.982604025,-0.404852942
415,3.45819500000016,-6.374536275500001,12.624389650000001,-114.59955980000001,-2.5042306185,-1.998208344,9.428755521500001,29.91478729,-21.378933905,-2.7713612320000003
416,3.4665280000003804,-6.1449825765,12.47082758,-114.5891266,-3.0347928405,-4.3326966765,18.890047075,27.166610714999997,-19.028499605,-1.1311257185
417,3.4748610000001463,-5.875524282500001,12.32695341,-114.5878258,-3.438539624,-0.12964326099999998,18.69061422,32.228302955,-17.749712465,-2.1197215315
418,3.483194000000367,-5.6728549,12.224516865,-114.53820035,-1.795234034,-2.9164662365000003,10.7290110605,22.96251011,-13.38775015,4.2029531
419,3.491527000000133,-5.5236940385,12.12902975,-114.52201840000001,-4.742839813,-1.263009548,13.908135415,17.4145875,-12.153562545,0.309292011
420,3.499860000000353,-5.4022231105,12.08804941,-114.46683885,-3.7584474085,-2.978099197,15.093539235,13.09613323,-6.0825688840000005,5.598203659499999
421,3.50819300000012,-5.3441786765,12.100006105,-114.4606781,-3.7911685109999995,-3.5878264905,13.744799615,6.719882488,0.7973523139999998,0.387767434
422,3.51652600000034,-5.3293113705,12.085998535,-114.43872075,-2.3992493154999996,-2.353556663,14.570224285,1.1630780694999996,-2.4731824845,1.916181803
423,3.524859000000106,-5.3668978215,12.156203269999999,-114.44436265,-3.8569885490000004,-3.4639221429999996,14.30647421,-4.452370197,7.8908696175,-0.3390174505
424,3.5331920000003265,-5.4164228439999995,12.263053415,-114.45953365,-3.9228174685,-1.6268030105000002,17.58526659,-5.6289150715,12.368124009999999,-1.0309350190000002
425,3.5415250000000924,-5.5152590275,12.38965416,-114.4894447,-2.6471891999999997,-1.7485737205,11.663145065,-11.17917013,14.899947642,-2.4950325859999998
426,3.549858000000313,-5.662720202999999,12.55175066,-114.50640105,-2.4916026589999998,-3.859140515,11.2095804235,-17.325609685,18.988473415,-0.5525693890000001
427,3.558191000000079,-5.811321974,12.674789905,-114.55616760000001,-3.091444731,1.000263268,18.289876465,-16.6095376,14.720705509999998,-4.7912405725
428,3.5665240000003,-5.973021269,12.881762505000001,-114.59093475,-2.264205694,-2.080317117,16.37371111,-18.55582428,24.55747509,-1.9644085465
429,3.574857000000065,-6.123706341,13.047976975000001,-114.65150835,-4.7178337575,-2.076641671,13.39747286,-16.53410053,20.030215265000002,-5.405733704499999
430,3.583190000000286,-6.3066921235,13.240156175,-114.7039566,-1.3217373195,-1.387042046,11.58074665,-20.596488,23.017368315,-4.052547276
431,3.591523000000052,-6.480208397,13.41639614,-114.78833005,-2.5000569820000003,-2.288165629,20.8173399,-18.614180564999998,21.552162170000003,-7.733360766
432,3.5998560000002726,-6.582119703,13.61265993,-114.86392975,-2.6311506035,0.8236462845,16.41779423,-10.177285195,23.829618455,-6.5501413335
433,3.6081890000000394,-6.7181749345,13.758172510000001,-114.9432602,-2.3716314435,-2.2635766265,11.75068617,-14.1595332635,17.867232325,-7.6365420815
434,3.616522000000259,-6.827151775,13.94759321,-115.04643245,-3.0333859920000004,-1.59009099,14.600798130000001,-10.179055212999998,23.42009735,-9.722940682499999
435,3.624855000000025,-6.8841559885,14.035254479999999,-115.1203613,-1.2278740105,1.6771066190000001,23.05913639,-4.7821143865,10.915161608,-7.759565115499999
436,3.6331880000002457,-6.942884921999999,14.2212677,-115.2356949,-2.1926867960000003,-2.44064033,11.722144364,-3.7374264005,23.210391995000002,-11.1018319125
437,3.641521000000012,-6.985048294,14.291636465,-115.31402969999999,-2.8283412455000003,-1.4580813645000001,15.478838445,-2.8629546909999997,8.914381981,-8.353699444
438,3.649854000000232,-7.046993017,14.36937666,-115.42193219999999,-2.210793316,-1.403299272,14.762325285,-4.295764208,10.223758218,-11.7816548355
439,3.658186999999998,-7.0328316685,14.470149995,-115.500309,-1.750085056,-1.463260293,18.31084585,3.929135801,12.545797345,-7.9070589545
440,3.6665200000002183,-7.0274832245,14.436867710000001,-115.61301040000001,-1.2711595295,1.478161257,14.800545695,3.9473285674999996,-2.924294949,-13.952167034999999
441,3.67485300000044,-7.0480303765,14.514694689999999,-115.69079205,-4.4562517405,-4.772718429499999,9.380807639,-0.23892307300000004,9.801967142999999,-8.179535627
442,3.683186000000205,-7.0100841525,14.447732925,-115.7876892,-0.429059066,-0.2256810365,20.834233285,7.3900928495,-7.15764308,-12.632469655000001
443,3.691519000000426,-6.9648928644999994,14.413029675,-115.8538399,-1.7947021725,-2.59054482,14.96140003,7.300531865,-3.7723300455000004,-8.501109122999999
444,3.699852000000192,-6.944094658,14.41830444,-115.9569893,-3.6771116255000003,0.30281776200000005,9.5143227595,5.505421877,1.5177718180000002,-12.289825915000002
445,3.708185000000413,-6.9136588575,14.286885264999999,-116.0079918,-2.206197977,-2.3161244395000002,18.64376831,5.0678545235,-15.514032839999999,-8.1536915305
446,3.7165180000001774,-6.885963439999999,14.24868107,-116.11249925,-4.5068836215,-2.8518404365,13.895030025,6.336553096499999,-3.6531540154999997,-13.081461905000001
447,3.724851000000399,-6.837251663,14.174688815,-116.1629982,-0.537904471,-0.6597327885,12.228493213,7.2560014725,-8.675734519999999,-7.353821993
448,3.733184000000165,-6.8124434945,14.049079895,-116.26565930000001,-2.194041818,-2.031704806,17.964762685,5.909353316,-14.104706765,-14.14484453
449,3.7415170000003855,-6.770902157,13.989609245,-116.3174095,-3.9154130225,-1.6074247955,14.938073155,6.398546575,-6.946511507,-7.203870058
450,3.7498500000001513,-6.755236149,13.856871605,-116.41727449999999,-2.2263610959999998,-1.9543852805,12.274665355,4.684448242,-15.007987499999999,-13.912825105
451,3.758183000000372,-6.719598293,13.732427600000001,-116.4674492,-2.9588577750000002,-2.1110607985,16.465820315000002,5.623152971,-14.718080045,-7.9312651155000005
452,3.766516000000138,-6.685229778,13.64273071,-116.5563049,-2.75304985,-1.6805214285,13.978171345,6.570615649,-10.038476467999999,-12.03542614
453,3.7748490000003594,-6.6310884955,13.50693798,-116.5957413,-1.8291596169999997,-2.2168224530000002,13.09741974,7.5298185345,-16.22924757,-6.82651615
454,3.783182000000125,-6.6279513835,13.41610861,-116.6655045,-4.701083064,0.4337881225,15.240675444999999,2.239978284,-10.440684317,-9.8403632655
455,3.791515000000345,-6.6318044665,13.322022915000002,-116.71483230000001,-2.0019221605,-3.9392502305,11.36572361,0.8245991465,-11.126030445,-7.3928835374999995
456,3.799848000000111,-6.636792421,13.20467281,-116.7677612,-3.8113561275,-1.3249442985,15.347198485,0.7807794215000001,-13.83070326,-8.2583379745
457,3.808181000000332,-6.6795742515,13.11492157,-116.81784055,-1.631647289,-3.6870537995,12.1144948,-3.8454788925,-10.5962018975,-7.4400155545
458,3.8165140000000974,-6.718109846,13.02002811,-116.85367205,-2.432211429,0.043737426499999996,13.513895510000001,-3.7368677855,-11.37390661,-5.9823397400000005
459,3.824847000000318,-6.778893471,12.904245855,-116.90750505,-2.0175578595,-1.4859283865000001,15.406648155,-5.9351658225,-13.63253975,-8.2586975095
460,3.833180000000084,-6.8370170595,12.81226635,-116.94534684999999,-4.316612124500001,-2.760894358,14.312136175,-6.028824329,-10.988189694999999,-6.2281799315
461,3.8415130000003046,-6.893682480000001,12.72375965,-116.99535370000001,-1.9565484825,-0.734995946,10.0133051865,-5.566563368,-10.419117925,-7.4522588255
462,3.8498460000000714,-6.9334204195,12.641601564999998,-117.019783,-3.743988991,-1.790744841,16.820139405,-4.1859170195,-9.9978384995,-4.54561758
463,3.858179000000291,-6.95257926,12.557654855,-117.05251315000001,-3.4502060415000004,-0.13645204900000002,17.480122565000002,-1.5321283934999999,-10.111508371500001,-5.395350933
464,3.866512000000057,-6.9652535915,12.548540595,-117.0599022,-2.7841973305,-1.7885572315,12.240091325,-1.3965458275,-1.5444295405,-1.452826709
465,3.8748450000002777,-6.974979162,12.49619818,-117.06462859999999,-3.1774036885,0.4264261275,12.692464829999999,-1.1420300015,-6.7403862475,-1.6833548545
466,3.883178000000044,-6.985980034000001,12.46843195,-117.04392625,-2.8058418035,-2.510461092,14.791203974999998,-1.90531468,-4.1558200715,1.4553945810000002
467,3.891511000000264,-6.97858572,12.46717072,-117.03780745,-4.052044511,-1.373158008,15.563352585,0.6324473620000002,-0.8089488745000001,0.3182184845
468,3.89984400000003,-6.978912115,12.467075345,-117.00537489999999,-1.20410198,-1.83239013,11.975006105,-0.9442367555,-1.030595183,3.2722314595
469,3.9081770000002503,-6.990108967,12.44355488,-116.99975585,-3.6024684904999997,-0.991956264,13.12162018,-1.5936474205,-3.452971935,-0.05843877799999997
470,3.9165100000000166,-7.0021083355,12.447060585,-116.97725295000001,-2.0293737055,-1.050134063,15.18677568,-2.080349803,-0.45933353899999996,2.1446542145
471,3.924843000000237,-7.020492315,12.450680255,-116.9836159,-2.893491268,-2.181168616,11.570378779999999,-2.1449298265,-0.049134552499999984,-1.057784736
472,3.933176000000003,-7.041839361499999,12.42498779,-116.9643402,-2.1174292269999997,-1.52585876,12.699532510000001,-3.1329666974999997,-3.899331838,1.4078095255
473,3.941509000000224,-7.095826626,12.38768959,-116.97175594999999,-2.6512370705,-1.988964438,13.395472524999999,-6.392390966500001,-4.9051260945,-1.7906142995
474,3.949842000000445,-7.128549575999999,12.408513545,-116.96422575,-2.024224162,-1.3924291580000001,15.158048149999999,-4.1901171205,1.808326658,0.7286033035
475,3.9581750000002094,-7.154542923,12.351144314999999,-116.9699211,-3.462188363,0.30964812599999997,12.182901860000001,-3.0537163019999998,-7.310699463000001,-1.980672002
476,3.966508000000431,-7.2038106915,12.337041379999999,-116.9530716,-1.098885268,-1.1447213889999999,7.469392061,-6.4115953445,-2.4899598359999997,1.2806604874999998
477,3.974841000000197,-7.2407934664999996,12.290493965,-116.96251674999999,-2.544768274,-0.18667519099999996,12.380479815,-4.280894636999999,-5.9608553650000005,-2.2627230584999998
478,3.9831740000004174,-7.272240400499999,12.222039225,-116.94314575,-2.0381663445,-2.2788648604999997,16.60308552,-4.3380911945,-9.001419066,0.764130205
479,3.9915070000001833,-7.3111281395,12.20216846,-116.96796035,-4.506046057000001,-0.6757582685,8.8609423635,-4.128131032,-2.5521001815,-3.656061232
480,3.999840000000404,-7.344694853,12.150022029999999,-116.96621705,-1.2966169415,-1.407603383,12.27109194,-4.141463399,-6.7999777795,-1.0365250110000002
481,4.00817300000017,-7.3738501075,12.104308125,-116.9966545,-3.2240679265,0.18929633500000004,8.7598495485,-2.827338159,-5.5403466224999995,-4.7049509585
482,4.016506000000391,-7.3673689365,12.087306975,-116.99658965,-0.651719153,-0.6451644719999999,14.589618680000001,0.7203877269999999,-2.5924686789999996,-0.717018723
483,4.024839000000156,-7.3521997930000005,12.112426280000001,-117.02137755,-5.5117719175,-0.24674057949999995,8.7150874115,2.3276168110000004,2.7924320995,-2.8632749019999997
484,4.033172000000377,-7.319901466499999,12.10024643,-117.03844835000001,-0.236678958,-1.1436277085,12.17339039,4.242217362,-1.7639117835,-2.60812521
485,4.041505000000143,-7.278591155999999,12.0814929,-117.04669955,-4.519399762,0.06433544299999999,10.4465770715,5.0491040945000005,-2.679544032,-1.6238467695
486,4.049838000000364,-7.2419745925,12.17660236,-117.07658765,-2.577223003,-2.458187878,10.4939808865,5.081314802,11.196817400499999,-2.455758929
487,4.058171000000129,-7.183462143,12.13260317,-117.0678062,-1.605153013,-0.4404333235,7.8279874315,6.7044944765,-5.9268850085,-0.10505652449999969
488,4.06650400000035,-7.1307487485,12.231099125,-117.10718539999999,-4.303460836499999,-0.42466812049999997,11.1663374895,7.271434784,11.741631985000001,-3.5992815495
489,4.074837000000116,-7.0700860025,12.29912853,-117.11297225,-0.37153458599999994,-2.1618285775,11.624464034499999,7.3136963845,7.6133577825000005,-0.03416299800000022
490,4.083170000000337,-7.012691736500001,12.31966591,-117.1454239,-3.200166881,-0.398128341,5.9056432245,7.6401836880000005,2.3416790365,-3.876760125
491,4.091503000000103,-6.9798908235,12.463755605,-117.1680298,-1.9418506025,-0.8502433300000001,10.495077133,4.410253644,16.91287136,-0.8910297155
492,4.099836000000323,-6.882159232999999,12.435421945,-117.19466779999999,-1.4473447799999999,-0.303317569,11.246767519999999,12.346690176,-3.562889725,-3.960575521
493,4.108169000000089,-6.8230640885,12.64123297,-117.23843005,-4.0204516649999995,-1.4462623295,5.960195004,8.1193847655,24.562747005,-2.5143142344999996
494,4.11650200000031,-6.7579672340000005,12.65424919,-117.30314634999999,-0.31470185549999996,0.014371707999999983,5.7155911925,9.445980309500001,1.8858802620000001,-7.820654391
495,4.124835000000076,-6.711383581,12.841006279999998,-117.35513305,-4.0355170965,-2.032661557,11.626274586000001,6.8843538760000005,22.408609395,-3.8750771285
496,4.133168000000296,-6.6483855245,12.94843197,-117.4498787,-2.4043717385,-0.9610082805,4.5645648240000005,10.022392751,13.534695150000001,-9.9891576785
497,4.141501000000062,-6.5896136765,13.15402031,-117.52684020000001,-3.6525490285,-0.747647211,2.3894720675000003,9.0650508415,24.980683329999998,-6.557312726999999
498,4.149834000000283,-6.5565104485,13.335115909999999,-117.6119194,-0.3569918874999999,-1.2302763349999999,9.696923733,6.2412313225,22.170694349999998,-7.881279945499999
499,4.158167000000049,-6.5324189665,13.561141015,-117.67820359999999,-5.8757669925,-1.7097117305,6.2323422,4.6709893345,27.262529375,-5.0536015035
500,4.166500000000269,-6.5019292835,13.89293957,-117.74604035,0.5825846865000001,-1.103083223,5.1982702015,5.515827893999999,39.89905548,-3.810328245
501,4.174833000000035,-6.506752968,14.01933718,-117.75930785,-5.1704502105,-1.665160537,1.4210294485,-0.2680722474999999,14.677216055,-0.27883029000000015
502,4.183166000000256,-6.524458646499999,14.529429915000001,-117.8317566,-1.2322269975,-1.1433258655,5.025384188,-0.062338814,61.21478080999999,-1.8789311055
503,4.191499000000022,-6.575329542,14.694286349999999,-117.82722475,-1.981048584,-2.5780080555000002,6.4327964785,-6.3171386715,19.026300905,2.326690376
504,4.199832000000242,-6.6136646275,15.204983235,-117.88410569999999,-3.1610172395,-0.28021947999999997,-1.31469053,-2.924386859,61.079803465,0.04781603849999971
505,4.208165000000008,-6.719516039,15.420228479999999,-117.91285705000001,0.11681318249999995,-1.60416314,2.5094653965,-11.86609173,25.47330475,-0.7639321089999997
506,4.216498000000229,-6.794421673,15.86366415,-117.95682905000001,-2.468539238,-1.1468828320000002,5.164809942000001,-7.6498620525000005,52.88354683,0.7636479140000001
507,4.224830999999995,-6.8724458219999995,16.19161892,-117.9982872,-1.198823899,-0.8921621740000001,3.3294671255,-8.064255476,39.07574463,-0.5176315309999999
508,4.233164000000215,-6.977378607,16.592737200000002,-118.0294418,-2.721407175,-1.267235935,3.465937853,-11.6206262125,47.655576705,1.8057177365000001
509,4.241497000000436,-7.063140154,16.957014085,-118.060791,-0.4108219745,-0.33206570150000003,0.9613803625000001,-9.2805776575,43.25861168,1.3067833185000002
510,4.249830000000202,-7.1455607415,17.301211355,-118.074028,-1.3269874449999999,-0.9710866215,1.0610076039999998,-9.503921747,40.615755085,3.1472523215
511,4.258163000000423,-7.226576328,17.648938174999998,-118.09473805,-0.584042415,-0.7804075479999999,2.1193294744999998,-9.048755169,41.12981796,2.398731753
512,4.266496000000188,-7.292812586,17.940230370000002,-118.10108945,0.09629225699999999,-0.426757414,5.1263079645,-7.787210942,34.213180539999996,3.206017144
513,4.274829000000409,-7.365783929999999,18.223057745,-118.1258354,-1.0793702005,-0.42961742,6.872660160000001,-7.907891512000001,33.455596924999995,1.0681597589999998
514,4.283162000000175,-7.3985242845000005,18.448225025,-118.14505385000001,-0.44301019599999997,-0.38363769649999996,4.0711804035000005,-3.2739628549999997,26.52901745,0.7986719609999999
515,4.291495000000396,-7.3976247310000005,18.59024334,-118.16389085,0.296253085,-0.736478478,2.405145347,0.7595129009999999,16.60643959,-0.398328185
516,4.299828000000161,-7.387537718000001,18.696126935000002,-118.1657867,0.563577503,-0.030894756500000065,2.6138843594999996,1.2041678429999996,12.0726426265,0.9339667555000002
517,4.308161000000382,-7.3686561585,18.766379354999998,-118.1997795,-0.49361613400000004,0.40972504,7.6063365955,3.5199916360000003,8.2936980725,-3.2055256365
518,4.316494000000148,-7.3045253755,18.713563915,-118.1530457,-0.41957277049999997,-1.9160012605,6.144851923,5.8175058365,-7.523746730999999,3.95809114
519,4.324827000000369,-7.1986992359999995,18.626017570000002,-118.1824837,1.0033791660000002,0.7232869265000001,4.975404113500001,13.770178314999999,-10.563379167999999,-5.105034113
520,4.333160000000135,-7.05335021,18.499922755,-118.11820605,-1.872114513,-0.702692419,4.1903644205,14.9246025095,-16.481090545,4.8708944325
521,4.341493000000355,-6.9246304035,18.254086495000003,-118.1187248,1.1469909845,-0.539961278,8.252074958,15.396120545,-29.838377949999998,-4.100074768500001
522,4.349826000000121,-6.72663331,18.082247735000003,-118.0703392,-3.202978492,-0.6447086,9.498826565,21.884635924999998,-21.690964700000002,2.5603565575
523,4.358159000000342,-6.529179096,17.691082955,-118.03174975,2.2584491965,-0.701060459,1.8921213150000002,22.19303608,-47.70197105,-1.4966824355
524,4.366492000000108,-6.3111674785,17.480447765,-117.96871185,-5.789972067,-0.716621526,6.932215124500001,23.814656255,-26.48620987,3.8831995724999997
525,4.374825000000328,-6.0749957565,17.11680889,-117.95575715000001,0.450157499,-0.5400780884999999,10.616027266500002,27.779263495000002,-44.11019516,-3.7096351385000004
526,4.383158000000094,-5.810874939,16.800623895,-117.8730164,-3.3488618135,-1.3026192185,9.882889686,28.762631415,-39.27895355,5.082762396000001
527,4.391491000000315,-5.578210354,16.57876682,-117.8587723,-2.1835997705,-1.5965322849999999,2.111961305,27.314146045,-27.226903915,-1.4981455805000001
528,4.399824000000081,-5.358896494,16.16610098,-117.78130725,-1.4680747985,-1.8863185644999998,8.4123034495,23.66400814,-50.700597759999994,3.707716465
529,4.408157000000301,-5.1341867445,16.018173694999998,-117.75774765,-4.8389763835,-0.11344535650000001,7.6841669690000005,26.059294705,-18.5010767,0.6091766360000004
530,4.416490000000067,-4.9103569985,15.739836215,-117.7283859,-0.591779128,-2.028378129,7.877132415,25.832333565,-34.1316967,0.015257597000000178
531,4.424823000000288,-4.708001137,15.550233845000001,-117.72917939999999,-5.4212846755,-1.5999039115,7.724581716,24.19727993,-23.23585987,-2.4667626620000003
532,4.433156000000054,-4.506745577,15.484228609999999,-117.7571564,-1.6370472459999998,-0.9659354090000001,4.803492546,24.982239725,-8.197924258499999,-4.2994612155
533,4.441489000000274,-4.3366234299999995,15.28397417,-117.7560234,-0.6967234014999999,-2.420152545,6.3360850795,20.28337955,-24.536960605,-2.190806568
534,4.44982200000004,-4.196551323,15.303770065,-117.80713275,-7.3690588475,-0.8654488325,2.5725257375000004,18.360752105,2.2479824125,-6.1426293245
535,4.458155000000261,-4.031336546,15.297874929999999,-117.81052015,1.325189769,-1.7812256815,7.396282792499999,19.846909525,-1.2431231740000002,-0.909420967
536,4.466488000000027,-3.8962186575,15.235297679999999,-117.84692765,-4.9903686050000005,-0.348021645,4.437304853500001,17.28898811,-7.7654955385,-5.138985813
537,4.474821000000247,-3.7949062585,15.39321041,-117.83148195,-0.9839226455,-3.077858925,4.559893966000001,11.590497495000001,18.224049565,2.5920850635
538,4.483154000000013,-3.724304795,15.39200401,-117.83981324999999,-3.5769125820000003,-1.164897561,7.332695484,8.6721298695,-0.6438524724999999,-1.4429781735
539,4.491487000000234,-3.6773614885,15.579129694999999,-117.80677415,-1.5511107595,-2.1679818035,0.6249863505,4.5007884505,21.598913195,4.799066067
540,4.49982,-3.6671112775,15.58892059,-117.8111763,-0.1462844015000001,-1.0181099925,2.7219688295,1.2961444260000001,0.6421168145,-0.899200554
541,4.50815300000022,-3.671339631,15.81439686,-117.7718239,-4.301049471,-1.724503398,8.1572748445,-1.8520323184999998,26.145656585,5.810887575
542,4.516486000000441,-3.726328015,15.909704685000001,-117.76183320000001,-1.4525306825,-1.729359597,5.1348871305,-7.0096559525,10.781070709,1.4309710265000002
543,4.524819000000207,-3.7407320735000003,16.07298994,-117.7258186,-0.9141177085,-0.7993636205,1.86554122,-2.984066263,18.714050295,4.9530002475
544,4.533152000000428,-3.8274600505,16.265680314999997,-117.72047045,-3.476489842,-0.7231438904999999,2.995543182,-10.666330814,22.47325611,1.6691911219999997
545,4.541485000000193,-3.9367700814999997,16.446865080000002,-117.67998125,-1.1553911265,-2.2741360065,3.8371042015,-14.552653790499999,20.808202745,5.661985755
546,4.549818000000414,-4.024327636,16.661093715,-117.6908417,-2.913660824,-0.22442186999999997,3.5411525665,-10.215092418000001,25.184817315,0.06505346300000037
547,4.55815100000018,-4.118581414,16.871897695,-117.64966205,-0.46945571899999994,-1.8023131195,2.2435206770000002,-12.802273750000001,24.319221495,6.058295251500001
548,4.566484000000401,-4.240000247999999,17.09325695,-117.65304945,-2.028455675,-0.019648402499999995,2.298114538,-14.5301655555,25.97114086,1.0688014030000001
549,4.5748170000001664,-4.3560664655,17.292450905000003,-117.62914655,-0.07702100300000003,-1.4509169460000002,6.615351973,-14.840822222,23.062022210000002,4.0652703045
550,4.583150000000387,-4.474109411,17.54368782,-117.61817930000001,-2.9903952775,-0.35103711649999997,5.167201638,-14.63983202,29.405608179999998,3.1121635435000004
551,4.591483000000153,-4.5703778265,17.76428223,-117.61803055,-0.3148856165,-0.09836995600000004,1.0005624290000001,-11.626244544999999,25.813916204999998,1.6423407790000002
552,4.599816000000374,-4.6643435955,18.089926715,-117.59428405,-3.830579758,-1.508750379,1.992458701,-12.237218859999999,38.18221092,5.4239740670000005
553,4.60814900000014,-4.777759552,18.29597664,-117.591526,2.617503911,-0.044950038000000025,0.9396100044999998,-13.7853398305,24.04195404,1.8710489270000001
554,4.61648200000036,-4.886954546,18.58375168,-117.5562515,-4.6103442905,-0.9990667105000001,4.883269787,-14.53572631,33.51063728,6.4996204375
555,4.624815000000126,-4.9962649345,18.824655534999998,-117.56590270000001,1.2361488939999998,0.35909892649999997,2.8369343875,-12.817265987999999,28.33095169,0.9292717575
556,4.633148000000347,-5.079415797999999,19.131690980000002,-117.53898620000001,-3.7627105710000004,-1.2545224725,2.677189134,-11.126262665,35.866456035,5.8869009015
557,4.6414810000001125,-5.1921212675,19.372378349999998,-117.52632525,2.5675103665,-0.345513135,2.3309411405,-14.097523214999999,28.072636605,3.5446029305
558,4.649814000000333,-5.277196407,19.620257375,-117.49388505,-3.7183121595,-0.5201972719999999,3.1159336565,-11.61120558,28.72205353,5.9877359865
559,4.658147000000099,-5.380828857,19.896733285,-117.49731445,0.16136598599999985,-0.286816627,-0.5076230165000001,-12.370101454,32.50437069,2.2276078615
560,4.66648000000032,-5.487377405,20.12285423,-117.4802513,-0.9319643379999999,-1.0228907305,1.100048512,-13.594228745,26.265396115,4.1015469435
561,4.674813000000086,-5.628279924499999,20.368206025,-117.49123,-0.8905752899999999,-0.2146380395,6.371239066,-16.523029325,28.856742859999997,1.157207131
562,4.683146000000306,-5.72747612,20.614492415,-117.52002715,-2.3163202555000004,0.10395914199999999,2.6481992004999997,-10.8007130625,29.171616555,-0.694268465
563,4.691479000000072,-5.840166569,20.876637455,-117.56266405,0.31141391399999996,-0.676169537,2.066676676,-11.7794852245,31.210474965,-2.0524514315
564,4.699812000000293,-5.935466528,21.078424455,-117.58156585,-1.008892745,0.7227210399999999,4.4159581065,-10.7007896905,23.745960235,-0.08569860450000011
565,4.708145000000059,-5.991508960499999,21.30334568,-117.6290207,-1.5096187595,0.6922584475,6.26190114,-4.7354990545,26.82641983,-2.9383074045
566,4.716478000000279,-6.0095429419999995,21.549809455000002,-117.6267128,-2.040097237,-0.40243363349999994,1.0079283415,-2.328022122,28.830646514999998,2.847792923
567,4.724811000000045,-6.026830911999999,21.74524498,-117.66088490000001,1.3743166325000002,0.7535411864999999,3.0535655019999997,-0.6291570664999999,23.158545495,-1.7935038209999998
568,4.733144000000266,-5.996702194499999,21.88693714,-117.6292191,-0.8379230495000001,-0.10280054800000005,6.089940906,2.1250659224999997,15.9769969,4.8260042665
569,4.741477000000032,-5.956188917,22.0338316,-117.6589928,0.12984943399999982,0.49421292550000007,7.3537142275,6.1272728445,17.313308715,-1.9218111034999998
570,4.749810000000252,-5.8753623965,22.13152504,-117.625,-1.110891819,-0.727016561,7.950777294,8.075913668,10.7058177,4.5395736695
571,4.758143000000018,-5.7522337435,22.176774025,-117.63785935000001,0.26092052450000003,1.1177470985,6.5723178385,15.2834048255,4.9836039549999995,-1.33684583
572,4.766476000000239,-5.608186722,22.212986945,-117.61719894999999,-0.355753958,-0.22496251750000001,6.746012926,16.265887735,3.530051768,2.3012803195
573,4.774809000000005,-5.4532475475,22.20095444,-117.62120820000001,0.69541049,0.4780269865,7.65411055,18.69626856,-1.9602336879999998,-1.03952875
574,4.783142000000225,-5.2618141175,22.10157394,-117.589283,-2.271672368,-0.8504486529999999,3.612028122,21.428246495,-12.773153305000001,2.031677097
575,4.791475000000446,-5.033426046500001,22.018946645,-117.5874519,2.0154981615,0.5531163215000001,8.0672687285,27.246583934999997,-10.458637117,-1.133840829
576,4.799808000000212,-4.7912881375000005,21.882153510000002,-117.54852675,-3.2847385405000002,0.16560000200000002,9.7214848985,27.21970463,-17.288759705,2.5022893699999997
577,4.8081410000004325,-4.5250208375,21.67016697,-117.5373955,2.5878309605,-0.2322151065000001,7.737963676,31.375572204999997,-26.023538115,-1.271698564
578,4.816474000000198,-4.249963044999999,21.541159630000003,-117.4846153,-6.2706713675,-0.586636707,6.0528967399999996,30.59856701,-16.444939135,4.2880451084999995
579,4.824807000000419,-3.9840006825,21.313840865,-117.4693375,2.0987818315,-1.1939502655,9.675467908,31.14162922,-27.906175615,-0.7235081194999999
580,4.833140000000185,-3.7005262375,21.157895085,-117.40992355,-5.650033951,-0.6419043839999999,12.303389312,31.37330723,-19.66826725,5.000814439999999
581,4.841473000000406,-3.431828022,21.04948616,-117.3997383,0.5655766725,-0.9850311730000001,5.096612693,31.67392254,-13.636041165,-0.16233015049999988
582,4.849806000000172,-3.2199126485000003,20.787384035000002,-117.36005399999999,-2.8868754510000003,-2.031111598,7.831910848,23.67231083,-32.207835195,2.2694847594999996
583,4.858139000000392,-3.007547259,20.859374045000003,-117.3700676,-5.291823130499999,-0.13861000550000002,4.83428061,25.778563495,8.107314227,-1.146583079
584,4.866472000000158,-2.8145214320000003,20.61911869,-117.37680815,2.9044711590000003,-1.8830351235,9.6753159465,23.367282865,-29.31420612,-2.555159567
585,4.874805000000379,-2.625005603,20.660408975000003,-117.379261,-8.1742839795,-0.6120699045,8.4637739675,22.735131265,4.3903148175,-0.5094978810000006
586,4.8831380000001445,-2.489747405,20.72373581,-117.4114418,0.7138582465000001,-2.59475255,9.631885409,17.491803165,7.1890305265,-3.5818115485
587,4.891471000000365,-2.378932953,20.629379274999998,-117.38331224999999,-3.4893856045,-1.5390488805,8.161157608,12.01661444,-12.01352787,2.207659602
588,4.899804000000131,-2.3011200425,20.903528215,-117.43203355,-3.6904802325,-0.2570773365,3.4179391860000004,11.2876403305,32.529098515,-4.4095391185
589,4.908137000000352,-2.2401156425,20.82361031,-117.4137115,1.280221522,-2.6011894939999998,6.8352084155,6.452021837,-10.228419305,1.2083585859999997
590,4.916470000000118,-2.2193443774999997,21.021077155,-117.4331627,-5.4596197605,-0.9960020780000001,10.5707499235,3.2079868840000003,23.19454956,-1.5739388464999997
591,4.924803000000338,-2.237055302,21.18189144,-117.413269,-0.5152764320000001,-2.4661533835,9.958017708,-3.069354534,18.63903618,2.514927566
592,4.933136000000104,-2.3048344849999998,21.26943016,-117.41293335,-2.4791913625,-1.4144800899999999,8.0685744285,-8.2340552805,9.9253380285,0.05438494649999992
593,4.941469000000325,-2.3416465520000003,21.534145355,-117.390995,-2.1874838475,-0.08766292,4.7611877915,-5.4636936185,31.085994720000002,3.273348451
594,4.949802000000091,-2.4086648225,21.568878175000002,-117.39257434999999,0.8829226494999998,-1.174240202,9.9342076755,-8.0381075125,3.6054602860000005,-0.44911444199999995
595,4.958135000000311,-2.4636758565,21.72047615,-117.35767745000001,-3.8705496189999997,-0.301054284,12.1425936245,-8.2277698495,17.45025682,4.1898252965
596,4.966468000000077,-2.53066206,21.882715225,-117.35080339999999,0.2083672285,-1.3267062905,12.42577267,-8.4113464355,18.854197499999998,1.1480750445
597,4.974801000000298,-2.5454010965,21.888586045,-117.3253441,-2.2857786415000003,0.013982474999999994,10.444981575,-2.9896680115,0.01931950450000003,2.3996697925
598,4.983134000000064,-2.5896048545,22.031074525,-117.3115196,-0.21916186800000004,-1.2795722040000002,10.4033665675,-5.957949638500001,16.45171976,1.7644559145
599,4.991467000000284,-2.5804885625000002,21.944257735,-117.2699509,-1.3928843145,0.5437867195,11.996796606499998,-0.8604655265000001,-11.173904896,3.6824052480000002
600,4.99980000000005,-2.588362813,22.043107985,-117.27599335,-1.9696932735,-0.503867537,14.394484519999999,-0.6805648805,11.328653096,-0.7288085820000001
601,5.008133000000271,-2.5407310725,21.892564775,-117.2445717,0.7531390189999999,-0.449481502,13.811095237,4.2150673865,-18.769016264999998,2.2166242594999996
602,5.016466000000037,-2.4892698525,21.82443142,-117.2605057,-2.6817540005,0.1807067695,9.920804263,6.8814719935,-8.644405605500001,-2.7322198745
603,5.024799000000257,-2.431516528,21.693211554999998,-117.26724245,-0.3776801825,-0.346625045,17.62454128,7.1437866675,-16.261163715000002,-1.8936480135
604,5.033132000000023,-2.291957736,21.458745005,-117.28504565,0.16293221750000003,0.244491346,19.366393090000003,17.45891762,-28.595344545000003,-3.605213642
605,5.041465000000244,-2.160923481,21.259428975,-117.30527115000001,-2.059417665,-1.2768590005,11.3703069685,16.55821419,-24.36601734,-3.716724396
606,5.04979800000001,-2.0263521075,21.012753485,-117.3286209,-2.211743474,-0.3075234705,14.701265334999999,17.09940958,-30.04156685,-4.161542177
607,5.05813100000023,-1.8648825285,20.73068619,-117.33157729999999,-3.041529298,-0.606947243,18.421473499999998,19.431657795,-34.38302612,-1.9439757465
608,5.066463999999996,-1.678292036,20.43738842,-117.3392677,-1.252832055,-0.7032514285,12.093605042,22.641649245,-35.712064745,-2.3800399005
609,5.074797000000217,-1.5243583914999999,20.136880875,-117.3093872,-3.1885808705,-2.78607142,14.420106415,17.160473345,-36.699436184999996,1.893624812
610,5.083130000000438,-1.3237357735,19.854050635,-117.29137800000001,-1.7339716665,-0.6319590509999999,22.90545559,23.237360955,-34.5420332,0.8228526414999999
611,5.091463000000204,-1.1392065885,19.53969574,-117.2493629,-2.6134322880000003,-0.731427491,14.286531445,20.377128605,-38.375074389999995,3.471399784
612,5.099796000000424,-0.963276088,19.23653698,-117.2196617,-1.2795532345,-2.1987878084999997,11.550714018,19.818928715,-36.99061203,2.3221258525
613,5.10812900000019,-0.8297441305,18.908127785,-117.1799393,-3.2861083745,-1.353259951,14.801054,14.39552879,-40.040580750000004,3.4246027470000002
614,5.116462000000411,-0.67195338,18.548563960000003,-117.16329955,-1.0167199335,-1.8992735745,18.161273004999998,18.160143855,-43.733371735,0.9779465795000001
615,5.1247950000001765,-0.5376949755,18.205979345000003,-117.1463661,-3.8144478795000003,-2.4796898365,13.550824165,15.402225495,-41.686445235,1.034868218
616,5.133128000000397,-0.4370889815,17.866979595,-117.1203499,-1.407064557,-1.603399485,18.00238514,10.993346214999999,-41.26568413,2.247530937
617,5.141461000000163,-0.35312782200000004,17.53041935,-117.11269759999999,-3.3828434940000003,-2.118196726,16.11362219,9.7319841385,-40.95070267,0.13648569599999993
618,5.149794000000384,-0.301557824,17.202830315,-117.09646225,-2.682649851,-1.5257117525,14.436666965,5.5000766814999995,-39.87387848,1.2501558289999999
619,5.15812700000015,-0.303160928,16.874403955,-117.09884640000001,-2.932194352,-2.0738028285,10.453353883,-0.1785368919999999,-39.975769045,-0.9374952315
620,5.16646000000037,-0.34643986050000003,16.556342125,-117.07699205,-2.654530406,-3.8265322445,14.595705984999999,-6.028087139,-38.742055895,1.8604539635
621,5.174793000000136,-0.41777284449999996,16.234446525,-117.0850792,-2.742969036,-1.7371086475,20.806043625,-8.3719985485,-39.17535973,-1.6534204485000001
622,5.183126000000357,-0.5059260274999999,15.913527485,-117.0720024,-2.523300171,-3.630298376,14.551651,-11.08161831,-39.081769945000005,0.7274452745000001
623,5.191459000000123,-0.649017066,15.614201545,-117.08044815,-2.4663503765,-0.2397297325,13.1213479,-16.974666595000002,-36.462953565,-1.804435581
624,5.199792000000343,-0.802379936,15.34119797,-117.0948448,-3.8149077895,-1.8901124004999998,14.98633671,-18.000450135,-33.28545761,-2.6043434145
625,5.208125000000109,-0.9632894695,15.086289879999999,-117.1256981,-4.465233326,-1.294544131,18.017642025,-18.415837285000002,-31.096266745,-4.497852087
626,5.21645800000033,-1.136953294,14.895103930000001,-117.13682555,-3.767804861,-3.31340611,13.34167147,-20.547605515,-23.47325325,-2.2195780275
627,5.224791000000096,-1.3324169515,14.709585664999999,-117.16185759999999,-3.7154147625,-1.577048257,12.272161005000001,-22.76991177,-22.749114040000002,-3.8372080325
628,5.233124000000316,-1.5384463075,14.619922635,-117.18161395000001,-2.8397825955,-0.14741158499999996,21.48635578,-24.180814740000002,-11.260371204999998,-3.053218901
629,5.241457000000082,-1.700534582,14.574697494999999,-117.20946885000001,-4.6765401365,-1.2853140235,15.262301925,-18.687498095000002,-5.884360075,-3.844313383
630,5.249790000000303,-1.9319695229999998,14.543642525,-117.2251015,-3.4220404625,-1.6147067544999998,8.327372074,-27.366741179999998,-4.2303862575,-2.3910011055
631,5.258123000000069,-2.1559078695,14.55200243,-117.26734925,-3.2412772175000004,-3.1238713565,16.642998695,-25.725429535,0.6210365295,-5.1348252295
632,5.266456000000289,-2.3499081134999997,14.550364015,-117.2957954,-3.1342695955,-0.008790612000000086,17.790272715,-22.498067855000002,-0.6284264920000001,-3.7465059755
633,5.274789000000055,-2.5384469029999996,14.641551495000002,-117.32853320000001,-2.233515024,-1.7005283535000002,14.081614975,-21.7513752,10.53540897,-3.6336497065
634,5.283122000000276,-2.781320095,14.68032551,-117.36120225,-3.9152987005,-1.9919301864999999,10.334428788,-28.218546869999997,4.265478373,-4.0554540155
635,5.291455000000042,-3.0136773585,14.756840705,-117.3984222,-2.841296494,-1.0967633129999999,20.388325690000002,-26.865906715,8.826992035,-4.1498675345
636,5.299788000000262,-3.250020504,14.834606645000001,-117.43458555000001,-3.4224336145,-3.1047461035,14.322721479999998,-27.314478875,8.988630295,-4.1726770405
637,5.308121000000028,-3.495860219,14.937062260000001,-117.4611015,-2.091393292,-0.6214798245,12.136579035,-28.794234275,11.89025879,-2.6652977465000003
638,5.316454000000249,-3.7959576845000003,15.043210985,-117.50579835,-3.047376633,-2.316123545,10.721599578,-34.690080644999995,12.49522877,-4.874382257
639,5.324787000000015,-4.0761240725,15.158315654999999,-117.56562804999999,-3.5959610939999997,-0.21431785800000003,17.308467864999997,-31.86095333,13.68827486,-6.2644672395
640,5.3331200000002354,-4.4036018850000005,15.24680424,-117.62131115,-3.1198443175,-3.4350607395,10.93657589,-37.61274147,10.5195507995,-6.1387672425
641,5.341453000000001,-4.683757782000001,15.422586915,-117.68377685,-3.3158605100000003,-0.8470607099999999,16.57200527,-31.74865341,21.030465125,-5.834788799
642,5.349786000000222,-4.9767479895,15.48533678,-117.72343445,-1.3051014545,-0.3590215440000002,14.821465969999998,-33.945027350000004,7.3391792755,-4.477981329
643,5.358119000000443,-5.268028736,15.71506071,-117.78704834999999,-5.044376135,-1.652802706,12.771508215,-33.005932805,27.53974056,-5.188556433
644,5.3664520000002085,-5.556223631,15.780271055,-117.81497955,-1.454916507,0.346593201,16.926300044999998,-33.725468635,7.5499067305,-3.0253257155
645,5.374785000000429,-5.877273559500001,15.952950000000001,-117.8691368,-4.299979091,-3.2739606500000002,11.001446009,-36.85689735,20.66749859,-4.4854629035
646,5.383118000000195,-6.160960436,16.108714105,-117.88900375,-1.2286694345,0.2270780805000001,14.323740959999999,-33.45863342,18.274211880000003,-0.7728658614999999
647,5.391451000000416,-6.445525646,16.202781675,-117.94295505,-2.0456602575000002,0.25566694100000004,15.55867529,-32.46058273,11.335271837,-5.2769863605000005
648,5.3997840000001815,-6.71963501,16.387772560000002,-117.97077175000001,-5.0119452475,-2.4663312824999997,11.97689247,-32.02372742,21.8541317,-1.0996787545
649,5.408117000000402,-6.999616145999999,16.48780918,-118.01798629999999,-0.411951907,-1.2231321335,13.056313995,-32.116773605,12.006196976,-4.2702428695000005
650,5.416450000000168,-7.2463526725000005,16.610792160000003,-118.0463791,-3.311202049,-0.955621213,15.622704505,-28.68324375,14.492584704999999,-1.9397233274999999
651,5.424783000000389,-7.4937164785,16.719184875000003,-118.09444429999999,-3.6469608545,0.433336139,15.78291607,-28.108023645,13.0618767725,-4.2834973335
652,5.433116000000155,-7.7221014495,16.84760666,-118.1264076,-2.932118535,-2.5552462489999996,11.805479051999999,-26.354475975,15.200568675,-2.0941451195000003
653,5.441449000000375,-7.905168294999999,16.960549354999998,-118.15584565,-0.9539266375,1.5477454659999998,15.802049635,-21.059317585000002,13.318192960000001,-1.837040894
654,5.449782000000141,-8.0837166305,17.062458035,-118.18371965,-3.7923295495,0.8409208935,17.86239624,-20.492524144999997,12.00289965,-1.9990766515
655,5.458115000000362,-8.2036156655,17.16825676,-118.19680785,-3.072658896,-2.08462137,14.86018229,-14.04448748,12.20655155,-0.009912670000000012
656,5.466448000000128,-8.2886638645,17.257434845,-118.20725254999999,-1.3033397199999999,2.0400329385,12.046375036,-9.882222890000001,10.2112755775,-0.17773735550000003
657,5.474781000000348,-8.366617203,17.3325243,-118.2041321,-3.2029915454999998,-2.130606711,11.67522812,-9.538758395,8.3100032815,1.1939952075
658,5.483114000000114,-8.403276443500001,17.400966644999997,-118.2004547,-2.5930246335000002,0.06965488200000003,16.553815365,-4.59077573,7.5065665245,1.138744891
659,5.491447000000335,-8.424364090000001,17.441793439999998,-118.18544005,-1.3099788430000001,-0.119501531,12.4435968385,-3.1972904205,4.0207111835000005,2.101833403
660,5.499780000000101,-8.461010456,17.50062466,-118.1858444,-4.110014081,-2.2734586,13.19806576,-4.43740356,6.4452528954999995,0.4997848275
661,5.508113000000321,-8.4731817245,17.533987045,-118.17207335,-2.622662902,-0.7149067965,12.103939058,-2.045380056,3.170082092,1.6841168999999998
662,5.516446000000087,-8.474943161,17.567800525,-118.17321014999999,-1.003922924,-1.6682341095000002,12.125047683999998,-0.24364894650000002,3.4715869425,0.015746414500000028
663,5.524779000000308,-8.4778108595,17.58033085,-118.17444995,-2.7472025154999997,-0.13344851149999998,12.196531775,-0.379328251,0.9574411509999999,-0.38168406499999996
664,5.533112000000074,-8.490647793,17.600148205,-118.17660140000001,-3.248899579,-1.0936824975000001,13.820496559999999,-1.5152559279999998,1.8372774120000002,-0.40145850200000005
665,5.541445000000294,-8.4797120095,17.607203485,-118.1829872,-1.5074389425,-0.7797405719999999,9.9639239285,1.467074275,0.39022660249999996,-1.059622493
666,5.54977800000006,-8.4586491585,17.60150051,-118.18377305,-2.788830966,-1.0062727485,10.5426521285,2.4945061205,-1.210682422,-0.6542193890000001
667,5.558111000000281,-8.4475445745,17.621022225,-118.17999645,-2.6982879824999997,-1.4353827235,8.458999157000001,1.1167359055000001,1.690462649,0.3095288125
668,5.566444000000047,-8.406088829,17.600583075,-118.17379,-1.991925791,-0.201788947,12.268010617,4.6512827869999995,-3.096012175,-0.05644097949999999
669,5.574777000000267,-8.3822226525,17.61708641,-118.1774292,-3.8725660444999996,-1.207092151,4.671475172,2.9179610609999997,1.4667032955,-0.587187067
670,5.583110000000033,-8.38069725,17.68024731,-118.22447585,-1.8317975400000002,-1.208933439,9.3309776795,1.7791969475,7.712370394,-4.5686068535
671,5.591443000000254,-8.346502304000001,17.67262268,-118.2515488,-2.8707135915000004,-0.8156235965,9.529439689,5.0115279555,-1.0085477535,-3.6563043595
672,5.59977600000002,-8.378847122,17.83723354,-118.33058165,-3.1782491655,-2.2085849645,6.1356065275,-1.1030134409999999,20.288830755,-6.38933897
673,5.6081090000002405,-8.4085745815,17.86588383,-118.3863449,-2.965942435,-1.310531497,3.4227956534999997,-1.5971055699999999,3.76868701,-6.260926485000001
674,5.616442000000006,-8.444015503,18.07947159,-118.4572487,-2.533248186,-0.690240741,7.472769737,-1.7395151555,25.960019115,-4.5743977424999995
675,5.624775000000227,-8.4898657795,18.141363145,-118.50126265,-1.1476900730000001,-2.157264948,6.9181868425,-3.9379448889999997,7.5324931125,-4.327383757
676,5.633107999999993,-8.5477313995,18.368059154999997,-118.54524995,-4.659485221,-0.3443574975,2.5944753885,-5.405395030999999,27.058879855,-1.2442646030000002
677,5.6414410000002135,-8.6112823485,18.587455745,-118.5744667,0.2971153259999999,-1.4299130139999998,5.727417409999999,-6.5953940165,25.97988987,0.18986529099999994
678,5.649774000000434,-8.685525894000001,18.6763649,-118.56930925,-3.900969416,-0.7119825639999999,4.9990552070000005,-9.2037088885,9.891361237,1.8091266155000003
679,5.6581070000002,-8.744117737,19.07425022,-118.62677385,-2.1267015935,-0.5752169785000001,4.4124109745,-4.8811289075,47.62630653,0.32367444
680,5.666440000000421,-8.818871498,19.149132729999998,-118.61667249999999,-0.444376707,-1.0353817045,2.491922967,-9.4647936825,8.133366106,2.119072646
681,5.674773000000187,-8.8829369545,19.529551505,-118.66333385,-2.4691049755,0.32429803500000004,3.48707512,-5.907895803500001,45.368257525,1.3370912819999998
682,5.683106000000407,-8.9569206235,19.68053913,-118.6620369,-0.9925290345000002,-1.5005344155000002,6.938029289,-9.0265731815,17.30685139,2.559144497
683,5.691439000000173,-8.996670246,19.96891117,-118.68159485,-2.1892359555,-0.04185765949999998,2.6749352215,-4.0468738075,33.970835685,2.7534558770000004
684,5.699772000000394,-9.068229198000001,20.149827000000002,-118.67077635000001,0.6590893865000002,-0.36701983250000003,4.3905497790000005,-9.120734931,20.692903515,4.189388752
685,5.70810500000016,-9.115852833,20.3886776,-118.7005043,-3.300651193,-0.640864074,7.494995117,-4.5569934844999995,28.26944065,0.7612107395000001
686,5.71643800000038,-9.1363554,20.570419315000002,-118.6982727,1.128571987,-0.41664255050000004,2.758813858,-2.6408798695,20.93169022,3.274704099
687,5.724771000000146,-9.179819583499999,20.702947615,-118.73432925,-2.0965850355,0.255203355,2.649293125,-3.7690842135,15.79075289,-1.926517874
688,5.733104000000367,-9.181934833500002,20.867986674999997,-118.73364255,-0.025525524999999993,-1.035875052,6.869216203500001,-0.3556028605,18.979958054999997,2.773939252
689,5.741437000000133,-9.162258625,20.892831805,-118.76880265,-0.8187321125,0.830556482,5.0551223755,3.7888645230000004,3.017113313,-3.880338907
690,5.749770000000353,-9.112812519,20.980102535,-118.74876785000001,1.5902926920000002,-0.3870679085,7.9470646385000006,5.0221708414999995,9.4320167,3.4129562975
691,5.758103000000119,-9.016234398,20.865180015,-118.75003434999999,-2.4449248315,0.7151942210000001,3.1673299075,11.5539565095,-14.16002655,-2.781514395
692,5.76643600000034,-8.894866943,20.80007839,-118.71844485,2.186917603,-0.5788573475000001,7.96310544,13.167182443,-8.8289715075,1.8408261535000001
693,5.774769000000106,-8.757910251999999,20.589986805000002,-118.70449450000001,-1.942186892,0.347037472,9.283679485,15.744699480000001,-25.7128067,-2.790757835
694,5.783102000000326,-8.5559592245,20.372579575,-118.65404125,2.408088088,-0.334500417,5.6391837595,22.060491560000003,-27.20930767,1.2783011199999998
695,5.791435000000092,-8.373970509,20.032838825,-118.61834715,-4.5168907645,0.4597057345,4.95610368,20.254213335000003,-41.47750092,-2.4928538204999997
696,5.799768000000313,-8.145328522,19.785010335000003,-118.58096695,2.4176247120000003,-0.6499297915,10.405198335,25.859565735,-30.591522215,-0.491799235
697,5.808101000000079,-7.874439477999999,19.306019785,-118.52309414999999,-4.1035050155,0.16896307450000003,9.304199696,30.066854475,-58.403520584999995,-2.0064096449999997
698,5.816434000000299,-7.617089033499999,19.06849766,-118.4927902,-0.05898001800000002,-1.4318890574999998,5.9652490615,29.63229561,-29.264594074999998,-0.8283580540000002
699,5.824767000000065,-7.3885424135,18.494280815,-118.44620515,-1.2217559210000002,-0.1170951275,5.9460823535,25.50046539,-69.57637787,-4.229718745
700,5.833100000000286,-7.1225984095,18.265052795000003,-118.42946624999999,-3.7183953525,-1.3644441365,9.152497529,31.215690615,-28.093218805,-1.941037059
701,5.841433000000052,-6.887231588000001,17.729030610000002,-118.426754,-0.317289207,-0.8460526165,5.113653419,28.006074905,-64.447113035,-8.026076076
702,5.8497660000002725,-6.649336815,17.4244318,-118.41822049999999,-3.1044903995,-1.001300007,8.5618084835,28.19606304,-36.964677815,-3.6946470739999997
703,5.858099000000038,-6.4583253865,16.983028415,-118.41988755,-1.8255556225,-1.6690412760000002,5.7805324485,22.846839905,-53.174955365,-6.72140035
704,5.866432000000259,-6.233870268,16.677401539999998,-118.415802,-2.9475823340000002,-0.8576784285,8.3616752605,26.759266855,-37.061912535,-3.94921684
705,5.874765000000025,-6.0626666545,16.31048393,-118.39875795,-3.3182882664999998,-1.792298682,3.6796047985,19.833252905000002,-44.551721575,-3.2469050884999997
706,5.8830980000002455,-5.881841421,16.05797529,-118.3978462,-0.17327606649999994,-1.0681624410000001,6.7572741505,21.63294983,-30.709854125,-3.4148230564999995
707,5.891431000000011,-5.7272264955,15.71184444,-118.35224915,-5.3708597424999995,-0.8463512659999999,0.7434633374999999,16.93402481,-42.418628694999995,0.5547888274999999
708,5.899764000000232,-5.567562580000001,15.467391495,-118.34488675,1.0351421829999998,-1.312441707,9.441308498,18.87736797,-29.83266735,-2.402686834
709,5.908096999999998,-5.423244953499999,15.279181005000002,-118.2885742,-5.7724335195,-2.0234801175,9.070674062,15.41158342,-23.67330742,3.8444767895
710,5.916430000000219,-5.310702801,15.065197465,-118.2783928,0.287519455,-0.6031196345000001,-1.713498592,13.11990261,-26.241036415,-1.6136791705
711,5.924763000000439,-5.1750643255,14.86002827,-118.21451569999999,-2.4354746345000002,-1.207733929,5.4764781,14.199980735,-25.753907204999997,4.6575683355
712,5.933096000000205,-5.0840234755,14.7317276,-118.208065,-1.8289619685,-0.861257315,9.8250043395,10.663439270000001,-15.964472295,-1.031850457
713,5.941429000000426,-4.9919757845,14.582196235000001,-118.13344574999999,-2.6304080484999997,-2.7535777685,1.9371847365,8.677711966,-19.193398475,6.5899324395
714,5.949762000000192,-4.9164202215,14.438230990000001,-118.1295166,-0.31778991200000006,0.009277462999999986,6.1281908465,8.8914022445,-17.808142665,-1.4850622415
715,5.958095000000412,-4.836214066,14.355418205,-118.05217745,-4.7939221855000005,-1.5094341635,7.5421736245,7.2277816515,-11.2297503945,7.648368120500001
716,5.966428000000178,-4.792184353,14.301588535,-118.0526428,-0.6804558039999999,0.26897594300000005,0.8076733349999998,5.241691351,-6.990081193,-1.0696376565
717,5.974761000000399,-4.7596712115,14.265625475,-117.98604205000001,-4.1684150995,-2.9684578325,1.3414359839999999,1.847651839,-5.5033225735,6.8998994825
718,5.983094000000165,-4.7569692135,14.29262018,-117.97325515,-0.5820592644999998,-0.7211700080000001,4.8396806715,-0.12587499650000034,2.5479633215,1.2692878250000001
719,5.991427000000385,-4.751144648,14.23942852,-117.8992119,-0.4781916735,-1.9059194625,4.0478542745,-1.55887568,-7.6373450730000005,7.5982074740000005
720,5.999760000000151,-4.7883799074999995,14.24805498,-117.87041855,-3.124237001,-0.676706314,5.727586746,-5.3988476400000005,0.20129561400000007,2.9615823035
721,6.008093000000372,-4.8159480095,14.27873993,-117.8076782,-1.1824403405,-0.19832298200000004,3.8709095120000003,-5.2280577425,2.4907924535,7.1190166475000005
722,6.016426000000138,-4.8319082259999995,14.363786695,-117.78377535,-3.6892976765,-0.918119001,5.0383150575,-2.722172439,9.37594509,3.2116221190000003
723,6.024759000000358,-4.8663027285,14.445647715,-117.7091484,1.3636698725,-2.0732453465000003,1.759551227,-6.4161752465,8.490095377,9.014918329
724,6.033092000000124,-4.9175288675,14.49309492,-117.66386415,-2.615362942,-0.7494718429999999,2.5778080825,-7.606436729,4.6692385675,5.3105941715
725,6.041425000000345,-4.983868360500001,14.584510325,-117.60405735,-1.2186101075,-0.4646660090000001,5.569985151,-9.818507911000001,9.760273935,7.4099370835
726,6.049758000000111,-5.0284051895,14.71564007,-117.57143024999999,-2.4776505085,-0.490754455,1.8648335114999999,-6.457299947500001,14.793429855,4.7788952565
727,6.058091000000331,-5.127948761,14.816254615,-117.5324478,0.9691567419999998,-2.084527731,4.360763788,-13.19066191,11.050169465,5.120018721499999
728,6.066424000000097,-5.211580037999999,14.91329479,-117.4774246,-2.5434550645,-0.47258931400000004,4.4753768444999995,-11.83032894,10.480252742000001,6.9304339895
729,6.074757000000318,-5.298701048,15.048285960000001,-117.4870224,-2.165501863,0.013979971499999966,3.528665781,-10.211259843,15.656989575,-0.07236599900000007
730,6.083090000000084,-5.377781629999999,15.21473932,-117.43337635,-0.831830442,-1.7562180755,0.0878802425,-11.2739002685,18.76391697,7.608119028
731,6.0914230000003045,-5.520027876,15.325888635,-117.45980835,-0.005188703500000003,-0.7764183875,5.3199651244999995,-16.294905665,12.995381355,-2.2303475145000005
732,6.09975600000007,-5.617081880500001,15.48696661,-117.3987961,-3.10754177,-0.9988707305000001,4.4617995025,-13.689087390000001,18.00997925,8.470095156000001
733,6.108089000000291,-5.7419030665,15.670971395,-117.4719467,-1.1204062700000001,0.08677238250000001,0.6884108335,-12.685740469999999,22.23372078,-6.6811190845
734,6.116422000000057,-5.862551689,15.837391855,-117.39333725,0.058637381000000044,-2.5181428195,2.4682741165,-17.134141925,18.398385525000002,10.620501996
735,6.1247550000002775,-6.014522791,16.001039025,-117.47934345,-4.0059868695,0.9037912485000001,4.38509655,-15.47525692,19.993102075,-8.2890141025
736,6.133088000000043,-6.127736091999999,16.260110855,-117.41893005,-0.37717895200000007,-2.2637869415,0.15091699400000003,-15.68731451,29.613928795,9.792921543
737,6.141421000000264,-6.3126900195,16.430916785,-117.4979439,-1.393321216,0.4808471205,2.985179305,-19.603378295,20.806773185,-7.281703949000001
738,6.14975400000003,-6.4435648919999995,16.68711948,-117.44055935,-2.431703627,-1.7555136085,4.6980947255,-17.751573565,29.252619745,9.564474105
739,6.1580870000002506,-6.6109576225,16.933760645,-117.55010605000001,-1.7016746105,0.19450324799999996,1.7809699179999998,-16.367372035,30.286354064999998,-9.601826193
740,6.166420000000016,-6.76727891,17.180662155,-117.4920044,0.39622715100000006,-1.642541282,3.115979314,-20.884091375,28.066010475,9.657576323
741,6.174753000000237,-6.934727192,17.423737525,-117.60295485,-4.9093347785,1.3302313685000002,5.0236765145,-16.22001362,29.941975595000002,-9.594042421
742,6.183086000000003,-7.053541422,17.731000899999998,-117.57104874999999,2.4611651895,-2.2929462789999997,2.1059412955,-15.49178839,35.555603024999996,7.7074733994999995
743,6.191419000000224,-7.2115216255,17.916958809999997,-117.64775850000001,-4.340577779999999,1.19165501,2.3459097745,-16.232733250000003,22.704431535,-6.384163858499999
744,6.199752000000444,-7.3178293705,18.275016785,-117.6477394,-0.3166103364999997,-1.07491073,5.503583789,-12.8452029245,42.015428545,5.0779752705
745,6.20808500000021,-7.411131382000001,18.45478058,-117.6974869,-0.5059144499999997,0.736779364,0.241723299,-9.409792898000001,21.58842182,-3.3267459849999996
746,6.216418000000431,-7.487063646499999,18.74527931,-117.69994355,-1.3027420045000002,-0.9199548365,7.202505350500001,-9.098801853,34.005346295,3.8685679435000004
747,6.224751000000197,-7.5136735434999995,18.95878029,-117.73960115,-2.2850768565,1.6396283804999998,-1.1628418715,-1.748743534,25.448631285,-1.5938773150000003
748,6.233084000000417,-7.5113270285,19.187617305,-117.7569771,2.0455327035,-0.6321127415,4.0527898075,0.88984558,26.89425278,1.2543993000000002
749,6.241417000000183,-7.481167555,19.313651085,-117.73671725,-2.5360596175,-0.3902617100000001,7.753466845,2.711888194,14.150013444999999,3.773818972
750,6.249750000000404,-7.427805900499999,19.50569916,-117.771286,0.7365126625,0.2982182725,6.769329071,7.728581189,22.7809,-1.276988985
751,6.25808300000017,-7.3263130185000005,19.56570816,-117.7382126,-1.5206637384999997,-0.16417837100000005,0.683350086,10.734345676,6.106607914,4.154836177999999
752,6.26641600000039,-7.213017464,19.66097641,-117.77728275000001,0.5910329820000007,0.895834789,5.9979257585,15.125072,11.328349588,-3.3280911445
753,6.274749000000156,-7.0346930025,19.609075545,-117.7341003,-1.0981783864999999,-0.903320238,5.6096217635,19.53605223,-7.3508541585,3.5920944209999996
754,6.283082000000377,-6.8618221285,19.581964495,-117.75878905,1.5425858504999996,0.19098216299999993,5.9454156745,21.727482795,-3.442154647,-3.6005229935
755,6.291415000000143,-6.6520354745,19.49565792,-117.71855165,-2.942421675,-1.043388188,8.0811605475,23.43109894,-11.391592501,2.8150632370000004
756,6.299748000000363,-6.4358708855,19.35590744,-117.73257065,1.0363020895000004,-0.12967760849999999,9.540980340499999,26.463794704999998,-17.03590155,-3.893207072
757,6.308081000000129,-6.178847313,19.125477789999998,-117.66674805,-2.2039024830000002,-1.5465295614999999,4.1769640145,28.11927223,-28.874126435,3.8978196384999997
758,6.31641400000035,-5.9239501955,18.98821259,-117.69293975,0.7680530549999998,0.5322150290000001,7.848355532,31.58812046,-16.622884991,-5.100532294000001
759,6.324747000000116,-5.6894559860000005,18.653203965000003,-117.6120415,-4.050177096,-2.4380940495,7.108877658500001,24.8923378,-41.49599457,4.5914838015
760,6.333080000000336,-5.4397194385,18.488215445,-117.6499977,1.9436500070000002,-0.41073718700000006,12.35182619,31.36394024,-19.846706870000002,-6.6134114265
761,6.341413000000102,-5.2027628425,18.09304142,-117.55273435,-5.903512656999999,-2.4086848495,3.0821591615,24.68524361,-48.80962944,6.1579673295
762,6.349746000000323,-4.97966671,17.97478676,-117.5926628,0.25588285899999996,0.0835241075,8.6394176505,28.154144285,-14.295369149999999,-6.2000985150000005
763,6.358079000000089,-4.774829626,17.535176274999998,-117.50247955,-3.3296287060000003,-2.7729223965000003,12.21694136,21.23347664,-54.00031471,5.3241828085
