,time,Euler_X,Euler_Y,Euler_Z,Acc_X,Acc_Y,Acc_Z,Gyr_X,Gyr_Y,Gyr_Z
0,0.0,0.15668970349999997,24.368056295000002,-133.22665405,-1.9028881195,0.4316240545,10.8008794795,45.867650985,-3.4408714474999997,12.6544847505
1,0.0041664999999966,0.663185783,24.130592345,-133.0821991,-1.100552112,0.327394113,9.9087872515,54.008062365,-28.991073605,15.638941765
2,0.00833299999999325,1.1758531035000002,24.06893921,-132.93877795,-3.5238972305,0.48772503850000004,10.308192372499999,54.828170775000004,-7.9233045575,15.513795374999999
3,0.01249949999998985,1.745464444,23.87264538,-132.79246519999998,-0.34055659149999995,0.25635061400000003,9.223569394,61.571367265000006,-23.743054389999998,16.23244715
4,0.0166659999999865,2.344222307,23.735718724999998,-132.6403313,-3.3203816415,0.044058025,9.525759220000001,64.822957995,-16.5252409,16.974487305
5,0.02083249999998315,3.0313557385000003,23.61917114,-132.47865675,-2.0966535805,2.106079817,11.259777544999999,74.991531375,-13.8254322985,17.98193264
6,0.02499899999997975,3.718676567,23.42203808,-132.32754135,-2.450410485,-0.8022558985,8.4841599465,75.57283401500001,-23.40800095,17.63820791
7,0.0291654999999764,4.461706519,23.364284515,-132.16119765,-2.5770868065,0.2086764875,8.8943889145,81.5783844,-6.2180578705,18.354710575
8,0.03333199999997305,5.245108366,23.186959265,-132.0113449,-1.52479887,1.2565324305,10.573709486,87.213233945,-20.59991169,17.840752605
9,0.03749849999996965,6.061377764,23.12311554,-131.83891675,-3.7637902495,-0.9034177365,9.660207747,90.153381345,-6.3651344775,19.316825870000002
10,0.0416649999999663,6.919756174000001,22.989009855,-131.69519044999998,-0.9512313455,-0.1784679855,9.15725374,96.60677336,-14.878923890000001,17.19690657
11,0.0458314999999629,7.782970667000001,22.90221596,-131.5301895,-2.922277808,0.9348681864999999,10.304752113,96.16053392,-8.7271518705,19.023584364999998
12,0.04999799999995955,8.684592724,22.808949475,-131.3861008,-0.9244433489999999,-1.2351932825,9.2176098845,101.7798729,-9.596567153999999,17.02865887
13,0.0541644999999562,9.586510184,22.67577744,-131.23345185,-2.9629658465,-0.29424211349999996,11.515796662500001,101.48546985,-13.71630907,18.82168484
14,0.0583309999999528,10.499613762500001,22.603399279999998,-131.09589005,-1.7696144280000001,0.16963902100000006,8.6086769105,103.51598355,-6.6917583955,16.226965905
15,0.06249749999994945,11.41100407,22.449203490000002,-130.95565035,-2.189966798,-1.8627534510000001,11.79468155,103.2804718,-15.808621885,18.347288135
16,0.0666639999999461,12.3333416,22.35807037,-130.82921985,-1.916910261,-0.08908237549999999,9.3006663315,105.18757629999999,-8.560335995500001,15.70792055
17,0.0708304999999427,13.217558385,22.22114277,-130.70321275,-2.681516647,-1.9515730740000001,12.9257822,100.71161269999999,-13.61409378,16.84181118
18,0.07499699999993935,14.104701519999999,22.100340844999998,-130.58723065,-2.8696223495,-1.7269344924999999,9.219621182000001,101.44924926,-11.8905432235,15.680467605
19,0.079163499999936,14.974320415,22.00092602,-130.4697151,-2.0071335435,-0.7552343754999999,13.238041875,99.469303155,-8.83657253,15.15322304
20,0.0833299999999326,15.802976135000002,21.840740205,-130.38199235000002,-1.441743851,-2.4319523575,9.421421528,95.724838245,-16.8217206,14.201312065
21,0.08749649999992926,16.610225205,21.75521755,-130.27833175,-3.56857717,-2.330873489,11.6432745435,92.6411705,-7.212206602,13.5349884
22,0.09166299999992585,17.356214525,21.600087170000002,-130.1992874,-0.0899330975,-1.4314270615,11.952565193,86.32116317500001,-15.979414940000002,13.457628249999999
23,0.0958294999999225,18.06046295,21.47589588,-130.1383667,-3.452748537,-3.283565044,6.854271173500001,82.156032565,-12.8012259,10.682534695000001
24,0.09999599999991915,18.75159454,21.362798689999998,-130.0513916,-0.5334092975,-1.6601940394999999,17.090117454999998,79.40703583,-10.646490096,13.069941525
25,0.10416249999991575,19.359287265,21.21075821,-130.01075745,-2.60097,-2.1957410575000003,5.188607931,71.539575575,-16.33540535,9.8857779505
26,0.1083289999999124,19.93325043,21.089820860000003,-129.94766620000001,-0.9056882039999999,-2.5857611895,12.178688528,66.394382475,-12.12735796,11.1488046645
27,0.11249549999990904,20.458668709999998,20.96945953,-129.9133835,-2.7062023285,-2.069920957,15.207784175,61.99321365,-12.80283403,8.169262171
28,0.11666199999990565,20.899122239999997,20.814578060000002,-129.8662224,-1.3590674695,-2.505186677,4.0101925135,51.155939105,-16.23646021,11.11279583
29,0.1208284999999023,21.284019469999997,20.678479195,-129.86826705,-2.207161546,-4.3559441565,13.08947849,46.59446907,-16.001714707,5.282673359
30,0.1249949999998989,21.625489235,20.52658081,-129.83677674999998,-0.5883120559999999,-1.4790286125,12.756310464999999,39.92806625,-16.479943275,9.5703246605
31,0.12916149999989554,21.85512924,20.366188049999998,-129.85467524999999,-3.0078999995,-3.1179664135,5.497189045,28.670382500000002,-19.202904225,4.8283097745
32,0.1333279999998922,22.050649645,20.203208925,-129.8578377,-1.5853687525,-3.007453203,15.274734495,23.87797165,-19.072626115,6.6012239455
33,0.1374945000000025,22.198967935,20.072004319999998,-129.87962725,-2.598446548,-1.5073945525,14.16606903,19.1341807825,-16.07160759,3.2489836215
34,0.14166099999999915,22.26113987,19.906518935,-129.88865665,-1.359806925,-2.1622548105,6.5164306165,8.222872854,-19.45656967,6.1892089845000005
35,0.14582749999999575,22.298303605,19.76700401,-129.92071535,-2.6902042625,-2.5754788514999998,13.226208685,6.109446285500001,-17.53263712,2.5781059859999997
36,0.1499939999999924,22.322834970000002,19.63362885,-129.92288205,-1.2381021755000001,-1.0439110995,12.43598175,3.424781084,-15.699067833,5.5602052215
37,0.15416049999998904,22.25667572,19.486958505,-129.9503517,-1.8815962075000001,-2.080653131,5.927630186,-6.3970559840000005,-18.017539980000002,3.371237755
38,0.15832699999998565,22.178743365,19.408131599999997,-129.94634250000001,-3.202788353,-1.680362433,14.25879574,-9.1574695095,-9.39387512,3.6657502055
39,0.1624934999999823,22.071443555000002,19.27961826,-129.96136855,-1.5211493075,-1.06539467,11.615149495499999,-11.8102090345,-15.459431645,3.8687309025
40,0.1666599999999789,21.932818415,19.206318855,-129.95003125,-4.0138429405,-1.8641680475000002,10.649024488,-16.656152249,-8.3752691745,4.11325109
41,0.17082649999997554,21.75848484,19.18248844,-129.93154525,-1.2256052495,-0.6354970035,12.169002055,-21.266109945,-2.510936856,2.668977976
42,0.1749929999999722,21.55764961,19.042400360000002,-129.95158005000002,-2.2030097245,-1.8286808135000001,7.3759269715,-23.003135684999997,-17.271646500000003,3.7091425655
43,0.1791594999999688,21.346541405,19.07061386,-129.9186325,-2.1891045719999997,-1.6029130820000002,10.147305487,-26.159239765000002,3.99283278,1.838321209
44,0.18332599999996546,21.06435013,18.91815758,-129.9650383,0.03853368750000008,-1.1974639,10.078955173,-31.72742653,-19.773373605000003,1.3462413475000001
45,0.1874924999999621,20.768867489999998,18.931682585,-129.9357109,-2.9235002100000003,-1.030189797,6.5858786105,-36.13820267,2.1827577949999997,2.1000300645
46,0.1916589999999587,20.481529235,18.79175472,-129.9899254,-0.6310026049999999,-0.3544374035,12.8252766125,-31.95778179,-18.57763004,-0.21916198750000004
47,0.19582549999995535,20.210334775,18.764261245,-129.98075484999998,-2.635836482,-0.301445268,9.921913387,-32.52987194,-3.3684350255,1.7077026665000001
48,0.19999199999995196,19.901094435,18.689166065000002,-130.004097,-1.7242368165000002,0.6983005255,12.088864328500001,-35.883607865,-10.1973657595,0.22462433599999998
49,0.2041584999999486,19.59778309,18.60744667,-130.02252959999998,-1.469045028,-0.5463259965,8.268623590499999,-35.191482539999996,-10.4671988495,0.9359070359999999
50,0.20832499999994525,19.35542393,18.531630515,-130.0485992,-2.6836783884999997,0.09402743350000001,13.85951376,-27.7464571,-10.3758938305,-0.0691586435
51,0.21249149999994185,19.09234047,18.43845272,-130.05245589999998,-0.9338790175000001,-0.0572061985,9.184210777,-30.900996205,-11.2568447585,2.833007455
52,0.2166579999999385,18.826220515,18.370812415,-130.09428785,-3.5879267455,-0.18356046050000002,8.938310623,-29.906202315,-9.8941792275,-2.1539477705
53,0.22082449999993514,18.576008795,18.274291995,-130.1056671,-0.6907208265,-0.5951919855,11.62926316,-29.225291249999998,-12.040916204999998,2.004891932
54,0.22499099999993175,18.355892179999998,18.205756185,-130.15105054999998,-3.309905052,-0.0148227065,9.4009020345,-24.423215865,-10.201925756000001,-2.6087668385
55,0.2291574999999284,18.114888190000002,18.13191414,-130.19146725000002,-1.2994674145,0.6394366025,12.000929355,-26.921247485000002,-10.377731084499999,-2.067249596
56,0.233323999999925,17.881562235,18.044659615,-130.25832365,-2.571448773,-0.6100201905,9.121339321499999,-25.29675579,-13.063518525,-4.4565210045
57,0.23749049999992164,17.69074631,17.954141615,-130.33266450000002,-1.015480876,0.825276628,12.168611525,-19.605754855,-13.450945855,-5.1096006635
58,0.2416569999999183,17.512576105,17.87451458,-130.4156456,-3.0562041399999997,0.37380477,12.853423594999999,-17.94743776,-12.626140117000002,-6.5813059805
59,0.2458234999999149,17.33750534,17.761884690000002,-130.50961685,-1.3191043305,0.7718275485,9.318040849500001,-17.122350215,-16.773931505,-6.5815873145
60,0.24998999999991156,17.150401115,17.640295025,-130.61949925,-0.6123292445000001,-1.002885681,8.634061097,-18.15039253,-18.446621895,-8.0300741195
61,0.2541564999999082,17.01200962,17.537198065,-130.70842745,-2.5012592675,-1.0653065445,9.886352778,-12.80358124,-15.367516994999999,-6.500965476
62,0.2583229999999048,16.903368,17.413154605,-130.81723025,-1.9729624984999998,1.2974089979999999,9.308666706,-8.8152520665,-18.667503359999998,-7.9462754725
63,0.26248949999990145,16.790828705000003,17.258725165,-130.90448,-2.3099324704999997,0.9151763319999999,12.717491865,-9.750211239,-21.17711067,-4.5027353765
64,0.2666559999998981,16.669252395,17.200297355,-130.9610748,-3.26736933,-0.11092258950000003,9.8321738245,-12.118013385000001,-9.2501797675,-4.5129282475
65,0.2708224999998947,16.582232474999998,17.10069084,-131.03201295,-1.9735596775,-0.320291236,7.0728894455,-7.4481019975,-14.445119383000002,-4.702268839
66,0.27498899999989135,16.530092240000002,17.059729575,-131.06690595,-3.586697131,-1.3309796155,7.5045967105,-4.7087103725,-6.6414660085,-2.747761011
67,0.27915550000000167,16.45320511,17.022818565,-131.12400055,-3.0630402265,-0.0671270195,10.361578462499999,-6.6085441110000005,-6.632961452,-5.3210570815
68,0.2833219999999983,16.382483005,17.08915901,-131.1177673,-6.127242326999999,0.8134300265000001,13.537947655,-8.3457798955,7.0395383835,-1.8163380025
69,0.28748849999999493,16.279461385,17.173908235,-131.12999725,-1.383974746,-0.484667599,7.275860548000001,-11.328290464999998,8.8434086435,-4.4881980420000005
70,0.29165499999999156,16.202106475,17.293240545000003,-131.09475709999998,-3.1709887385,-0.8242649735,4.441386938,-10.0569422235,14.2068607815,-0.39251230649999996
71,0.2958214999999882,16.130355835,17.483548159999998,-131.06451035,-2.9065572619999998,-1.0439888314999999,10.8361735365,-9.241604090500001,22.24630785,-3.320356369
72,0.2999879999999848,16.080873484999998,17.696743965,-131.00883485,-4.894872427,-0.7342026235,7.789784429499999,-7.6145985125,25.524386405,-1.2723737954999998
73,0.30415449999998145,16.03850174,17.93445587,-130.9250374,-0.501992106,0.976780236,0.5585157875,-7.5770869255,29.52914524,0.950359285
74,0.3083209999999781,15.996098045,18.167090415,-130.87925719999998,-2.5757945775,0.08537733550000004,9.8898119915,-6.4830636975,27.468474385,-3.0615885855
75,0.3124874999999747,15.97680187,18.401371955000002,-130.76961135,-1.8385140599999998,-0.678875387,12.471303939999999,-5.859536647500001,29.932824135,3.910778403
76,0.31665399999997135,15.92628384,18.61912537,-130.72828675,-2.5083916185,0.0608451365,5.349107265500001,-7.208728075,25.74298954,-3.0795311925
77,0.320820499999968,15.905382630000002,18.80535698,-130.64084245,0.6845837835,-0.364100093,7.504909754,-5.4568651915,23.56478405,3.0130488875
78,0.3249869999999646,15.91337252,18.94185543,-130.60936355,-2.696839094,-1.751055181,10.254155155,0.011430203999999944,15.944889064999998,-1.4579430815
79,0.32915349999996124,15.919764515,19.062896725,-130.567276,-1.050865024,1.4771608710000002,7.288649439499999,-0.31079056850000003,14.745768785500001,0.19525727599999998
80,0.33331999999995787,15.919749735,19.147500035,-130.56010435000002,-1.554132283,-0.41331338900000003,6.787996292000001,-0.03267133200000005,9.196646275500001,-2.437610807
81,0.3374864999999545,15.932420255,19.164218905,-130.54945755,-0.15985947850000004,0.2344092575,12.922851565,1.6742485765000001,1.7267842284999997,0.20411971199999995
82,0.34165299999995113,15.950870039999998,19.16790676,-130.58393095,-2.288770169,-0.7209050505,6.4771306515,3.9605054854999997,-1.3118712915000006,-4.3002012965
83,0.34581949999994777,15.99268627,19.096552844999998,-130.60708234999998,-0.8328811079999999,0.30310077350000003,11.439576625,6.3742890355,-9.612454891999999,-0.5609898865
84,0.3499859999999444,16.02580309,19.03676033,-130.66205595,-2.7510141135,-0.8817392290000001,9.014223815000001,6.4930946825,-9.2796626675,-4.4483998415
85,0.35415249999994103,16.072135924999998,18.905184745,-130.71170805,-1.150188325,0.04355260750000001,9.141971109,7.966625452000001,-17.38981247,-1.429312855
86,0.35831899999993766,16.098824025,18.775465015,-130.78785325,-2.190297127,-0.9415309430000001,9.767644883500001,6.377760887,-18.145752429999998,-4.4243291615
87,0.3624854999999343,16.15616894,18.586470605,-130.8610764,-0.9559130069999999,0.4942076355,10.662084102,10.331974504,-24.625340465,-2.0423587115
88,0.3666519999999309,16.172457695,18.404262545,-130.9519539,-3.3665361405,-1.5547150374999998,11.3924284,5.6435297725,-24.67141056,-4.2609500885
89,0.37081849999992755,16.210690495,18.19144344,-131.03435135,-1.398537159,-0.6368290485,7.893470526,8.3488306985,-27.668252945,-2.228235096
90,0.3749849999999242,16.21985054,18.000927925,-131.13510895,-2.967175484,-0.184362918,12.279096605,5.2688709495,-25.819430349999998,-5.0197731255
91,0.3791514999999208,16.24715042,17.784890175,-131.22194675,-2.3420194385,-1.2132766245,7.702618836999999,6.977227567,-28.320918085000002,-2.62083143
92,0.38331799999991745,16.24151182,17.585071565,-131.31436155,-3.4229688645,-1.0503581765,11.5148024575,2.9525098205,-26.764326095,-3.822113752
93,0.3874844999999141,16.21536589,17.418791775000003,-131.3972435,-2.6583378315,-0.40009333950000003,9.886725424,0.5556137565000001,-22.34253645,-3.818899691
94,0.3916509999999107,16.176000119999998,17.251044274999998,-131.48731229999999,-3.4887530799999995,-0.662868902,9.89727926,-1.249487877,-22.984132765,-4.655382513999999
95,0.39581749999990734,16.141674995,17.11598873,-131.5551643,-3.7898811099999996,-1.1856942475,11.288433553499999,-1.0330984589999999,-18.27249098,-3.2671803535
96,0.39998399999990397,16.093101025,17.019914630000002,-131.62366485,-3.1216040850000004,-0.109765172,10.5716319075,-2.9507852199999998,-13.909169198499999,-4.633430064
97,0.4041504999999006,16.00900745,16.948872565000002,-131.6865692,-4.2649598125,-0.26081261,10.9123883225,-7.384949684,-10.859701396,-4.9126894475
98,0.40831699999989723,15.954681394999998,16.88616276,-131.72995375,-3.834266305,-1.121163368,10.925820349999999,-4.6987715365,-9.3902633195,-3.0366512534999996
99,0.41248349999989387,15.878592015,16.895009995000002,-131.76382825000002,-2.805250764,-0.471846193,11.367279525,-7.258453131,-0.606584072,-4.3045172095
100,0.4166499999998905,15.791303159999998,16.902835845,-131.79322815,-3.773673892,0.16766098100000001,9.8432507535,-9.161194564,-0.8009697194999998,-3.8560377955000003
101,0.4208165000000008,15.715200424999999,16.905444145,-131.80614855,-3.4640376570000004,-1.7075647114999999,8.701568367,-8.013190984,-0.6689414979999997,-1.8011547325
102,0.42498299999999745,15.616295815,16.95876408,-131.81596754999998,-1.218908012,-0.3858053535,10.243883607999999,-11.061424731,5.1841038445,-3.1188216205
103,0.4291494999999941,15.50931692,17.034842495,-131.82686615,-4.315369725,-0.526965171,10.243461369,-11.984421729000001,7.779370546,-4.0002458095
104,0.4333159999999907,15.40370083,17.090200425,-131.80221939999998,-2.82096982,-0.9310930965,9.4575386045,-13.250842097,6.371842979999999,0.6016270515000001
105,0.43748249999998734,15.29866648,17.203651425,-131.8087082,-2.667574048,0.274356253,9.734980583,-11.73273945,12.358418224,-4.594189763
106,0.44164899999998397,15.19571018,17.348718644999998,-131.77635575,-2.423658073,-0.41495150349999993,9.7820911425,-13.226466655,16.98543358,-1.3904757055
107,0.4458154999999806,15.071816445,17.42251873,-131.76199725,-2.308821529,-1.0345574615,6.164877176,-14.78182554,8.409334659999999,-1.043972343
108,0.44998199999997723,14.908437249999999,17.529364585,-131.7644043,-0.707709491,-0.8407219054999999,10.530790568,-19.06966448,11.622694015,-3.9403288365
109,0.4541484999999738,14.75513792,17.64943504,-131.75090405,-3.9539698365000002,-0.26215456449999996,12.085692885,-18.451241015,13.648352625000001,-2.5571279525
110,0.4583149999999705,14.618017675,17.738743784999997,-131.72879410000002,-2.762699962,-0.3377993365,9.780931472,-16.96999359,10.210778,-0.6819472314999999
111,0.4624814999999672,14.44609213,17.83145046,-131.73950195,-1.8476507665,-0.574289225,8.0406155585,-19.644699095,9.875681878999998,-4.3089118005
112,0.4666479999999638,14.26659346,17.94213867,-131.72364805,-0.8649603725,-0.2514155625,9.3997864725,-21.847064975000002,12.532007694499999,-1.9549243155
113,0.4708144999999604,14.04783344,18.002758025,-131.74687575,-3.967471242,-2.035234332,10.957246305,-24.84771252,5.8236684195,-4.770379305
114,0.474980999999957,13.83273172,18.047928810000002,-131.77169035,-0.919852391,-0.2787332685,10.779643060000001,-24.455979345,3.8844075205,-4.4042870999999995
115,0.4791474999999536,13.61360407,18.13599873,-131.8047943,-2.9863244890000002,-0.39058955,9.703511715000001,-24.66984463,8.7060847295,-6.5828044415
116,0.4833139999999503,13.37017393,18.15690136,-131.8284531,-0.46751511100000004,-0.454277128,4.6496515275,-28.059132575,1.019740343,-3.6883313655
117,0.4874804999999469,13.093335154999998,18.143654820000002,-131.9194069,-1.384032726,-1.5539255145,7.8600723745000005,-29.29423618,-4.4933428765,-10.097986460000001
118,0.4916469999999436,12.781421185,18.122647285,-131.98869324999998,-1.799909216,-0.022377893499999996,13.677020074999998,-34.57543755,-5.0022552605,-7.572031497999999
119,0.4958134999999402,12.429284095,18.126329425,-132.08139035,-4.395893097,-1.9444525835,9.210740088,-38.282642365,-2.436998278,-10.7345788485
120,0.4999799999999368,12.03354502,18.08484459,-132.19483184999999,-0.9858898519999999,-0.9925323725,8.86597538,-42.853815075,-8.296550035500001,-11.963837625
121,0.5041464999999334,11.58827305,18.062252995,-132.32230375,-2.514109254,-2.4246075155,8.7660307885,-48.341173170000005,-6.2602863929999994,-14.153023243
122,0.50831299999993,11.1003093715,18.014575005,-132.44815065,-1.9547210929999999,-0.6506301615000001,13.66808653,-53.58119965,-9.2192328,-13.268476485
123,0.5124794999999267,10.519502639999999,17.968580245,-132.61146925,-3.682668328,-2.7196023465000003,10.2324574,-63.14226532000001,-9.5049026,-17.70815945
124,0.5166459999999234,9.934319494,17.923094749999997,-132.7495041,-1.94145149,-1.3565834165,4.839529991,-64.80914116,-8.984056949500001,-14.921869755
125,0.52081249999992,9.275147917,17.81074047,-132.9207191,0.07573577749999999,-0.79881864,9.180395602499999,-72.31441689,-17.141924379000002,-17.57611799
126,0.5249789999999166,8.582576273,17.72222614,-133.08713914999998,-4.0673029425,-2.0605776905,11.761382105000001,-76.56736755,-14.20015335,-17.389697075
127,0.5291454999999132,7.826775551000001,17.599723815,-133.2514572,-2.270285845,-1.4146661759999999,11.6242890345,-84.333766935,-17.914358614999998,-16.98670435
128,0.5333119999999097,7.0409400465,17.47327328,-133.4266167,-1.343116671,-1.23321712,5.170517445,-87.652622225,-18.472187045,-18.379865645
129,0.5374784999999065,6.230659485,17.288160325,-133.60331345,-1.3182109295,-0.2827652995,12.54793549,-90.43120956,-24.979065900000002,-18.01348257
130,0.5416449999999031,5.359399557,17.131639479999997,-133.7669296,-3.9783016445,-2.4298746585,13.092869279999999,-98.384552005,-21.47500229,-17.173751355
131,0.5458114999998998,4.488484740500001,16.920386790000002,-133.94738385,-1.5778566595,-0.3861680385,5.9743340015,-97.667854335,-27.662395475,-18.781270980000002
132,0.5499779999998964,3.5562978985,16.71769571,-134.1160011,-1.0899024905,-0.7143451275,7.890688181,-105.58340072499999,-26.40048599,-18.216365815000003
133,0.554144499999893,2.6050028205,16.470694545,-134.2782898,-2.8518080715,-1.580144256,11.217957974,-108.21374510999999,-31.279643059999998,-17.274306295
134,0.5583110000000034,1.617102727,16.251276015,-134.4467392,-3.36878109,-0.8251007795,11.919982430000001,-112.5053177,-27.89699745,-18.664889334999998
135,0.5624775,0.6191368105000001,16.026078225,-134.61111069999998,-2.837549865,-0.298558861,10.4528603575,-113.8042488,-28.00389767,-18.754971505
136,0.5666439999999966,-0.394321084,15.79662037,-134.7650032,-1.7766792175,-1.1627759334999999,5.0990924835,-116.21542355,-28.4286108,-17.967663764999998
137,0.5708104999999932,-1.4610274135,15.572104929999998,-134.93050004999998,-2.9720573425,-0.8896106184999999,13.021344185,-122.1859169,-27.23031616,-19.82252884
138,0.5749769999999897,-2.51249972,15.36730146,-135.0894508,-4.4378443955,-0.276797801,13.955257893999999,-120.64707185,-24.762701985,-19.444295885000002
139,0.5791434999999865,-3.5872102975,15.150580885,-135.2326889,-0.985124707,-0.04705145999999999,5.392576694500001,-124.088089,-25.764990805,-18.14625454
140,0.5833099999999831,-4.7161705495,14.96941185,-135.39060975,-2.2775672675,-0.9362610725,5.8477463735,-130.21134949999998,-21.235717774999998,-20.213205334999998
141,0.5874764999999798,-5.81033957,14.74336195,-135.5306473,-3.0779249665000004,-0.6739061475000001,12.92876244,-126.54909515,-26.148397445,-19.027187345
142,0.5916429999999764,-6.926041125999999,14.518031595,-135.6738167,-3.1381886005000004,0.295283213,13.201784609,-129.2071953,-25.931530000000002,-19.63791466
143,0.595809499999973,-8.082800865,14.339158535,-135.8076553,-2.1080245975,0.579159975,7.6083433629999995,-134.2795944,-19.880309105000002,-18.776395800000003
144,0.5999759999999696,-9.2041244495,14.16281891,-135.94076155,-2.2565550205,-0.859157026,7.4108928435,-130.20456695000001,-19.4251318,-18.94817448
145,0.6041424999999663,-10.290719511,13.89392662,-136.0380554,-2.4294064045,0.543106735,14.59254074,-127.0711365,-30.63899517,-17.328160285000003
146,0.6083089999999629,-11.4204864495,13.684206490000001,-136.15799715,-2.667899787,1.272143692,11.547014711500001,-131.8015213,-22.978199005,-18.77326202
147,0.6124754999999595,-12.54016113,13.504205225,-136.2491455,-2.133957446,-0.5208312275,6.3704152105,-131.24095535,-19.610533715,-15.62722969
148,0.6166419999999562,-13.58297634,13.248138430000001,-136.33139799999998,-0.8941264155,0.8506413735,7.9969043735,-122.51221085,-28.59291744,-16.872535705
149,0.6208084999999528,-14.605368135,12.936809539999999,-136.3981819,-2.131781787,1.8256333470000001,10.701377155,-120.3598404,-34.965351104999996,-17.37436199
150,0.6249749999999494,-15.65113449,12.617779255,-136.4412384,-0.8329691965,0.576790839,10.710490705,-123.97579195,-36.39165306,-15.25590372
151,0.629141499999946,-16.665524485,12.340010165,-136.51361845,-3.168859005,0.24694664400000002,12.253332135,-119.43428420000001,-30.3845377,-17.95597172
152,0.6333079999999427,-17.60227013,12.033712865,-136.5656052,-2.87678051,1.3481062055,11.726474285,-110.7678032,-34.12088394,-17.1508379
153,0.6374744999999394,-18.520503995,11.67699337,-136.5934067,-2.9445670845,1.1575053935,11.851451399,-109.02923965,-40.40792465,-16.87069416
154,0.641640999999936,-19.472325325,11.349332335,-136.6337395,-0.24258342400000005,1.354283184,11.718235015000001,-112.9301262,-36.466432575,-17.63082886
155,0.6458074999999326,-20.3867712,11.017313956,-136.67196275,-2.8260828255000003,-0.787331149,10.534806728,-108.4249077,-36.702487945,-18.092004775
156,0.6499739999999292,-21.19866085,10.674689291,-136.67683795,-2.937333703,0.7768847345000001,8.411976097,-96.940586115,-39.038816455,-15.45270014
157,0.6541404999999259,-21.965653420000002,10.3241872785,-136.69149779999998,-2.5369741914999997,2.765486598,11.145945547,-91.37970351999999,-39.34290886,-17.210866925
158,0.6583069999999225,-22.741433145000002,9.994072435,-136.67609785,-1.762165785,2.5693740845,10.058777333,-93.06592559500001,-38.19393539,-13.775203229999999
159,0.6624734999999191,-23.47896862,9.6980514535,-136.68383790000001,-2.5510573384999997,1.1472949684999998,11.988963125000001,-87.97240066500001,-33.16048241,-14.920908449999999
160,0.6666399999999159,-24.114301685,9.403807642,-136.64665985,-2.35715884,1.574743867,12.145168782999999,-76.609779355,-34.99360466,-10.551812887
161,0.6708064999999124,-24.665777204999998,9.111603258999999,-136.62173845,-2.8391172885,2.2496547099999997,7.4001116755,-66.31581496999999,-34.015156745,-11.865388395
162,0.674972999999909,-25.15214539,8.836067438,-136.5719223,-2.3006218075,1.8547799585,9.117508888,-58.914037705,-33.340037345,-8.8474113925
163,0.6791394999999056,-25.617378235,8.6005918975,-136.53326035,-3.291507244,1.948812008,10.837700845,-56.29118347,-28.366683959999996,-7.975322246499999
164,0.6833059999999022,-26.01868248,8.3609337805,-136.498558,-2.6218692065,1.0778583285,10.365520956000001,-48.43777657,-28.526346205000003,-9.169805290500001
165,0.6874724999998989,-26.339208605,8.1567919255,-136.4508209,-3.3441185950000003,2.0509160755,13.760883804999999,-39.043251035,-25.344713210000002,-5.6805624965
166,0.6916389999998955,-26.609783175,7.976765155500001,-136.44120405,-2.659886241,1.136172384,7.787472963000001,-32.343574525,-20.658317565,-8.922738075
167,0.6958054999998922,-26.82106781,7.790440798,-136.39796065000002,-1.499903709,1.54602021,9.315762519,-25.793552395,-23.128474235,-5.5361061095
168,0.6999720000000025,-26.98874378,7.642779112,-136.4198303,-3.429493427,0.9073725045000001,10.5987863535,-19.47228384,-15.39277649,-10.6629371635
169,0.7041384999999991,-27.123400689999997,7.5208911895,-136.40013885000002,-2.4124723675,1.3259117905,8.755758762500001,-16.199341295,-15.02140522,-4.614310741500001
170,0.7083049999999959,-27.20856476,7.384840965,-136.42798994999998,-2.5372833015,1.3838763535,9.0763692855,-9.5146876565,-13.793509005,-10.763278962000001
171,0.7124714999999924,-27.23178482,7.288567305,-136.4325676,-2.6041242479999998,0.537106842,8.1682043075,-2.4206739665,-10.9638881695,-5.77215004
172,0.716637999999989,-27.25424576,7.2201478485,-136.4584274,-2.9399121999999998,0.8754495980000001,11.261896609,-2.029070258,-6.675536871,-6.85734725
173,0.7208044999999856,-27.283447265,7.137237072,-136.4996529,-3.367211223,0.5092510465000001,11.80836296,-2.573238477,-7.5320911409999995,-8.9591879845
174,0.7249709999999822,-27.280393605,7.083362341000001,-136.50465395,-1.758899629,0.3337253705,12.164416315,0.7336557205,-6.2433998585,-3.852874279
175,0.7291374999999789,-27.270409585,7.050373316,-136.5637512,-3.1515489815,-0.587505199,10.923620699,2.353801496,-1.2486816045,-8.1083221445
176,0.7333039999999755,-27.23657513,6.989948033999999,-136.5792961,-1.2901898025,0.2713177055,7.7638413905,4.576156259,-6.382215738,-5.348169327
177,0.7374704999999722,-27.19853115,6.905944347,-136.59038925000002,-3.4999290705,-0.362911828,10.473726275,5.0092556475,-9.304545881,-5.8038864135
178,0.7416369999999688,-27.194755555,6.86681819,-136.61737440000002,-0.18470424450000006,0.36322632450000003,11.02958584,1.1224929095,-3.4945827124999997,-5.371337533
179,0.7458034999999654,-27.206123355,6.8198342325,-136.6734886,-4.673836112,-1.609402239,9.58795738,-0.28402340400000015,-2.8939667339999997,-8.560962677
180,0.749969999999962,-27.19193363,6.766256332499999,-136.67184444999998,-1.764425516,-0.328161776,11.2607130985,1.9926336404999998,-6.588398695,-3.142156243
181,0.7541364999999587,-27.197575565,6.7087516785000005,-136.72901915,-2.291759849,-0.070730239,9.151519775499999,0.3872108459999999,-3.956433058,-9.279647350000001
182,0.7583029999999553,-27.23884869,6.667804718,-136.7534714,-1.388525784,-0.412068322,8.9289836885,-4.2990100385000005,-3.8326006535,-5.230113268
183,0.762469499999952,-27.270944595,6.579409838,-136.77147675,-2.67881906,-1.664094448,9.212243797,-3.321686562,-9.3779430385,-6.832232952
184,0.7666359999999486,-27.313391685,6.5063426495000005,-136.7835274,-0.23237165800000004,0.3152307925,10.2595195775,-4.6302335784999995,-7.9406120785,-5.6472663875
185,0.7708024999999452,-27.380176545,6.4218983650000006,-136.81253049999998,-3.302820623,-0.6287918834999999,10.0665559755,-7.350369215,-8.3109807965,-7.846465826
186,0.7749689999999418,-27.438345910000002,6.3360693455,-136.79385374999998,-2.0521372555,-0.5374958814999999,10.303672316,-6.896961092,-10.9697537405,-3.1475098729999997
187,0.7791354999999385,-27.506979945,6.257382869500001,-136.82524875000001,-3.166515827,-0.34555727799999997,11.951342104999998,-7.586727142,-7.555438516000001,-7.764912367
188,0.7833019999999351,-27.576594355,6.1780259609999995,-136.81769945,-1.716149271,0.364667952,11.074189185,-8.091531515,-9.6743133045,-4.035964846500001
189,0.7874684999999318,-27.649166105,6.052014589500001,-136.79955669999998,-3.2417770624999998,-1.068609178,10.870813845,-8.682915448,-15.271667005000001,-5.25344944
190,0.7916349999999284,-27.739266399999998,5.970941782000001,-136.78824995,-0.639931351,-0.6135572195,11.76593828,-10.614982126,-10.0738296505,-3.692292273
191,0.795801499999925,-27.828289985,5.841175556,-136.778553,-3.338570118,-1.0675895364999999,10.42261982,-10.517112256499999,-15.193390372,-6.438082695
192,0.7999679999999216,-27.895413400000002,5.705562115,-136.71255875,-2.37317884,0.314134218,10.412523271000001,-8.5153200645,-18.890331265,-1.0018882750000002
193,0.8041344999999182,-27.968822475000003,5.590564728,-136.69695665,-1.669106007,-0.728065148,10.369776727000001,-8.750279903500001,-13.94544935,-4.971897006
194,0.8083009999999149,-28.02642727,5.4900350575,-136.66326525,-3.4248206615,0.1419147265,10.4584536565,-6.959714889,-13.365106105,-2.487693131
195,0.8124674999999115,-28.058712955,5.360716581,-136.60049055000002,-2.8500840665,0.136142522,12.406129839,-4.354338169,-18.08024168,-0.8523266315
196,0.8166339999999082,-28.09443569,5.2698662285,-136.57551195,-2.1935636995,0.7299428285,11.40767765,-4.2419036625,-11.849947693,-2.8443722725000002
197,0.8208004999999048,-28.13507748,5.203926324499999,-136.550869,-3.3799802065,-0.8323957775,13.134438035,-4.9220769405,-9.221785543,-1.3104373214999998
198,0.8249669999999014,-28.15107346,5.1366975305,-136.51732635,-4.0720232725,-0.821667999,11.523429870000001,-1.9605007544999997,-9.8201074595,-0.6327613595000001
199,0.829133499999898,-28.16892147,5.058309793499999,-136.4879074,-0.8599097135,0.10795551150000002,9.549404621,-2.2238152625,-10.8095097565,-1.5262498555
200,0.8332999999998947,-28.218599315,5.022311211,-136.47029495,-3.25389266,-1.1549188495,11.083461283,-5.834609747,-5.6226639745,-0.5321357250000001
201,0.8374664999998913,-28.291257854999998,5.027487516,-136.4701157,-2.058441721,-1.7154155375,7.798578739,-8.4939560915,-0.3099832535,0.1247925165
202,0.8416330000000016,-28.3505373,4.995285988,-136.4771156,-3.899273634,-0.204373177,9.64602232,-6.7453238954999994,-3.818096757,-2.8994358775
203,0.8457994999999982,-28.406300545,5.0335378644999995,-136.46515275000002,-3.188327074,-0.467608988,11.7155685405,-6.5920989515,2.4989764665,3.28662014
204,0.8499659999999949,-28.49265957,5.081479788,-136.529129,-2.368458152,-0.679682493,10.969168662000001,-9.4072327615,7.905828834499999,-4.3255341055
205,0.8541324999999915,-28.578855515,5.1910941600000005,-136.564682,-2.547466159,0.7943585839999999,10.110118865,-9.713580131499999,12.720667840499999,2.369323492
206,0.8582989999999882,-28.65593243,5.30399704,-136.63944245,-2.2242949005,-1.5095648764999998,9.250946521,-8.1436321735,15.38264036,-1.6890865265000001
207,0.8624654999999848,-28.708092685,5.4033367635,-136.70975875,-2.5901297335,0.2698530665,9.860078335,-5.2219944,13.623888017999999,-1.8534015415
208,0.8666319999999814,-28.753789904999998,5.5222558975,-136.76376345,-2.9610381125,0.470179632,12.37411976,-4.572218299,14.81926012,0.8500084880000001
209,0.870798499999978,-28.8192873,5.677190542,-136.86878585,-1.8426945805,0.47787789999999997,11.668186186500002,-6.3805661205,21.463835715000002,-2.245402396
210,0.8749649999999747,-28.872146604999998,5.858159304,-136.95196535,-2.7668418885,-0.5043302175,7.3042836184999995,-5.0573217865,23.013741494999998,1.422749847
211,0.8791314999999713,-28.911125185,6.0156669615,-137.0392532,-1.9017965345,-0.7331473829999999,7.452400684500001,-3.325164437,20.713496210000002,-0.2343447375
212,0.883297999999968,-28.94188118,6.133480072,-137.119194,-1.9862909615,-1.0814977585,10.7161665,-2.368702352,16.186329365,-1.8947620985
213,0.8874644999999646,-28.973015785,6.2913932804999995,-137.18890385,-1.832108736,0.1015407165,11.335642338,-2.5837792155,19.745552065,1.6623065769999998
214,0.8916309999999612,-29.03353405,6.4864161015,-137.3070068,-3.237737775,-0.8386325539999999,11.1421551685,-5.3731976745,26.489791869999998,-1.359028146
215,0.8957974999999578,-29.05637169,6.5979225635,-137.3654404,0.226222843,0.39321238550000004,7.4851453305,-1.682183225,14.222969054,0.12102758899999999
216,0.8999639999999545,-29.05880737,6.697076559,-137.4252243,-2.1323026415,-1.3589913845,9.639296055500001,0.8302472235,13.06626511,-0.8415109814999999
217,0.9041304999999512,-29.077784535,6.794847012,-137.47658535,-1.138566211,0.3260628605,14.191377164999999,-1.2838303595,12.36369276,0.09478555599999999
218,0.9082969999999478,-29.095506665000002,6.846385479,-137.5306015,-2.6461963655,-0.378898069,9.49028778,-1.0372485145,7.740359606499999,-3.031963706
219,0.9124634999999444,-29.087512015,6.911774874,-137.55750275,-1.2920502725,-0.569403924,7.847430706,1.5772028715,7.549674272500001,0.7896868290000001
220,0.916629999999941,-29.095253945,6.944840430999999,-137.59152605,-1.622455299,-0.30261153150000003,9.415760041999999,-0.109673755,4.637945057,-2.0206751225
221,0.9207964999999376,-29.10326576,6.9354317185,-137.61568069999998,-1.283521466,-0.5658253655000001,6.456365585,-0.3503323345,-0.46231126750000007,-3.3222627640000004
222,0.9249629999999343,-29.085066795,6.9076435565,-137.6116371,-2.50426805,-1.0492251215,13.62130308,2.4023589495,-3.938643336,-1.577446133
223,0.9291294999999308,-29.08508396,6.919084787499999,-137.6279335,-2.314862192,-0.3355253565,12.2691676595,0.5361827015000001,1.2524850365,-1.278137304
224,0.9332959999999275,-29.067878725,6.873423815,-137.62608715,-2.4223355055,-0.10585203800000004,8.20285964,2.3610754015,-5.700172663,-2.8504225015
225,0.9374624999999241,-29.033745765,6.8483588695,-137.61232755,-0.8442601485000001,-0.174585506,12.911446094999999,4.149499655,-4.3165175915,-0.2427589095
226,0.9416289999999208,-29.010723114999998,6.8018903735,-137.58801655000002,-3.17552793,-1.761434853,10.2125864005,2.753338516,-7.092382908,-0.5533829925000001
227,0.9457954999999174,-28.990724565,6.7344515325,-137.55630875,-0.9264841825,-0.8708036539999999,7.492031813,2.183550179,-9.7945575695,-0.8274487254999999
228,0.949961999999914,-28.978603364999998,6.686617850999999,-137.5286102,-3.371951103,-0.8281164615,12.815586565,1.362273898,-7.4245870115,-0.273291141
229,0.9541284999999106,-28.960074425000002,6.661621331999999,-137.4994774,-2.9009107355,-0.936702043,9.1081471455,2.0470769405,-5.193676829499999,1.4057605635000001
230,0.9582949999999072,-28.965118405,6.6034548285,-137.4682846,-2.2368730905,-0.126286505,11.1608605385,-0.7235445085,-8.712163924999999,-0.500604689
231,0.962461499999904,-28.962324145,6.576755762,-137.45138165,-2.041943431,-1.616590738,9.649427413,0.3204084635000001,-4.665614247000001,0.019364237499999937
232,0.9666279999999003,-28.981135365,6.5388777255,-137.4266472,-2.701359391,-0.726784669,10.110850812999999,-2.3087007105,-6.2007648945,0.02115736900000001
233,0.9707944999998972,-29.02204037,6.477243185,-137.400135,-1.8360759020000001,-1.622693181,10.015539168,-5.0263774395,-8.906306741,-1.0183963965
234,0.974960999999894,-29.03544712,6.445879221,-137.38710400000002,-2.7661920785,-1.4172500970000002,9.093358516999999,-1.5250971915,-4.848750111999999,-0.802366078
235,0.9791274999998905,-29.077424049999998,6.4051775935,-137.37000655,-1.961931348,-0.35070476300000003,11.4987216,-5.004873991,-6.169092299,-0.775266081
236,0.9832940000000008,-29.111849785,6.381617069,-137.3614197,-4.028577447,-0.6884655504999999,10.2064092155,-3.9495676160000004,-3.7745392695,-0.8288893995
237,0.9874604999999974,-29.1342411,6.342388153,-137.333065,-1.4926936625,-0.5627896485,12.05938101,-2.830866337,-6.6877429485,0.5186818835
238,0.991626999999994,-29.187684060000002,6.356447935,-137.34453585,-3.5995311735,-0.9361834524999999,10.9144353885,-5.9347481725,1.325517535,-0.7514832615000001
239,0.9957934999999906,-29.21735573,6.319953203500001,-137.3084831,-1.2379270199999999,-0.29130643599999995,9.968282222000001,-3.834201634,-6.8493294735,1.5083645584999998
240,0.9999599999999872,-29.265581134999998,6.3112552165,-137.2922783,-3.6473417285,-1.8648175595,11.189651965,-5.683011532,-2.6752917540000003,0.780209601
241,1.004126499999984,-29.31613827,6.323977947,-137.27639005,-1.519716024,-0.6947601735,8.98547554,-6.0589258075,-0.545737505,2.3432735205000004
242,1.0082929999999806,-29.380572315000002,6.293867111,-137.25543595,-2.7890970705,-0.9694252609999999,9.0966789745,-7.700618744,-5.173582553499999,0.027176705
243,1.0124594999999772,-29.418878555,6.327181577999999,-137.23358919999998,-3.054439783,-0.9144225715,11.677253721,-4.6806623935000005,1.2422524695,4.1747299435
244,1.016625999999974,-29.466355325,6.3390240665,-137.2398071,-2.982913494,-0.01884968550000002,10.29234314,-5.318238616,0.80526045,-0.31078390050000004
245,1.0207924999999705,-29.535794255,6.365698576,-137.22761535,-1.694528401,-0.2867364215,11.109529493,-8.279616116,1.1191948950000001,2.742356241
246,1.024958999999967,-29.55929661,6.3937404155,-137.23849105,-4.048107624,-1.281659126,11.669919969999999,-2.41275242,2.7754049005,0.17293450249999998
247,1.0291254999999637,-29.614220615,6.44942379,-137.2367554,-1.3806341290000002,-0.24626693900000002,10.7888231255,-6.3726873395000005,4.717226386,3.4394860864999997
248,1.0332919999999604,-29.665380475,6.462155342,-137.26107025,-3.1525264975000002,-1.362909913,7.512075901,-5.5092186925,1.9722255770000001,-2.1507568955
249,1.037458499999957,-29.68221474,6.5173699855,-137.260273,-1.4447861315,-0.37469928,10.530270815,-1.833755255,4.726773979,3.344853878
250,1.0416249999999536,-29.71700573,6.5580136775,-137.26710889999998,-2.8788342475,-1.452710569,9.877665045,-3.7674502135,3.841449976,1.3141319155
251,1.0457914999999502,-29.75002003,6.6083996295,-137.2945862,-2.5418846905,-0.03822773700000001,7.6539685725,-3.371159792,5.8874512295,0.11238259100000003
252,1.0499579999999469,-29.76481819,6.657874346,-137.29443745,-2.0558793244999998,-0.647541642,13.06469297,-1.496319592,4.354541719,2.5695370435
253,1.0541244999999435,-29.75928974,6.742699623,-137.3222389,-3.113082446,-0.588679433,9.949127198,1.2989941385000001,9.498956682500001,2.1096971185
254,1.0582909999999401,-29.759075165,6.7917337415,-137.33649825,-2.844435483,-0.18587780000000004,11.579463961,0.5284664335,5.161159038499999,1.064540459
255,1.0624574999999365,-29.75451183,6.8694097995,-137.35943225,-2.3865214885,-1.6726891995000002,9.9653110515,1.1088594045,8.477166414,2.148784697
256,1.0666239999999334,-29.716637615,6.9280383585,-137.37528225,-2.095684379,-0.358324632,10.825537205,5.0499560835,6.260971545,1.4943348170000001
257,1.07079049999993,-29.722085954999997,6.971540213000001,-137.38934325,-2.2006892860000002,-0.8010718525,10.3873515135,-0.200444193,4.410322784,0.9814926535
258,1.0749569999999267,-29.706147195,7.027868271,-137.41297535,-2.355232805,-2.2218021155,7.578047037,2.5109060405,6.4781540060000005,0.54829818
259,1.0791234999999233,-29.671373365,7.059059143,-137.41786575,-1.3677574694999999,0.1521900295,11.492331981,4.5075478555,2.5610774755,1.2540728745
260,1.08328999999992,-29.645452499999998,7.116373777,-137.4583168,-4.0913721325,-1.3456183074999999,9.238873483499999,3.9873492715000003,7.577159168,-1.1477993135000002
261,1.0874564999999166,-29.612133025,7.142773151,-137.4496193,-1.5499159100000002,-0.6298460845,10.249142169999999,4.114600182,1.265010387,2.360659197
262,1.0916229999999132,-29.57707405,7.2191765310000005,-137.5017815,-2.4745908975,-1.129821354,11.018132208,5.2652952675,10.2562429915,-1.2388843294999998
263,1.09578949999991,-29.53930473,7.2326860425,-137.50561905,-2.516429484,0.2627468705,12.252242565,4.826880634,0.667365849,0.294986367
264,1.0999559999999065,-29.528255459999997,7.316177368,-137.5441475,-3.382288575,-3.313817382,8.4273097515,2.1710819005,10.19280815,0.5724654199999999
265,1.104122499999903,-29.47571945,7.3169484140000005,-137.5483208,-0.11722138500000001,-0.4547317175,10.8572049145,6.633773923,-0.630244747,-0.5126180644999998
266,1.1082889999998997,-29.467027665,7.3767647745,-137.586235,-3.22849524,-1.227727294,6.4564800259999995,1.9120833425,7.6831109525,-0.7696951030000001
267,1.1124554999998963,-29.431362149999998,7.378509283,-137.58494565,-1.7758143545,-1.936162591,10.018885135,4.497648239,-0.844321888,0.10216230149999994
268,1.116621999999893,-29.411932945,7.438435316,-137.61356355,-2.7013629675,-0.863062918,11.024102211999999,3.0615354775,7.143958329,0.2053492965
269,1.1207885000000033,-29.387060165,7.447624683,-137.62900925,-2.7759479285,-0.5760101975,11.461492297500001,3.4673030975,0.9110217094999999,-1.1986629705
270,1.124955,-29.391776085,7.5327932835,-137.6593018,-2.569943607,-1.859321058,9.644629956500001,0.17353640499999998,9.880993603,1.507007026
271,1.1291214999999966,-29.342287065,7.5372378829999995,-137.6763115,-1.942525148,-0.5105452835,12.294351575,6.455703376500001,0.5099731015,-1.6255884765
272,1.1332879999999932,-29.33847523,7.607062578000001,-137.70290375,-2.872369528,-2.0299032925000002,8.515137672,1.1794395444999999,8.0568168165,0.9757998884999999
273,1.13745449999999,-29.32247639,7.6094799040000005,-137.7164841,-1.605030656,-1.306103408,6.885513544,2.357054174,0.10485188650000002,-1.3996578455
274,1.1416209999999865,-29.316521645,7.671192646,-137.74981309999998,-1.7200991509999999,-2.4010916945,11.006778239500001,1.5480796694999999,7.596382616,-0.193067312
275,1.145787499999983,-29.290751460000003,7.6540060045,-137.7511597,-2.7101647855,0.014973491500000047,10.2472577075,3.325528264,-2.6571503874999998,-1.276088536
276,1.1499539999999797,-29.31270504,7.745426893,-137.8091698,-2.8395484685,-2.2087421415,9.135993719,-1.4108770195,12.13554525,-1.0214828999999999
277,1.1541204999999763,-29.284568784999998,7.7213306425,-137.79984665,-1.2850756644999999,-0.6013237985,13.326197149999999,3.4712603685000003,-3.96624279,-0.6335808335000002
278,1.158286999999973,-29.2911644,7.8158438205,-137.8712692,-3.231499791,-1.0975929199999999,7.837033749,0.671605587,13.24580765,-2.229136705
279,1.1624534999999696,-29.277143475,7.770809412,-137.84576794999998,-0.67743659,-1.7235037685,8.547688007,1.5008915815,-7.101284504,-0.20059776350000003
280,1.1666199999999662,-29.272065165,7.8442564015,-137.90672684999998,-3.377880931,-2.1613620520000003,10.307409761999999,1.9106493,10.425770285,-2.3750609455
281,1.1707864999999629,-29.26458168,7.771595001,-137.8715782,0.2783242465,-0.5248368379999999,8.778446438,0.5616559985,-10.5609114155,-0.8133545815000001
282,1.1749529999999595,-29.280546190000003,7.8403937814999995,-137.9253311,-5.032075882,-2.8397675155,7.578695773,-0.7384842039999999,9.5161185285,-1.9187050235
283,1.1791194999999561,-29.255246165,7.799160719,-137.89527135,0.08396509299999999,-0.3668935745,13.30812216,2.794539243,-6.985047579,0.5403515995
284,1.1832859999999525,-29.255887985,7.8465526105,-137.9378624,-5.697386026,-1.15644595,9.48311475,0.9354064465,6.632838726,-2.0179599825
285,1.1874524999999494,-29.255272865000002,7.8369169235000005,-137.91620255,-0.23695641750000007,-1.8121405840000002,10.4920120225,-0.05193285650000001,-3.1955870390000003,1.5254364605
286,1.191618999999946,-29.250611305,7.85374403,-137.93769835,-4.3632023335,-1.177589051,13.5426497455,1.2203068435,2.2081708315,-1.6156497895
287,1.1957854999999427,-29.26550484,7.8606665135,-137.9182625,0.159140373,-1.591508627,6.685857682,-1.8671622274999997,-1.3176538195,2.2324788570000003
288,1.1999519999999393,-29.276305195,7.840615988000001,-137.9204712,-4.6327854395,-2.8918395045,10.3812673075,-0.9750953314999999,-2.769929528,-1.7827314735
289,1.204118499999936,-29.290351870000002,7.8913731575,-137.92619705,-1.5800225585,-0.8111197575,11.879971025,-1.339240074,4.707915425,2.2487953005
290,1.2082849999999326,-29.29967499,7.843638181999999,-137.91378400000002,-3.992445588,-0.878837317,7.838943005,-1.0428324345000002,-6.5001316075,-1.8833894435
291,1.2124514999999292,-29.32746315,7.9512040615,-137.9559059,-1.63053143,-2.102343202,10.149452211500002,-2.422332108,12.763068678,1.8384299874999999
292,1.216617999999926,-29.320291519999998,7.913917303,-137.93920135000002,-2.999566376,-0.80473049,10.752872944,0.8592808845000001,-5.6528378725,-0.8222554919999999
293,1.2207844999999224,-29.367353440000002,8.044945002,-138.0095329,-2.964589298,-2.0785042645000003,8.625801325,-4.2401236295,16.8810339,0.24949580400000004
294,1.224950999999919,-29.385477065,7.9956796165,-137.98954775,-0.37982267150000004,-1.4949393865,9.2270865455,-2.246528685,-7.098876714999999,-1.2044711710000002
295,1.2291174999999157,-29.41401863,8.13566041,-138.0723877,-4.5660568475,-1.952751875,8.977841854000001,-1.7663134935,18.531220910000002,-0.4863244295
296,1.2332839999999123,-29.42722702,8.089416981,-138.05229565000002,1.3272451165,-0.47968639399999996,8.430504022000001,-1.6415908929999998,-6.7774825100000005,-1.0314729214999998
297,1.237450499999909,-29.449948310000003,8.227823019,-138.14994815,-6.373303771,-2.174929142,10.477770625500002,-0.8274808100000001,19.202939985,-2.052814782
298,1.2416169999999056,-29.472991944999997,8.267211914,-138.1653061,1.123145007,-1.1468959225,8.579136373,-2.223405242,4.238214731,0.36646246900000023
299,1.2457834999999022,-29.49016666,8.3535432815,-138.23298265,-6.390897751000001,-1.0930185915,10.2977735375,-0.6440892815,12.024573325999999,-2.0421203969999997
300,1.2499499999998989,-29.519790645,8.466696262500001,-138.298584,0.884754121,-1.2191882729999999,11.025079488,-2.1408127845,14.87883043,-0.4664355514999998
301,1.2541164999998955,-29.548482895,8.507543563999999,-138.33285525,-5.144494294999999,-2.9631921055,8.074028256,-2.5569349525,5.336540699,-1.3151755330000001
302,1.2582829999998921,-29.58396053,8.682783603499999,-138.4184494,-0.69587034,-0.9328715949999999,10.786788462,-2.432885766,22.513249395000003,1.179869022
303,1.2624495000000024,-29.597387315,8.688587189,-138.42223355,-3.8140411380000003,-1.396830559,8.600186348,-1.2819542885,-0.10807923950000003,-0.24476933500000042
304,1.266615999999999,-29.62587738,8.927889824000001,-138.50902555,-2.2915846705,-1.174133886,6.2880892755,-1.524444461,29.25052357,4.88176322
305,1.2707824999999957,-29.59060478,8.943598747,-138.49103545,-3.1011922955,-0.6595506,10.724739313,4.147078991,-0.3470346929999999,2.602764368
306,1.2749489999999923,-29.56151104,9.226531028499998,-138.57182310000002,-3.1186755805,-0.6203907245,6.4760024705,5.311374901500001,33.450210569999996,8.056421995000001
307,1.279115499999989,-29.466862675,9.273250103,-138.54135135,-2.0746963285,-0.6536032555,9.938209297,11.0368773915,2.2132565525000003,5.669885397
308,1.2832819999999856,-29.364539145000002,9.5675001145,-138.60081485,-3.357527107,-0.051204110500000004,8.08398032,13.747717501,33.41651249,10.842835424
309,1.2874484999999822,-29.17744637,9.647996902,-138.56972505,-1.80740875,-0.45803129700000006,10.606095074,22.10078907,5.8116228585,7.573511839
310,1.2916149999999789,-28.981885910000003,9.9474921235,-138.61187745,-3.6335502265,-0.5584021585000001,8.853507517,24.630369665,33.036268235,12.735298635
311,1.2957814999999755,-28.720516205000003,10.0500741,-138.57489775,-0.8974369765,0.12234947099999999,10.793510197,30.868253705,7.8691554065,9.3916282655
312,1.2999479999999721,-28.437415125,10.350504875,-138.60151675,-4.2644109725,-0.8755471705,7.0709922295,34.82982063,32.374313355,14.09587574
313,1.3041144999999685,-28.064787865,10.52303648,-138.57073975,-0.8715640304999999,-0.126076534,11.0329396725,44.338487625,15.737516880000001,12.576815605
314,1.3082809999999654,-27.682752605,10.81384373,-138.57194520000002,-5.0775589945,-0.08227330450000003,7.536497889,46.184656145000005,30.150189400000002,15.810677055
315,1.312447499999962,-27.209968565,11.075954915,-138.55286405,-2.4589484335000003,0.5454318225,12.005217554,56.58954811,26.121844295000002,15.973769189999999
316,1.3166139999999587,-26.71629429,11.36964321,-138.5271835,-2.6600619555000002,-0.112919757,7.9340479375,58.949544904999996,29.293417935,18.303537845
317,1.3207804999999553,-26.14394188,11.71261501,-138.51837925,-5.164929032,0.7620026175,13.14077139,68.772418975,35.639760015,18.67898369
318,1.324946999999952,-25.51699829,12.041162965,-138.4867783,-3.312569678,-0.7567483185,9.233261106499999,74.74092865,33.136163710000005,20.12488842
319,1.3291134999999485,-24.8342514,12.388962265,-138.4606705,-4.339105308000001,-0.06114147600000003,10.8229742075,81.60879897999999,35.72152996,19.89728737
320,1.3332799999999452,-24.11303425,12.814968109999999,-138.45767975,-2.7662594025,-0.5859993695,10.966965674,86.77265930499999,45.64299393,21.064732550000002
321,1.337446499999942,-23.33920479,13.12950373,-138.40978245000002,-2.741164565,-0.6531351135,8.9170908925,91.92346954499999,31.5244875,19.64060402
322,1.3416129999999384,-22.559661865000002,13.61886978,-138.42700194999998,-4.9803664685,-1.9525798559999998,11.0420417795,94.322261795,54.15328026,20.639983174999998
323,1.345779499999935,-21.719408035,13.926715375,-138.36475375,0.187405549,-0.972143561,10.1994562145,99.425392145,30.724126814999998,19.897392275
324,1.3499459999999317,-20.912213325,14.440368175,-138.37831115,-4.98439312,-2.2892000675,8.8599917865,97.53715515,57.317379,20.580542565000002
325,1.3541124999999283,-20.056651115,14.75411129,-138.30465700000002,1.947116822,-0.662398621,8.040143978000001,100.83754729,31.487024305000002,20.511600495
326,1.358278999999925,-19.222791675000003,15.219491005,-138.29432680000002,-6.5233829025,-3.5080927610000003,11.521269797,100.03575899,51.53421211,19.58515644
327,1.3624454999999216,-18.36496544,15.543151855000001,-138.203804,2.561789632,-1.3346883655,7.4718742989999996,100.43473815499999,32.597011565,21.864868164999997
328,1.3666119999999182,-17.53629971,15.920414925,-138.17018895,-6.4341753719999994,-1.41555202,11.749984859000001,98.65305328,41.1712513,17.35095978
329,1.3707784999999149,-16.69117737,16.2740612,-138.07496645,2.3564238545,-1.556320846,9.5139230475,98.62059784,36.50113678,22.42563677
330,1.3749449999999115,-15.83895445,16.54445267,-138.0080261,-6.3906707765,-3.6860423085,9.384148003,100.298378,28.253733635000003,16.171801565
331,1.379111499999908,-15.00035715,16.935526850000002,-137.91603085,-0.3299058975,-0.889672309,12.523094180000001,97.84621048,41.6615448,22.004325865
332,1.3832779999999045,-14.155632494999999,17.132510185,-137.8325386,-3.3774694204999998,-3.5812320705,6.4958171845,98.74618530000001,19.72767067,14.841261385
333,1.3874444999999014,-13.318239685,17.484490395,-137.7330017,-3.2589255570000004,-2.255907655,12.938462255000001,97.30582046500001,37.551568985,20.54637718
334,1.391610999999898,-12.52371359,17.743824005,-137.64818955,-2.4912364485,-3.3293374775,8.7014343735,92.573505405,27.38258171,15.99623108
335,1.3957774999998946,-11.729016305,17.992412565000002,-137.5180168,-2.1014338285,-2.7929809690000003,7.691365719,90.94159317,25.28751278,20.22266197
336,1.3999439999998913,-10.983199594999999,18.318828585,-137.46004870000002,-4.72949183,-3.2858878375,16.504069325,87.624145505,36.28417969,13.786302565
337,1.4041105000000016,-10.293332579000001,18.60755253,-137.33822255,-1.5549368265,-3.8349931240000004,9.250402450500001,78.44614028999999,30.679000855,19.56593132
338,1.4082769999999982,-9.651918888,18.86118126,-137.27511594999999,-3.5605047345000003,-4.1772099735,5.2202439305,74.83800507000001,27.88219738,12.0345492365
339,1.4124434999999949,-9.0265522005,19.168821335,-137.17707825,-0.208784044,-2.6754478215,14.579730985000001,71.49414634499999,33.81980896,16.596502305
340,1.4166099999999915,-8.4884970185,19.416756630000002,-137.11211774999998,-2.0093821285,-3.8156117199999997,8.059652567,62.28479195,27.443484305,11.421922446
341,1.420776499999988,-8.0074012275,19.69621563,-137.03515625,-3.243477821,-3.4251147509999997,7.6353422385,54.935705185,31.159210205,13.11615515
342,1.4249429999999845,-7.558423041999999,19.94490242,-136.95270155,-0.02743104099999999,-2.6675504445,7.399332883,50.810152055,27.48965645,12.90215111
343,1.4291094999999814,-7.140352249,20.096199034999998,-136.86010364999999,-0.316611737,-3.8228074315000002,7.1448526385,46.68302345,15.900142670000001,12.353899957
344,1.433275999999978,-6.7699303625,20.365831375,-136.7774048,-5.1538271904999995,-2.188885748,15.740688800000001,41.32309723,30.191431995000002,12.786426545000001
345,1.4374424999999746,-6.407068968,20.562346455,-136.66200255,-0.9814456105,-2.2550693749999997,5.72343153,39.008863445,21.16403294,15.21424484
346,1.4416089999999713,-6.0297231675,20.711003305,-136.55782695,-2.3254226595,-1.7084993425000001,5.432671785,41.168115615000005,15.649179933000001,13.2421913135
347,1.445775499999968,-5.6539139745,20.946390155,-136.4359207,-1.574293822,-3.1214060779999997,14.864625455,40.209102630000004,25.932397845,16.109507565
348,1.4499419999999645,-5.301631689000001,21.029489515,-136.30805205000001,-1.7303280530000003,-1.204842687,6.4446663855,37.0582428,7.7452685835,14.82849979
349,1.4541084999999612,-4.9369454385000004,21.281051635,-136.19353865,-5.1165577175,-1.7589767575,10.858421562,39.137039185,28.157765385,15.125125885
350,1.458274999999958,-4.5289275645,21.36170387,-136.04465485,1.379199207,-1.516531408,7.2129736075,42.74093628,7.444720745,17.01306534
351,1.4624414999999544,-4.128520012,21.530775069999997,-135.92440034999998,-4.021215916,-2.2571458819999997,6.3719088155,43.09899902,18.449805259999998,14.597352985
352,1.466607999999951,-3.7317987685,21.626625065,-135.7830925,0.58238405,-1.3320845965,9.699313878000002,41.638547900000006,9.561119795,16.151186465000002
353,1.4707744999999477,-3.2833229305,21.682377815000002,-135.64746854999999,-4.097643017499999,-1.7962306145,8.947142121999999,48.13743973,4.9879467485,15.16859531
354,1.4749409999999443,-2.8081519605,21.834427835,-135.50917435,-1.0427263155,-0.386598153,9.252188442,51.136867525,16.572046280000002,16.00037241
355,1.479107499999941,-2.2747604845,21.817995070000002,-135.372345,-2.6248374880000003,-0.588289738,11.70319104,58.23900032,-3.407393932,14.844166755
356,1.4832739999999376,-1.7343776825,21.952642445000002,-135.21842195,-2.4391530755,-0.6239200535,9.9561185845,58.233463285,14.711662295,17.328766345
357,1.4874404999999342,-1.1516545715,21.8975687,-135.07916260000002,-1.1536604165,-1.1028642655,8.990682842,64.02516365,-7.7433333410000005,15.04405737
358,1.4916069999999308,-0.517125383,21.97334385,-134.922493,-2.135587096,-1.7542009355000001,9.911497356,69.40842437500001,8.017431736,17.21612406
359,1.4957734999999275,0.15579611099999996,21.86811161,-134.7787819,-1.0151959064999998,-0.9124146215000001,9.440854788500001,74.62869644,-13.4457314035,15.708859445
360,1.499939999999924,0.857543316,21.90536308,-134.61153415,-3.1076836065,-1.330589056,7.359296142,77.02635956,3.83379364,18.305200575
361,1.5041064999999205,1.6050312820000001,21.7756958,-134.4572449,-0.7021590469999999,-0.210185662,12.517464635,83.14462662,-15.941215995,17.213765145
362,1.5082729999999174,2.3974567055,21.736112589999998,-134.2829399,-2.4839423959999998,-0.1512610095,6.437709093,87.642532345,-4.867340802999999,19.29919052
363,1.512439499999914,3.2250384089999997,21.57846546,-134.1234398,-0.7753316164999999,-1.264769673,12.152696611,92.530555725,-18.822514535,18.38748741
364,1.5166059999999106,4.076950192,21.458563804999997,-133.94319535,-2.88999784,-1.4466130735,8.2422397115,94.60259628,-13.871259210000002,20.683190345
365,1.5207724999999073,4.9455931185,21.261758805,-133.79691695,-0.353952825,-1.1636277435,9.922175886,98.123291025,-23.06023407,17.87165737
366,1.524938999999904,5.859517336,21.086298945,-133.63500975,-3.1696626245,-0.751728803,10.9824471455,102.95097731,-20.052234650000003,19.67936325
367,1.5291054999999005,6.7747359275,20.8971138,-133.48772044999998,-2.513986051,-2.0810629725,9.121954918,103.75112530000001,-21.579571245,18.662189485
368,1.5332719999998972,7.728614568999999,20.669967655,-133.33971405,-2.3540539425,-0.9602026939999999,12.6561150575,108.4727669,-25.73081875,19.563714025
369,1.537438499999894,8.665162562999999,20.48404789,-133.2100334,-2.0588378945,-1.724664271,13.901548385,107.16147235,-20.84539986,17.31573534
370,1.5416049999998904,9.6020321825,20.215532305,-133.06902315,-2.4293306765,-2.309139609,8.1099305155,106.84467699999999,-30.071009635000003,20.520250320000002
371,1.5457715000000005,10.532134533,19.981910705,-132.96180345,-0.519648254,-2.4529218674999997,12.148812058,107.42209245,-26.33994293,16.474822995
372,1.5499379999999974,11.47104311,19.660557745,-132.85639575,-2.469581246,-2.0156282185,14.266871455,108.6719551,-36.366615295,18.748453140000002
373,1.554104499999994,12.354623795,19.455060005,-132.74008175,-3.3974030015,-2.3828617335,10.933849333000001,101.58997345,-22.278409959999998,17.562030315
374,1.5582709999999906,13.21640682,19.084354400000002,-132.66569135,-0.7823455184999999,-2.7642503974999997,8.8447718645,100.78211973500001,-42.283784865,17.763629915
375,1.5624374999999873,14.081084725,18.834218025,-132.580307,-2.5581032635,-3.44933486,8.9120106705,100.61721421499999,-27.770487785,16.13732958
376,1.566603999999984,14.908246519999999,18.423744205,-132.5383606,0.39265000450000004,-1.0820887385,12.8547101,97.91695404000001,-47.290800094999994,16.682837485
377,1.5707704999999805,15.687633039999998,18.1755867,-132.4878616,-6.9260263445,-4.0141979455,13.269210575999999,91.833129885,-28.09814453,12.9202265735
378,1.5749369999999772,16.420608039999998,17.84825611,-132.4407883,1.102463424,-1.7205899355,13.826371195,86.52219391,-37.043914795,15.663580895
379,1.579103499999974,17.105041505,17.575057025,-132.4335861,-5.6013607975,-3.5395531655,10.141808272999999,82.04526901,-32.0545826,9.804051043
380,1.5832699999999704,17.747922895000002,17.281917569999997,-132.39719775,0.08138677500000002,-2.9922813175,16.258106230000003,76.213279725,-33.080710409999995,14.09136629
381,1.587436499999967,18.325599670000003,17.071870325,-132.39302825,-6.909577608499999,-4.8599636555,12.28561878,69.444700245,-24.668597695,7.765921829
382,1.591602999999964,18.84516525,16.83144331,-132.34868244999998,1.2577089670000001,-1.3225440380000002,4.515867709999999,61.19155121,-26.464079855,13.6859083155
383,1.5957694999999603,19.283621789999998,16.653407575,-132.34407805,-6.351326704,-4.6632215975,12.1341884155,52.67632675,-20.86355257,7.0454771229999995
384,1.599935999999957,19.679628375,16.49871111,-132.2710381,-1.4184787049999998,-3.3708423375,12.2439127,45.521978375,-15.443323313,13.72079754
385,1.6041024999999536,19.9710083,16.319959165,-132.27530289999999,-3.7718461750000003,-2.983002305,5.1960724595,35.26897812,-21.18143463,6.415356875
386,1.6082689999999502,20.249718665,16.25642586,-132.1739349,-2.282436371,-2.4641041755,17.04271173,30.494527814999998,-3.9120968585000004,13.239823817
387,1.6124354999999468,20.42781162,16.124281885000002,-132.1537209,-2.125140667,-4.2446208,8.189450333,20.916282655,-14.8638238885,7.2964565740000005
388,1.6166019999999435,20.58869362,16.034527775,-132.0830765,-3.160726854,-1.7528389094999999,9.6966009135,17.345618963499998,-8.029971062,11.0456019645
389,1.62076849999994,20.719335555,16.028356074999998,-132.00419614999998,-2.7451497615,-3.2008793355,15.73977613,13.3316619385,1.7373995750000004,8.420742958
390,1.6249349999999365,20.776844025,15.912685875000001,-131.95400235,-1.0981748105,-2.5612370965,1.6208354235,5.6582760535,-11.73804188,9.984555482000001
391,1.6291014999999334,20.860441205,15.956371785,-131.831501,-5.3169777394999995,-1.2077297865,13.6580429095,6.240923502,9.1455070985,10.973583936999999
392,1.63326799999993,20.882058145000002,15.897560595,-131.76107405,0.22939395900000004,-3.5521377325000003,5.6549628995,0.7111792564999999,-4.517429707,9.8006033875
393,1.6374344999999266,20.8841095,15.872584345,-131.66503905,-2.7638738154999998,-1.234197468,2.501597881,-2.7020395995,0.37964189049999986,10.99887705
394,1.6416009999999233,20.928566930000002,15.933454035,-131.5410423,-3.7673859745000002,-1.4938210845,18.709802625000002,1.62699116,11.1119756695,10.397262097
395,1.64576749999992,20.91195202,15.8315382,-131.47789004999998,0.05433845549999994,-1.6288929134999999,5.9631061555,-3.8022032974999997,-9.5963370795,10.8086583595
396,1.6499339999999165,20.903217315,15.85501862,-131.3855858,-3.1569932405000003,-1.186600417,8.7445118425,-3.7655429839999996,5.6277937885,8.540869953
397,1.6541004999999132,20.93870068,15.826169015000001,-131.2842102,-0.930641174,-0.3938673735,17.550894735,1.1954740345,0.16754257699999986,11.795695782000001
398,1.65826699999991,20.966762545,15.77129507,-131.2571182,-3.7466720340000004,-2.219478309,5.306182623,2.7725300195,-5.8403283375,4.861422181
399,1.6624334999999064,21.037431714999997,15.69520378,-131.16642380000002,2.555284023,1.061635062,4.4421148299999995,5.7569346425,-5.55336544,12.63716316
400,1.666599999999903,21.088207245,15.60910702,-131.16730885,-4.4483340385,-2.1368458275,15.501737115000001,6.4085357775,-10.475654123,3.234905362
401,1.6707664999999,21.165895465,15.519463065,-131.10037615,-1.3398954865000001,-0.207613632,9.186151983,7.4720907195,-8.042187216,10.7023530025
402,1.6749329999998963,21.252186775,15.372532365,-131.12654875,-1.0497843625,-1.5319460779999998,6.2369270325,11.44145489,-18.327358725,3.1613294185
403,1.679099499999893,21.366047860000002,15.24019289,-131.081646,-0.7699730395,0.3899431165,14.217578884999998,12.560436724999999,-13.705062388,10.2326531425
404,1.6832660000000033,21.493038175000002,15.06839085,-131.13038634999998,-4.232435733,-1.4272876305,13.50210905,16.957540035,-22.053584094999998,1.8666502234999998
405,1.6874325,21.671670915,14.90723753,-131.0982208,-1.0490022895,-0.38697785100000004,4.864909053,20.848716735,-17.401332855,10.2315952795
406,1.6915989999999965,21.81941223,14.695006845,-131.15605545,0.24905633949999983,-0.5992939844999999,8.115577459,19.62829018,-26.947671890000002,2.7813482285
407,1.6957654999999932,21.979973795,14.49509716,-131.1753502,-3.1000248334999996,-1.851820588,7.878572225499999,20.274871824999998,-23.879514694999997,6.522704092
408,1.69993199999999,22.139835355,14.27559471,-131.23385235,-2.860692978,-0.8625693915,15.669948575,21.104634285,-27.76708317,3.1923956880000004
409,1.7040984999999864,22.315355304999997,14.10868406,-131.25717545,-4.3332591055,-1.9685130715,12.627192022,22.207157135,-20.348803519999997,4.726483106
410,1.708264999999983,22.499865534999998,13.911571030000001,-131.3006744,0.08342245200000001,0.325466201,7.079821348,23.555945395000002,-24.6072073,3.9285516715
411,1.71243149999998,22.671781539999998,13.755305295,-131.34977725,-3.783971429,-2.228078693,10.4341735865,22.499403,-20.29181337,1.5844452380000003
412,1.7165979999999763,22.831617355,13.571036815,-131.39274595,-0.932470357,-2.0505507145,14.302762985000001,20.529385565,-23.136314395,3.5170164095
413,1.720764499999973,22.984585765,13.449032305,-131.4514427,-6.096098423,-1.6528142395,11.0175218565,20.50671816,-16.9331221595,-0.9275591375000003
414,1.7249309999999696,23.1302433,13.303766725,-131.47665025,0.955214411,0.1625206955,10.402225018,18.35535908,-17.985912325,3.7170379144999997
415,1.7290974999999662,23.26233387,13.18175745,-131.531292,-5.256712675,-3.3243745565,6.7929797175,17.799595832999998,-16.76894045,-0.4360725879999996
416,1.7332639999999628,23.365333555,13.04158354,-131.5614815,1.954948843,-1.1008540615,8.4108455195,13.388369796500001,-17.625337599999998,3.0365071295
417,1.7374304999999595,23.428158760000002,12.958972455000001,-131.62217710000002,-6.902134180000001,-3.1849223375,11.135623930000001,9.637236833,-12.72217846,-2.9113154395
418,1.741596999999956,23.49595356,12.87989378,-131.61642454999998,-1.3215853869999998,-1.0642066895,11.856035230500002,8.214456441,-9.211323978,4.0350127215
419,1.7457634999999525,23.526517865000002,12.872023585,-131.64155195,-5.3733098505,-2.202075303,9.9459898485,4.823654234499999,-2.850698113,-2.6345264925
420,1.7499299999999494,23.559225079999997,12.81222105,-131.6262245,0.619927734,-0.6231893225,8.5486826895,3.7274731434999997,-6.635521889,4.1137167205
421,1.754096499999946,23.575035095,12.78581333,-131.65406415,-4.593098521,-2.389613926,10.0440175515,3.0663318635000003,-5.021998018,-2.045425057
422,1.7582629999999424,23.571957585,12.741524694999999,-131.6252098,-0.783453822,-0.787030786,13.858167645,-0.9018004089999999,-4.296192646,4.8343419295
423,1.7624294999999393,23.55462837,12.75280094,-131.6450691,-4.950564563,-2.483905077,9.450930595500001,-1.1499766115,-0.5006557924999999,-3.0207635760000002
424,1.766595999999936,23.541083335,12.73116589,-131.6095352,-0.4310681814999999,-0.10587537249999998,8.3400022985,-2.315924227,-1.4894809720000002,4.4858600200000005
425,1.7707624999999325,23.504608155,12.736999990000001,-131.6248665,-2.4654014115000003,-2.3993166685,8.665612697,-3.6337445975000002,-0.8855991365000002,-2.3325220945
426,1.7749289999999291,23.474479674999998,12.671459195,-131.63362125,-0.7760835884999997,-0.25543729950000005,10.8846716885,-3.1224335505,-8.394432545,1.8143465515
427,1.779095499999926,23.434576035,12.65180826,-131.6602898,-3.3448044654999998,-1.4666041730000001,11.335656165,-3.7386859655,-4.2064403295,-2.2814537585
428,1.7832619999999224,23.40106106,12.618799209999999,-131.6590309,-2.461904764,-0.866980195,13.3801102635,-3.781410694,-4.36017704,1.338036716
429,1.787428499999919,23.36624527,12.61555672,-131.68793484999998,-2.1795985699999996,-1.0893067495,6.355973005,-3.069853485,-2.503452234,-3.333583772
430,1.791594999999916,23.310308454999998,12.58535242,-131.70633315,-1.4859291314999998,-1.092355728,10.4184935115,-5.948862075499999,-4.9573283545,-0.8866752385000001
431,1.7957614999999123,23.252377510000002,12.557260515,-131.74549869999998,-2.4759068490000002,-2.4284281135,13.55893898,-5.6304136515,-5.7179319855,-3.3320988415
432,1.799927999999909,23.179044725,12.515222075,-131.784359,-3.4295876025,-0.4163118305,12.2999463085,-7.4423511609999995,-7.204557300499999,-2.4846449195
433,1.8040944999999056,23.10066986,12.5140357,-131.80913544999999,-1.635743022,-0.55044543,10.432001115,-8.4506037255,-2.0719230175,-3.0116255284999998
434,1.8082609999999024,23.02228546,12.491178510000001,-131.83684540000002,-3.4421462715,-2.6509277825,9.169701576000001,-8.3820486075,-4.5804469885,-2.2537645995
435,1.8124274999998988,22.917467115,12.47180033,-131.87554165,0.5937180519999998,-0.9349887374999999,5.7492426635000005,-11.252010105,-4.7083780614999995,-3.6769433019999997
436,1.8165939999998955,22.781941415,12.456964495000001,-131.9261322,-4.524167836,-2.1208837029999996,10.293976068500001,-14.64041567,-4.7222284085,-5.0828197005
437,1.820760499999892,22.668118475,12.43053961,-131.95832439999998,-0.6613560914999999,-0.7868277430000001,13.3926939955,-12.51694298,-5.1875756975,-2.7047293185
438,1.8249270000000024,22.53807545,12.427323820000002,-132.0113907,-5.3010650875,-0.301088512,10.805638553,-13.8592467285,-3.524545668,-5.829731703
439,1.829093499999999,22.40990734,12.44852781,-132.02088925,0.2548042385,-0.0773299335,10.342373847000001,-14.831656935,1.1282366515,-2.413143277
440,1.8332599999999957,22.28970146,12.445516585,-132.0772667,-5.527096987,-1.8720049259999998,10.216775418000001,-12.650161265,-3.6338151099999996,-6.297189951
441,1.8374264999999923,22.1602869,12.449362755,-132.0971794,1.9443604945000001,-0.313283257,7.3962481,-14.67295599,-1.255200088,-2.7232352495
442,1.841592999999989,22.018349649999998,12.503912925,-132.15088655,-7.191995859,-2.601674914,11.80454445,-15.31924677,2.915310619,-8.596735716000001
443,1.8457594999999856,21.917352675,12.5366745,-132.14017105,0.45927850200000003,0.13835507599999997,13.03565669,-12.053493020000001,3.3038272855,-0.7197728754999999
444,1.8499259999999824,21.80400753,12.59537792,-132.19946670000002,-6.7469706535,-0.343032181,9.4721190905,-11.709365843,3.1750788705,-9.346964123
445,1.8540924999999788,21.697744370000002,12.643388269999999,-132.16327665,3.059193969,0.8028419985,6.6145377755,-13.35648918,6.11139822,1.421833545
446,1.8582589999999755,21.595535275000003,12.717103479999999,-132.2223549,-6.480521679000001,-3.4579342605,9.4230260825,-10.4427914645,4.9030722375,-10.053584339
447,1.862425499999972,21.494691850000002,12.741456985,-132.20928955,1.6882223785,-0.01706635949999996,10.650922297000001,-12.067745689999999,2.458038166,-0.0297247169999999
448,1.8665919999999687,21.364991189999998,12.835362435,-132.25951385,-7.333945513,-2.106223702,11.770813705,-13.96116495,7.5878813725,-9.909339188
449,1.8707584999999651,21.26624298,12.945836545,-132.20178605,1.135426402,0.20445291699999998,10.300363064999999,-12.980051515,13.959962845,1.0975947380000002
450,1.874924999999962,21.178252219999997,13.001954555,-132.2749443,-4.544498205,-0.5344789497,7.4936835765000005,-8.36144209,2.43458185,-10.824687124
451,1.8790914999999584,21.088391305000002,13.03350878,-132.24051665,1.962421939,-0.27883939049999995,10.8685669905,-11.292339324,4.129022002,2.0333867070000005
452,1.8832579999999557,20.96029854,13.090443135000001,-132.30008315,-5.292047501,-2.4216838474999998,12.104179855,-13.549582005000001,3.1420544384999998,-9.341200949500001
453,1.887424499999952,20.878144265000003,13.15995264,-132.26776885,-1.37840721,-0.34967625150000003,8.2075440905,-10.275403502,8.2720494275,0.1902365650000002
454,1.8915909999999485,20.78380489,13.147230625,-132.3190842,-1.0077046154999998,-0.502944119,7.262304782999999,-9.7639889735,-4.291346371,-5.5142982
455,1.8957574999999447,20.676249505,13.166232105,-132.32221605,-1.8190367220000003,-0.8817727415,9.495350599,-12.336348534999999,1.1311119500000002,-1.5019679075
456,1.899923999999942,20.57784176,13.16760874,-132.34629439999998,-1.6738853455,-0.6649363639999999,12.4599123,-10.986748933,-1.566297889,-3.125141619
457,1.9040904999999384,20.506471635,13.1327405,-132.3754158,-4.445507288,-0.39644622799999996,12.648524286499999,-7.284580469,-5.9714026449999995,-2.040762901
458,1.908256999999935,20.430531504999998,13.12694836,-132.3712654,-1.0725466015,0.010924681999999998,7.8488528725,-9.039182186,-1.2216712535,0.3127117154999999
459,1.9124234999999317,20.36035919,13.132232185,-132.4153595,-2.6089856325,-1.590987146,9.856097221,-6.7724997995,-2.037337184,-5.397393464
460,1.9165899999999283,20.313120845,13.082201479999998,-132.42295835000002,-1.7536796335000002,-0.500793971,11.013415337,-5.286427021,-6.692341805,0.8236253264999998
461,1.920756499999925,20.234194755,13.072959425,-132.4860191,-2.9759206775,-1.2234304544999999,11.9746809,-7.319774389500001,-4.417412639,-6.859986483
462,1.9249229999999216,20.173322675,13.082035545,-132.4860649,-1.604179069,0.7798087,11.86746931,-7.068907499,0.26504331850000007,-0.75814271
463,1.9290894999999184,20.136294364999998,13.070057389999999,-132.52194215,-4.025591254,-0.7621878980000001,9.450891019,-3.071627021,-3.6194900275,-3.809631288
464,1.9332559999999148,20.106610295000003,13.028906345,-132.5655708,0.123220539,-0.578111917,7.314549923,-2.1406972404999998,-7.159045219499999,-3.4652608034999997
465,1.9374224999999115,20.048663140000002,13.006612780000001,-132.61573794999998,-2.647127092,-1.7547290174999999,7.4602415555,-5.1942536834999995,-5.334811568,-4.929978728
466,1.941588999999908,19.993961335,12.97386551,-132.65077209999998,-1.70670484,-1.0015586315,11.197772501,-5.3987450599999995,-5.8644891975,-2.9154511095
467,1.9457554999999047,19.918727875000002,12.953124525,-132.7323227,-5.8795437815,-1.6990589795000002,13.126589296,-6.4243000745,-6.402682662,-8.4422924505
468,1.9499219999999011,19.83792019,12.957705975,-132.7404175,0.412110075,0.1333444045,10.4969625465,-9.2033941745,-0.5764739515,-1.4512004850000002
469,1.954088499999898,19.738007545,12.984406475,-132.8118248,-5.057288885,-2.5305945875,9.989772321,-9.703948499500001,-0.6224772485,-9.310730933
470,1.9582549999998946,19.637455940000002,12.96320438,-132.8378601,1.0354350245000001,-0.950373173,9.227098465000001,-11.102244137,-4.20795244,-2.4166974425000003
471,1.9624214999998917,19.48229027,12.97527933,-132.9243431,-5.550293684,-1.9915935695,12.868157385,-15.8970804205,-2.811405419,-10.291426659999999
472,1.9665880000000016,19.330774305,13.012766365000001,-132.91472625,-1.5182874095,-1.3004844485,11.0105919835,-18.108610155,3.810042262,-0.7645720985
473,1.9707544999999984,19.14835548,13.05600405,-133.00979230000002,-3.4445031885,-0.9754290435,6.5518865585,-18.998901365000002,0.472595856,-12.569263936999999
474,1.9749209999999948,18.931666370000002,13.04990482,-133.02178195,0.09714984900000001,-0.821420863,8.099102973,-25.33763981,-1.9510234595,-1.4156416354999999
475,1.9790874999999915,18.655993465,13.128238675,-133.104763,-5.419245243000001,-3.120788336,14.147936819999998,-30.55140591,5.0500640865,-12.555478809
476,1.983253999999988,18.38188267,13.19255304,-133.13795855,-2.3731375635000003,-0.5169688465000001,11.024800300999999,-31.627308845,5.238290488500001,-6.44699919
477,1.9874204999999847,18.06286812,13.24740124,-133.21588895,-2.403461516,-1.3768416045,6.492880583,-35.87811089,2.7141709325,-11.0978665365
478,1.9915869999999811,17.67792797,13.349442005,-133.2663498,-2.3802384659999998,-2.7082986835,13.502163885,-44.435087205,8.9725260745,-9.6905655855
479,1.995753499999978,17.257323265,13.441594125,-133.33948135,-3.8496524095,-2.0064676405,13.327283860000001,-48.152671815000005,7.288990736000001,-11.824376822000001
480,1.9999199999999746,16.807076935,13.536919595,-133.40223695,-2.7119195465,-2.6130032835,4.035418451,-51.872573855,7.8891397725,-10.631281611999999
481,2.0040864999999717,16.31088543,13.61780548,-133.47027205,0.7192541955,-0.5585624835,7.849349737000001,-57.39384651,6.3737078684999995,-10.8954327105
482,2.008252999999968,15.783714775,13.74786091,-133.546051,-6.553310752,-3.3247549535000003,12.6797947885,-60.72953224,11.640748975000001,-13.052728414
483,2.0124194999999645,15.197988989999999,13.810883045,-133.59872055,1.8543253539999998,-0.6584778425,7.235065937,-68.48340607,4.96665597,-8.2657212035
484,2.016585999999961,14.55430269,13.932772159999999,-133.7074585,-5.2603577375,-2.639046371,7.043495655,-73.78162384500001,10.002319812500001,-16.398417475
485,2.020752499999958,13.911780355,14.050233365,-133.74171825,-0.011242360000000007,-0.602422416,17.620458605,-75.808452605,11.99178505,-7.7046097515
486,2.0249189999999544,13.222989555,14.141374110000001,-133.8595924,-5.4911378625000005,-2.1380906405,7.356833101,-78.85080719000001,6.560329676499999,-16.081097125
487,2.029085499999951,12.511054515,14.247847555,-133.8962593,3.253275961,0.5609781890000001,1.9579293135000002,-84.06135559,10.7632870675,-7.530270337999999
488,2.0332519999999477,11.77497101,14.349051,-134.03883745000002,-6.8279815935,-3.252353072,16.98214197,-83.81697845,7.602745533,-19.15626335
489,2.0374184999999443,11.005418297999999,14.43048859,-134.07085039999998,-0.19324970950000003,-0.555962991,8.54483342,-91.024620055,8.0492647605,-5.700740099
490,2.041584999999941,10.169294356,14.528571605,-134.2332077,-3.8946824075000004,-2.039842069,5.031194924999999,-95.20809174,7.380718472,-21.232286455
491,2.0457514999999376,9.3643207565,14.61576271,-134.28068925,-0.789056793,-0.417682648,16.344336985,-94.79132459499999,8.5032427335,-7.63254285
492,2.049917999999934,8.505459310500001,14.69053221,-134.43415829999998,-4.533352852,-1.3049036005,10.784416674,-98.13862226,5.451607658,-19.21627426
493,2.054084499999931,7.629267931,14.77365494,-134.51572035,0.2995572985,-1.1283841435,3.871076405,-102.278980235,7.586456848,-11.3661487125
494,2.0582509999999274,6.745752573,14.820140365,-134.6592407,-3.2596023085,-1.250521708,9.5011799345,-101.43776701499999,2.8862164010000004,-17.869586466
495,2.062417499999924,5.859077215,14.855425355000001,-134.76784135,-1.607028127,-0.02525253600000002,11.859553335,-102.6224937,1.8239302634999999,-13.1227772245
496,2.0665839999999207,4.9670672415,14.866894245000001,-134.90251925,-2.325260684,-1.1387614605,7.4260082245,-102.67908095499999,-0.7202004195,-16.173869131
497,2.0707504999999173,4.104955196,14.85745335,-135.02751545,-0.8811019065,1.113025505,9.2166817215,-99.17477418499999,-3.2859406465,-14.965756179500001
498,2.074916999999914,3.2123010154999996,14.816240310000001,-135.1461716,-2.6744360924999997,0.49325871450000003,13.372674465,-103.23273085,-6.43601501,-13.646379234
499,2.0790834999999106,2.3452533785,14.8211627,-135.2654915,-3.6862372160000003,-2.0960254075,9.9938113685,-99.94977188499999,-1.1195154189999998,-14.300405026
500,2.0832499999999077,1.533728033,14.729665279999999,-135.38578035,0.3200744390000001,0.912565619,4.681319117499999,-93.49705123999999,-12.0617611425,-14.1798961175
501,2.087416499999904,0.6967806815000002,14.634083745,-135.50473019999998,-2.201540932,0.30486763299999997,7.6562283035,-96.39040756,-12.685640336,-14.046267988
502,2.0915829999999005,-0.15242284550000007,14.565361500000002,-135.6132622,-2.6001257895,-1.149350345,14.133359429999999,-98.403270735,-8.9612648475,-12.929476025
503,2.095749499999897,-0.9456684295,14.420452595,-135.7496643,-2.875882566,0.373969287,9.09453559,-90.66675567499999,-18.171517845,-16.43842268
504,2.099915999999894,-1.7156480105,14.27342749,-135.84267805,-1.187256873,0.5385740845,6.546667099,-89.400939945,-18.035354615,-11.600872277499999
505,2.1040824999998904,-2.521780193,14.136946675,-135.97959515,-1.4496666194999999,-1.4575742485,10.699726818,-92.31033325,-16.686454295,-16.912747385
506,2.1082490000000007,-3.2929509875000003,13.98114443,-136.0928879,-4.496625185,0.45931300500000005,13.885913850000001,-88.99601745999999,-18.703531265000002,-14.557644369999998
507,2.1124154999999973,-4.039890766,13.826812745,-136.21228405,-2.6153390405000003,-0.8105613515000001,7.1778950695,-85.794734955,-18.47273922,-15.415209295
508,2.116581999999994,-4.795185089,13.65451002,-136.32517625,0.8051634725,0.014894664499999988,4.6337137225000005,-87.15672302499999,-20.33132553,-15.149464129999998
509,2.1207484999999906,-5.557374000499999,13.460475445,-136.460598,-4.021513462,-0.5905525275,11.6637721035,-87.19069290499999,-22.547426700000003,-18.769554139999997
510,2.1249149999999877,-6.310976267,13.24509668,-136.5499115,-2.1083528400000002,-0.635459006,12.747871875000001,-87.68824004999999,-25.36851025,-13.257599355
511,2.129081499999984,-7.08296895,13.048274515,-136.6925507,-3.3744350670000003,-0.8560989050000001,9.615611076,-88.29875183,-22.301554680000002,-20.04146576
512,2.1332479999999805,-7.851045847,12.844149115,-136.7987175,-0.740622535,0.1210195945,8.3564879895,-89.046253205,-23.40206146,-16.007774355000002
513,2.137414499999977,-8.6535220135,12.622581485000001,-136.9198494,-3.534861207,-1.3104239405,12.28505659,-92.64108277,-25.04063988,-18.582818035000003
514,2.141580999999974,-9.477372406,12.419556140000001,-137.0365486,-3.76563406,-0.9923727665000001,13.79565191,-95.52863693500001,-22.714290615,-17.594397545
515,2.1457474999999704,-10.301996229,12.213786125,-137.15508655000002,-1.7954293785000002,-1.294311821,4.9707036015,-95.44966123500001,-22.695577625,-18.87667084
516,2.149913999999967,-11.134872913999999,11.97085476,-137.24998095,-0.9593811704999999,-0.172009319,5.4535746575,-97.243865975,-27.36916828,-16.72415543
517,2.1540804999999636,-12.012111185,11.74988794,-137.3596954,-3.6197628975,-1.3701693115,13.700284485000001,-102.1375122,-24.137337685,-18.70909977
518,2.1582469999999603,-12.89281559,11.540404795,-137.45847325,-2.9752985240000003,-1.064894531,11.6193270665,-102.98270034999999,-22.87920666,-17.02188778
519,2.162413499999957,-13.75772381,11.29914951,-137.5452347,-1.9146151544999999,0.512028851,6.53847909,-101.31696319,-26.56029701,-17.252951625
520,2.1665799999999535,-14.64438391,11.090532305,-137.6322632,-1.7741316855,-0.8651692865,8.556254389,-104.04838565,-22.588329315,-16.46865511
521,2.17074649999995,-15.51403427,10.867670534,-137.7196274,-3.284913778,0.05776873250000003,15.876214505,-101.95212935,-23.90426731,-17.517128945
522,2.174912999999947,-16.379500385,10.6399769785,-137.78358075,-3.3693345785,-0.008698784000000001,10.3219318375,-102.11474227,-25.032328605,-14.97475004
523,2.1790794999999434,-17.25114155,10.476803779,-137.8579521,-2.0611266195,-0.1777774395,4.257956088,-102.58298110000001,-16.95923996,-14.620150084999999
524,2.18324599999994,-18.076298715,10.2740178095,-137.92941285,-1.6735780985000002,0.02720484150000002,9.3297901165,-97.145622255,-21.461431505,-15.85012293
525,2.1874124999999367,-18.90983486,10.0256528865,-137.95491795,-2.8293724655,0.025939851999999985,12.0962629315,-99.135757445,-28.085180285,-12.70439005
526,2.1915789999999333,-19.78031826,9.8475937865,-138.0192871,-3.3241627215000005,-0.5045904295,10.8402009,-102.814323405,-18.48567629,-14.55956316
527,2.19574549999993,-20.572545055,9.701443195,-138.06746675,-2.7950987219999996,0.451493084,11.050182345,-93.73564911,-15.339809895000002,-11.713634015499998
528,2.1999119999999266,-21.29940605,9.524936676,-138.10176085,-3.9496182204999997,1.1558207870000001,10.9199078075,-86.18462753,-19.180937765,-11.81138897
529,2.2040784999999232,-22.04543209,9.345242501000001,-138.1192093,-1.383421421,0.9081832175,7.2003545760000005,-88.84970473999999,-20.16066265,-10.1569609635
530,2.20824499999992,-22.771564480000002,9.2006344795,-138.1393814,-1.29485178,-0.118276298,11.833341598499999,-86.424732205,-15.98349047,-9.162514927
531,2.2124114999999165,-23.41419697,9.045457840000001,-138.15395355,-3.889061332,-0.1721680165,8.770408153,-76.49918747,-17.33404827,-9.199193003
532,2.216577999999913,-23.97977257,8.889731884,-138.14881895000002,-2.3980858925,1.89812088,9.492455962,-67.64995956,-18.17123222,-7.340911865
533,2.22074449999991,-24.52097988,8.7246737485,-138.12467955,-2.6783269645,2.3984788655,12.89013195,-65.08333778,-20.151413920000003,-5.674788952
534,2.2249109999999064,-25.04578686,8.604496956,-138.1196823,-1.6846279505,1.1424096225,9.2893872285,-62.741678235,-14.13872957,-5.938266039
535,2.229077499999903,-25.480875015000002,8.4758441445,-138.10578915000002,-4.0414166455,0.1701784135,11.9715204255,-52.18513489,-15.575877669999999,-5.208625197
536,2.2332439999998996,-25.84073639,8.323143482,-138.0633469,-1.9074078795,1.282752037,9.414895534500001,-43.616519925,-19.48473167,-3.8208255765
537,2.2374104999998963,-26.199487685,8.176171779499999,-138.05420305,-3.4436463120000003,1.0185239315,10.626729488999999,-42.92337227,-17.20983934,-6.9382393360000005
538,2.241576999999893,-26.54018688,8.0501687525,-138.01987835,-0.9590173215,-0.2356621925,10.060772181499999,-41.181966779999996,-16.126409055,-3.4492623805000004
539,2.2457435000000032,-26.808561325,7.925775289500001,-138.0169487,-4.0389854905,-0.10581699,8.496724604,-31.95260048,-14.388242245,-6.6079232690000005
540,2.24991,-27.004266735,7.7734794615,-137.9783211,-1.159534205,2.056732893,11.550282955,-23.82551861,-19.170446395,-4.529041767
541,2.2540764999999965,-27.19988537,7.6197304725,-137.94533155,-2.483258575,0.13986310350000003,7.780698061,-23.706962585,-19.094397545,-5.1428246495
542,2.258242999999993,-27.375709535,7.507418394,-137.92859265,-2.135144681,0.7062200905,11.604513645,-21.071968554999998,-13.685034275,-4.769418001
543,2.26240949999999,-27.491244315,7.375803947,-137.9007111,-3.5060448644999997,0.2136574315,10.023334027499999,-13.990918635,-16.44015217,-4.5562558175
544,2.2665759999999864,-27.574666025,7.2351164815,-137.8573723,-1.8231738210000001,0.6167758999999999,10.0508966435,-10.3877086655,-18.144099235,-3.591558576
545,2.270742499999983,-27.652785299999998,7.129207373,-137.84164425,-3.721118808,0.35774618399999997,10.293110368499999,-9.329852341,-13.0262832645,-4.4185779095
546,2.2749089999999796,-27.711398125,7.045228719500001,-137.82636259999998,-2.9432348015,0.240413487,10.379244327,-6.970370771,-10.557862759999999,-3.4484514594999998
547,2.2790754999999763,-27.733897210000002,6.92447567,-137.8010521,-3.277481377,-0.22844782499999994,11.305176255,-2.7741439344999996,-15.113420009999999,-4.2960271835
548,2.283241999999973,-27.75254822,6.856980562,-137.79099275,-2.7210615875000004,0.1638294305,10.496846198,-2.121582419,-8.512423636,-3.0614581110000003
549,2.2874084999999695,-27.77176762,6.800507307,-137.80145645,-3.911464691,-0.19022636850000002,12.242117405,-1.8442829250000001,-6.295909405,-4.5147080425
550,2.291574999999966,-27.75944519,6.715251446,-137.7737045,-2.3127182719999997,-0.022315069999999992,10.0831341725,1.3683061005000001,-11.388378618499999,-2.19615823
551,2.295741499999963,-27.751290320000003,6.690096617,-137.7968025,-3.2160679105,-1.1807155015,11.80873871,1.5855403545,-2.2685248255,-4.070569396
552,2.2999079999999594,-27.758371355,6.660032034,-137.7996483,-2.739669502,0.10963923099999999,10.942029000000002,-0.5224792065,-3.829193592,-2.3508042094999997
553,2.304074499999956,-27.750450135,6.623287201,-137.80090330000002,-3.275542617,-1.185164541,9.1224827765,1.2493730185000003,-4.694475285499999,-2.435638696
554,2.3082409999999527,-27.753220560000003,6.612544775,-137.80948254999998,-1.695692956,-0.9107313749999999,11.029107568499999,0.06897914450000009,-1.4582569600000002,-1.8611624839999998
555,2.3124074999999493,-27.775396345,6.6344573495,-137.84054565,-3.3746410605,-0.8878226874999999,9.4702394015,-1.9440434574999998,3.182011366,-2.306708962
556,2.316573999999946,-27.811728475000002,6.631483555,-137.85098645,-2.060603738,-1.056394041,9.2980866445,-3.9382019044999996,-0.5241307024999999,-1.619197622
557,2.3207404999999426,-27.83856869,6.6750326155,-137.88544085,-4.22381103,-0.771851063,10.201900004999999,-2.463993549,5.68412563,-1.4569697105000001
558,2.324906999999939,-27.870344160000002,6.735687256,-137.9410057,-1.1407047955,-0.133933194,11.639369013,-2.74867025,8.743554592,-2.8353869615
559,2.329073499999936,-27.922804835,6.7895650865,-137.9754677,-4.4625543355,-0.5717847795,8.5973145985,-5.544015944,6.7757668195,-0.831623733
560,2.3332399999999325,-27.985960005000003,6.877794027,-138.0279083,-1.839578152,-1.2575336400000001,9.640741825500001,-6.534211159,11.490886215,-0.930264231
561,2.337406499999929,-28.02514839,6.928842306,-138.08831025,-1.9139272575,-0.7431223395,11.756651399999999,-3.5407004355,7.9231808185,-3.7656701805
562,2.341572999999926,-28.087521555,7.003971099499999,-138.12647625,-1.989957124,-0.40017691600000005,7.0452940465000005,-6.649321556,9.31227994,-0.12325578900000012
563,2.3457394999999224,-28.163580895000003,7.0520505905,-138.17274475,-2.9511493445,-1.49363333,9.7103433615,-8.134281874,6.8293647105,-2.4909399894999997
564,2.349905999999919,-28.21439075,7.107269764,-138.20909885,-0.823784828,-0.25281251250000003,10.489607334999999,-5.274336815,7.087273597499999,-1.0461687745
565,2.3540724999999156,-28.28708267,7.158282995,-138.25946045,-4.052703105,0.063096076,11.396355628,-7.6878762245,7.390801668,-2.686248064
566,2.3582389999999123,-28.36478615,7.22578454,-138.28273775,-2.404761098,-0.989807576,9.657348632,-8.6604623795,7.643795012,1.013049513
567,2.362405499999909,-28.412920954999997,7.280109405499999,-138.346138,-3.2350910305,-0.8040823340000001,12.261657715,-4.5604293345,8.480291365,-3.8053600789999997
568,2.3665719999999055,-28.479055404999997,7.3353998659999995,-138.3703766,-1.470789291,0.6090352535,10.7304472945,-7.2522425655,6.411750198,0.22368914299999998
569,2.370738499999902,-28.542392735,7.380061388,-138.41560364999998,-4.0423667430000005,-2.2993264195,8.3541684155,-6.6418938635,6.437082051999999,-2.463673532
570,2.374904999999899,-28.596435545,7.411130667,-138.43769075,-0.00908410549999994,0.178209841,12.1125078205,-5.8289613725,3.719756603,-0.8974716064999999
571,2.3790714999998954,-28.64985275,7.454883814,-138.4835968,-4.0514979365,-1.1642956735,8.490303515,-5.409502267500001,6.385622500499999,-2.6174609660000003
572,2.383237999999892,-28.68345642,7.473615885,-138.4918518,-1.6749695390000001,-0.4268850385,8.4658482085,-3.6090391875,1.6365512089999998,-0.15236619100000004
573,2.3874045000000024,-28.720000265,7.5118250845,-138.51191715,-2.380293578,-0.6286620795,12.7556552875,-3.7724839450000003,4.319821715,-0.208820045
574,2.391570999999999,-28.75347519,7.5353744030000005,-138.5299225,-3.007572949,-0.6809732765,8.350657462500001,-3.4171886295,2.704587817,-0.901595492
575,2.3957374999999956,-28.794624329999998,7.5532703395,-138.53554535,-2.0874557344999998,-0.817929685,11.79479027,-4.593484163499999,1.370931357,0.14192843450000003
576,2.3999039999999923,-28.824088095,7.586809397,-138.5475693,-2.8765193225,-0.9163561315000002,10.1092410075,-3.0342941729999997,3.4135000705,0.3090997185
577,2.404070499999989,-28.85523701,7.586122274,-138.55585480000002,-2.373770833,-0.781325607,8.935981274,-3.356738925,-0.42323684699999997,-1.2146142425
578,2.4082369999999855,-28.895158764999998,7.6029832365,-138.56733705,-1.5926407355,-1.5704271195000001,10.2181811335,-4.3028776645,1.629218817,-0.6123018865000001
579,2.412403499999982,-28.916760445,7.6095113755,-138.56773375,-2.8101594445,0.137884019,8.539331198000001,-2.3402514755,-0.12457418450000013,0.06431737500000001
580,2.416569999999979,-28.96016598,7.607687711500001,-138.5822678,-1.8496701569999998,-1.597273767,10.2565059645,-4.628345132,-0.16404581099999938,-2.0327778905000002
581,2.4207364999999754,-28.96889019,7.6215646265,-138.58424375,-3.0587825774999997,-0.0163548815,11.07776737,-0.7799790799999999,0.7231030460000003,0.335014973
582,2.424902999999972,-28.99016285,7.6351075175,-138.58992005,-2.1744788885,-0.769709308,7.9212503435,-2.1215183140000002,0.9412460325,-0.20824366849999998
583,2.4290694999999687,-28.991945265,7.647285938,-138.59288025,-3.167309761,-0.8194605265,12.341020109999999,0.07563883049999999,0.5883462430000002,0.1413777735
584,2.4332359999999653,-28.991602895,7.6738693715,-138.60411835,-2.355077714,-0.0431331395,11.8903446175,0.5151534675,2.6343151925,-0.0021259785000000003
585,2.437402499999962,-29.01576519,7.7023158075,-138.6056137,-3.511316538,-1.7210779189999998,6.9927110675,-2.601810813,2.2263315915,1.2028123735
586,2.4415689999999586,-29.009500505,7.7235867979999995,-138.62522124999998,-1.2602419855,-0.004687160499999982,14.162118435,1.3421411214999999,2.573475599,-1.1532939675
587,2.445735499999955,-29.029031755,7.7484891414999995,-138.62368775,-3.366565466,-2.3182365295,10.045362947000001,-2.0946617990000003,1.675804913,1.292014152
588,2.449901999999952,-29.043355939999998,7.7890868189999996,-138.650383,-2.32203722,-0.917357748,6.3845489025,-0.9981738630000001,5.004566431000001,-0.768459037
589,2.4540684999999485,-29.058802605,7.7993752955,-138.66031645,-0.9788851735,-0.653760895,12.890094282,-1.416345477,0.7943997380000001,-0.742466874
590,2.458234999999945,-29.049720765,7.853683233,-138.6797714,-4.1490443945,-1.419905305,8.126979351500001,1.6729422805,6.0283041,0.7817335430000001
591,2.462401499999942,-29.082964895,7.883538246500001,-138.69356535,-1.8084309995,-0.714298323,9.757136821,-3.4630898235,3.065051198,-0.0024078490000000174
592,2.4665679999999384,-29.1010828,7.9392940995000005,-138.7259216,-2.4349894525,-1.0078594685,9.8802680965,-1.3655655085,6.927288174,-0.45440954000000006
593,2.470734499999935,-29.11402607,7.9774222375,-138.74027255,-2.9913521260000002,-0.745367378,12.37453747,-1.0493897200000002,3.9767826795000003,0.42113001650000004
594,2.4749009999999316,-29.14254284,8.0510041715,-138.76612089999998,-2.8395118865,-1.3612094524999998,6.719348669,-2.6941504480000003,8.411619903,1.2497507335
595,2.4790674999999283,-29.152290345,8.0624537465,-138.7829208,-1.148017878,-1.2951900365,12.23356295,-0.628445193,1.3110069595,-1.3626708835
596,2.483233999999925,-29.183935165,8.138557434500001,-138.80689239999998,-2.6448546649999995,-1.2691797615,5.5879113675,-3.0946030615,8.5591311445,1.569454551
597,2.4874004999999215,-29.18073845,8.130527257499999,-138.80068970000002,-2.0465009215,-0.8390936554999999,9.411123513,0.5357858095000001,-2.0507844984999997,-0.10083043549999993
598,2.491566999999918,-29.205597875000002,8.212494135,-138.83361050000002,-3.4341539145,-1.546929598,12.443615910999998,-2.097927928,9.685147045,1.0035143495
599,2.495733499999915,-29.206884379999998,8.212796688000001,-138.82790375000002,-2.2690883875,-0.1355874315,7.928034306000001,-0.016892671500000067,-1.1513726114999998,0.32910442350000013
600,2.4998999999999114,-29.229572295,8.2879531385,-138.8642731,-2.267737329,-1.3713704345000002,11.73884392,-1.7829624115,9.179175379,0.25226178050000003
601,2.504066499999908,-29.21816158,8.3194406035,-138.87368014999998,-3.6738125085,-0.933584094,12.623916149500001,1.7608506085000002,2.9825469255,0.606839687
602,2.5082329999999047,-29.24037361,8.3701200485,-138.9019394,-2.175470352,-1.2272355855,8.555325508,-1.872202158,6.1402642725,-0.3497368245
603,2.5123994999999013,-29.231445315000002,8.384182453,-138.91215515,-2.4418202640000004,-1.2893007994999999,11.137050155,1.4996685015,1.209670797,-0.49739015099999995
604,2.516565999999898,-29.249607085,8.429613828499999,-138.9319992,-2.1940922735,-1.600838989,8.36924267,-1.5043237955,5.1028617025,0.2179257865
605,2.5207324999998946,-29.23868084,8.416229248,-138.9405289,-1.608348608,-0.791260913,9.002156017499999,1.6891627685,-1.760063052,-1.9441207350000003
606,2.524898999999891,-29.260944365,8.456502676,-138.95883945,-3.0742411615,-1.817426443,10.982524869999999,-2.020034581,4.4663865565,0.08503925800000012
607,2.5290655000000015,-29.25951481,8.4414937495,-138.95749665,-2.784717679,-1.0285004375,8.809476854,0.379045859,-2.5192946195,-0.9975848795000001
608,2.533231999999998,-29.266773219999997,8.4802217485,-138.98131560000002,-1.1105360985,-0.5640328375,10.270749568,-0.14938863,4.6208274365,-0.5664076805
609,2.537398499999995,-29.250092504999998,8.4395058155,-138.9694824,-3.9814760685,-1.366764128,11.118265152,2.0323742924999997,-5.808354377500001,-1.415506601
610,2.5415649999999914,-29.270140644999998,8.4925904275,-138.9945908,-1.88681376,-2.036910415,8.9678697605,-1.6387412545,6.205439567999999,0.13834238049999992
611,2.545731499999988,-29.26425171,8.4403886795,-138.97286225,-1.9282667635,-0.7799970285000001,10.845176695,0.5339927675,-7.596356751,-1.047122568
612,2.5498979999999847,-29.286434175,8.482203483500001,-139.00608065,-1.5787285565,-2.10022074,5.3774631920000004,-1.740122229,5.493389487,-1.3710663914999999
613,2.5540644999999813,-29.26944256,8.40898633,-138.96330260000002,-2.0952820780000003,-0.6513950079999999,12.31278515,1.503933564,-11.00535631,-0.1299282315000001
614,2.558230999999978,-29.296830175,8.463339567,-139.00003815,-3.010818243,-2.483308494,7.755004405999999,-2.322705269,6.9999928475,-0.9934740064999998
615,2.5623974999999746,-29.288972855,8.3673870565,-138.94361115,-1.2948149445000001,-0.7873980105,9.558183195,0.20588084299999998,-14.177692409999999,-0.060500741500000066
616,2.566563999999971,-29.307242395000003,8.443762064,-139.00372314999998,-4.099511146999999,-1.0586508810000002,12.253051279000001,-0.828229919,10.679592608,-2.103549987
617,2.570730499999968,-29.298656465,8.3750617505,-138.94661710000003,-1.841128826,-0.645619005,9.7308018225,0.25555312649999995,-11.397700785,1.652041495
618,2.5748969999999645,-29.297668455,8.4419095515,-138.9996033,-4.5065050125,-1.7537739275000002,10.8830506805,1.353200294,9.2684533575,-1.9195243865
619,2.579063499999961,-29.29473591,8.365468979,-138.95832819999998,-0.11674541249999992,-0.7443675105,12.870109554999999,-0.143107176,-11.3194904345,-0.3978660705
620,2.583229999999958,-29.318072315000002,8.4275288585,-138.99170685,-5.2892408369999995,-2.3772399425,6.0491063595,-1.9241732655000001,7.6245191095,-0.18375647099999992
621,2.5873964999999544,-29.298231125,8.358477354,-138.95269775,-0.1777715795,-0.9407434164999999,12.6580500585,1.9555316569999999,-10.376153945999999,-0.2501998245
622,2.591562999999951,-29.321546554999998,8.391089201,-138.98255920000003,-4.342552066,-2.156226516,9.302670719,-1.9683771134999999,4.3444622755,-1.5454029145
623,2.5957294999999476,-29.330687519999998,8.3401994705,-138.94049834999998,-0.8365928229999999,-2.04703486,8.300597192000001,-1.6125892405,-8.7019314765,1.2087679205000001
624,2.5998959999999443,-29.34914875,8.390976906,-138.971344,-4.945972204,-0.8541464805,12.048698423000001,-1.378359556,6.303297639,-0.5650755765
625,2.604062499999941,-29.357780455,8.3513519765,-138.94532015,-0.0545464545,-1.0398085044999998,9.2140727065,-1.2518699169999998,-6.5419332985,0.11450845050000003
626,2.6082289999999375,-29.374094005,8.3988621235,-138.96151735,-5.407272577500001,-2.352734506,9.8084765665,-1.4151225760000001,5.113434551,0.7656286655
627,2.612395499999934,-29.41173744,8.4065947535,-138.95383455,0.28305244449999994,-0.777513072,8.200645804,-4.388788223,-0.5392308235000001,1.0289687215
628,2.6165619999999308,-29.438253404999998,8.4167072775,-138.9636917,-3.9604171515,-2.086819112,9.742810963,-2.722274542,0.832206249,-0.769458048
629,2.6207284999999274,-29.47724247,8.44520545,-138.964035,-0.5937205145000001,-2.0282322165,7.6030919565,-4.441783488,2.0839678645,1.450489312
630,2.624894999999924,-29.511389735,8.450302600499999,-138.97124485,-4.6279438735,-1.5664774179999998,9.6619114875,-3.669565916,0.15636202700000001,-0.8156021234999999
631,2.6290614999999207,-29.551192285,8.501251698,-138.98446654999998,-1.3294917305,-1.4283428790000001,11.3511455045,-4.3177595135,5.13302207,1.5256670715
632,2.6332279999999173,-29.571450235,8.4933857915,-138.98519134999998,-4.485496998,-0.3524891065,8.464250924,-2.1450320485,-1.5725796225,-0.921318412
633,2.637394499999914,-29.612797735,8.58658123,-139.02500915000002,-1.6417408585,-1.533075392,11.20075989,-4.0093516115,11.115829465000001,1.278553903
634,2.6415609999999106,-29.620536805,8.5710611345,-139.01335145000002,-4.0419341325,-2.0750480295,10.201138018,-0.8485739825,-3.0953846575,-0.08191433549999999
635,2.645727499999907,-29.66343689,8.6650705335,-139.0643997,-2.366623998,-1.5340070275,10.962607385,-3.995315552,11.866122725,0.14086554950000002
636,2.649893999999904,-29.681990625,8.638786316000001,-139.04885860000002,-1.575932175,-1.0598128735,9.3282270445,-2.2246990505,-4.441732705,-0.32186853849999997
637,2.6540604999999005,-29.712296485,8.7385263445,-139.10107425,-3.2954084875,-2.8430933955,5.3474180405,-2.4529539945,12.52885294,0.373429954
638,2.658226999999897,-29.70153236,8.6790003775,-139.06697845,-0.025952398499999974,-0.189372018,10.067878723,0.9436990025,-8.997852802499999,-0.4095076325
639,2.6623934999998937,-29.737649920000003,8.782588482,-139.1303406,-3.8911045195,-1.9557936195,9.586164354,-2.92484498,13.59730053,-0.5412285925
640,2.6665599999998904,-29.752053265,8.7389473915,-139.09123995,-0.738218017,-1.5548472109999998,8.176407815000001,-2.1328014285,-7.639875293999999,1.037056416
641,2.6707265000000007,-29.779084205,8.8467230795,-139.1641464,-4.982831001,-0.691052571,14.394620897,-1.6909051535000001,14.589212895,-1.2407537400000002
642,2.6748929999999973,-29.78249931,8.815504551,-139.13671875,0.5865075585,-1.6536588075,6.046996237,-0.6060075760000001,-5.657256364499999,0.5674578545000001
643,2.679059499999994,-29.779020305,8.893336296000001,-139.18107605,-6.208233594999999,-2.195794016,10.5817053295,1.4660245180000002,9.837653874499999,-0.1676323865
644,2.6832259999999906,-29.792965889999998,8.914108276,-139.17932889999997,0.7497917119999999,-1.386332691,9.0911257285,-1.4111009835,1.256455302,1.0268939135
645,2.687392499999987,-29.810190204999998,8.9119577405,-139.18350985,-4.6206667425,-2.2831023335,7.6859905105,-1.7312919050000002,-0.883755211,-0.7658656835
646,2.691558999999984,-29.830467225,8.985035418999999,-139.216156,-1.1988897325,-2.2729219795,10.392238854,-1.5125142935,8.7370355155,0.618346855
647,2.6957254999999805,-29.833486559999997,8.923737526,-139.1721344,-2.9594056010000003,-1.028665483,9.261235000500001,-0.9529903829999999,-9.869516373,0.633484904
648,2.699891999999977,-29.85970402,9.029976845,-139.23033145,-3.0174131395,-1.745384842,11.292768956,-1.751392841,13.6933403,-0.012858350000000001
649,2.7040584999999737,-29.864859584999998,8.958720207,-139.18585205,-0.9423815460000001,-2.0299018025,8.5472850785,-1.2229645850000002,-10.9175381655,0.061896830999999986
650,2.7082249999999704,-29.88117981,9.045082569,-139.22050475,-5.0351251365000005,-1.4878011345000002,13.1089608695,-1.016513765,10.232535837,1.204989791
651,2.712391499999967,-29.879317280000002,9.024549484,-139.21764374999998,-0.19794356800000001,-1.1895387695000001,5.241507053,0.3988137245000001,-3.238894183,-1.069605589
652,2.7165579999999636,-29.875027655,9.0278849605,-139.2011185,-4.0069904325,-0.8604144754999999,12.105577469500002,0.5141416790000001,-1.427686303,1.5186360479999998
653,2.7207244999999602,-29.893582345,9.105248928,-139.2515869,-1.761906803,-1.817555845,12.157019615,-1.060256608,10.087379935000001,-0.705985993
654,2.724890999999957,-29.909086225,9.0312199595,-139.19584655,-2.3966890569999997,-1.777037263,7.383013964,-2.606549263,-11.794017315000001,0.9244113865
655,2.7290574999999535,-29.928718564999997,9.1389226915,-139.26002505,-5.6021208765,-2.2473940844999998,13.228206635,-0.9058859275,14.050326825,-0.3075116875
656,2.73322399999995,-29.916551589999997,9.084669113499999,-139.20764924999997,1.4019044045,-0.9210181829999999,6.877803652500001,0.7274830340000001,-9.537122728,1.769117832
657,2.7373904999999468,-29.915919305000003,9.1176886555,-139.2305527,-4.9463911055,-2.05551064,7.181043221,0.7733706835,3.8652654884999995,-0.569634937
658,2.7415569999999434,-29.91560173,9.163881302,-139.2383652,-0.583828092,-2.5018217565,11.6024901865,0.4599677325,4.473795057,1.614138633
659,2.74572349999994,-29.898932455,9.100532531999999,-139.18863675,-3.6129676104999997,-1.131195575,6.696955204,1.3058133719999998,-10.418009282,1.058463566
660,2.7498899999999367,-29.8965168,9.2300543785,-139.25432585,-2.7244353595,-0.830635935,11.253224849999999,1.8331858220000001,16.55561876,0.6434105485
661,2.7540564999999333,-29.875416755,9.1840028765,-139.20574190000002,-1.1112163959999999,-1.7688032390000001,9.8044435975,1.827690661,-8.5505762105,2.005485952
662,2.75822299999993,-29.86475849,9.323626041499999,-139.25280759999998,-6.098038912,-1.4091042875,9.422449104,2.4864190219999998,16.49332237,3.1304636
663,2.7623894999999266,-29.849851604999998,9.356419563,-139.25112915,-0.32035572050000005,-1.779773831,11.253332018,1.98131907,2.3954825380000004,1.976407476
664,2.766555999999923,-29.818994525,9.4403662685,-139.24933625,-4.668487668,-1.9408366085,8.380868198,3.9851335289999996,7.8241569994999995,4.8255491255
665,2.77072249999992,-29.79085064,9.622856140500001,-139.2925873,-2.826333165,-1.258405715,11.224494459499999,4.452941418,20.64179945,6.2432739735
666,2.7748889999999165,-29.72570324,9.684597492,-139.2534714,-2.3959258795,-0.798018873,7.469704866500001,7.336385012,3.3291337490000004,7.33288932
667,2.779055499999913,-29.669444085000002,9.956574441499999,-139.3177948,-5.1313146355,-1.0218478665,12.814312936,8.300810335,31.251156809999998,9.292106865000001
668,2.7832219999999097,-29.55453014,10.0661759355,-139.27108765,-0.09263992300000001,-0.3967924565,7.4974534525,13.095392230000002,7.8983150879999995,10.932845829
669,2.7873884999999063,-29.436623575,10.397650715000001,-139.34239200000002,-6.245478153500001,-1.264046967,8.700163366,15.94187689,37.944169045,11.915603161
670,2.791554999999903,-29.238344195,10.610701559999999,-139.3196335,0.020961463499999944,0.30586716550000004,10.054511249499999,23.60024929,20.175388335,14.493812564999999
671,2.7957214999998996,-29.024817470000002,10.95295048,-139.36297605,-6.833827019,-0.8252874609999999,7.102902830500001,26.866115569999998,37.584774975,15.089015965
672,2.7998879999998962,-28.75521183,11.26546192,-139.37441255,-0.09297192099999996,0.3535850085,9.5162968635,32.920254705,32.696635244999996,16.56282282
673,2.804054499999893,-28.450611115,11.611394405,-139.38362884999998,-5.525292039,-0.9418602585000001,9.292111157,37.07007408,36.248082159999996,18.350748065
674,2.808221000000003,-28.073866844999998,12.023738385,-139.4230881,-2.384750962,0.6159508225,10.8137073495,46.46099472,44.986829755,18.953209880000003
675,2.8123875,-27.6506958,12.365957739999999,-139.40560915,-3.3407605885000002,-1.3616248075,7.2434010505,50.65982819,34.64490223,20.42961311
676,2.8165539999999964,-27.180841445,12.843748095,-139.44672395,-2.4413594755,0.2552940865,10.08033657,57.761430739999994,52.336805345,21.733085629999998
677,2.820720499999993,-26.640054705,13.22767639,-139.43753815,-1.6494072135,0.13603571050000002,8.3795022945,64.985441205,39.938306804999996,21.095534325000003
678,2.8248869999999897,-26.060189244999997,13.689716335,-139.44454955,-4.087648213,-0.1427937335,8.4431924825,70.07726479,49.2620945,23.54337978
679,2.8290534999999863,-25.43509102,14.161067485,-139.45883945,-1.8009863495,-0.421338305,10.305665016,75.776184085,51.02313995,22.30222702
680,2.833219999999983,-24.767646785,14.563099385000001,-139.42205810000002,-2.71700114,-0.6833734885,8.465074062500001,79.264823915,41.103157045,24.04188919
681,2.8373864999999796,-24.07279015,15.103267670000001,-139.449646,-2.906464428,-1.3889037370000001,10.8290863015,84.62249756,59.707012175,23.106476784999998
682,2.8415529999999762,-23.30563736,15.487838745000001,-139.384346,0.5782215594999998,-0.2309021355,6.5477531845,90.29430771,38.43657684,25.09692097
683,2.845719499999973,-22.55410385,16.00166035,-139.3835907,-6.340601444,-1.059317142,10.4625735275,90.53108596999999,56.121053695,23.43962288
684,2.8498859999999695,-21.73849964,16.45225906,-139.3396225,0.37369831649999996,-0.774081409,10.117366073,96.70658111,47.394468305000004,24.624302865
685,2.854052499999966,-20.919811250000002,16.8608799,-139.27294925,-5.1642842295,-1.7488044500000002,7.827527046,96.32413863,42.26597786,24.327823635
686,2.8582189999999628,-20.093281745,17.406497955,-139.24911495,-0.9121856395,-1.0762016175,13.217556,98.630149835,59.544706345,25.04525757
687,2.8623854999999594,-19.23785305,17.74526596,-139.1531601,-2.4039700625,-2.434585273,7.985073445499999,99.585849785,33.948617935,23.34026909
688,2.866551999999956,-18.39155769,18.281629565,-139.11220550000002,-5.024469852499999,-0.7892002765,10.1850340375,100.343353275,58.58387184,24.894164085
689,2.8707184999999527,-17.501909255,18.658024785000002,-139.0322342,-0.29299378399999987,-1.8950129155,12.329421519499999,104.1052551,39.505620955,21.80055332
690,2.8748849999999493,-16.6287241,19.09209633,-138.9350052,-4.053506851,-2.2185699345,7.656164406,101.31438825000001,45.74664688,25.616776465
691,2.879051499999946,-15.738456249999999,19.540984155,-138.86438750000002,-2.458288729,-1.4808796050000002,11.234570505,104.4154968,48.84623718500001,22.01684761
692,2.8832179999999425,-14.835365295,19.865869519999997,-138.7263031,-0.4228061435000001,-1.4585331675,9.2333793655,103.07092285,32.66391754,25.05012989
693,2.887384499999939,-13.940131665,20.30085659,-138.64150235,-4.509305477,-3.1040952209999997,9.4327304345,104.2256241,47.42552757,22.042905805
694,2.891550999999936,-13.020542145,20.60505009,-138.47422790000002,-0.7727671564999999,-1.0597112775,14.790067669999999,103.646492,30.311375615,26.43342972
695,2.8957174999999324,-12.125039099999999,20.978435515,-138.3662567,-3.3964090345,-2.3764446375,6.6217424865000005,103.13490295,40.320388795,21.292627335
696,2.899883999999929,-11.2014184015,21.255068775,-138.17506405,-0.31938878449999997,-2.388089001,12.264149185,102.88286595,27.39818287,27.420862200000002
697,2.9040504999999257,-10.28622341,21.605762480000003,-138.0408249,-4.2020173075,-2.0932492615,10.276255606500001,104.21118165,37.752830505000006,22.187782285
698,2.9082169999999223,-9.362823487,21.829561235,-137.82661819999998,0.5485565775,-1.3362441655,7.5183475015,101.592678055,21.624253269999997,27.831451415
699,2.912383499999919,-8.4539699555,22.141489980000003,-137.68165205,-4.4440543654999995,-3.3909952640000003,9.6961281315,102.84207914999999,33.65170002,21.485651015000002
700,2.9165499999999156,-7.5187420844999995,22.354329110000002,-137.45533375,1.154014468,-0.8627624065,11.603745462,102.264545435,21.048974989999998,28.120762825
701,2.9207164999999122,-6.6092984675,22.571656230000002,-137.2870636,-5.2250361445,-2.657497406,6.6918060755,101.6847496,22.716323374999998,21.544343945
702,2.924882999999909,-5.663395882,22.783807755,-137.05733105000002,0.318684429,-1.449129224,13.88357353,103.2181778,21.89030075,27.769675255000003
703,2.9290494999999055,-4.723118424,22.92401886,-136.8765373,-2.389854312,-1.886530042,6.1339039804999995,104.64902115000001,14.0084490775,21.15339661
704,2.933215999999902,-3.7657675745,23.059187889999997,-136.63655475,-1.8320534825,-1.3396387695,12.8397617335,103.9715195,13.5267465095,27.56107044
705,2.9373824999998988,-2.8316702845,23.185771945,-136.44805524999998,-2.961809993,-2.78363657,10.95498848,103.4589157,13.0439586615,21.347575665
706,2.9415489999998954,-1.8835435509999998,23.231091499999998,-136.2140999,-0.8149662464999999,-0.9377479554999999,9.9630084025,103.08530425000001,3.724557936,25.74387455
707,2.945715499999892,-0.9349466409999999,23.294774054999998,-136.0078545,-3.4959994555,-2.9675745965,11.460765363,104.27591705,6.1471643445,22.75691605
708,2.9498820000000023,0.02396780249999997,23.321826934999997,-135.7783737,-0.5800552665,-1.7976178525,11.5063867585,104.5465126,2.374611199,24.961000445
709,2.954048499999999,0.9565355335,23.27792835,-135.5594635,-2.5691958070000003,-2.4134076835,8.219219684999999,101.720779435,-6.0014305135,23.927679060000003
710,2.9582149999999956,1.8927396239999998,23.298693655,-135.3572502,-2.2767162919999997,-2.2636840935,11.509159565000001,103.1062584,2.361244917,21.99169731
711,2.9623814999999922,2.850248873,23.202586175,-135.12464905,-0.7952798605,-2.0286759135,12.797691345,104.10331345,-11.386098385,25.719708445000002
712,2.966547999999989,3.7780019045,23.16809177,-134.92494965,-5.5297846795000005,-2.1969922785,7.869961622,102.2718849,-3.5348227005,22.114231105
713,2.9707144999999855,4.7179347275,23.078899385,-134.7030182,1.695106387,-2.002156854,9.798148634,102.54724505,-9.7550282475,24.81649017
714,2.974880999999982,5.6452705860000005,22.921447755000003,-134.5169411,-3.1649819615,-2.5778647665000003,9.9973378175,102.88567351500001,-17.7057538,21.994392395
715,2.9790474999999788,6.5394494535,22.849190710000002,-134.30280685,-1.697334647,-2.034804583,9.3046808265,97.50428009,-7.0144488805,24.125144005
716,2.9832139999999754,7.415471077,22.60279369,-134.14386365000001,-2.3500519989999997,-3.4390913249999997,12.0684094425,98.07216262,-27.965164185,20.730327605
717,2.987380499999972,8.3251273635,22.504053114999998,-133.94631959999998,-3.741743922,-0.8757650260000001,13.848642111,100.29036329499999,-9.6247344025,22.930049895
718,2.9915469999999686,9.183369396,22.34910393,-133.7877846,-0.9942790269999999,-2.5962733625,8.4177134035,96.064601875,-16.459497925,19.87293148
719,2.9957134999999653,10.0286488555,22.142528535,-133.62043,-2.4195874335,-2.2797486185,11.089815617,94.017353055,-22.237184525,22.11368847
720,2.999879999999962,10.851363183,22.00285053,-133.48103709999998,-2.917221069,-4.0441145899999995,10.1513357155,92.76771927,-14.431615355,17.992472175
721,3.0040464999999585,11.665446755000001,21.73397827,-133.3390465,-1.0015477535000001,-0.7170693425000001,14.13390398,91.57732773000001,-29.406876564999997,21.393482204999998
722,3.008212999999955,12.449589725,21.65882778,-133.2012138,-4.308586717,-2.6939200165,11.41845274,88.299873355,-6.3774323465,16.560290815000002
723,3.012379499999952,13.192481520000001,21.375818250000002,-133.06490325,0.5748448669999999,-2.3203804495,4.9792040140000005,83.38418960499999,-30.591797825,21.97676277
724,3.0165459999999484,13.90876293,21.24422169,-132.96206285,-4.385190248500001,-3.2632814645,12.412101745000001,81.735477445,-13.474891665,14.562660695
725,3.020712499999945,14.60835886,20.95245266,-132.84028245000002,-0.5652715564999999,-2.353250563,13.21903944,78.972145085,-31.380104064999998,21.429021839999997
726,3.0248789999999417,15.262150765,20.81995201,-132.74294665000002,-4.480476856,-2.939582586,9.6938654175,74.581748965,-13.370862005,14.22502327
727,3.0290454999999383,15.89393854,20.594693184999997,-132.6338463,-0.26366089249999997,-1.919383228,10.151048184,71.48743057,-23.521900175,18.711776735
728,3.033211999999935,16.48098421,20.40497303,-132.54095460000002,-3.4110022785,-3.1697515245,12.052411317,66.75961113,-19.805638315,15.98156071
729,3.0373784999999316,17.01922131,20.233948705,-132.45250325,-3.1947984099999998,-3.305877924,16.78017092,61.25233459500001,-17.551885125000002,15.053829669999999
730,3.041544999999928,17.540845875,20.04313946,-132.3516693,-1.7378045919999998,-2.5995283125,6.6475954055,58.694801334999994,-19.323256015,17.227311135
731,3.045711499999925,18.012443545,19.853693964999998,-132.2940292,-2.0092080535,-2.1579979060000003,7.053929567500001,54.470968244999995,-20.46582937,12.800263885
732,3.0498779999999215,18.45502472,19.675815585,-132.20100785,-2.5622725485,-3.614828825,15.76168156,49.64096832,-17.799737450000002,16.232751845
733,3.054044499999918,18.81317043,19.50335312,-132.15771105,-3.1439028975000003,-3.302767038,10.8367814995,41.52782631,-18.84521866,10.857724192
734,3.0582109999999147,19.15078354,19.340968135,-132.0706978,-2.0527397545,-2.0606819395,4.7679229975,37.3384676,-16.012731075,15.28668404
735,3.0623774999999114,19.45064354,19.185982705,-132.03341294999998,-2.8112205269999997,-2.6197892425,17.734806065,34.76198769,-16.967247485,9.740757702
736,3.066543999999908,19.714592935,19.043225285,-131.94770435,-3.469426274,-3.702500582,9.6362276055,28.713661195,-13.6567528225,14.539325715
737,3.0707104999999046,19.925117489999998,18.88890362,-131.92360685,-1.080424428,-2.083472669,4.5015459060000005,24.487766265,-17.3086767205,8.447423816999999
738,3.0748769999999013,20.11899948,18.758853915000003,-131.8395195,-2.126755029,-2.9122002125,12.187425614999999,20.39142609,-12.178738595,13.9646792395
739,3.079043499999898,20.284005165,18.608065605,-131.8131218,-3.3410742285,-1.4880423545,14.08323097,19.021155354999998,-16.7426261915,8.666593491
740,3.0832099999998945,20.403981205,18.478523255,-131.74991985,-1.7809733749999999,-2.9666923285,6.2862508295,12.388707636,-12.85949707,11.800528289999999
741,3.087376499999891,20.528135300000002,18.342955590000003,-131.72060775,-1.9744589925,-1.445437223,10.603391645,13.952864888,-14.874104500000001,8.3991279015
742,3.0915430000000015,20.628885269999998,18.220007895000002,-131.66028595,-3.597117126,-1.933568418,16.07642555,10.2734379775,-12.1880257115,11.3008778075
743,3.095709499999998,20.73219204,18.103907585,-131.61699675,-2.26619333,-1.3635108175,6.869082689500001,10.9640438545,-12.078647135,9.1244553335
744,3.0998759999999947,20.81006336,18.005159374999998,-131.57033919999998,-1.8392094825,-2.9574959874999998,5.3661397695,8.039035678,-9.99230194,8.844451664000001
745,3.1040424999999914,20.868626595000002,17.86962128,-131.53666305000002,-1.3982156515000002,-1.2799210845,12.049063205,5.899837494,-14.6181693085,8.9325965035
746,3.108208999999988,20.951719285000003,17.798001290000002,-131.49759295,-5.7360761165,-1.3948261145,13.047543525,9.042960644,-7.2232946135,6.947887242
747,3.1123754999999846,21.0348711,17.670999525,-131.45153425,0.9685885685000001,-0.625238627,8.796709776,8.441795349,-13.1358098985,9.9463886005
748,3.1165419999999813,21.121245379999998,17.59276962,-131.43459704999998,-4.479901075,-1.9471751154999999,5.831908941,10.173098086,-8.86062479,4.844573974
749,3.120708499999978,21.197907445,17.459635735,-131.40370180000002,1.2255471645,-0.050271078999999996,16.296106815,8.2545046805,-14.403986929999999,8.656272172
750,3.1248749999999745,21.27070904,17.42659855,-131.37688824999998,-8.0087955,-3.8636186125,11.75357294,8.232102870999999,-3.3824816945,3.9712059474999997
751,3.129041499999971,21.377152445,17.32004929,-131.33481215,2.9673357009999997,0.4503888915,4.481554866,11.428596498000001,-10.943141459,8.715068982
752,3.133207999999968,21.459875105000002,17.237298015,-131.34260940000001,-4.8538458349999996,-1.7192462685,8.993458748,10.633964063499999,-10.364989283,2.4526283719999995
753,3.1373744999999644,21.549319265,17.096395495,-131.30483625,1.0224174855000001,-1.5848797265,13.880207065,9.561944963,-14.93618584,9.807048382
754,3.141540999999961,21.618730545,17.038921355,-131.31575775,-7.167120218,-2.639069319,10.3602194785,9.189307211,-7.666561723499999,1.0675871370000003
755,3.1457074999999577,21.697260855,16.927289485,-131.28126145,2.9922739265000002,0.7737173940000001,8.6186826225,8.353387832500001,-11.7766685465,8.183775901999999
756,3.1498739999999543,21.78018856,16.86536598,-131.3015976,-7.216891048,-4.166029811,9.279703377499999,11.061016561999999,-8.566049099,0.23977494249999998
757,3.154040499999951,21.86216545,16.721598625,-131.27598575,2.71689266,1.153264448,14.71049452,9.1534245,-15.702551365,8.7353363625
758,3.1582069999999476,21.917984009999998,16.66314936,-131.31155775000002,-7.6120195385,-2.7174868585,8.65823531,8.3741858005,-8.826008798,-1.5061051844999995
759,3.162373499999944,22.014604565,16.535099985,-131.2697754,3.060122013,-0.698510483,8.375782491999999,10.392422677999999,-13.23653841,9.814529182
760,3.166539999999941,22.06226921,16.460781569999998,-131.30829235,-6.3774737120000005,-2.740882158,7.950716255,7.4139323255,-10.7350754745,-1.119124651
761,3.1707064999999375,22.128314015,16.33010006,-131.2836838,2.6276741025,0.3104600315,9.3317294125,7.348181963,-14.242611884999999,8.132617833
762,3.174872999999934,22.18389702,16.26717997,-131.3168182,-9.329995156999999,-2.958287716,15.035175800000001,8.1851775645,-9.228933214000001,-1.0197669269999998
763,3.1790394999999307,22.25912666,16.17445946,-131.2776375,2.7794653775000002,-0.18110633649999996,10.4964115625,7.9626796245,-9.374357223,7.989229439
764,3.1832059999999274,22.31849861,16.13323307,-131.30496215,-7.068195343,-2.236879885,6.921611786,8.4505293385,-6.558988867,-1.362678051
765,3.187372499999924,22.369448665,16.030742645,-131.28178785,3.676712513,-0.652589306,11.527197838500001,5.5482172965,-11.1491551425,6.730519173
766,3.1915389999999206,22.42219162,16.010460375,-131.31805805,-8.884753228,-3.7267723085,13.06521988,7.9209407555,-4.6412366605,-3.2705670369999997
767,3.1957054999999173,22.49026966,15.94336367,-131.27191165,1.7870527210000002,1.2484598755,11.006822348,6.9459211825,-6.1899805070000005,7.610456705000001
768,3.199871999999914,22.534294125000002,15.939338205,-131.30400465,-5.867417574,-2.432705939,6.996286869,6.692391634,-2.6654495005,-3.596219659
769,3.2040384999999105,22.6095562,15.838997365,-131.26581955,4.012233436,0.5604895205,8.4710066315,8.0846552845,-10.203573701500002,8.3193581115
770,3.208204999999907,22.62673855,15.7842226,-131.3105621,-7.156074524000001,-3.8744578365,9.424142122,3.8640354875,-8.846696375,-2.6121653315
771,3.212371499999904,22.677713394999998,15.711800100000001,-131.28371429999999,1.6451103985,-0.30317528550000006,12.245430469999999,5.552622556999999,-7.6126348974999996,5.8417942525
772,3.2165379999999004,22.706256865,15.684366225,-131.31983565000002,-7.6986835005,-2.0534739495,11.8411636355,4.904671669,-5.443799973,-2.9487555025
773,3.220704499999897,22.766036035,15.64696169,-131.27391435,1.9113237859999999,-0.2298681995,8.838965417499999,6.008812189,-2.8729632945,6.2464351655
774,3.2248709999998937,22.803198815000002,15.6076355,-131.32398985,-5.9393370155,-1.750603318,11.619801525,6.3899008035,-7.3860897995000006,-3.866680503
