,time,Euler_X,Euler_Y,Euler_Z,Acc_X,Acc_Y,Acc_Z,Gyr_X,Gyr_Y,Gyr_Z
0,0.0,13.706778843333334,-9.540311495666666,-33.54946393333333,0.23955949166666657,-1.6694002346666668,10.083701767,-75.52488963,43.31830851,5.668219089333333
1,0.0083329999999932,13.024071373333333,-9.215314229333334,-33.47903443333333,-5.011474450333334,-2.564613580666667,10.343578658,-81.03257497333333,39.20466359333333,-1.1995534896666664
2,0.0166659999999865,12.260891276666667,-8.816102981666667,-33.343093833333334,1.332583984,-1.389112234,10.552556671,-89.30259196000002,49.53604889,4.899040699333333
3,0.0249989999999797,11.444353740000002,-8.402454058666669,-33.2374725,-4.867938797,-1.8913785216666668,10.381053608,-96.34067789666666,50.303324383333326,1.758028943
4,0.033331999999973,10.575826963333334,-7.975543339999999,-33.12166339999999,1.2624333300000001,-1.9978747766666665,12.604508562000001,-102.74139910000001,52.343915303333326,3.4004540446666667
5,0.0416649999999663,9.655489923,-7.473851203666666,-32.99608356666666,-5.397887945333333,-1.183094109,9.097236234666667,-108.9076131,61.19051488,3.6228947253333335
6,0.0499979999999595,8.697988828,-6.9933670359999995,-32.8905589,1.5952081880000002,-2.014231185,10.410668689666666,-113.5709686,58.16632207333333,2.930164814
7,0.0583309999999528,7.705308437333334,-6.4646641413333334,-32.7650401,-4.504867156333334,-0.6122161446666666,11.387267111,-117.84568786666667,64.23050308333333,5.224543592
8,0.0666639999999461,6.691118240333334,-5.893979708333333,-32.66888173333333,1.7918376723333331,-1.5961562396666666,10.458478609666665,-120.72267656666666,68.60256831,2.494729717333333
9,0.0749969999999393,5.683035532666666,-5.381349881333333,-32.55239866666667,-4.842642943,-0.9560214233333334,10.763385774333331,-120.07597349999999,61.97315597333333,6.705424308999999
10,0.0833299999999326,4.636243979333334,-4.748280843333333,-32.4702835,1.510095437333333,-1.198091887,12.383592603333334,-125.00651043333333,75.75890858999999,2.5921223760000003
11,0.0916629999999258,3.5855851173333337,-4.187819083333333,-32.403851800000005,-4.138573944666667,-0.5574784576666667,10.610219954,-125.7062912,66.77856064000001,2.6293192703333332
12,0.0999959999999191,2.544667721,-3.551786105,-32.3508886,0.3030044236666667,-0.9105291166666666,9.041989168666666,-124.96538290000001,75.96513112666666,1.9145974316666667
13,0.1083289999999124,1.4807293416666667,-2.9372211296666664,-32.31172943333333,-2.3414649959999996,-0.5186642956666666,11.664680958333333,-127.87980906666667,73.17374420333333,1.5787102383333333
14,0.1166619999999056,0.4307027136666666,-2.316413085,-32.290301,-1.0362936656666666,-0.7979549069999999,8.567265828666665,-126.15546163333333,73.74796295333333,0.8269800346666667
15,0.1249949999998989,-0.6259626943333333,-1.6914361716666668,-32.26771290000001,-0.7154886720000001,-0.045730129,11.673244158333333,-127.17446896666667,74.30128733,2.2949239013333336
16,0.1333280000000059,-1.672789097,-1.055416127,-32.274986266666666,-1.5053997236666665,0.44004680966666676,9.834843317666667,-125.90916443333333,75.55659993666666,0.12088608766666671
17,0.1416609999999991,-2.7115019163333334,-0.44978283866666663,-32.2721176,-1.0069231983333333,0.38038754966666666,11.215850192666666,-124.90184276666666,71.74572245,2.593247890666667
18,0.1499939999999924,-3.7451023263333334,0.1894307233333333,-32.33088936666666,-0.9389465453333333,-0.237104883,9.383771600666668,-124.5337601,76.40021768999999,-3.3105686606666667
19,0.1583269999999856,-4.758097171666667,0.7345276946666667,-32.35769146666667,-0.7813998063333334,-0.18460575733333337,10.675103188333333,-121.99287926666666,64.80183410666666,1.1667529743333331
20,0.1666599999999789,-5.769848823333334,1.3156820136666667,-32.429784133333335,1.1147357623333334,-1.1004467806666667,12.454394341333332,-121.54697673333334,69.48345439,-2.850608945
21,0.1749929999999722,-6.766969840000001,1.7786226273333334,-32.48893483333334,-0.7462735176666667,1.690383762,9.212036847,-119.91750843333334,55.33692550666667,-1.4708782433333332
22,0.1833259999999654,-7.759278456333333,2.325341304,-32.58707936666667,-1.0778884093333332,-0.5573378303333333,10.813451449333334,-118.9627101,65.80474217666666,-3.8135490416666666
23,0.1916589999999587,-8.716280301333333,2.765133539666667,-32.65220386666667,-0.7307763499999999,0.08806267866666666,8.29870534,-114.94681036666667,52.69674174,-0.6070139726666667
24,0.1999919999999519,-9.655207316666667,3.258167902666667,-32.78899893333334,-0.485426525,0.5726429273333333,12.097189903999999,-112.13133746666665,60.261173246666665,-7.172236442666666
25,0.2083249999999452,-10.59741942,3.63367335,-32.856475833333334,0.0016501943333334286,-0.08915209800000001,9.434048972000001,-113.0355555,45.13644663666667,-0.523668884
26,0.2166579999999385,-11.52525965,4.029880205666667,-32.99160513333333,0.28003064799999994,0.2979268033333333,13.126939294666665,-110.59732566666666,49.01358286666666,-7.213954766666666
27,0.2249909999999317,-12.43989372,4.285946766666667,-33.06201426666666,0.07540609466666659,-0.219235909,7.208580972,-109.59804280000002,31.175741833333337,-2.2902981936666666
28,0.233323999999925,-13.35471026,4.652607917666667,-33.212173433333334,-0.8177428243333332,-0.6950615646666666,13.158204079999999,-108.7332484,46.149428050000004,-8.118554274333334
29,0.2416569999999183,-14.259685836666668,4.818839867666667,-33.2874603,0.9378394286666668,0.4408474466666667,7.659401735,-108.31014503333334,20.885352453333336,-4.427959203666667
30,0.2499899999999115,-15.16288916,5.083366076,-33.422454833333326,-1.4583031733333334,-0.07809686199999999,11.651389599666667,-107.35525513333333,34.07667160333333,-7.996669928333333
31,0.2583229999999048,-16.067160923333333,5.1420633,-33.473744700000005,3.046273668333333,-1.242233639,10.345993994666667,-108.43403116666666,7.7958447133333335,-4.444589058666666
32,0.2666559999998981,-16.95903651,5.2643502553333335,-33.58983356666667,-2.3665017286666665,0.6207789383333333,8.053535621333333,-106.13834636666667,17.299017748333334,-9.503291449
33,0.274989000000005,-17.823385873333336,5.321369807,-33.66526793333333,1.4853943986666664,-0.025345096999999983,12.471741358000001,-103.36763762666668,8.582516033333334,-7.028511683333334
34,0.2833219999999983,-18.699050903333333,5.278067588666667,-33.72551476666667,-1.7898739030000002,0.12502442800000002,8.083143672,-104.80257669999999,-3.3798885333333337,-8.854519049333334
35,0.2916549999999915,-19.544362386666666,5.336220582333333,-33.8088328,0.730447769,0.36413477866666666,15.908974965333334,-101.00902813333335,9.205585159999998,-7.5630364420000005
36,0.2999879999999848,-20.389628090000002,5.1430149080000005,-33.809712733333335,1.2161277136666666,-0.45107375566666663,6.132438539333333,-101.82615405,-22.442406969999997,-8.436818123
37,0.3083209999999781,-21.183314003333333,5.130107879333333,-33.88246663333334,-2.4289876619999995,0.9805696013333334,13.602340660333333,-94.95807139,1.0013923049999998,-9.059942882666666
38,0.3166539999999713,-21.934816996666665,4.909638882,-33.85931903333333,2.1100866000000003,1.2692512870000001,8.120316823333333,-90.84517669666667,-26.309521993333334,-7.629794915666666
39,0.3249869999999646,-22.64116414333333,4.765079816333333,-33.87708536666667,-3.1545107363333336,1.5288705976666668,9.746583937666665,-85.08770752,-15.883428634333333,-8.874602158333333
40,0.3333199999999578,-23.284880956666665,4.580594857666667,-33.87080893333333,1.898836235,1.7210888466666667,14.805481276666669,-77.75696309333334,-21.333691119666668,-8.494716803000001
41,0.3416529999999511,-23.878904979999998,4.288832028666666,-33.819208800000006,-1.5462226666666667,0.6936825513333332,6.975302060666667,-72.27281443666665,-35.181790670000005,-8.694891771333333
42,0.3499859999999444,-24.400977453333336,4.116799354333334,-33.804117866666665,-0.5475552483333331,1.1624361973333333,13.103118894666666,-63.26111602666666,-20.227046967666666,-7.325030962666666
43,0.3583189999999376,-24.89261054666667,3.7123418650000004,-33.71154276666667,1.1192134219999998,1.0499119733333333,8.036604880666667,-60.27482350666667,-49.39774322666667,-10.467429479333333
44,0.3666519999999309,-25.30751736666667,3.5171616076666665,-33.69819643333333,-2.9986029466666673,1.47486492,14.222806216999999,-50.39485295666666,-22.51537132333333,-8.999522209333334
45,0.3749849999999242,-25.655370076666667,3.124346733,-33.596043900000005,1.5824398993333333,1.0440597733333334,9.149512131333333,-42.987976073333336,-48.49006652666666,-9.555013339666667
46,0.3833179999999174,-25.96471468333333,2.863973697,-33.55226133333333,-3.9042838013333334,1.3440985283333333,10.611887615333332,-37.91903559333334,-31.038085940000002,-9.348947842666668
47,0.3916509999999107,-26.20140075333333,2.516829967666667,-33.46752419999999,1.3194334906666667,0.24980319299999998,13.097353139666666,-29.42739995333333,-42.56921831666667,-9.515033721666667
48,0.3999839999999039,-26.411754606666666,2.190631508666667,-33.384577400000005,-3.3375236193333335,2.019569417,7.236375807000001,-26.18965403,-40.13145128666667,-8.866109848333334
49,0.4083169999998972,-26.56188647,1.9234238863333335,-33.336517333333326,-0.17713693766666663,0.15928652366666665,15.946607909999999,-18.787275633333334,-31.95575523333333,-9.470941226999999
50,0.4166500000000042,-26.682223003333334,1.5622596343333335,-33.2151591,-2.0959539609999998,0.48893634466666674,7.236900965333334,-15.436512629999998,-45.88391939666667,-6.885621865666667
51,0.4249829999999974,-26.761578243333332,1.3401643236666665,-33.18044283333334,-1.8388647236666662,1.5072332223333333,13.447289943333333,-10.209324677666666,-26.37388166,-8.558479150333334
52,0.4333159999999907,-26.83057022,0.976680289,-33.06099193333334,-0.5589271386666667,-0.9798795776666668,8.267018268000001,-9.138091087666668,-46.049007413333335,-7.300521373666666
53,0.4416489999999839,-26.853319170000002,0.7833741380000001,-33.03632353333333,-3.5108142096666666,1.2213611603333332,14.917069117666665,-3.3658702369999998,-22.71713511333333,-8.136378924333334
54,0.4499819999999772,-26.86165809666667,0.4960124493333333,-32.942563400000004,-0.017146825999999837,0.18227721466666666,10.255409558666667,-1.7125265996666663,-36.4596049,-6.063430150333333
55,0.4583149999999705,-26.846138003333333,0.2907547253333333,-32.903483066666666,-3.360706965,-0.6324002843333333,9.762421128666666,1.2283865910000002,-24.77681636666667,-7.235525925666667
56,0.4666479999999637,-26.82901827666667,0.09053271033333332,-32.844139066666656,-0.22015334566666667,0.2648040953333333,13.19258531,1.4221987936666667,-25.273447673333333,-5.008648713333333
57,0.474980999999957,-26.80894152333333,-0.13792918899999998,-32.7976761,-2.900123954,-0.5156014130000001,8.599403698666668,1.8062144320000002,-27.668614706666663,-7.688114802
58,0.4833139999999503,-26.771141053333334,-0.22219540666666668,-32.78724163333334,-1.453299562,-0.8504880883333333,14.944256466666667,3.906949282,-10.235449554,-3.9030171233333335
59,0.4916469999999435,-26.749302546666666,-0.4528794486666667,-32.72346493333333,-1.3454389673333331,-0.2538171363333333,7.211397529666667,2.056350605,-28.915156683333333,-5.950802802999999
60,0.4999799999999368,-26.707568486666663,-0.500084122,-32.740557366666664,-3.064554453,-0.254899137,13.186793802666665,4.338684082,-4.723448654333333,-4.799283663333334
61,0.5083129999999301,-26.691329956666667,-0.6736970110000001,-32.69917296666666,-0.19239572666666657,-1.4723742306666667,9.456346036666666,1.3793915909999999,-21.544190086666664,-5.226437568666667
62,0.5166459999999233,-26.672849016666664,-0.7235525620000001,-32.700604766666665,-3.2286596296666663,-0.06631310766666661,10.157856624666666,1.558293377,-5.913746674666666,-3.2716507913333337
63,0.5249789999999166,-26.68176206,-0.8063253933333333,-32.7019552,-0.25477975633333333,-0.9839794236666667,13.86007404,-1.705335736,-9.513691566,-4.908016761
64,0.5333119999999099,-26.694122316666665,-0.9272182583333333,-32.65893046666667,-2.1866339443333334,-1.6127736966666666,8.412090301666666,-2.0653106073333336,-15.926737905000001,-2.324163754666667
65,0.5416449999999031,-26.70924250666667,-0.9027014923333333,-32.699200966666666,-1.9966890413333334,-1.026230971,11.545487084666666,-2.549235513,4.037986755333335,-3.332271576
66,0.5499779999998964,-26.770365396666666,-1.017845094,-32.650497433333335,-0.049962282333333295,-1.3155323066666667,7.138851065666667,-7.889499664333333,-15.564680419333333,-1.3982347646666666
67,0.5583110000000033,-26.819508233333334,-0.9624452393333334,-32.6986542,-4.388708661,-0.8149318746666667,13.87295977,-6.654625574666667,7.833029271000001,-2.4562642573333338
68,0.5666439999999966,-26.895706813333334,-0.9911619126666666,-32.688476566666665,0.4919536013333334,-0.44470949966666673,11.88184134,-9.806373594333333,-4.276229461,-0.9282814066666667
69,0.5749769999999899,-26.98434702333333,-1.005705774,-32.69200133333333,-2.6389914353333332,-1.111738473,7.989193280333333,-11.298206013333333,-2.062535604999999,-1.4651387133333333
70,0.5833099999999831,-27.06897290666667,-0.9360247403333334,-32.737111399999996,-0.6987573303333333,-1.3037307729999998,13.824950853666666,-10.950220107333335,9.259364924666668,-1.4918971853333332
71,0.5916429999999764,-27.19151623666667,-0.9984328943333334,-32.714533499999995,-1.6475675203333335,-0.9270569286666667,6.584678532000001,-15.339974403333335,-8.666085442,-1.3063221573333332
72,0.5999759999999696,-27.3026638,-0.875874574,-32.78793593333334,-2.7797679106666666,-0.6320428756666666,13.229874612000001,-14.179708160000002,16.51059214333333,-1.5228393673333336
73,0.6083089999999629,-27.436594646666663,-0.8924604056666667,-32.79159036666666,0.46107105400000004,-0.7798487346666666,11.300418058,-16.749046006666667,-2.287309646333333,-1.6117248933333335
74,0.6166419999999562,-27.557846703333336,-0.847202291,-32.8171463,-2.8078566393333335,-0.40647747100000003,8.838767369333333,-15.312471073333334,5.590091506666666,-0.6370476883333334
75,0.6249749999999494,-27.68557294333333,-0.7717313903333333,-32.860748266666675,-0.1040263176666667,-1.1780051886666665,11.931108792666668,-16.0903101,9.739600339666666,-0.7826774913333335
76,0.6333079999999427,-27.83898480666667,-0.8157741523333334,-32.8493932,-1.4320990246666667,-1.1479132176666667,6.420663792666666,-19.10627842,-5.961119653333334,-1.6693871023333333
77,0.641640999999936,-27.965444566666665,-0.6628301423333333,-32.94237773333334,-2.8363838196666666,0.034914203,14.281234104333334,-16.043415703333334,20.678004266666665,-1.6165284713333332
78,0.6499739999999292,-28.110883713333333,-0.6790628286666666,-32.938875833333334,0.7973318496666666,-1.0950263663333333,9.944431465000001,-18.149879453333334,-2.5200655856666665,-0.9702461163333332
79,0.6583069999999225,-28.24117724,-0.5839461633333334,-32.986335733333334,-3.287700414666667,-0.26803324633333325,10.861669859000001,-16.402975716666667,12.037953376333334,0.063753868
80,0.6666399999999157,-28.38286718,-0.538744698,-33.0099818,0.7853631973333334,-1.1432048006666666,11.62442907,-17.774736403333332,5.471992809666666,-0.3961883636666666
81,0.674972999999909,-28.520966846666667,-0.5402470926666667,-33.0099945,-2.3332232733333336,-0.5448155106666667,6.934889257999999,-17.269410133333334,-0.8787395163333335,-0.36825174833333335
82,0.6833059999999023,-28.645678200000003,-0.3821126123333333,-33.09572856666667,-2.2332638106666667,0.07090013233333332,15.197640417666667,-15.819219906666667,20.940654436666666,-0.4245602933333333
83,0.6916389999998955,-28.763133366666665,-0.3968528706666667,-33.0890223,0.6070902350000001,-1.5070761446666667,8.655090767999999,-14.835413616666669,-2.7053762273333337,-0.4800962806666668
84,0.6999720000000025,-28.876063026666667,-0.276609865,-33.15326436666666,-3.8528917633333335,0.3885118166666666,9.978332041333333,-14.33638096,15.757337253333333,-0.21561657399999992
85,0.7083049999999957,-28.99136098,-0.23038586466666666,-33.1726939,1.759150048333333,-1.2547504803333334,12.669018428333333,-14.564569156666664,5.256730715,0.31312551699999996
86,0.716637999999989,-29.099180223333335,-0.21080996533333332,-33.1799342,-2.448086262,-0.4573399573333334,6.435401598666666,-13.718283015999999,1.828967412333333,-0.048466393666666684
87,0.7249709999999823,-29.18707211666667,-0.08699017633333332,-33.24507143333333,-1.582758824,0.277426486,13.584083556666668,-11.305875778333332,16.061121940000003,0.08467637900000002
88,0.7333039999999755,-29.263009393333334,-0.07999582800000002,-33.24816386666667,-0.45375998833333336,-0.7617845733333333,11.356999714333332,-9.889900683999999,0.26695164033333346,-0.36993361500000005
89,0.7416369999999688,-29.324578606666666,0.03445967533333333,-33.2934672,-3.0342817306666667,0.052667627666666626,9.142430941333334,-8.176215173333334,13.885900021666666,1.6379709843333334
90,0.7499699999999621,-29.3779583,0.12291675833333333,-33.33724466666667,0.44811594500000007,-0.8688450356666667,12.329192479,-7.159749508333333,11.215357461666665,0.16864389166666668
91,0.7583029999999553,-29.45913124333333,0.1320639253333333,-33.31486003333333,-0.8050508576666667,-1.3225872516666668,7.612990697666667,-10.490043161666666,-1.0823555006666663,2.572139263
92,0.7666359999999486,-29.506383259999996,0.27045563833333336,-33.3910726,-2.9792663653333338,-0.29188206266666666,13.871651966666667,-6.451045354333334,18.312229473333336,-0.2525139056666667
93,0.7749689999999418,-29.56531397666667,0.32292976,-33.38974506666667,0.32975485466666665,-0.5985485713333333,9.865152517666667,-7.829773108333334,4.670568486,2.9252314169999996
94,0.7833019999999351,-29.60951869,0.40506163266666667,-33.42282103333333,-2.348310708666667,-0.5916025243333333,9.726418812666667,-6.096918423666668,9.883108933333334,0.9678083756666668
95,0.7916349999999284,-29.657909393333338,0.5138292510000001,-33.46020506666667,-0.8718028116666666,-0.8279744583333333,11.035456023666667,-6.582120259333333,12.809313137000002,2.196813682666667
96,0.7999679999999216,-29.70993995666667,0.537020713,-33.46542866666667,-0.02882099133333334,-0.9572641253333334,10.283456802,-7.009126186333333,2.1151295206666663,0.4027667843333334
97,0.8083009999999149,-29.766983666666665,0.6462901086666667,-33.50678,-3.054360628,-0.689944424,9.224560737666666,-7.574484983333332,13.134470146333333,1.8661978543333333
98,0.8166339999999082,-29.803927740000002,0.757635591,-33.56096903333334,-0.519711673,-0.5711779843333334,12.736988068333332,-5.187050342333333,14.176757176333334,0.5247672200000001
99,0.8249669999999014,-29.85661252,0.8156440743333334,-33.57773336666667,-0.8281175689999999,-0.7338166933333333,9.639641760666668,-7.077251593333333,6.317708573333334,1.3926716746666665
100,0.8332999999998947,-29.88834317333333,0.9219474146666666,-33.60310366666667,-1.8880609673333335,-0.5272896886666667,12.196421623333334,-4.605956633666667,12.012241042999998,3.1135045686666665
101,0.8416330000000016,-29.93257013666667,1.01839002,-33.6321462,-0.32020082066666666,-1.5406343243333334,8.931921641666667,-6.086254278666668,11.023598671,2.386589574333333
102,0.8499659999999949,-29.972671509999998,1.0778308313333334,-33.63639323333334,-1.0379665543333332,-0.32199383800000003,10.32405138,-5.5999940236666665,5.818529844333334,2.687761803666666
103,0.8582989999999882,-30.017639796666668,1.1986550386666666,-33.687749233333335,-2.742614865666667,-0.8570109453333332,11.673244474666665,-6.077827612666667,14.926245686666666,1.578558549333333
104,0.8666319999999814,-30.043329240000002,1.3115423716666665,-33.72530113333334,-0.18596507133333326,-0.6007933913333333,12.529707273333335,-3.8415215013333337,13.337059476333332,2.403542002
105,0.8749649999999747,-30.090564726666667,1.364733954,-33.74550883333333,-0.4810838800000001,-1.2397191129999998,7.485686779000001,-6.416686853000001,6.040323735333334,0.7437820033333334
106,0.8832979999999679,-30.124306996666665,1.4622363250000001,-33.766759233333325,-1.5733170506666667,-0.8148261606666667,11.199296313666666,-4.851067304666667,10.759328524666666,3.2088147799999995
107,0.8916309999999612,-30.161455153333332,1.554018974,-33.81155393333333,-1.155642152,-0.510316439,10.06791878,-5.176625092666666,11.475238482333333,0.546932295
108,0.8999639999999545,-30.18946774666667,1.6252722143333334,-33.813659666666666,-0.558576842,-1.051690678,10.455719310666666,-4.174830916,6.910005092666668,3.634327332333333
109,0.9082969999999476,-30.23229472,1.7060467796666667,-33.852793399999996,-1.6958066126666669,-0.9251790246666666,10.597803433,-5.826500892666666,10.037878674,0.4780470926666666
110,0.916629999999941,-30.261836373333335,1.8158326746666669,-33.878128066666676,-0.8526108463333335,-0.5130951703333333,13.001298903333334,-4.323799133333334,12.342589218666665,3.4306689103333334
111,0.9249629999999344,-30.307435353333332,1.8458747663333333,-33.890919966666665,-0.006737788333333346,-1.8091743390000001,9.291210175,-6.242253303333334,3.208242843666667,0.11529819199999995
112,0.9332959999999276,-30.330161413333332,1.920797825,-33.894104,-2.0600282746666667,-0.10615847500000002,10.419815538666667,-3.597882549,7.327114582,3.754295985
113,0.9416289999999208,-30.353095373333332,2.016444564,-33.941843666666664,-1.5998833776666668,-0.3942989906666667,9.839590708000001,-3.386420170333333,12.105315209999999,0.5153328676666667
114,0.949961999999914,-30.366392136666665,2.1047192813333333,-33.956680299999995,-0.8998042546666666,-0.992356976,11.798990886666667,-2.4122123123333337,9.475944361333335,3.248405933333333
115,0.9582949999999072,-30.400886533333335,2.128480633,-33.963256833333325,0.8992544016666667,-1.521910707,10.303842543666667,-4.937524477666666,2.1858549116666666,0.39795983333333335
116,0.9666279999999006,-30.42569033,2.190206925,-33.97113039999999,-2.4183885056666665,-0.19950636233333338,9.367630166666666,-3.826169491,6.319476127666667,2.3634341556666665
117,0.9749610000000076,-30.44713974,2.2462462586666665,-33.9912262,-0.40004418300000005,-1.6681705316666668,9.95215734,-3.318635861,6.345372041333333,0.9743569693333334
118,0.9832940000000008,-30.463527046666666,2.3038043580000003,-33.99437459999999,-1.915697783,-0.2349395953333333,12.153834663333333,-2.837566375666667,5.580624421333333,2.6372073890000003
119,0.991626999999994,-30.47330411333333,2.333919604666667,-33.996531166666664,-0.05834783133333329,-0.6960753676666668,10.139866671333332,-2.0052404999999998,2.5603734653333334,1.2878667116666667
120,0.9999599999999872,-30.48815854333333,2.4044962326666663,-34.00849916666667,-2.6109930673333337,-0.8982000153333334,11.190117516666666,-2.616114298333333,7.480928262,2.503202478
121,1.0082929999999806,-30.49332428,2.448023518,-34.009791033333336,0.44085251699999994,-1.5707552036666668,11.697187426333334,-1.4551446436666666,3.911639611,2.1707040466666667
122,1.0166259999999738,-30.509008406666666,2.4812664986666664,-33.9924469,-1.5305617253333335,-1.0127380143333333,7.736539522666667,-2.8597268660000004,1.8529421289999999,3.248311758
123,1.024958999999967,-30.50332705,2.5326866706666666,-33.9908091,-0.7615160743333332,-0.44964764999999995,11.336889108666666,-0.1753977336666667,4.545860767333333,2.980224847666667
124,1.0332919999999604,-30.494810106666666,2.603369395,-34.006479899999995,-2.936211427,-0.2992752593333334,12.23328336,0.2145575286666667,7.7273289363333335,2.1390022436666665
125,1.0416249999999536,-30.45496623,2.672730525,-34.017405200000006,0.2600926253333334,-0.41123442600000004,11.027632077,3.989570935333333,7.173459806666667,2.761231819666667
126,1.0499579999999469,-30.412997563333334,2.6922778686666664,-34.00395203333333,-1.2687772313333332,-0.8877111276666666,7.9319071763333335,4.073986768666667,0.6699274879999999,2.0445880493333335
127,1.05829099999994,-30.33667310333333,2.7749925453333333,-34.0141042,-1.2577125826666666,0.10395403199999999,11.957053183333334,8.362241903,8.515491962666665,3.666545868
128,1.0666239999999334,-30.223672866666664,2.830105821,-34.0175883,-1.2323123476666666,-0.44789193066666666,9.630716005666667,12.690523146666669,5.3752416773333325,2.4606147606666666
129,1.0749569999999269,-30.07769648333333,2.9035893283333336,-34.01118976666666,-1.1240077066666667,0.4347698836666667,9.790226934666666,16.623806636666668,6.592943668333334,4.775152524666667
130,1.08328999999992,-29.882471723333335,2.982864459,-34.0122986,-2.5060414473333332,0.18431685433333334,10.812843640666665,22.543074923333332,7.785672982333334,4.0953170456666665
131,1.0916229999999132,-29.648048400000004,3.1307626563333333,-34.03551229999999,-1.9117835219999997,0.5943480133333333,11.247176963,27.422257106666667,16.163902916666668,6.050198555000001
132,1.0999559999999065,-29.354721703333336,3.2345599333333332,-34.0395355,-0.5230851743333333,0.438267817,11.020515603,34.336588543333335,10.559590895,5.167849063666667
133,1.1082889999998995,-29.011472066666666,3.373708248,-34.0449524,-2.1955160696666667,0.366397952,9.379981039666665,40.37152608333333,14.280832290333334,7.232550303333333
134,1.1166220000000069,-28.59253311,3.567159017,-34.088617966666675,-1.1082918843333334,1.06099691,13.273337681666668,49.69242604666667,22.34014797,6.070248921666667
135,1.124955,-28.123327256666666,3.6671301523333333,-34.06152853333334,-0.542150001,0.09823611366666668,7.317752837333334,55.25277456,8.414173284,8.200719038666668
136,1.1332879999999932,-27.599684396666664,3.8924036823333332,-34.1200409,-3.2720367906666668,0.21007615833333335,10.894444623666667,62.39938354666666,26.663120906666666,5.902560552
137,1.1416209999999865,-27.00819651333333,4.064917167333333,-34.13183593333334,0.33678785733333333,1.0017294283333333,14.700632413333333,70.22873942000001,18.456798396666667,7.873016039333334
138,1.1499539999999795,-26.364805219999997,4.232303778666667,-34.14582823333333,-2.466201305333333,-0.09395329966666666,6.618018945,76.43792216,18.189003946666666,6.991556485666667
139,1.158286999999973,-25.653257370000002,4.488731622666667,-34.1903127,-1.5817740756666667,0.8752773553333334,12.13212681,84.93736013,29.414471943333336,8.335546811666667
140,1.1666199999999662,-24.897072473333335,4.628828764333334,-34.18670143333335,0.4498112599999999,0.037828118666666695,10.597968898333333,89.83184306,14.522712709999999,7.009140650666667
141,1.1749529999999595,-24.090861,4.866553465333333,-34.20690919999999,-2.58846581,0.29360809433333335,8.79672718,96.09553019999998,26.41495005333333,9.203480084
142,1.1832859999999528,-23.226188023333332,5.090287208666666,-34.22488913333333,-0.388249,0.5361158349999999,13.400772733666665,103.068484,24.95489120666667,8.275009155666666
143,1.191618999999946,-22.327079773333335,5.269502322,-34.2055257,-1.7655870716666666,-0.25317419566666666,9.358674683666667,106.84786990000002,18.40597311666667,9.988870301333334
144,1.1999519999999393,-21.362731933333336,5.555365085666668,-34.223958333333336,-1.6217798393333334,0.22835207,9.811610858,115.04518636666667,32.156641640000004,10.201690354666667
145,1.2082849999999326,-20.37614441,5.7336599029999995,-34.18939209999999,0.08582688333333333,-0.6055321716666667,9.843009630666666,117.15562946666667,18.008030573333333,10.998590786666668
146,1.2166179999999258,-19.372826256666666,5.982275486,-34.1751251,-1.962575237,-0.6206065616666666,12.141262052666667,119.34536236666666,26.9739666,11.222412108333335
147,1.224950999999919,-18.336603166666666,6.165529569,-34.13911436666666,0.4047239896666666,-0.6162201963333334,12.870762186666667,123.06773883333334,18.912897112333333,10.704737346666667
148,1.2332839999999123,-17.28637949333333,6.338197231,-34.095026666666676,-1.4809536736666669,-0.5362050706666667,8.208250045666665,124.58544923333334,17.623850503333333,10.79272779
149,1.2416169999999056,-16.1912117,6.543754736666667,-34.06567379999999,-1.1007843016666667,-0.6816696106666668,12.666369123333334,130.21028136666666,22.118362426666668,9.943019867666665
150,1.2499499999998989,-15.099765776666667,6.683604399333333,-34.0019328,0.07246389000000002,-1.1957231560000001,7.741796652666667,129.2289505,13.59538746,11.369314509666667
151,1.2582830000000058,-13.991766613333334,6.836027304333332,-33.95649206666666,-1.497743527,-0.530223151,12.032478648666668,131.51246643333332,15.858506203333334,9.287874539999999
152,1.266615999999999,-12.876686730000001,6.984603881666668,-33.89535013333333,-0.6457656720000001,-1.063571632,12.171405473333332,132.07063293333331,15.137924830000001,10.751471201666666
153,1.2749489999999923,-11.71399212,7.101949215,-33.83444723333333,-0.8775086996666667,-0.8263084293333334,10.516197839666667,137.82969666666668,11.723362130666667,9.551453908666668
154,1.2832819999999856,-10.54791069,7.202081521333334,-33.74580890000001,-0.08199208633333334,-0.042225066666666665,8.050971031333333,137.75805663333333,9.240176041666667,12.202786443333332
155,1.2916149999999789,-9.342123349333333,7.269376277666666,-33.67103066666667,-0.22302957899999998,-0.47369339566666663,12.41869863,142.77427673333332,5.931526343000001,9.608030797333333
156,1.299947999999972,-8.105385144333333,7.332812786333334,-33.58086136666666,-1.0880417823333335,-0.08306401966666661,10.653016407,146.1907654,5.382737477666666,11.317796710000001
157,1.3082809999999654,-6.846913337666667,7.353761513999999,-33.4949646,0.210491764,-0.330663423,12.044349986666667,148.91791283333333,0.6708595753333334,9.920818646666667
158,1.3166139999999589,-5.552612463666667,7.354769071,-33.39601643333334,-1.0655098756666666,-0.9098422126666668,9.123529753333333,152.98095703333334,-1.6495458683333337,11.111555733333333
159,1.324946999999952,-4.231011390666667,7.367283980333333,-33.30669149999999,-0.5533978093333333,-0.5003913143333333,9.055235068,156.44506836666665,0.09877358866666681,10.166195552666666
160,1.3332799999999452,-2.8938889500000005,7.313995361666667,-33.21862793333333,-0.7925234040000001,-0.6127963066666667,11.523217360666669,158.30887856666666,-7.531021277000001,9.390037217666666
161,1.3416129999999384,-1.5538462796666668,7.337791761000001,-33.13019816666667,-1.7378126926666664,-1.2702767453333335,13.667628606666668,158.68365986666666,1.9470770556666668,10.078572591000002
162,1.3499459999999317,-0.20549820400000005,7.269073645333333,-33.04587806666667,0.5755844513333334,-1.8907248176666667,10.327978611666666,159.7181651,-8.907956599333334,9.317174274666666
163,1.358278999999925,1.1378592053333334,7.19596227,-32.95876056666667,-0.9451720316666666,-1.1435052703333333,10.231399696,159.12337746666665,-9.194183507,9.895462357
164,1.3666119999999182,2.458994945,7.1550111769999996,-32.8837611,-1.2270840803333334,-2.0600371760000002,10.524020196333334,156.61435953333333,-5.143730203333333,8.566986084
165,1.3749449999999117,3.757108768,7.022092342333334,-32.807792666666664,0.5733998320000001,-1.5410360096666667,8.302154541666667,153.8943583,-15.946553233333333,9.342861812333332
166,1.3832779999999048,5.067034403666667,6.932429949333333,-32.74924723333333,-1.6782546143333332,-1.1238151393333333,14.569425903333334,155.5503693,-10.707069716,7.255361874666666
167,1.391610999999898,6.341918945333333,6.787753423000001,-32.66776526666666,0.9749509916666667,-2.4654747643333335,11.109821000000002,151.06710310000003,-16.82673772,10.872021993666666
168,1.399944000000005,7.587790012333333,6.5820662180000005,-32.6340637,-1.2236861983333334,-1.312967698,5.708257198333334,148.23135376666667,-24.501065573333335,6.661892096333333
169,1.4082769999999982,8.815343538999999,6.449059804333333,-32.576065066666665,0.055472254666666686,-2.716077883666667,15.725939753333334,145.77120463333335,-15.336340428333335,8.615111827333333
170,1.4166099999999917,9.991128922,6.170506954333334,-32.56031546666667,-0.22400712966666672,-2.0400265456666666,9.859551272000001,140.092041,-33.15391031666666,7.007952849333333
171,1.4249429999999847,11.139710743333334,6.016857783,-32.53055573333334,-1.3249938490000002,-1.48062853,13.907632985333334,136.7121277,-18.000862441,6.357850234
172,1.433275999999978,12.236426986666666,5.671531677333333,-32.538416566666676,1.2179964383333333,-2.476387024,6.276133855,130.90938823333332,-41.241961159999995,7.2187752723333345
173,1.4416089999999713,13.331858953333333,5.492746194333333,-32.51208243333334,-2.3695136306666664,-1.3937912583333334,13.480304556666667,130.41890463333334,-20.75528749,7.282341321666667
174,1.4499419999999643,14.368112566666667,5.120738347666666,-32.53908283333334,0.7069540820000001,-2.454313596,10.179292042999998,123.86230976666667,-44.58119583333333,7.319405397
175,1.4582749999999578,15.371256190000002,4.909507115666666,-32.51535033333334,-1.9498288953333331,-1.9501570463333333,12.595584711333336,119.40985363333333,-24.3021183,8.715263843333334
176,1.466607999999951,16.295350393333333,4.551771958666667,-32.56269833333334,0.595794936,-3.2395135560000003,9.509552399,110.58009083333333,-43.304738363333335,6.026713212333334
177,1.4749409999999443,17.171792986666667,4.316256364333333,-32.55859886666667,-2.3191998403333334,-2.3268884816666664,11.503321489000001,104.41762543333334,-27.454540886666667,8.096163272666667
178,1.4832739999999376,17.996309916666664,3.9903808436666672,-32.62134553333333,-0.7872278439999999,-2.079452038,10.573530197,98.71917724666666,-40.002487183333336,4.4125241436666665
179,1.4916069999999308,18.7699248,3.7688430150000003,-32.62797293333334,-1.7051987249999998,-3.169091622,11.520016034333333,92.17641703333334,-26.01391728666667,7.115616162333333
180,1.499939999999924,19.47941971,3.45178024,-32.7021688,0.7711082399999999,-2.609387477,10.228805224666667,84.94793700999999,-39.31967671333334,3.7948315543333333
181,1.5082729999999174,20.124658583333332,3.249130884666666,-32.72741443333333,-2.7994963323333337,-2.0420157113333333,10.908478578333332,76.89194488333334,-24.436688743333335,4.900424361
182,1.5166059999999106,20.72272301,2.9508616923333335,-32.8044383,0.27930967,-2.7171416283333336,10.025461039333333,71.52678426,-37.23419825,3.530397157000001
183,1.524938999999904,21.27236112,2.780860742,-32.83708696666667,-2.9756091733333334,-1.8196197746666665,12.421385127999999,65.44231160666668,-20.98348872,3.161386966666667
184,1.5332719999998972,21.75179481666667,2.4884274006666667,-32.929763799999996,2.058529126333333,-2.2144321996666667,9.410535295333332,57.317358653333336,-37.18785476666667,2.230190475666667
185,1.541605000000004,22.184187573333332,2.380710601666667,-32.962946566666666,-4.743769328,-2.1132459640000003,11.473903020666668,51.34415944333333,-14.00390434,0.6677087146666668
186,1.5499379999999974,22.556290946666667,2.130257249,-33.04174043333333,1.5730170013333333,-2.548023184,9.023581823333334,44.307729086666676,-31.852770486666667,2.404990017666667
187,1.5582709999999906,22.886895499999998,2.064473311,-33.0623881,-3.964541539666667,-2.095720052666666,12.5961469,39.05795161333334,-8.768772602333334,0.27973302233333336
188,1.566603999999984,23.155613579999997,1.8745247523333333,-33.11721803333334,0.6158380506666666,-2.217388352,8.734347342,31.75960032333333,-24.00952784,2.580820799
189,1.5749369999999772,23.389020283333334,1.8328164816666666,-33.13335166666667,-3.6097004809999995,-1.4791340133333335,11.485472995999999,27.36953735666667,-5.882487853333333,-0.2607662676666666
190,1.5832699999999704,23.56000582,1.7326316436666669,-33.13590496666668,0.0692150593333336,-2.693752785333333,7.825250069333333,19.81620725,-11.623947621666666,4.179964383333334
191,1.5916029999999637,23.709781013333338,1.7064778406666665,-33.14113363333334,-2.374248425333333,-0.7893424533333332,11.174541632,17.304264070000002,-3.6459821066666662,0.23697006699999998
192,1.599935999999957,23.80177879333333,1.6667143503333335,-33.1115112,-0.6711596650000001,-2.527759591666667,10.354343573333333,10.219791888333333,-3.4075716346666667,4.841544389666667
193,1.6082689999999502,23.889811196666667,1.654029727,-33.110392233333336,-1.5205361246666669,-1.5533035499999999,7.463328680666667,9.885765710666666,-1.8666976266666662,0.2785592076666667
194,1.6166019999999437,23.922568636666668,1.6407821973333334,-33.06033326666667,-0.08452002166666661,-1.1448970386666668,14.260762216666665,3.0393345753333336,0.5149850833333337,5.804075877
195,1.6249349999999367,23.929980596666667,1.6271590390000001,-33.07547506666666,-1.7357379993333335,-1.8564266763333332,8.101357142666666,0.27904578066666663,-2.7676026033333336,-1.4663683673333334
196,1.63326799999993,23.908352533333332,1.6467176280000002,-33.00334423333333,-0.3134939123333334,-2.044980446333333,14.06911977,-3.5559184066666667,5.160873733333333,6.543995142
197,1.6416009999999233,23.837907790000003,1.6132095656666667,-33.022878000000006,-0.9476810893333333,-1.5331045189999999,6.964125712666667,-9.043030898666666,-5.17190361,-0.9896190166666665
198,1.6499339999999163,23.770990373333333,1.6792277493333334,-32.92707823333334,-1.9700335263333333,-0.8993016479999999,13.343402861333333,-9.068163235666667,11.430287498666665,6.978583176666667
199,1.6582669999999098,23.66073735666667,1.612695535,-32.96245066666666,0.6860556603333334,-1.713896304333333,7.063557266666668,-13.785043399333333,-9.556541601000001,-1.1585495469999998
200,1.666599999999903,23.56008466,1.7185843783333334,-32.846054066666674,-2.65652289,-0.21707065266666667,13.152098816666665,-13.165838243333333,16.759264946666665,7.333639781333333
201,1.6749329999998963,23.425927480000002,1.631382823,-32.900876333333336,2.4144779790000004,-1.3826743763333333,8.800825279666666,-16.588242213333334,-12.764889557666669,-2.3688138323333336
202,1.6832660000000033,23.273639680000002,1.6896513703333333,-32.81961313333333,-3.2988837163333335,-0.6326885866666666,8.433393637,-19.232199986666668,9.829436997333334,5.866661141333334
203,1.6915989999999963,23.161230723333333,1.7102562983333334,-32.83050793333334,-0.19702462333333334,-0.6819263893333334,11.803134124666665,-14.123198191333335,1.2109883643333337,-2.6945106190000003
204,1.6999319999999898,23.00730324,1.678217689,-32.80281323333333,-0.503659,0.00508819000000003,6.662266567333334,-19.25579389,-2.6832784019999996,4.259471257666667
205,1.708264999999983,22.905082703333335,1.7892982166666667,-32.778729766666665,-3.6487221716666673,0.25902595133333334,12.308206079333333,-13.022661526666667,12.914702575,-2.9225433666666674
206,1.7165979999999763,22.81021054333333,1.8211656013333333,-32.7273712,1.1689618826666666,-1.1319389046666666,11.555963355666668,-12.269020397666665,5.46809415,3.876343885666666
207,1.7249309999999696,22.72350184,1.8799461523333332,-32.709299699999995,-3.1290963096666666,0.13871036966666667,9.296759129666667,-11.134318392666666,6.801605383333334,-1.2301246326666666
208,1.7332639999999628,22.650437673333332,2.017443339,-32.62473803333333,-0.4513201316666667,0.0623542663333333,8.111705938,-9.794481914666667,18.68340683,2.6707935336666666
209,1.741596999999956,22.640931446666666,2.124366005,-32.574785866666666,-3.1514443956666667,-0.27401767166666663,11.474504468666666,-2.002333507,13.60166073,0.09109814966666659
210,1.7499299999999494,22.619553883333335,2.303782304,-32.4784495,1.1896562926666667,0.4580867093333334,10.811026892333333,-3.7079796789999997,23.870773316666668,2.044637362333333
211,1.7582629999999426,22.584264753333333,2.415565411333333,-32.44623309999999,-2.2427303403333334,-1.813182632,8.408810138,-5.051601886666667,13.33342393,-2.0817715326666666
212,1.766595999999936,22.58446821,2.6255584560000003,-32.356486000000004,-0.6486677326666667,-0.6792539959999999,10.11358134,-1.1199701426666666,26.909363430000003,-0.16670751599999947
213,1.7749289999999291,22.55215708333333,2.7999075253333334,-32.308926899999996,-2.0073027013333333,0.42856728499999996,11.426506043333333,-4.805869221666667,20.97639688,-3.2569216093333337
214,1.7832619999999224,22.49825414,3.035423358333333,-32.2466049,0.011264562666666755,-3.9684034983333336,9.588916302666666,-7.520948092333334,28.51853625,-4.245999464333333
215,1.7915949999999157,22.408620833333334,3.1904311973333335,-32.205690999999995,-1.0028147496666666,-1.0236159413333334,11.008517741333334,-11.669291813666666,18.524352073333336,-3.0761273699999996
216,1.799927999999909,22.262868883333336,3.4186835290000004,-32.16249083333334,-0.38174188133333326,-1.2327913443333334,8.10727485,-18.46535047,26.85976791,-5.931622268000001
217,1.8082609999999024,22.09731801,3.5912709236666664,-32.10332996666667,-1.483302335,-3.0717731316666668,11.060482341666665,-20.957265853333336,21.315510746666668,-1.771928151666667
218,1.8165939999998957,21.86437734,3.8629373706666663,-32.047904966666664,-2.207311074,-1.27130725,10.852203370333333,-29.03780365,32.23393567333333,-6.444765091333333
219,1.8249270000000024,21.570714953333333,4.042200168,-31.994379666666664,0.19996738433333325,-3.122617840666667,11.615527472333333,-36.345656076666664,21.820642787666667,-2.5316223306666665
220,1.833259999999996,21.195816676666666,4.327881972,-31.957183833333332,-2.564807355,-3.6081648666666664,9.945866425,-45.96287409666667,33.08117739666667,-8.695871193
221,1.841592999999989,20.776708603333333,4.5400808653333335,-31.895286533333337,-0.4888481296666667,-2.139801661,10.892350834333334,-51.52525075333333,25.889892263333337,-2.7480758826666665
222,1.8499259999999824,20.27031644,4.872467359000001,-31.85612233333333,-3.5375495800000003,-2.2356397510000003,10.045915287,-61.800317129999996,38.55013402666666,-9.895296574333333
223,1.8582589999999757,19.685654959999997,5.094106674333333,-31.81364693333333,1.2160651683333334,-4.180558443,14.503514610333333,-71.26872253333333,26.203464307666668,-4.895655473000001
224,1.8665919999999687,18.999798456666667,5.369849364,-31.8273112,-1.2821088036666668,-2.1996239523333334,5.453178405666667,-82.79716237333334,30.232281366666665,-12.765543616666667
225,1.874924999999962,18.243684769999998,5.677735010999999,-31.787208566666664,-1.9857673646666667,-3.600956758,12.74713389,-91.85692596333335,36.012602488666666,-7.865352631666666
226,1.8832579999999552,17.404553093333334,5.946989695,-31.810714733333327,-0.45670800399999995,-2.6461580196666667,5.965353449666668,-101.06025949999999,29.473773956666665,-12.735474586666667
227,1.8915909999999485,16.478496553333333,6.307124614666667,-31.774045299999997,-2.6338760059999995,-2.055288911,15.64303271,-112.25443266666667,42.097381590000005,-9.041469256000001
228,1.8999239999999415,15.434864046666666,6.516911665666666,-31.839846266666672,1.7403634386666667,-4.720844586999999,6.103359062666666,-125.0082245,21.615485351333334,-14.59236908
229,1.908256999999935,14.34930547,6.9310522080000005,-31.795969666666664,-4.995853662666667,-0.9071784813333332,15.617613793333334,-131.5302073,48.86017863,-8.354362646666667
230,1.9165899999999283,13.2057511,7.215567270666667,-31.82271066666667,0.9982652266666667,-1.9056023356666667,6.0541130296666665,-137.48654173333333,31.956823346666667,-11.41345819
231,1.9249229999999216,12.028931300000002,7.654985904666667,-31.769376133333335,-4.138335618999999,-1.82541579,15.278979620000001,-142.69325766666665,52.356556573333336,-5.969146728333333
232,1.9332559999999148,10.803304036666667,7.970727761333333,-31.797243733333335,1.1976517833333336,-2.3545118173333335,8.811080059,-147.28875733333334,36.04572105333333,-10.880427043
233,1.941588999999908,9.586767196666665,8.356722831666666,-31.747197466666663,-3.0256418383333332,0.20393237433333336,8.630452634,-147.4814453,46.16416677,-2.915313025
234,1.9499219999999011,8.345660845333335,8.773776054333334,-31.774546299999997,-0.522531092,-1.0230606843333334,7.394941171,-149.10412596666666,48.48005676333333,-11.232910793
235,1.9582549999998944,7.149453321999999,9.205956141,-31.719497699999994,-3.460815271,-0.4319079516666667,11.989260516,-145.22372946666667,51.81140009666667,-1.0116238743333332
236,1.9665880000000016,5.928074836666667,9.667245547,-31.774548866666663,-0.5183559356666666,-0.013298044666666694,11.083780608,-146.14844766666667,53.8007342,-13.03413423
237,1.9749209999999948,4.719404061666666,10.169711112,-31.754112233333334,-2.8929236333333335,-1.3033295273333334,10.591761588666666,-146.10780843333333,59.81031926666666,-3.698923349333333
238,1.983253999999988,3.5247069196666665,10.604852996666667,-31.8559367,0.13048605100000002,-0.6231988866666667,10.837861218999999,-141.83276873333335,50.765366873333335,-15.936423303333335
239,1.9915869999999811,2.355043927666667,11.176221213333333,-31.876309700000007,-2.4072882336666668,0.509642005,10.128893374,-140.5549825,67.91127141333332,-6.389958858666667
240,1.9999199999999744,1.2308781743333335,11.65893046,-32.00040686666666,-1.6413727996666667,1.0333395626666666,7.418736934333334,-132.62535093333335,56.97991053333333,-16.57938226
241,2.008252999999968,0.15812300666666668,12.283945716666667,-32.055954,-2.369792019,1.107972145,11.019964536333333,-128.00736236666668,74.49290975000001,-7.874606451000001
242,2.016585999999961,-0.9050921596666667,12.826666196666666,-32.1973877,-1.3355738320000003,-0.8288267453333334,10.182775061666668,-124.56708526666667,64.76534017,-16.372001013333335
243,2.0249189999999544,-1.9476157823333333,13.36682288,-32.307462066666666,1.1564308010000002,-0.8348609210000001,10.747190951333332,-122.75421653333332,64.70724996,-11.749568144
244,2.033251999999948,-3.0071620143333333,13.858354566666668,-32.473416633333336,-0.593245844,-0.04077216000000002,8.318758169666667,-123.13404083333334,59.28859329,-17.026001609333335
245,2.041584999999941,-4.020351887,14.383242286666666,-32.63058216666667,-0.7390676176666666,0.1164045683333333,11.594889959666666,-117.64042663333333,63.57499440666666,-14.845900216666665
246,2.049917999999934,-5.053852558333333,14.827775003333334,-32.78831483333333,-1.659149021,-0.7711980390000001,6.938261192,-119.92278286666668,54.16215515000001,-14.28037198633333
247,2.0582509999999274,-6.095933914,15.297434806666667,-32.998021466666664,1.498895804,-2.624618649666667,13.046182629999999,-119.18519083333335,58.02770868666667,-19.110505423333333
248,2.0665839999999207,-7.115687529666666,15.55698109,-33.149215700000006,0.6921776433333333,0.9222204986666668,6.477286896666667,-118.21490986666667,32.48992093333333,-14.040518440000001
249,2.074916999999914,-8.151960214,16.05483373,-33.39920553333332,-2.771034956333333,0.31716491766666666,14.748117763666665,-116.85601046666666,62.6280454,-21.065453846666667
250,2.0832499999999072,-9.180134455666668,16.18830967,-33.551925633333326,4.6070822473333335,-2.3669270276666667,9.636827946999999,-119.00707753333332,18.002321563333332,-15.172290799999999
251,2.0915829999999005,-10.205607098666666,16.387096406666668,-33.785466533333334,-2.2921951613333333,0.4100000363333333,7.8076267239999995,-115.87085216666667,27.624126433333334,-22.820689520000002
252,2.0999160000000074,-11.207083383333332,16.614281973333334,-33.962188700000006,-0.3887117206666666,0.5845700103333332,11.189180374333333,-114.91485596666666,30.067406969999997,-14.980013526666667
253,2.1082490000000007,-12.23761622,16.68635559,-34.208623233333334,1.0035220779999998,-2.7959220409999994,10.130047798333335,-115.87331136666667,13.78929456,-26.30453491333333
254,2.116581999999994,-13.241698903333335,16.677904763333334,-34.36622620000001,1.7579929433333332,-0.09310245533333335,11.317553840666667,-115.77833300000002,2.5338312786666664,-18.079604466666666
255,2.1249149999999872,-14.27524217,16.676125846666665,-34.615534466666666,-2.450193802333333,0.217696935,8.929879349333333,-116.13563286666668,6.165379047333334,-28.174872716666666
256,2.1332479999999805,-15.2423261,16.64385414,-34.768127433333326,0.873704831,-1.160189728,12.339782079333332,-111.52655789999999,0.24674769233333352,-18.122749326666668
257,2.1415809999999738,-16.240161259999997,16.510871883333333,-34.99365236666666,0.1059459843333334,0.15341899766666664,10.471718471666668,-112.69013213333334,-8.758785406666666,-29.630772906666664
258,2.149913999999967,-17.2023468,16.317354840000004,-35.09999593333333,-0.05297126366666668,-0.7846688826666667,9.012162528,-112.59664916666667,-19.202605883333334,-18.55406824666667
259,2.1582469999999603,-18.1246535,16.188550629999998,-35.286478699999996,-2.291407625,-0.10910257666666667,9.120214938999998,-105.10440826666667,-8.649662655,-25.484722773333335
260,2.166579999999953,-19.00787163,16.017190296666666,-35.3884837,-0.3153821130000001,1.0633455963333334,12.609176636333332,-103.31569669999999,-16.228851636666665,-17.877391176666666
261,2.174912999999947,-19.861914956666666,15.742605209999999,-35.503061933333335,1.8005131680000002,-0.8359159626666667,12.080707552333335,-99.40084075666668,-27.11859258,-23.779577256666666
262,2.18324599999994,-20.66644732,15.451287273333335,-35.540359466666665,-1.5827499230000004,0.02731852733333336,7.375098705,-96.06683349000001,-31.771794,-16.322983423333334
263,2.1915789999999333,-21.415585203333332,15.239544233333334,-35.65730286666666,-1.8275962270000001,1.9404528936666667,13.560542106666666,-86.87113189666667,-19.302179336666665,-22.09746678666666
264,2.1999119999999266,-22.097972236666667,14.913790383333334,-35.668635033333324,0.9359383976666668,1.1092065173333332,11.021105927,-82.19151052000001,-36.22355525,-16.101358413333333
265,2.20824499999992,-22.711617153333332,14.602087339999999,-35.70805356666668,-2.194464783,0.5928454000000002,9.054511070333334,-73.12971750999999,-33.27938397666667,-18.79731242
266,2.216577999999913,-23.271117526666668,14.336585679999999,-35.729588799999995,-1.3455354769999996,0.506557005,11.470160646000002,-67.17660522666667,-28.764998753333334,-15.106535273333334
267,2.2249109999999064,-23.787815093333336,13.970199583333333,-35.715545666666664,0.8732682266666666,0.18317087866666668,10.093731404666666,-63.10778173,-41.4237264,-16.34270890333333
268,2.2332439999999,-24.24525642333333,13.67804718,-35.726267466666656,-3.3768826326666663,0.7970106156666666,9.903376421666668,-55.27036031,-31.919308346666664,-15.754363696666667
269,2.2415770000000066,-24.645504,13.40340169333333,-35.73661803333332,-0.07308359933333335,0.7941830406666668,13.31854248,-48.42423375333334,-29.943267820000003,-15.091421443333333
270,2.24991,-24.982941946666667,13.044096629999999,-35.70257566666667,-2.8137979706666663,0.6832009553333332,7.872266453000001,-42.10155232666667,-41.208507536666666,-14.849836666666667
271,2.258242999999993,-25.286012013333334,12.8628273,-35.7220561,-2.302432328333333,1.2565122246666667,12.333693505333335,-36.54969278666667,-19.164012906666667,-11.617244399999999
272,2.2665759999999864,-25.531198503333332,12.56263097,-35.70799763333334,-0.27196465366666667,-0.280023078,12.543638705000001,-30.462414423333332,-33.65858841,-14.35958322
273,2.27490899999998,-25.745313643333333,12.295515696666667,-35.661722833333336,-2.1830594143333335,0.9327132973333333,8.442746082333333,-27.596342086666667,-31.68087959,-9.282183965
274,2.283241999999973,-25.927270256666663,12.112650556666667,-35.685846966666666,-2.397320131666667,-0.19445130533333332,15.019677479999999,-21.897181826666667,-18.91763242,-12.522132873333334
275,2.291574999999966,-26.07874107666667,11.833516440000002,-35.606648733333344,0.2995044786666667,-0.8532795906666668,8.933222294666667,-20.841297783333335,-34.614910763333334,-6.654079596
276,2.2999079999999594,-26.20503807,11.67161846,-35.62368266666667,-4.533931891000001,0.4916505813333334,10.426146189333332,-15.43185552,-16.956689833333332,-10.74337228
277,2.3082409999999527,-26.307088853333337,11.50239563,-35.582829800000006,0.46503210066666667,-0.43169592799999995,12.074757576666665,-13.921937943333333,-20.771683693333333,-5.013754209000001
278,2.316573999999946,-26.38844871666667,11.30654812,-35.56109113333334,-3.0546272593333335,-0.3152084846666667,9.192506949,-10.961445490000001,-22.591776210000003,-8.530063152666667
279,2.324906999999939,-26.455389659999998,11.222361566666669,-35.551940933333334,-2.543512682,-0.06861128033333333,11.336802004666666,-8.954963049333333,-9.958333334,-3.859318733
280,2.3332399999999325,-26.514642079999998,11.096202210000001,-35.55288186666667,-1.1996279356666666,-0.3647189786666667,12.278998055999999,-7.764816761,-13.897755149,-7.266295274333333
281,2.3415729999999257,-26.560583116666663,10.958206496666667,-35.51912436666667,-0.3262604736666666,-1.2132503986666665,10.018012047333334,-6.9866394986666664,-17.01243813733333,-4.177789370333333
282,2.349905999999919,-26.59872754,10.88664659,-35.545283000000005,-3.2586972713333338,-0.41185267766666667,10.652618567,-4.673885266,-6.696522077,-7.004798412333333
283,2.3582389999999123,-26.648893356666665,10.767969133333333,-35.519337966666676,0.9131800036666666,-1.89489762,9.776596387,-7.3002422650000005,-14.53102207,-3.9852215446666666
284,2.366571999999905,-26.694683073333334,10.676461217666665,-35.52192686666667,-3.4419449170000003,-0.6202659506666667,9.385697680666667,-6.1327620346666665,-10.073580823666667,-5.592924674333333
285,2.374904999999899,-26.748810453333334,10.640092213,-35.54570006666666,-1.4007625576666667,-0.2993028036666667,12.559467633333332,-6.673965136333333,-3.0710063373333334,-4.793461481666667
286,2.3832380000000057,-26.793716433333334,10.557819684333333,-35.5487976,-1.1393099776666669,-0.793196549,13.440103213666665,-6.009505907666667,-9.050821066666666,-5.185871204000001
287,2.391570999999999,-26.860075633333334,10.473040898666667,-35.545079566666665,-1.1610707839999999,-1.88731424,8.077597617999999,-8.748581408,-9.700517495000001,-4.527688106
288,2.3999039999999923,-26.923556013333336,10.456729571666665,-35.57476806666667,-2.2280724443333333,-0.9794099926666666,11.188961665999999,-7.670853297,-0.5628513493333333,-4.409964680666667
289,2.408236999999985,-27.00398445,10.380886398333333,-35.57607013333333,-0.5488620896666666,-0.766175419,10.291076502666668,-10.320245901666667,-8.468011696333333,-4.606519937333332
290,2.416569999999979,-27.072420756666663,10.344715753000001,-35.571975699999996,-2.421401659666667,-1.1531142396666667,10.099729217666667,-8.997680186333334,-4.474478602333334,-1.9533545773333332
291,2.424902999999972,-27.158842723333333,10.359592119333334,-35.62157186666667,-2.0551947206666665,-0.7348904809999999,11.660194715666668,-10.010125794666665,3.8271429536666672,-4.733856916333333
292,2.4332359999999653,-27.248489383333332,10.309007325000001,-35.60409040000001,0.38634642,-1.598431011,11.853862603666668,-11.825226466666665,-6.737146139,-1.3550912836666666
293,2.4415689999999586,-27.345469793333333,10.268174171,-35.62426250000001,-2.689067244666667,-1.2802560726666667,7.610540707999999,-11.908056260333334,-3.682200749666667,-4.698885440666667
294,2.449901999999952,-27.428768793333333,10.312292735333333,-35.646189366666675,-1.8388075036666667,-0.01588147866666667,10.865351358666667,-10.230783461666666,5.506421263,-0.282956163
295,2.458234999999945,-27.51692009333333,10.292538325,-35.66357423333333,-0.25057557733333335,-1.0264416736666666,11.162060739,-10.908178169666664,-1.5898754496666665,-3.2589893340000002
296,2.4665679999999384,-27.613225936666666,10.277293205333335,-35.65285746666666,-1.996021112,-1.7762356200000002,9.487677177,-12.486090976666667,-2.5849464736666663,-0.139849464
297,2.474900999999932,-27.71448517,10.309647878666667,-35.70844016666666,-1.6534779863333335,-0.40891941400000004,13.952279409999997,-11.66328589,6.061844429333333,-4.379065672333334
298,2.483233999999925,-27.820898693333334,10.273050625666668,-35.682347633333336,-0.5542976856666667,-1.7484897773333332,7.6515858953333336,-14.027931846666666,-5.709059159,0.2734362683333333
299,2.491566999999918,-27.91265042666667,10.311915081,-35.7344869,-2.8717124463333334,-0.4036232036666667,10.030298868000001,-10.606254577666666,6.566030503666667,-3.5865782103333337
300,2.4998999999999114,-28.010458626666665,10.355769793333334,-35.75682576666666,-0.9828794796666668,-0.305863569,12.634993235333333,-11.961068473333333,5.493686576666666,-0.2699014943333333
301,2.5082329999999047,-28.11443583,10.307305335333332,-35.761942533333325,0.33083172633333335,-1.9976400136666665,9.958624999,-13.065503754666665,-5.266847054333334,-3.6382424036666663
302,2.516565999999898,-28.22328821666667,10.334719658,-35.772384666666674,-2.4842524923333333,-1.0680195890000002,7.781676453,-13.542621610333333,3.112647273666667,0.04756128799999996
303,2.524899000000005,-28.33259582333333,10.357832592333333,-35.81641133333334,-0.8114421663333333,-0.29823068766666666,12.082513490000002,-12.88149802,4.460374276,-3.5949286123333337
304,2.533231999999998,-28.432556153333337,10.344308536333333,-35.80403136666667,-1.1747568746666668,-1.3802735803333332,10.634737648666666,-12.961500166666667,-2.489144404333333,0.07344877733333337
305,2.5415649999999914,-28.525469463333334,10.354013125666667,-35.818242366666674,-2.179586827666667,-1.0111751953333332,10.055465699666668,-11.556670507,1.3878307143333333,-1.2495564223333335
306,2.5498979999999847,-28.630275726666667,10.384131752,-35.82781476666667,-0.802025537,-1.095330079,10.393072446,-13.071736333333334,3.3411090373333336,0.29842738333333346
307,2.558230999999978,-28.743647893333332,10.349706329333333,-35.81015013333333,-0.5225764116666666,-1.698904534333333,9.623620750666667,-14.694467543333333,-5.062607645666667,-0.4819834233333335
308,2.566563999999971,-28.850364686666666,10.405925431333332,-35.83815513333332,-3.8910665513333336,-0.277992795,10.997271221666665,-12.90624269,7.143734853999999,-0.08590596933333335
309,2.5748969999999645,-28.94899877,10.454624175,-35.8544515,-0.09812345133333326,-0.647060881,12.49108537,-12.190174102666667,5.6133953729999995,0.7805809226666667
310,2.5832299999999577,-29.03796132333333,10.442684174,-35.84173073333334,-1.0288139183333334,-1.173287451,8.167968748666667,-11.653056620666668,-2.3424906930000002,0.17408732566666663
311,2.591562999999951,-29.11527188333333,10.493291534666668,-35.84488423333334,-2.2342018086666666,-0.456184894,9.580991904333333,-9.925624530666667,5.049765903666667,2.3101269406666667
312,2.5998959999999443,-29.182455063333336,10.545014064333332,-35.873901366666665,-1.486560376,-1.3219561976666665,10.708042781333333,-8.119756222333333,6.738350253666666,-0.44661407166666667
313,2.608228999999937,-29.24603589333333,10.584667521333333,-35.85011293333333,-1.9959546723333332,-0.133010051,8.382888395333334,-8.864327908666667,2.3604416853333334,4.430200258666667
314,2.6165619999999308,-29.303576786666667,10.741877872666668,-35.921524033333334,-4.0059331259999995,-0.614146923,12.445816356666667,-6.022400061,20.229148863333332,1.3918183246666667
315,2.624894999999924,-29.331731796666663,10.849389076666668,-35.912709533333334,0.13961763166666666,-0.3412006486666666,11.309410413999998,-4.277991985333333,10.325834116000001,6.843100388666667
316,2.6332279999999173,-29.31527010666667,10.987203280000001,-35.93692016666666,-3.049370328666667,0.8716638683333334,9.601649285333332,1.8282893896666668,15.475116730000002,5.132624149333332
317,2.6415609999999106,-29.241660433333333,11.198288283333333,-35.956665066666666,-1.009401103,-0.025739207666666652,11.472722369666668,8.568018277,22.793430963333336,10.027655286
318,2.649893999999904,-29.10726165666667,11.329170226666667,-35.95025123333334,-1.022629827,0.19681774833333335,7.665068626,15.279735250000002,12.983382543333335,7.857187110666666
319,2.658226999999897,-28.912221273333333,11.557764689999999,-35.97344463333334,-2.0424202976666668,2.048080643,12.442782085,23.23040453333333,24.85981369,10.625582058666668
320,2.666560000000004,-28.638224283333333,11.73368454,-35.9839681,-1.028505762,0.8344535426666667,11.55072721,32.439882913333335,18.74918460666667,8.587243715666666
321,2.6748929999999973,-28.256294249999996,11.943339983333333,-35.97181700000001,-1.826779485,1.7814735176666667,8.150961399,44.80952708,20.995978356666665,12.93503761
322,2.6832259999999906,-27.78859202,12.151974359999999,-35.9743398,-0.675322006,2.294573386333333,11.552360851666668,55.483112336666665,21.879391353333332,11.033514022333334
323,2.691558999999984,-27.231840136666666,12.322668393333332,-35.929270433333336,-1.0513488850000001,0.663434744,8.978411835000001,64.94122568666667,15.276474632666668,13.84598605
324,2.699891999999977,-26.573263166666667,12.56461811,-35.92490643333333,-2.269910514333333,2.351712545,13.240258851333335,78.21003468666667,25.307119686666667,13.116814296666666
325,2.7082249999999704,-25.82435163,12.704290069999999,-35.85958863333334,0.057347138666666776,0.7841854716666665,10.10205237,87.45449320666667,11.246538797666666,13.889090856666668
326,2.716557999999964,-24.989775339999998,12.941124280000002,-35.827738466666666,-3.0329257246666663,1.2664868833333334,9.816291968666667,98.59022268333335,23.714049653333333,15.082185746666667
327,2.724890999999957,-24.06407102,13.105079333333334,-35.77334593333333,0.5131925146666666,1.1507704856666667,11.215674081000001,108.91673023333334,14.851764519666666,13.57043648
328,2.73322399999995,-23.05838839333333,13.268991153333333,-35.6889801,-2.496565938,1.026971176,11.189747653666666,117.67666626666669,13.738379796666665,16.385642686666667
329,2.7415569999999434,-21.97229449,13.448114396666666,-35.622111,-0.5861753496666667,0.5789548953333333,12.630592026666667,127.76879120000001,16.444611866,15.094777106666667
330,2.7498899999999367,-20.797684986666667,13.594349543333331,-35.50447083333333,-1.5813241003333334,1.4610090256666666,10.068820001333334,136.95874026666664,10.976141610333334,18.672224043333333
331,2.75822299999993,-19.545839946666668,13.743159610000001,-35.40001423333334,-0.6785869573333333,0.5548826853333333,10.634501139333333,146.5682373,12.167624788666666,17.179211616666667
332,2.766555999999923,-18.22229449,13.858169873333333,-35.24964906666667,-1.7941927513333333,0.7348445803333333,9.988378523666666,153.82469686666664,7.012868006333332,20.55590439
333,2.7748889999999165,-16.822614036666668,14.02295685,-35.11639406666666,-1.9119621513333334,1.4109357596666667,12.264066061666666,163.4166768,13.78562196,20.336477283333334
334,2.7832219999999097,-15.331688243333334,14.119101203333335,-34.922749833333334,-1.014302626,0.6822474003333334,12.20675977,172.54852806666668,4.437808434,24.44826189666667
335,2.791554999999903,-13.78221321,14.254550933333334,-34.74988303333333,-1.561372002,0.42735816033333335,10.254583518333334,180.1643524,10.279893396333334,23.104094186666668
336,2.799887999999896,-12.15936216,14.360765460000001,-34.5556742,-0.8084650633333332,0.25371031966666663,12.9087375,188.22942606666666,6.9096867243333335,24.65072949333333
337,2.808221000000003,-10.502838133333332,14.390179316666668,-34.34718833333333,-0.34813740866666665,-0.10266826033333336,10.692983151333335,191.88511656666665,-1.709377845,24.014983493333332
338,2.8165539999999964,-8.796567599,14.478900273333332,-34.138041166666675,-2.269374390333333,0.16421687100000001,11.775537490666666,197.73647559999998,5.983837504666667,25.52998861
339,2.8248869999999897,-7.064297517333333,14.482770283333332,-33.91718036666666,-0.09046689666666663,-1.278172155,10.964814506333333,200.56509400000002,-3.492606520666667,25.049567543333335
340,2.833219999999983,-5.343978881999999,14.528543153333333,-33.70238243333333,-2.9490218956666667,-1.964864532,11.878484090666666,199.22618613333336,2.332480460333333,25.16863695666667
341,2.841552999999976,-3.623765707,14.512540496666666,-33.4862569,0.6503140333333334,-1.4133576153333334,13.52694766,199.24996946666667,-4.2948639889999995,24.441102346666668
342,2.849885999999969,-1.9334192276666669,14.484147073333332,-33.28338623333334,-2.622461478,-2.1920277673333333,10.246391615999999,195.99402869999997,-4.973440806,23.118776956666665
343,2.8582189999999628,-0.23533369133333334,14.443320906666665,-33.06991833333333,0.29727567,-1.7889561653333335,12.286959330000002,196.70789593333333,-5.792036810333333,24.24189631
344,2.866551999999956,1.426281214,14.351704280000002,-32.87637073333333,-1.6066488823333334,-1.1951806146666668,10.244206112333332,192.89719646666666,-11.183287777333334,22.264404296666665
345,2.8748849999999493,3.044766982666667,14.250668843333331,-32.67618053333334,-0.147856613,-2.8951167266666666,11.170316377666666,187.63168333333337,-11.634510996666668,23.20529365666667
346,2.8832179999999425,4.643754323333334,14.113033613333334,-32.50211336666667,-1.9436177413333333,-1.713392665,14.515108746666668,186.01313783333333,-15.542171476666667,21.075168610000002
347,2.891550999999936,6.188600222000001,13.996163053333333,-32.30722303333334,-0.3635993003333334,-2.3443297943333334,10.796450616333333,179.05374656666666,-12.268120132666667,23.36310069
348,2.899883999999929,7.651224771999999,13.802633283333334,-32.166951499999996,-1.5204191306666666,-3.7527043816666663,9.179669382333334,170.72874453333336,-21.495122906666666,18.757132846666668
349,2.9082169999999223,9.093764304999999,13.65719191,-31.998224899999997,-1.28078715,-2.5043820936666665,12.84007104,167.6488088,-14.864594460000001,21.45793851
350,2.916549999999916,10.439454079999999,13.460214616666667,-31.883817033333333,-0.3305955526666667,-2.671691775333333,12.772454736333335,157.51577250000003,-21.431161246666665,16.956336339999996
351,2.924882999999909,11.714769046666667,13.22772312,-31.756233233333333,-1.9982903796666662,-3.0984562236666666,9.595599571333333,148.85957333333332,-24.99081897666667,19.386244456666663
352,2.933215999999902,12.94148159,13.074382466666668,-31.661834699999996,-0.9357925853333334,-3.354178031,13.816919327333332,143.88493853333333,-16.023697536,14.490047453333332
353,2.9415489999998954,14.083960850000002,12.745176633333335,-31.58882903333333,0.7221763529999999,-3.0667877993333335,7.346221845666666,134.4945119333333,-36.89629936,16.94938787
354,2.9498820000000023,15.16274579,12.596506753333335,-31.536638899999996,-3.9043701686666665,-2.3739699126666665,15.538581213333332,127.3403676,-16.11015797,10.196185749
355,2.958214999999996,16.14484342,12.2869641,-31.49602506666667,2.417357762666667,-3.647309065,10.662997194,116.13498433333332,-34.974063236666666,14.070263223333333
356,2.966547999999989,17.05107879666667,12.075521153333334,-31.498601266666665,-4.616003831333334,-2.7886741160000006,8.219750085666666,108.09675596666666,-24.79310671333333,6.682767232333333
357,2.974880999999982,17.89290428,11.865703583333334,-31.456428533333334,1.4250330926666666,-3.6255404950000005,14.66065502,99.28028869666666,-23.013221103333336,11.816883087333332
358,2.9832139999999754,18.624290470000002,11.535528183333332,-31.517629000000003,-2.113633441333333,-2.9195254646666666,5.920251746999999,88.55007934333332,-40.26139132,5.305331548333333
359,2.9915469999999686,19.333971019999996,11.414642333333333,-31.460276299999993,-2.4101088046666668,-2.7352595330000002,15.569145836666666,83.09391784666666,-11.989519516333333,10.682478111333333
360,2.999879999999962,19.923859913333335,11.069443386666668,-31.5213038,0.7196590503333334,-3.6027729513333333,6.440731596,71.50381978,-41.819948833333335,6.873388926333334
361,3.008212999999955,20.488087973333332,10.971365926666666,-31.461425766666668,-4.834280769,-2.087489406,14.358649889333334,65.64643351333333,-9.073353133,10.255099931
362,3.0165459999999484,20.95614942,10.703550976666667,-31.498133366666668,1.577901681,-3.2218935490000002,8.837391534666667,56.27874247,-31.977422076666667,7.063715457333333
363,3.0248789999999417,21.36289088,10.57017835,-31.471664433333334,-4.481729825333333,-2.651921709666667,9.375270367,47.536188759999995,-14.258924165666668,8.26925818
364,3.033211999999935,21.738346736666667,10.420660016666668,-31.45381926666667,-0.19065004600000002,-1.9166996476666665,12.574705123333333,43.96549351666666,-16.324345589999997,8.231815655333333
365,3.041544999999928,22.028879803333336,10.278979618333333,-31.45391336666667,-2.452240606,-2.7046326003333334,7.845059076999999,34.1623923,-16.22987143,5.938880522999999
366,3.049877999999921,22.303447086666665,10.203620911333333,-31.407572433333332,-1.9255197839999998,-1.6218098053333332,11.122044402666665,31.281654356666667,-6.722591121000001,8.150432267333334
367,3.0582109999999147,22.51075617666667,10.114073434666667,-31.395187366666672,-1.4184175330000002,-3.0357600849999997,12.165785947666665,23.894221623333337,-9.828117958,5.053524494
368,3.066543999999908,22.67009290333333,10.003671645666666,-31.351943999999992,-0.7833625476666666,-1.4944481253333333,7.485255082333333,17.552225113333332,-10.691481907666669,9.461809951666668
369,3.0748769999999013,22.819974263333336,10.027796109666667,-31.2893041,-3.8978336849999997,-2.4842191136666667,13.489744506333333,15.970044773333333,5.089657466000001,5.330917775666666
370,3.0832099999998945,22.899410246666665,9.883893967666667,-31.247065233333334,2.031594078,-1.2244150636666666,7.986903746666667,7.971110027666666,-14.388370193333332,10.984932898333332
371,3.091543000000001,22.972339629999997,9.950442949333333,-31.173863699999995,-5.494718750333333,-1.7155466876666667,10.711036045333332,6.54656442,10.281761010666667,4.473446090666667
372,3.0998759999999947,23.030109406666668,9.852231978333334,-31.10544583333333,2.997054775666667,-1.2348897853333334,13.213199138333332,4.834214369666666,-8.117503563,11.694425583333334
373,3.108208999999988,23.031070709999998,9.873213132333333,-31.061149599999997,-4.400001516,-1.5308272736666668,7.949839433,-1.4838794766666668,3.907622695,3.4174210226666664
374,3.1165419999999813,23.060398736666667,9.811356544,-30.976671866666674,1.2756669919999999,-0.5587313770000001,10.892700355,1.1042896856666666,-3.331195906,11.787715913333335
375,3.1248749999999745,23.06514676333333,9.873178480666667,-30.9272105,-3.808282296,-1.4372739993333334,8.982810496666666,-1.1380155086666666,8.656623527,2.051414966666666
376,3.133207999999968,23.045677819999998,9.805213293666668,-30.865430199999995,1.497713486333333,-1.2632656789999999,9.437191646333334,-4.273577571333334,-5.07368502,9.566072781
377,3.141540999999961,23.022516883333335,9.861782391666667,-30.838058466666666,-4.353936592666667,-0.9218259453333335,11.625043554,-4.029495373666666,7.0585238136666675,-0.09111380566666671
378,3.1498739999999543,23.01260185,9.854390142666666,-30.747688299999997,0.657265611,0.3024745383333333,10.555343471,-3.718004624,2.9340000153333334,9.830616790666667
379,3.158206999999948,22.98554357,9.938015620333333,-30.72655233333333,-3.6354694366666664,-2.527369062,9.976034798,-4.370834589,9.760408085333333,-2.026341879333333
380,3.166539999999941,22.96397082,9.895936648000001,-30.648600266666662,1.758309444,-0.29540077066666676,10.450070382333333,-4.874910314999999,-1.4781976343333334,10.110028902333333
381,3.174872999999934,22.929313660000002,9.990280152666665,-30.64100136666666,-4.2258242169999995,-0.6349514126666667,9.361063958666666,-4.999558131,10.325899125000001,-3.9820408423333333
382,3.183205999999928,22.93019422,9.963097573333334,-30.547955833333337,1.489995718,-0.6330405076666666,9.592740376666667,-2.49264129,0.8488814336666666,11.044953822000002
383,3.1915389999999206,22.91999054,10.108460426666667,-30.52581023333333,-5.106674393,-0.169511159,10.909584043999999,-2.374880274,16.632917087,-4.791208187666666
384,3.199871999999914,22.921463646666666,10.076818148333333,-30.428667733333338,2.7168010870000003,-0.5020022793333334,11.171368598333332,-2.5335639763333333,0.5471885203333334,11.712144214666665
385,3.208204999999907,22.916048686666667,10.197398820333333,-30.436106366666667,-4.669421722333333,-2.16919142,11.039696376666667,-1.1737219493333326,12.528710127666665,-6.858123143666667
386,3.2165379999999004,22.930025099999998,10.202135086,-30.32250723333333,2.226086696,0.9262435186666665,9.040939968,-1.4048256080000001,5.3268905470000005,11.795766513333334
387,3.224871000000008,22.94942792333333,10.333601633333332,-30.338823966666663,-5.220027118666667,-1.0711247723333333,11.732980252666666,2.005992025,13.321190198333333,-8.327851772333334
388,3.2332040000000006,23.000315983333337,10.375837326666666,-30.196968066666667,1.142449518,0.10571016866666676,10.797539393000001,2.3692018089999998,10.779804231333332,13.089765866999999
389,3.241536999999994,23.036339440000003,10.494175276666667,-30.2343572,-2.4205612266666665,-0.5582204426666667,10.179018180000002,4.4781457583333335,10.886145274666667,-10.016811055
390,3.249869999999987,23.09633064333333,10.50817553,-30.113248199999997,0.6905485786666666,-1.1722768146666669,10.392947515333333,3.864070217,6.721134703333334,12.132236320666665
391,3.2582029999999804,23.144351960000005,10.596871056666666,-30.149065633333336,-1.4523590009999998,-0.008611738666666646,9.868422032666667,5.902972697999999,7.669920047999999,-8.461958826666669
392,3.2665359999999737,23.212256749999998,10.602138516666667,-30.059567766666664,-1.0487458706666668,-0.6174321176666667,12.081959089666668,5.491778136666667,4.310497045666667,9.088077286666667
393,3.274868999999967,23.263932546666666,10.706110953333335,-30.064201366666666,-1.1804937123333334,-0.7275289693333332,8.150669097666666,5.660448074333334,10.788998920666666,-5.8260520289999995
394,3.28320199999996,23.332211176666664,10.723232269999999,-30.007169100000002,-1.7676303386666667,-0.12154068033333336,12.417018253,6.239662012666666,4.124408721666666,5.010882697
395,3.291534999999953,23.395701093333333,10.832435293333333,-29.976860066666664,-1.2804398533333334,-0.9473803639999999,10.320292630333332,6.293640772333333,12.98863125,-2.323971589666667
396,3.2998679999999467,23.469128926666667,10.845348676666667,-29.95706430000001,-1.2457101143333333,-0.7557475816666667,10.357535042333334,7.698487441,1.9136909443333334,1.1435174943333333
397,3.30820099999994,23.531144460000004,10.943544386666666,-29.921951300000003,-1.1136699519999997,-1.2565213786666665,11.962662700000001,5.995661815000001,11.992783546666667,-1.314702352
398,3.3165339999999333,23.59772745666667,10.95416196,-29.911727899999992,-1.3003311553333334,-0.4100828653333333,11.174514771,7.094187259666666,1.2205651599999998,0.22528171533333316
399,3.3248669999999265,23.660087586666666,11.061857856666668,-29.8606491,-1.1857702733333333,0.019537275000000003,11.195902191333333,5.661729095999999,13.787207286666666,-0.08557748766666655
400,3.33319999999992,23.717348733333335,11.104538916666668,-29.84615836666666,-1.9635269343333333,-1.6265662109999999,9.492372195333333,5.877920667666667,4.946732203333333,-0.8605059783333333
401,3.341532999999913,23.788385390000002,11.199838636666668,-29.782890300000005,-0.630396406,1.0401060643333333,10.587151368,6.405532042,13.005100885,1.7960359453333334
402,3.3498659999999063,23.85988299,11.23325443,-29.7917379,-2.19780157,-1.510696401,10.264093240666666,8.133975825,2.817856818333333,-2.9359253246666666
403,3.3581989999999,23.946667353333336,11.298787433333333,-29.722076433333328,0.9590632913333333,-0.8454942503333335,12.210083326666668,8.123120466666668,10.057866575666667,3.9143766563333333
404,3.3665320000000065,24.00277392,11.328458786666667,-29.761937466666666,-2.406423146333333,-0.06757429366666663,10.299349942333334,7.028478782666667,0.9125673573333334,-6.107206503333334
405,3.374865,24.069719950000003,11.402394296666666,-29.674697866666662,-0.2919057310000001,-1.1137547793333333,11.243569375,5.308577052333334,11.827564556333334,5.354981740666666
406,3.383197999999993,24.121854146666664,11.436878523333334,-29.7100652,-2.682499091,-1.3395964306666668,9.058648744000001,6.464401881000001,1.6465429463333336,-5.856323878
407,3.3915309999999863,24.19536845,11.490874926666669,-29.634503699999996,0.29561593166666666,-0.15138336766666663,11.317835809333333,6.363174438333334,9.079368668999999,5.020954529333333
408,3.39986399999998,24.237272263333335,11.514484406666668,-29.6658427,-2.698773543333333,-1.5526921949999999,10.675897278999999,5.157511552,0.6282403866666666,-4.910099248
409,3.408196999999973,24.281028746666667,11.54527092,-29.606702166666665,1.036484614,0.13428563366666665,13.920526506666667,3.1677728886666667,5.753713289666666,4.375714483333334
410,3.416529999999966,24.282054900000002,11.560143786666666,-29.635213233333335,-3.140050769,-1.7377881803333333,8.838587284666666,0.1836498676666666,-0.18375643099999994,-4.154812654
411,3.42486299999996,24.30030250333333,11.576152483333333,-29.592903133333333,1.1911531486666667,-1.8051897390000002,10.436410268666666,0.5207886696666667,3.3196007806666668,3.290251255333333
412,3.4331959999999526,24.285441083333335,11.588089946666665,-29.631314600000007,-4.3064746063333335,-0.1899974893333333,9.697103659333335,-1.4814206963333334,-0.9792664843333334,-5.056758563
413,3.441528999999946,24.264005026666666,11.6359148,-29.596702566666668,1.1128655373333334,-0.9143759113333333,12.738450367666665,-4.0588703950000005,6.420563301333332,0.8748159409999999
414,3.449861999999939,24.19856389333333,11.66771412,-29.623690266666667,-3.634974161666667,-1.9502541223333332,9.917368887666667,-7.815778573666667,1.7416742646666667,-4.8283128736666665
415,3.4581949999999324,24.090367636666667,11.725338299999999,-29.58893333333333,0.6175516843333334,-1.3724942603333334,11.391441981666667,-14.482213021,7.493350026999999,0.41096838333333324
416,3.4665279999999257,23.901596703333336,11.735343296666665,-29.64434556666666,-2.23340655,-3.4453737733333334,7.5171477,-21.900860466666668,-1.9970746053333333,-6.822803576999999
417,3.474860999999919,23.687198,11.83762455,-29.618237833333335,-1.5230903623333332,-2.7809495530000006,12.759389878,-27.01585006666667,11.981491407333332,-2.6376239160000003
418,3.483193999999912,23.36091995,11.840685526666666,-29.677396133333335,-0.4881450336666668,-2.328790168,8.624718666333335,-38.31849924666667,-2.8578944206666663,-6.836768349333333
419,3.491526999999905,22.964550016666664,11.988942466666666,-29.67043813333333,-3.6159677506666665,-4.505990346333333,13.198818048,-48.37079111666667,16.18629678,-6.770273685666666
420,3.4998599999998987,22.41798464333333,11.987612723333333,-29.7666041,3.028999368333333,-4.028242588,9.897896448,-63.83761596666667,-4.911112784666667,-10.667458535333333
421,3.5081930000000057,21.70908482666667,12.063042956666669,-29.913627599999998,-4.999636531,-5.644811471333334,8.084659974,-82.06346639000002,1.5167369840000002,-19.634971616666665
422,3.516525999999999,20.886344276666666,12.242472646666668,-30.004402166666665,-0.2663258513333335,-5.182578881333334,15.264980633333332,-97.04387408999999,15.727456409333334,-18.223943073333334
423,3.524858999999992,19.872582116666667,12.299848876666667,-30.229629499999998,-1.779309958,-4.834303776333333,10.365851718666667,-116.60130816666667,-3.1306121843333337,-27.432608923333333
424,3.533191999999985,18.730420430000002,12.403958953333332,-30.3940684,0.4305346013333334,-3.214612086666667,8.565414905999999,-133.48787433333334,5.035268704333333,-22.518105823333332
425,3.5415249999999787,17.488896686666667,12.5558726,-30.601605733333333,-5.6090552806666665,-4.496499061666667,8.994964439666667,-144.2788747333333,9.372739155333333,-29.038167953333332
426,3.549857999999972,16.17529583,12.76997471,-30.703641266666665,0.43193312466666667,-1.280252824,15.211706163333332,-155.5914154,20.730549493333335,-19.13587061666667
427,3.558190999999965,14.69258722,12.85721143,-30.927993766666663,-1.7895234173333332,-5.757105032666668,10.083321093333334,-172.6064148,2.6521411743333334,-28.576478323333333
428,3.5665239999999585,13.148558616666667,12.97857094,-31.03697456666667,-1.337384085,-2.638847112666667,7.444190499,-183.03858946666665,10.711978394333334,-15.85959339
429,3.574856999999952,11.531723973333333,13.285197893333333,-31.19238533333333,-5.7981394926666665,-1.8024968603333331,17.185139656666667,-190.4134369,31.61277929666667,-26.186100643333333
430,3.583189999999945,9.807533264,13.314312933333333,-31.321604433333334,4.986336906666666,-4.9845565160000005,8.618922471333333,-204.0206604,0.2649798393333333,-15.594468436666666
431,3.5915229999999383,7.987894376,13.529890376666666,-31.516932133333327,-7.477128823666667,-2.6083873113333333,7.006507158666667,-213.55942283333334,21.605985323333332,-26.89142545
432,3.599855999999932,6.114951451666667,13.70832698,-31.653477966666667,2.687574943,-2.2608437539999997,14.890920636666669,-221.57040406666667,18.906867346666665,-18.651589076666667
433,3.608188999999925,4.145117680333333,13.836483953333333,-31.87554676666667,-4.2111314423333335,-2.864689529,8.307055792,-230.69927976666668,12.576426664666664,-27.436442056666664
434,3.616521999999918,2.1356751523333335,14.041796366666667,-32.044988,0.6079990266666666,-2.5206870633333334,13.529435952666667,-236.91076153333336,23.129268326666665,-21.27050463
435,3.6248549999999113,0.077709645,14.099074683333333,-32.26139070000001,-2.0362218,-0.31815535833333336,6.881238222333333,-241.32956950000002,5.957945825333334,-25.52766927333333
436,3.6331879999999046,-1.9463799796666665,14.382341066666667,-32.443176266666676,-4.120202064666667,-0.11120923333333328,16.577246744666667,-238.18923953333334,33.936477663333335,-20.79768181
437,3.641520999999898,-3.9972209930000004,14.44106547,-32.6582133,2.2574197450000004,-1.2981628576666668,8.575955709666665,-240.37152606666666,7.909507374666666,-24.89155197
438,3.649854000000005,-6.0300946233333335,14.650984763333334,-32.87751766666667,-4.824078083,-0.19083722433333325,10.605897904999999,-238.01025900000002,26.90237427,-23.23248481666667
439,3.658186999999998,-7.983881791333334,14.78460312,-33.08642833333334,0.034304380333333384,0.650849422,11.299275873666668,-228.79695636666668,18.433457373666666,-22.364236833333333
440,3.6665199999999913,-9.885090511,14.963264783333335,-33.29821523333334,-2.5401534239999997,3.7984658079999996,10.970657825333333,-222.3413798,24.53919474,-20.864070253333335
441,3.6748529999999846,-11.70969232,15.104602176666665,-33.53286743333333,-0.006817460000000016,0.7689823306666668,12.590423979666667,-212.37077333333332,21.297140756666668,-23.76160749
442,3.683185999999978,-13.486522993333333,15.236770313333333,-33.73300676666667,-2.8051346539999997,0.39854315200000007,9.019606905333333,-207.63665260000002,20.084564846666666,-19.244450249999996
443,3.691518999999971,-15.179564156666666,15.319203693333334,-33.96645610000001,2.378348589,2.582304418,13.367620788333333,-196.50715633333334,15.80766201,-23.872428893333332
444,3.699851999999965,-16.775789893333336,15.35883363,-34.16451006666667,-1.7649855613333336,1.7647764483333332,10.190659124666666,-185.9702606,10.387243907,-20.832717893333335
445,3.7081849999999577,-18.214269636666668,15.351173083333334,-34.35191346666667,0.22772785033333331,3.556973457333333,8.085141339333333,-167.38293456666668,5.179001171666666,-21.08181572
446,3.716517999999951,-19.556934993333332,15.377179463333334,-34.54547626666667,-2.428149104333333,4.729248206,12.975326537666666,-155.70291646666666,9.681121520666666,-20.23817635
447,3.724850999999944,-20.718383786666667,15.295931180000002,-34.68730673333334,1.1190993386666666,2.353037913666667,11.189425306666665,-135.59829203333334,-3.9843813826666667,-18.894714356666665
448,3.7331839999999374,-21.760610583333335,15.19256687,-34.82522583333333,-1.5910455386666669,4.7095961573333325,8.931132634666666,-121.36050669999999,-6.188133398666667,-19.72872162
449,3.7415169999999303,-22.6545283,15.086474099999998,-34.940216066666665,-0.3664233983333333,2.766482512,11.21784083,-104.34545388666668,-7.1733175913333325,-17.458489736666667
450,3.749849999999924,-23.4150575,14.891145703333335,-35.03520713333334,-0.3324468136666667,3.4108894666666667,10.684743881333333,-88.94155629666666,-17.649887403333334,-19.721937816666667
451,3.758182999999917,-24.05388705,14.720095316666667,-35.10026546666666,-1.0855423956666665,2.7421344916666666,9.433930874,-75.35047404000001,-16.170647303333332,-15.471841176666667
452,3.7665159999999114,-24.58808326666667,14.49117152,-35.17604573333333,-0.31030960866666657,2.0521401563333335,14.1466252,-62.44207000666666,-21.798505783333336,-19.751096723333333
453,3.774848999999904,-25.01700401333333,14.234267233333334,-35.19248960000001,-1.5986635683333335,2.2248878876666667,8.441207407,-51.68957773666667,-27.646061579999998,-14.881375313333331
454,3.783181999999897,-25.36681747333333,14.008880296666668,-35.25911966666666,-1.247119745,2.3021459183333333,13.857294878,-40.67740631,-21.577508926666667,-18.899895346666664
455,3.791515000000004,-25.608008066666667,13.695719083333335,-35.2272288,-0.37156784566666684,0.5919053406666667,9.185314178,-30.538635253333336,-35.945659000000006,-13.128872873333334
456,3.799847999999997,-25.79494985,13.470598856666667,-35.2668457,-2.8430848119999994,2.2335307993333333,10.758148273666668,-21.967437110000002,-22.7125988,-16.282385190000003
457,3.8081809999999914,-25.915695826666667,13.171199479999999,-35.22453819999999,0.9867717426666666,0.255335033,12.269122122666667,-16.333806037,-34.913521446666664,-11.562158266666666
458,3.816513999999984,-25.9979407,12.888392770000001,-35.21091206666667,-3.984207153333333,0.3467800116666666,10.335157235666667,-10.889653206333334,-31.573958716666663,-13.829171816666667
459,3.824846999999977,-26.034505210000003,12.661614416666666,-35.19631959999999,0.130866706,1.6786694923333334,13.249343233333333,-5.449196497666666,-25.630650836666664,-10.752057712666668
460,3.8331799999999694,-26.026002246666668,12.329035760000002,-35.1325582,-2.5808339513333336,-0.6602052326666666,9.043178556666668,-1.2893209853333334,-39.51113573666667,-11.19800091
461,3.841512999999964,-25.99116770666667,12.16693147,-35.12626136666666,-1.757261763,0.751627783,12.208239395,3.314449151333333,-18.259631156666668,-8.142542361333334
462,3.849845999999957,-25.926799773333332,11.839589753333334,-35.05299376666667,-0.5127515693333333,-0.07920571166666668,10.534324645,5.249474844333333,-39.46362432,-9.868329525666667
463,3.85817899999995,-25.86053912,11.651414553333334,-35.02098593333334,-3.433618466,-0.04831292233333336,10.482926369,6.473053296333333,-22.37859471666667,-6.793047587333334
464,3.8665119999999433,-25.774350483333333,11.427144686666665,-34.98572796666667,-0.8499318859999999,0.217164169,14.644933382,8.842324576666668,-26.418060940000004,-8.401846250666667
465,3.8748449999999366,-25.701016746666667,11.178555170000001,-34.92273456666667,-2.373957177,-1.2434959213333334,7.009385823666666,6.618681272,-30.512174606666665,-6.588674227333333
466,3.88317799999993,-25.62177721666667,11.045111656666668,-34.91088356666666,-2.670101443666667,-0.5449344016666666,12.278353532666666,8.557914892666666,-15.434849103333335,-6.055578231666668
467,3.891510999999923,-25.575969693333334,10.808107693333334,-34.85762533333334,0.20992136000000006,-0.7793447476666667,10.371935367666667,3.6016544500000003,-28.78581809666667,-6.9569211006666665
468,3.899843999999917,-25.53610166333333,10.650165239333333,-34.83281456666666,-4.1996535459999995,-1.4651135803333333,11.057261468,3.548828125,-18.744714419999998,-5.922299544
469,3.9081769999999096,-25.52006975666667,10.533933638999999,-34.83308413333334,-0.8404963959999999,-0.7815266946666667,12.628212929999998,1.2398961186666666,-12.996868291666667,-6.3848749793333335
470,3.916509999999903,-25.53259595,10.341557502333334,-34.79148866666667,-2.350431879333333,-1.0907370646666665,8.628159364666667,-3.0815436839999997,-23.335473696666668,-5.896643161666667
471,3.924842999999896,-25.556685766666664,10.288745561666666,-34.830474833333334,-2.366986036333333,-1.7638659080000003,11.580451646,-2.7519547936666666,-4.1576555566666675,-7.2110002836666665
472,3.933176000000003,-25.60350609,10.155991873333333,-34.80442806666667,-1.576998487,-1.096989393,9.975495019666667,-6.851386706,-16.095174789999998,-4.486065388
473,3.941508999999997,-25.669337589999998,10.073120751,-34.812789900000006,-1.8857330383333333,-0.575996599,10.128624278333334,-8.42879645,-8.973360021666666,-5.486360550000001
474,3.9498419999999896,-25.746183396666666,10.053195001666667,-34.84032696666666,-3.4090192716666667,-0.9900039433333333,12.774625778333332,-9.330246607666666,-1.1395728986666667,-4.356533606666667
475,3.958174999999983,-25.815431593333333,9.954404513666667,-34.833562199999996,-0.42000609633333336,-0.9728893636666668,9.429010233333333,-9.146362940333335,-11.455605506333333,-4.748277823
476,3.966507999999976,-25.897481283333335,9.994956014666666,-34.86898806666665,-5.002288659333334,-0.34649936366666667,9.891278426666666,-9.801151913,5.835329254666665,-2.064601580333333
477,3.9748409999999694,-25.99295934333333,9.970967927666665,-34.901570666666665,0.715417256,-1.3542189199999999,11.008370718333333,-11.469053904666666,-1.3383778333333334,-5.055965105666667
478,3.9831739999999622,-26.092765810000003,9.955190659,-34.9089406,-3.022842089333333,-0.6753887333333334,10.600665408333333,-12.513619736666667,-1.6939207713333333,-2.0188332793333337
479,3.991506999999956,-26.20820999,10.004953382666667,-34.969757066666666,-1.5473901029999997,-0.6352247693333333,12.987659615,-13.291583383333332,8.099948564333333,-4.159005482666667
480,3.999839999999949,-26.3154157,9.973118781666665,-34.97251893333333,-0.690057829,-1.5226606923333332,9.400676884333334,-13.492237093333335,-3.674533486,-2.3770397506666665
481,4.008172999999943,-26.44164721333333,9.995770773666669,-35.02300006666667,-2.665661652666667,-0.673629016,8.957188289333333,-14.80813535,4.6502362889999995,-4.429329872333333
482,4.016505999999936,-26.566833496666664,10.017013551333333,-35.059138,-0.814864193,-1.0852006376666665,13.210600216666668,-14.955801009999997,3.7982037846666663,-3.1000702383333336
483,4.024838999999929,-26.69462712666667,9.978944140333335,-35.055694566666666,-1.2123815466666665,-0.39894173566666663,6.886551140666666,-16.120327309999997,-4.7066181506666664,-1.9766894183333334
484,4.033171999999922,-26.83682315,10.048344611,-35.116928099999996,-3.1362043219999998,-0.301650308,12.251026471666668,-16.481472016666668,10.318441865333332,-3.1329506236666664
485,4.041504999999916,-26.967025123333332,9.999806405000001,-35.10999043333334,0.6616505683333334,-0.7886213660000001,12.171691259333334,-16.466982206666668,-6.001327941333333,-2.2345225016666665
486,4.049837999999909,-27.101051333333334,10.024302801,-35.14230856666668,-3.803319771666667,-1.3437679013333332,6.713890472999999,-16.11119175,3.9811149243333332,-2.454762259666667
487,4.058170999999902,-27.230910616666666,10.051987329,-35.16323343333334,0.44521888066666676,-0.137853076,12.767855325666666,-15.849858283333333,3.6451158539999997,-1.0283348956666665
488,4.066503999999895,-27.382855733333333,9.978792192333334,-35.14417523333333,-1.0900503400000001,-1.230601013,8.133941730000002,-19.32437388,-9.215572276666668,-2.4135917819999997
489,4.074837000000002,-27.513942079999996,10.029960315000002,-35.18449403333333,-3.288910731666667,-0.22662443533333332,11.396943569333333,-15.607035316666666,7.201597531666667,-1.707577745
490,4.083169999999996,-27.640417099999997,10.001996676333333,-35.1787262,-0.066796755,-0.10118172566666665,11.059688569666667,-15.989942553333334,-3.6700085406666667,-1.367864609
491,4.091502999999989,-27.75709215666667,9.991504349333333,-35.18038429999999,-3.5617438156666665,-0.87048162,8.280594506,-14.681489310000002,-1.4575948700000005,-1.0609120256666669
492,4.099835999999982,-27.859926223333332,10.061682699999999,-35.23335266666667,-1.2131793896666665,0.17712227499999997,13.479388874666668,-11.928514796666667,9.993001301333335,-2.0465480886666665
493,4.108168999999975,-27.97576968,9.992046676333333,-35.201741533333326,-0.539713075,-1.1046659546666666,7.430976709333333,-15.266743976333332,-9.556253265333334,-0.944021697
494,4.116501999999969,-28.079860049999997,10.067537628333334,-35.2543691,-3.0445447763333333,-0.7622211376666667,12.597593626333333,-12.103228566666665,10.538654805666667,-1.6425517006666668
495,4.124834999999962,-28.18332036,10.038703917333333,-35.235672,0.027868012666666647,-0.22457019500000006,12.363650319666666,-13.507640203333333,-4.527069648333334,-0.02261735966666667
496,4.133167999999955,-28.274854026666663,10.027981123,-35.2478434,-2.6728009979999996,-1.1707015233333333,8.103232384,-11.435626346666666,-0.8269214629999997,-2.274540186
497,4.141500999999948,-28.36431503333333,10.089851061333333,-35.276692733333334,-1.6557810506666666,-1.1266061463333334,10.470417021666668,-10.850238802666667,7.7144585856666685,0.19459568500000002
498,4.149833999999942,-28.466130573333334,10.036535263,-35.2715861,-0.06271771633333323,-0.8004794519999999,10.526083787000001,-13.016051294666667,-6.283706982999999,-2.9488093256666663
499,4.158166999999935,-28.56751442,10.067074775666667,-35.28160603333333,-3.5113141139999997,-0.400093923,9.848097324333333,-12.676918030000001,3.350167394333333,0.40483731033333337
500,4.166499999999928,-28.670783996666668,10.086825370999998,-35.305430066666666,-0.7710521899999999,-1.048311273,12.501943266666666,-12.593902903333335,3.050498803333332,-1.7719463703333336
501,4.174832999999921,-28.756118773333338,10.063224157,-35.27668763333333,-1.0967137503333333,-0.12687456833333333,9.37482214,-11.562579470666668,-4.555522282999999,1.3139677669999998
502,4.183165999999915,-28.835250220000002,10.093068438333333,-35.301839199999996,-2.8642685413333333,-0.3457407863333333,9.218923251,-9.6762139,4.204052289333333,-1.30855458
503,4.191498999999908,-28.89242108666667,10.100904780666667,-35.29677326666667,-0.26042032733333337,-0.9132907293333332,12.665382067000001,-7.677180606666667,0.09246301666666668,0.6542942723333333
504,4.199831999999901,-28.954738616666663,10.059215227333333,-35.27984106666667,-1.4094483999999998,-0.490148922,8.325990835,-8.544821262,-5.71814092,-1.0776124200000001
505,4.208164999999895,-28.994482039999998,10.110606191,-35.314229333333344,-2.7407797376666667,-0.20511855700000003,11.394907949,-4.770164887,6.916164159000001,-0.8739491603333334
506,4.216498000000001,-29.030623116666664,10.086090085666667,-35.3019918,-0.435817182,-0.6999424856666666,11.391820589333335,-5.292801618666666,-3.6339640020000004,-0.6145365236666667
507,4.224830999999995,-29.04238573666667,10.074281692333335,-35.298929833333325,-3.071818233,-0.5403381686666667,10.289730072333334,-2.1922410626666666,-1.837189515333333,-0.7043572316666666
508,4.233163999999988,-29.052025476666667,10.147603988,-35.3293813,-2.4660940566666665,0.10236282966666665,9.872459092333333,-1.2315837543333334,9.072169941666667,0.6879898509999999
509,4.241496999999981,-29.065609616666666,10.125049272666667,-35.33296206666666,-0.28918081766666665,-1.6007240613333333,10.100160280333332,-2.2647765079999997,-2.602141658333333,-2.003541271
510,4.249829999999975,-29.08035787,10.160002072666666,-35.341466299999986,-2.747416019333333,-0.9190420306666667,11.779308953666666,-2.306574742,3.802771210333333,0.7089764473333333
511,4.258162999999968,-29.092274986666666,10.206884066333332,-35.3774821,-2.0273495316666668,-0.9647714693333334,11.767516771666665,-1.3897431096666668,6.530845246666668,-1.2903684773333335
512,4.266495999999961,-29.109567006666666,10.218269347000001,-35.37090556666667,-0.46995463600000004,-1.4323223433333334,10.310320853333332,-2.928240637,0.445905405,0.9161358176666666
513,4.274828999999954,-29.12372462,10.24403,-35.388142933333334,-2.820493897,-0.46058599633333336,10.171791869000002,-2.0551964443333333,3.2487472,-0.5800343849999999
514,4.283161999999948,-29.13736852,10.326461472333333,-35.424967433333336,-1.9580950636666667,-1.003376355,12.193189938333333,-1.564701264,10.393280268333333,0.5667875856666666
515,4.291494999999941,-29.155828476666667,10.347162245,-35.41518656666667,-1.3373969046666667,-2.1904849806666666,7.631311735666666,-3.134776949666667,1.1858198043333334,1.8715255460000002
516,4.299827999999934,-29.166067126666672,10.485367138,-35.45413716666667,-4.3142561913333335,0.6594530363333334,10.510507901666667,-1.1003792603333333,16.381038983333337,3.5946047306666666
517,4.308160999999927,-29.172604876666668,10.613767939666667,-35.48363753333334,-0.997489234,-0.268589819,12.622566856666667,-0.8558530806666665,14.703707217666668,4.1483328340000005
518,4.316493999999921,-29.110415776666667,10.753797850333333,-35.479736333333335,-3.436755418666667,0.05765931733333333,8.387667973666666,6.672429482666668,14.128000576666665,8.084465185666666
519,4.324826999999914,-28.984901426666667,11.013968786666666,-35.508626299999996,-2.435755372,3.123255173333334,10.645580372666666,14.984070780000001,28.49592717666667,11.872628846666666
520,4.333159999999907,-28.722991309999998,11.238349276666666,-35.45654296666667,-1.9381245076666669,3.5115360416666666,11.824437140999999,29.529537203333334,20.301890056666668,17.840178806666668
521,4.3414929999999,-28.31697782,11.570245743333336,-35.423792533333334,-3.6035052936666667,3.558409452333333,9.469846723,47.21008300666667,32.7086277,22.097902933333334
522,4.349826000000007,-27.75994301,11.949417753333334,-35.380009966666655,-2.500540217,3.731380462666667,11.46578026,65.05870946666666,37.383561453333336,25.466804503333332
523,4.358159000000001,-27.052537916666665,12.324694316666665,-35.32898456666667,-1.6689412396666665,2.8746388753333334,11.534760793000002,82.86368306666667,36.75756073,25.77756691
524,4.366491999999994,-26.219184873333333,12.743358293333332,-35.311162333333336,-2.4821417333333335,3.1588796773333336,8.935696602999998,98.83640034,43.64067967666667,23.865868250000002
525,4.374824999999987,-25.27308718,13.17850272,-35.29541523333334,-1.2195167143333332,1.3991835116666669,9.972899436666667,112.3632736,45.772515613333326,24.072652183333332
526,4.38315799999998,-24.215775806666667,13.581970533333333,-35.2900696,-2.0527969600000002,1.8811183373333336,12.947764713333333,126.02331036666665,43.36782964333333,20.32532692
527,4.391490999999974,-23.069559733333335,13.985195480000002,-35.27928163333333,-0.8374591273333335,1.281796237,9.229771770333334,136.50051370000003,43.368946073333326,20.270131430000003
528,4.399823999999967,-21.83526548,14.387531916666665,-35.27044676666666,-1.9170799453333336,0.7725578299999999,11.356139183333333,147.15775043333335,43.888558706666664,18.852253593333334
529,4.40815699999996,-20.500564576666665,14.732044536666669,-35.21278379999999,0.9343610803333333,1.3153360883333334,12.083929379333334,157.69080096666667,35.69499651666666,20.890949886666665
530,4.416489999999953,-19.080801646666668,15.034988720000001,-35.13578796666667,-2.084730366666667,1.854355653,9.585243542,167.2977142,30.825756076666664,20.18833224
531,4.424822999999947,-17.56899516,15.366191866666668,-35.02788796666666,-0.8462055523333333,1.0973223846666667,12.498599369666666,177.29360963333332,33.37264124666667,24.039098103333334
532,4.43315599999994,-15.954549149999998,15.625484466666668,-34.89311216666667,-1.1607801713333332,1.2434242566666667,12.84233983,188.72213746666668,24.93724251,23.37320073666667
533,4.441488999999933,-14.273886679999999,15.846887266666668,-34.72514343333333,-0.3235776426666667,-0.04765180233333336,11.504553796666665,195.52742003333333,20.198919933333332,25.216347376666665
534,4.4498219999999264,-12.533346176666669,16.03832245,-34.54672239999999,-1.6213081679999999,0.5417904753333334,10.869152388333333,202.1972809,17.129712103333336,25.15378952
535,4.45815499999992,-10.721172966666666,16.209101996666664,-34.330378200000006,-0.49710294833333335,0.650960962,12.875941913333333,209.56919860000002,14.641356787333331,28.12977918
536,4.466487999999913,-8.874927838666666,16.274257979999998,-34.103007,-0.3406605123333333,-0.5121279360000001,11.162961325333333,213.12279766666666,2.8018999296666665,26.98454412
537,4.474820999999906,-7.013300418666667,16.382059413333334,-33.86080423333333,-2.4988303583333336,-1.1795276996666666,9.517449379,214.5530345,8.549594878999999,28.907370886666666
538,4.4831539999999,-5.139903863,16.41168467333333,-33.622716266666664,0.004175662999999978,-0.8560512263333333,14.735944750000002,215.92422483333334,0.1925443006666665,27.60718663333333
539,4.4914870000000064,-3.2888045310000003,16.387271566666666,-33.377634666666665,-1.9880949460000001,-1.8913636283333333,9.354456583333333,213.16870626666665,-5.407418093666666,27.352258046666666
540,4.49982,-1.416836977,16.388008436666667,-33.13473513333334,-0.44925169666666664,-1.7357124886666666,14.545336403333332,215.58452856666668,-1.4899412773333331,27.964527766666667
541,4.508152999999993,0.379181333,16.250988009999997,-32.887262966666675,-1.184739794,-2.0804030103333333,10.509663384666668,206.51992796666664,-17.12667497,27.798791249999997
542,4.516485999999986,2.1697490609999996,16.175453183333335,-32.64414976666667,-0.9627137979999999,-2.3686316013333335,14.559427896666667,205.98783366666666,-8.847534419333334,27.89523061
543,4.52481899999998,3.892256498,15.993956883333333,-32.416725166666666,-0.4574277596666667,-2.23651131,10.694410960333334,198.48762006666666,-20.79996935666667,26.809354779999996
544,4.533151999999973,5.560769558333334,15.798868496666666,-32.20128123333333,-1.5314802529999998,-2.804696003666667,12.758063316666666,192.37409973333334,-21.68675931333333,26.483179730000003
545,4.541484999999966,7.174343268,15.586465516666669,-32.00181833333333,-0.2593296766666667,-3.2075429759999996,12.170538344999999,186.48351033333333,-23.228428520000005,25.25884247
546,4.549817999999959,8.701366106333333,15.315945306666665,-31.820788066666662,-1.3407712280000001,-2.5976529123333334,8.093956469333333,176.69671119999998,-29.654806136666668,24.980772653333332
547,4.5581509999999525,10.143948234666667,15.02877903,-31.680526733333334,-0.7086599866666669,-3.4968745709999998,14.053846678999998,168.0272216666667,-31.79190635666667,21.218023936666665
548,4.566483999999946,11.514138856666667,14.705785436666666,-31.551945999999997,-0.9217533966666668,-3.0618307590000007,11.883987745333334,159.71798196666666,-35.66497548333333,21.659318926666668
549,4.574816999999939,12.786706286666666,14.4045585,-31.480074566666662,-1.5386705299999999,-3.0123980046666667,12.735466323333334,149.87141929999999,-34.041648863333336,15.299592336666668
550,4.583149999999932,13.971813840000001,14.01669852,-31.40428163333333,-0.9609787363333333,-3.719382286,11.074457171,139.21194966666667,-43.62681325333333,19.14271164
551,4.591482999999926,15.089623770000001,13.695428213333335,-31.37005616666666,-1.5013516146666666,-3.326186498,10.696894964,132.49120076666665,-36.78227106666667,13.040238699999998
552,4.599815999999919,16.130233126666663,13.296223643333335,-31.339538599999997,-1.70568641,-3.1833188536666666,9.903803030666667,123.26473490000001,-45.56978607,16.084347723333334
553,4.608148999999912,17.055517193333333,12.980971336666668,-31.320887266666663,-1.506681005,-3.4619622226666666,12.417868929333332,109.87492626666666,-36.11605453666667,12.349829036666668
554,4.616481999999905,17.90305583,12.610067366666668,-31.32444253333333,-2.773406838333333,-3.1175529956666668,12.993803022666668,101.03707886333332,-42.94669087333333,12.788444836666665
555,4.624814999999899,18.681929269999998,12.349786123333333,-31.292559300000008,-1.676655685,-2.8817409673333336,10.231258234333334,91.98719533,-28.972550073333334,12.811663946666664
556,4.633148000000006,19.375785826666668,11.999254223333333,-31.302932733333336,-1.7577585406666667,-3.911661466,10.450776261,82.77604929666666,-40.542809803333334,12.330496153333334
557,4.641480999999999,19.998093923333332,11.75950686,-31.2772751,-2.569279194,-2.529185772,7.995095729666666,73.38909657666667,-26.555818239999997,12.022535959999999
558,4.649813999999992,20.55223656,11.49650955,-31.283892300000005,-1.465721369,-2.3768113056666667,14.548793793333331,65.90616099,-30.250731786666666,9.982931770999999
559,4.658146999999985,21.001586276666668,11.246848106666667,-31.281962066666665,-1.4605587423333333,-3.886239369666667,7.424979766333333,53.208086650000006,-28.395350456666666,10.395471252333335
560,4.666479999999979,21.419300716666665,11.07795334,-31.2818578,-4.4240395726666675,-2.077796817,12.951526003333333,49.40438461333334,-19.29002603,7.04371961
561,4.674812999999972,21.749031703333333,10.917766890000001,-31.25370536666667,0.680159132,-2.6333491403333333,9.082773843333333,38.23069254666667,-17.111109416666665,9.742655275666666
562,4.683145999999965,22.015182496666664,10.742482500000001,-31.284594233333333,-4.664342721333333,-2.5825819966666668,11.067444165,31.918172836666667,-21.257841106666667,4.209543148666667
563,4.691478999999958,22.252340956666668,10.686005276666668,-31.2217102,0.24382916600000004,-1.858276347,9.856019814333333,26.36231804,-3.9283514023333335,9.040328662
564,4.699811999999952,22.431313196666665,10.576089223333334,-31.227689099999996,-4.915308078,-2.547719995,8.987019698,20.90587997333333,-12.878839810000002,4.037574052666667
565,4.708144999999945,22.567014693333334,10.51253859,-31.158582066666664,1.825729052,-1.7123099363333332,9.233008860333333,14.084076563333333,-4.389359236,10.028428555333333
566,4.716477999999938,22.67226600666667,10.50385507,-31.11535136666667,-7.016332547,-1.2130873403333335,11.772798856000001,10.979150136666666,0.6040133636666667,4.820360739999999
567,4.724810999999932,22.761665346666664,10.483849206666667,-31.019185399999998,3.288890669666667,-2.0326422453333333,12.34746472,7.951739947666667,1.6893527903333334,10.937694550000002
568,4.733143999999925,22.79634158,10.466631569999999,-30.969996133333336,-5.9785237313333335,-1.6892436746666668,8.652917542333332,2.390324592666667,-0.07609572033333316,5.812433083999999
569,4.741476999999918,22.835039773333335,10.495927173333333,-30.8462194,2.347281495666667,-0.19815910233333334,9.975101788333331,1.2731301583333332,8.429159323333334,11.652728716
570,4.749809999999911,22.86268425,10.543283463333333,-30.76894126666667,-6.471071084333333,-1.5233978776666666,11.486892222666668,0.9248703123333334,8.365485987333333,5.872896353333334
571,4.7581429999999045,22.860186260000003,10.55864334,-30.658755,4.209530671333334,-1.161012982,8.818330445666668,-3.393801113,6.271872361333333,10.810177484333332
572,4.766475999999898,22.84459177333333,10.61340936,-30.580764766666665,-6.411449750333333,-1.0075394313333332,10.062860013333333,-4.2796908616666665,9.204135098666667,5.5743840533333335
573,4.774809000000005,22.849541346666665,10.647679966666667,-30.471427933333334,2.8423893450000004,-0.10693177333333335,11.734967391,-2.4901563723333333,8.321041584666666,9.840887705333332
574,4.783141999999998,22.827256520000002,10.734923680000001,-30.389854433333337,-6.083122571666667,-1.2173288416666668,10.289782048333333,-5.188399791666667,12.958476382,4.4453346730000005
575,4.791474999999991,22.800107956666665,10.730771066666668,-30.30782316666667,3.8236606519999996,-1.473207851333333,10.234561124666667,-5.752287864666666,2.817712467333333,8.672818978666667
576,4.7998079999999845,22.78936831,10.811275163333335,-30.244550066666662,-6.420696576666667,-0.6433019236666666,8.597742239666667,-3.3961753846666674,11.372329713666666,2.786094904
577,4.808140999999978,22.797920226666665,10.856639863333333,-30.147923799999997,2.647663593,1.699944218,9.677874884,-1.8131935596666666,8.956778685666668,7.951129118666667
578,4.816473999999971,22.828578949999997,10.931912103333334,-30.099515300000004,-5.338252782666667,-1.325995604,11.931978544666668,1.896384371,10.109666665666667,1.3977519073333333
579,4.824806999999964,22.86039288666667,10.949113846666668,-30.0063731,3.6272890566666667,-0.3797307213333334,10.941824596666669,1.032176944,5.686164379333333,8.861347832666667
580,4.833139999999958,22.890621183333334,10.997138976666667,-29.995643599999998,-5.212244669666667,-0.3054433166666667,9.268773714666667,2.698361476,5.386020660333333,-1.3999289273333335
581,4.841472999999951,22.947889963333335,11.01546796,-29.90293123333333,2.0437957246666665,-0.32680116600000003,11.714230218000003,4.051720441333333,5.8606742223333335,8.889583905666667
582,4.849805999999944,23.01192220333333,11.0797383,-29.8850581,-4.9408493836666665,-0.41467912999999995,10.432087738333333,6.587972799666666,7.517923671333333,-1.3730724653333333
583,4.858138999999937,23.09441948,11.100656826666665,-29.804690033333333,1.7496308086666665,-0.05992464233333333,10.338343302,7.379299800000001,5.540445168999999,7.277713298666666
584,4.866471999999931,23.16772906,11.130124726666667,-29.800125133333335,-3.236734827333333,-1.691238761,9.506921929666667,8.006182670666666,3.063415765666667,-1.1818065643333335
585,4.874804999999924,23.253384269999998,11.113022486666665,-29.74804433333333,1.4983339606666668,0.08508394166666668,10.607145311333333,8.402127584,0.06897020333333348,6.030420054666667
586,4.883137999999917,23.3262221,11.105692863333333,-29.754165666666662,-3.172940413333333,-0.533407236,10.242213884666667,8.207451024333333,-1.4969773493333332,-0.6067757606666669
587,4.89147099999991,23.42431322666667,11.107803026666666,-29.717758200000002,-0.2764362643333334,-0.9688407776666668,8.827800432666665,10.263462383333334,1.461113134666667,3.395410378666666
588,4.899803999999904,23.515315373333333,11.10944843,-29.70633186666667,-2.9057207503333338,-0.33719881366666665,11.701901119333334,9.992284457666665,0.2926725546666667,0.8150363366666665
589,4.908136999999897,23.606998443333335,11.125898996666669,-29.6771469,-0.7690400479999999,-0.6911105513333333,11.555328370666667,9.661757467333333,2.705947558,1.9093060490000002
590,4.916470000000004,23.692262646666666,11.125101726666669,-29.656580599999998,-1.7513182163333332,-1.1387866176666668,10.587392174333333,9.097716012,0.4460076093333332,1.887479236
591,4.924802999999997,23.762317656666667,11.143428163333333,-29.645479833333326,-1.110012462,-1.3245740633333334,11.34161981,7.4898168243333325,2.055482745,-0.152827352
592,4.93313599999999,23.842994689999998,11.13406086,-29.60384116666667,-1.8604145846666666,-0.7761316396666665,10.029443423000002,8.057351589,0.5117426316666667,4.566899140666667
593,4.941468999999984,23.916769663333337,11.154060046666666,-29.598205566666664,-0.9131127,-0.3241117026666667,10.165382384333334,8.071293673333335,1.9779995083333333,-0.8288851856666666
594,4.949801999999977,24.006979623333333,11.176682153333333,-29.554893466666673,-3.3662609260000003,-0.46334389833333334,10.001599468666667,9.157935142333335,4.1227136453333335,3.2069707713333333
595,4.95813499999997,24.082243599999998,11.204924579999998,-29.552012100000002,0.304826091,-0.2414361336666667,11.784609793333333,8.316430888,2.7418674316666665,-1.5474372753333334
596,4.966467999999964,24.164718626666666,11.238260906666667,-29.515797933333335,-2.872516075666667,-1.2745252846666666,10.656474430333335,8.395825703666667,4.952162504333333,1.8762727479999999
597,4.974800999999957,24.21401469,11.248176573333332,-29.51554106666667,0.5175915163333333,-1.2051598033333333,10.328552244333332,5.262129147666666,0.6033902963333332,-0.9422965846666669
598,4.98313399999995,24.239183426666667,11.30179469,-29.511777233333333,-3.185224692,-2.256659944666667,10.113544781,2.280017256666667,5.6124382016666665,-2.6063126723333334
599,4.991466999999943,24.252447763333333,11.320447286666665,-29.503023799999994,-0.31490920733333333,-0.9792445103333334,10.210494836333334,0.7354274989999999,1.9707292516666666,-0.45883205
600,4.9997999999999365,24.233573276666664,11.393242836666667,-29.5122935,-2.8801446780000006,-1.1981543106666666,10.429234504999998,-2.7006113529999998,7.096846899666666,-4.9116064706666664
601,5.00813299999993,24.18128649333333,11.43147691,-29.50848136666666,0.03489632433333334,-2.7362919646666666,11.391156038666665,-7.0128664973333334,3.8632884026666665,-1.9816581806666667
602,5.016465999999923,24.060654956666667,11.48763116,-29.5381775,-3.0004721483333334,-2.399961551,9.987486202333333,-14.419610660000002,4.307111859,-6.254874229666666
603,5.024798999999916,23.86920293,11.515526773333335,-29.552589400000002,0.7998633833333333,-2.8260896206666666,12.391517321,-23.28654035,1.860572339666667,-3.4468025366666666
604,5.03313199999991,23.588495886666667,11.527475993333333,-29.61616006666667,-2.9931053320000003,-3.6022022563333334,7.3252061993333335,-32.784614563333335,-2.1384655610000003,-7.774053097
605,5.041464999999903,23.262414933333332,11.637529056666667,-29.6260147,-0.5712503193333334,-2.468589902,13.145845096666667,-39.545752209999996,11.140194256666668,-6.886367956666668
606,5.049797999999896,22.81436984,11.59326299,-29.7220408,-0.8517158253333333,-2.7300380069999997,7.779439370666666,-52.07610829666667,-9.745286146333335,-8.653411865
607,5.058131000000003,22.301542916666666,11.7151165,-29.755533866666664,-2.223843087666667,-4.5140028,14.070695083999999,-61.363441466666664,11.466115214666665,-9.855620702333333
608,5.066463999999996,21.677435556666666,11.618860563333334,-29.869768766666663,0.6277632713333333,-2.359730005333333,7.620393140666667,-72.78403727333334,-16.139966966666666,-8.377916814
609,5.07479699999999,21.007829663333332,11.777984940000001,-29.903956100000002,-5.718051433333334,-1.9510132873333335,11.089443524666668,-80.15018463,15.832504750666667,-11.190506300666668
610,5.083129999999983,20.249785743333334,11.759327253333334,-29.990585333333332,3.9729220069999998,-3.0033753713333335,12.864362715333334,-89.54246266333332,-6.064924438666666,-8.989761194333333
611,5.091462999999976,19.36148452666667,11.750218076666664,-30.122103366666664,-5.262406349333333,-4.380741834666666,5.5448363626666675,-104.10327146666667,-6.596905073333333,-14.212477046666669
612,5.099795999999969,18.42199770666667,11.867107706666667,-30.18204753333333,0.21773628633333342,-1.9473140636666668,16.54347419666667,-111.9509913,10.609263101666668,-11.439270655333333
613,5.108128999999963,17.33433850666667,11.862209,-30.348080966666668,-2.3631705443333337,-5.403771877333334,8.489701828333333,-127.10731253333334,-6.963292916333334,-18.71293576333333
614,5.116461999999956,16.120922086666667,11.963710146666665,-30.467920933333335,-1.3382188133333335,-5.043683687666667,11.034808635666666,-143.31762693333334,7.232189416,-17.163548153333334
615,5.124794999999949,14.77433586,12.028064409999999,-30.654632566666674,-1.6719998516666668,-3.8911231359999996,11.619763058000002,-157.62301636666666,1.1813538486666666,-23.562184013333336
616,5.133127999999942,13.344051996666666,12.077994663333335,-30.79493456666667,-2.1944714783333334,-2.1674044526666667,6.671522380333333,-168.8188222,1.452713966,-17.446355819999997
617,5.141460999999936,11.854299226666667,12.305361116666667,-30.940269466666674,-3.0688798426666666,-3.703991651666667,14.504120191,-175.79377743333336,22.503288906666665,-22.874238966666667
618,5.149793999999929,10.273975370999999,12.252113979999999,-31.084737133333338,1.4106894136666668,-2.3901739916666664,9.487739919333334,-186.66566466666666,-9.893162887333332,-15.475742976666666
619,5.158126999999922,8.677982966333333,12.436006543333333,-31.2222824,-5.1218492190000005,0.10446983566666668,9.774078844666667,-188.6772715333333,18.688593230333332,-19.73963483
620,5.166459999999916,7.085822105333334,12.540293376666668,-31.316261299999997,0.7277688186666665,-2.0089545646666664,13.867586293333332,-189.33470153333334,10.505327223333333,-12.827281316666665
621,5.174792999999909,5.432766119666667,12.628524463333335,-31.451970433333333,-3.127794683,-1.3796179093333334,8.745024681666665,-195.53529866666668,8.377724090000001,-16.992738723333332
622,5.183125999999902,3.7899497350000004,12.752487819999999,-31.536455799999995,-0.6166784563333332,-0.1085843893333333,14.270176569999999,-195.61374916666668,13.644776660666667,-11.301121713333332
623,5.191458999999895,2.1414933206666666,12.854249956666669,-31.68855033333334,-2.535262545,-0.921331485,4.821571987333333,-194.48410543333333,10.842367281666668,-18.475896199999998
624,5.199792000000002,0.5579533403333333,13.061128933333334,-31.799680100000003,-3.519303401333333,0.4765851796666667,14.09237226,-187.73328653333337,24.11647161,-13.779299736666667
625,5.208124999999996,-1.042033732,13.21964423,-31.955607066666662,-0.24023966,-0.489934047,8.918023109,-188.44606526666666,18.65646012666667,-18.373099330000002
626,5.216457999999989,-2.634574334,13.32435004,-32.11101276666667,-1.59805804,-1.472649495,10.746079604,-187.50911459999998,12.744822501,-17.958493233333332
627,5.224790999999982,-4.217323541666667,13.477984746666666,-32.275367733333326,0.18990132199999996,-0.10566894233333324,10.380809305999998,-186.0599619333333,19.091960269999998,-18.30475871
628,5.233123999999975,-5.753543535666666,13.612826346666665,-32.46561686666667,-5.63771526,0.9957395393333335,8.626165070333334,-179.70742289999998,17.637149176666668,-20.78269005
629,5.2414569999999685,-7.281850814999999,13.831543606666665,-32.65097553333333,2.205222442666667,-0.10936460399999999,12.806588492666668,-178.84527079999998,28.072941779999997,-18.721999486666668
630,5.249789999999962,-8.784314155333334,13.87411213,-32.86714680000001,-2.651738405333333,-1.65613993,9.669165611666665,-174.79652916666666,8.143097908333333,-24.305849073333334
631,5.258122999999955,-10.225174268666665,14.006534576666667,-33.02618663333334,0.628155927,2.204545349,10.007428487,-169.02675373333332,18.274018288333334,-15.87071959
632,5.266455999999948,-11.633683523333332,14.041206996666666,-33.25268806666666,-3.834140698,1.2594874303333334,7.723082065333333,-163.15757243333334,8.616173157666667,-25.117247263333336
633,5.2747889999999416,-12.966084163333335,14.176182113333333,-33.41495513333333,0.1474395793333334,0.36543481533333333,14.062005679999999,-155.8613993333333,19.40228589133333,-15.262689906666667
634,5.283121999999935,-14.268877663333335,14.20928987,-33.618972766666666,-2.334200124,1.1348362066666666,10.089454649333332,-151.0509542,8.970611891333334,-22.233533856666668
635,5.291454999999928,-15.510537146666666,14.219366706666667,-33.752766933333334,1.6284947196666668,1.797714551333333,10.604180016666666,-145.77464293333333,4.712891419333334,-14.969228113333335
636,5.299787999999921,-16.70591863,14.1804924,-33.94462583333334,-3.050254106666667,-1.208100279,7.065316996,-138.5274709,1.2159654313333335,-22.786006293333333
637,5.308120999999915,-17.812798816666668,14.185211816666666,-34.066151966666666,0.2776678106666666,2.011530618,12.484640756666666,-129.97204083333335,4.280512809,-13.5752484
638,5.316453999999908,-18.899516423333335,14.111670176666669,-34.240854866666666,-2.75364089,2.629944662333333,9.544217585,-125.95392863333332,-2.411266962666667,-22.34913381
639,5.324786999999901,-19.87638028666667,14.048618,-34.33782449999999,1.2470206023333332,0.43331676733333335,11.163905778999998,-115.10610196666666,-3.842491309333333,-13.436528523333331
640,5.333119999999894,-20.801212946666666,13.90862878,-34.46271263333333,-2.7614631653333337,2.105346481,8.060977935666665,-108.04871370000001,-11.151369490999999,-19.719209036666665
641,5.341453000000001,-21.657287596666666,13.785215696666667,-34.53561403333333,1.5285445106666666,2.011761943333333,14.200393996666667,-101.31870524666668,-11.140872717999999,-13.647592546666667
642,5.349785999999995,-22.421552656666666,13.566680276666668,-34.616628033333335,-2.1327306826666668,-0.10315807133333336,7.9333303766666665,-90.08645375666667,-21.197116536666666,-18.89482816
643,5.358118999999988,-23.099411646666667,13.402060193333334,-34.65976969999999,0.45274070966666674,2.5179231963333337,11.168833413666666,-80.82048289000001,-16.682656923666666,-12.655623116000001
644,5.366451999999981,-23.718283333333332,13.123421666666667,-34.69910686666666,-2.135225077333333,1.961037516666667,8.015257359333333,-73.84427134333333,-29.26320076,-17.858945526666663
645,5.374784999999974,-24.25912348333333,12.936415353333336,-34.74315389999999,-1.1512440046666665,-0.23619874333333332,13.224840163000001,-64.39341863333334,-18.827474913333333,-14.187796910000001
646,5.383117999999968,-24.72206751666667,12.641644793333333,-34.73488363333334,-1.5926368633333334,2.9334336916666666,9.497146925333334,-56.45706812333333,-33.03194173,-14.058425586666667
647,5.391450999999961,-25.1398468,12.445945736666667,-34.78092446666667,-1.6999132636666667,0.7385735983333334,11.733750581,-49.62106959,-19.444122633333333,-15.142148656666668
648,5.399783999999954,-25.466681163333334,12.140885990000001,-34.73238626666666,-0.7681403560000001,0.2225537896666667,8.321900604666666,-41.13195165333334,-35.93620173,-10.862767536666667
649,5.408116999999947,-25.772149403333334,11.929525373333334,-34.77993266666667,-2.772788482333333,2.472933610333333,14.008973601666668,-36.18659718666667,-20.938997903333334,-16.216416993333336
650,5.416449999999941,-25.986750283333333,11.61868922,-34.702428166666664,-0.668453276,-0.0595529676666667,10.501612823,-28.31199646,-37.91816711333333,-8.506235917666666
651,5.424782999999934,-26.16879145,11.402166370000002,-34.726435366666664,-3.148591478666667,0.6575736006666667,9.242728393666667,-21.991056440000005,-22.574361803333332,-14.17144871
652,5.433115999999927,-26.29397456,11.134648006666666,-34.656173700000004,-0.177273989,1.5624646739999999,12.327091058999999,-17.328803696666668,-32.835959120000005,-7.202031771333334
