time,Euler_X,Euler_Y,Euler_Z,Acc_X,Acc_Y,Acc_Z,Gyr_X,Gyr_Y,Gyr_Z
0.0,-2.418891907,3.952425957,-139.1465759,1.095595479,0.156593338,4.258176804,6.242267132,2.698229551,4.208650112
0.008332999999993262,-2.324734449,4.025920391,-139.1572876,-2.881938934,1.30082953,5.480408669,9.859892845,8.806814194,-1.341353536
0.016665999999986525,-2.216124535,4.076631546,-139.1468353,1.358769059,-0.558479249,6.565499783,11.42556477,5.974265099,1.037325501
0.024998999999979787,-2.086401939,4.131925583,-139.1474915,-1.719534159,1.814054251,6.668561459,14.0458765,6.575892925,-0.300928921
0.03333199999997305,-1.925679207,4.201964378,-139.1773529,0.696188986,0.77398783,2.425896883,18.02750969,8.467991829,-3.732008219
0.04166499999996631,-1.801454306,4.238557816,-139.1551971,-1.867719293,0.227313161,7.289904594,13.18556976,4.244740486,2.291065693
0.049997999999959575,-1.659266591,4.274929047,-139.1915741,0.574039221,0.168253481,9.718932152,15.86753368,4.437949181,-4.677992821
0.05833099999995284,-1.468505263,4.293343067,-139.16362,0.132094651,-0.052470755,8.196264267,21.1127491,2.058514595,2.929962397
0.06666400000000294,-1.291777492,4.294296265,-139.1799011,-1.271344781,-0.034946576,7.36395359,19.83526039,0.104019441,-2.400938511
0.0749969999999962,-1.100281,4.285819054,-139.1685486,0.178874299,0.630962074,5.016000271,21.35084343,-1.103307843,0.839980781
0.08332999999998947,-0.944551229,4.237114429,-139.1792603,0.439858407,0.325996399,10.3620863,17.26345825,-5.876969337,-1.841651082
0.09166299999998273,-0.757787645,4.176806927,-139.1674194,-0.486867368,-0.41698128,11.23546791,20.78050423,-7.314928532,0.808821023
0.09999599999997599,-0.588965356,4.096820354,-139.1764679,-0.798786223,0.120521784,2.127776384,18.81848907,-9.643249512,-1.650581717
0.10832899999996926,-0.443097264,4.029017448,-139.1721497,-0.391055614,-0.239248231,10.51678181,15.93729687,-8.198196411,-0.021900177
0.11666199999996252,-0.270823777,3.911555052,-139.1741943,-0.735625386,0.113883227,11.6892271,19.17086792,-14.15159035,-0.78835535
0.12499499999995578,-0.113222234,3.822693348,-139.1743774,-1.041523099,-1.139196873,9.984757423,17.38401604,-10.72125244,-0.531444311
0.13332799999994904,0.001462638,3.739360094,-139.174118,-0.509926617,0.067373931,1.126110077,12.24089146,-10.05759716,-0.436044008
0.14166099999999915,0.091732517,3.593587875,-139.17659,-0.105898723,-0.401989222,10.822052,9.323993683,-17.55166054,-0.773844719
0.1499939999999924,0.210122168,3.525718927,-139.1712036,-2.286414623,0.156838939,14.83117771,12.646595,-8.198669434,0.211701691
0.15832699999998567,0.315022886,3.406567812,-139.1779938,-1.394913197,-0.371534437,5.834178448,11.10858917,-14.36217499,-1.230392814
0.16665999999997894,0.382627875,3.366812229,-139.1665192,-0.451788008,-0.356637239,3.804551601,6.511804581,-4.818613529,0.94611299
0.1749929999999722,0.43806231,3.240563154,-139.169754,-0.634772241,-0.001921623,11.84267807,5.145721436,-15.21284771,-0.759321332
0.18332599999996546,0.508656442,3.194565296,-139.1551514,-1.652129054,0.059021845,13.00758171,6.853805542,-5.562067032,1.337703586
0.19165899999995872,0.579140127,3.143544197,-139.160675,-1.81740129,-0.249459252,4.05298996,6.966764927,-6.189590931,-1.084903836
0.19999199999995199,0.614401996,3.096139908,-139.1451721,0.377390712,-0.13143082,5.248152256,2.610218525,-5.725665092,1.461266518
0.2083250000000021,0.659934938,3.062938452,-139.1598816,-2.794096231,0.403390467,15.56818199,4.031424999,-4.064377785,-2.207832098
0.21665799999999535,0.740761638,3.053637743,-139.1512451,-1.030658245,0.099770121,9.988939285,8.124757767,-1.160286427,0.592482865
0.22499099999998862,0.78747642,3.084910393,-139.1591034,-0.691113949,-0.062235102,1.942047477,4.128809929,3.67636013,-1.492964268
0.23332399999998188,0.815786779,3.036639452,-139.1486206,-0.079681754,-0.278810203,9.713298798,1.811054587,-5.832067013,0.883947313
0.24165699999997514,0.87183553,3.088520288,-139.1615143,-3.012177467,0.954174101,14.86884308,5.281706333,6.140218258,-2.14720273
0.2499899999999684,0.957355082,3.119922161,-139.1558838,-0.55035466,0.037007295,6.863474846,8.705973625,3.721492529,0.157194585
0.25832299999996167,0.996513069,3.157843828,-139.1559753,-0.337452799,-0.751076281,2.482860565,3.172553301,4.484258652,-0.580994844
0.26665599999995493,1.038655996,3.199485302,-139.1591187,-1.870674014,0.220142797,15.06765747,3.558970213,4.933199406,-0.92227906
0.2749889999999482,1.111148119,3.280723095,-139.1674347,-1.311799169,0.285105824,10.29833221,7.228466034,9.6628685,-1.678769946
0.2833219999999983,1.153546453,3.357934475,-139.1728058,-0.510614634,-1.353463292,4.972407341,3.606049299,9.193948746,-1.285642624
0.29165499999999156,1.165417075,3.404385567,-139.1685944,-0.369569182,0.122498594,5.519048214,-0.130440503,5.516819954,-0.106593646
0.2999879999999848,1.182056904,3.508502007,-139.1839905,-2.101235628,0.36473155,16.41156769,0.588768959,12.39588356,-2.557748318
0.3083209999999781,1.236991405,3.567516804,-139.1743622,-0.53919512,0.398785263,6.754528046,4.996236324,7.037665367,0.485543489
0.31665399999997135,1.247334003,3.6809268,-139.1754761,-1.152483344,-0.780793428,5.804133415,-0.27044791,13.5465498,-0.88219285
0.3249869999999646,1.260414243,3.751020908,-139.1595154,-0.88343358,0.966693282,9.833738327,-0.077060431,8.382565498,1.203740954
0.33331999999995787,1.279017568,3.874264717,-139.16745,-1.019620895,-0.161690697,14.54531002,0.776162744,14.70892715,-1.735019207
0.34165299999995113,1.318115711,3.938879251,-139.152832,-0.763302088,-0.171869487,5.412896156,3.048580408,7.722743034,1.057201982
0.34998600000000124,1.3032763,4.081614017,-139.1510773,-1.183047771,-0.467158705,5.970626354,-3.31462431,17.07248306,-0.640471399
0.3583189999999945,1.306393385,4.181703091,-139.1333618,-1.412214875,0.469897717,11.53223228,-1.302983522,11.98713017,1.333144069
0.36665199999998777,1.310652137,4.343009472,-139.1332397,-1.417796135,0.221737757,13.09034157,-1.008957744,19.29559326,-0.882782042
0.37498499999998103,1.328151226,4.483945847,-139.1203613,-1.487231612,-0.097773135,5.826364517,0.460044563,16.87272835,0.619800508
0.3833179999999743,1.296002746,4.677339077,-139.1081543,-0.733968318,-0.841148198,7.083992004,-5.494806767,23.17899895,0.472813398
0.39165099999996755,1.284959674,4.849245548,-139.1019745,-1.902052641,0.30602631,12.90784264,-2.911251068,20.57167053,-0.210177705
0.3999839999999608,1.263096809,5.068604946,-139.1033173,-0.515184999,-0.020283978,10.12908936,-4.129619122,26.25601578,-1.204036474
0.4083169999999541,1.239561558,5.279971123,-139.1044922,-1.603699446,-0.771559477,7.133137703,-4.333816051,25.28559494,-1.186080575
0.4166500000000042,1.165188789,5.532329559,-139.0991974,-0.705272377,-0.639653862,7.783019543,-10.50503445,30.23250771,-0.458789796
0.42498299999999745,1.11391294,5.77075243,-139.1053619,-2.22755909,0.394049972,13.99573231,-7.600299835,28.52137184,-1.808660984
0.4333159999999907,1.054542661,6.046627998,-139.110199,-0.409494162,-0.297565997,8.248919487,-8.584657669,33.03212738,-1.661430478
0.44164899999998397,0.992718399,6.316085815,-139.115509,-1.785610795,-0.116786271,7.797859669,-8.870181084,32.24743271,-1.707203388
0.44998199999997723,0.888261437,6.615365982,-139.1136475,-0.24560678,-1.114008904,9.589067459,-14.08092117,35.8567009,-0.824971676
0.4583149999999705,0.799502313,6.895223618,-139.1207886,-1.980270028,0.536823034,12.63526249,-12.06899261,33.49733353,-1.850566387
0.46664799999996376,0.696585417,7.20407486,-139.1318207,-0.360740453,-0.193430483,9.488358498,-13.70820522,36.98577118,-2.252223969
0.474980999999957,0.596173406,7.482966423,-139.1404419,-1.123378873,0.168698162,7.147807598,-13.43558884,33.38301849,-1.896595478
0.4833139999999503,0.474295914,7.795564651,-139.1422729,0.510496318,-0.830895364,9.79139328,-16.11787033,37.45285416,-1.023123622
0.4916470000000004,0.361182839,8.039590836,-139.144577,-1.691853404,0.057523027,12.70909882,-15.05197525,29.21321487,-0.988671899
0.49997999999999365,0.233703598,8.356816292,-139.1543427,-0.345616639,-0.241927847,8.61709404,-16.65038872,38.00442886,-1.812914133
0.5083129999999869,0.127333313,8.549507141,-139.1647644,-1.091731071,0.987230837,9.4047966,-14.10111904,23.05054474,-1.782329202
0.5166459999999802,0.010909761,8.876726151,-139.1755676,-0.214097455,-0.209676236,10.82570171,-15.29498768,39.20927811,-1.783611655
0.5249789999999734,-0.084327213,9.019518852,-139.1760712,0.257442355,0.385131091,8.78008461,-12.93641186,17.06925774,-0.541677356
0.5333119999999667,-0.184051469,9.286075592,-139.1902466,-1.65589416,-0.046524953,13.50128078,-13.21730423,31.93406868,-2.058938265
0.54164499999996,-0.273079723,9.440500259,-139.2053833,-0.058687039,1.045503855,5.934402466,-11.90405273,18.4739666,-2.22640276
0.5499779999999532,-0.351159513,9.658118248,-139.2170563,-0.93144989,0.315212369,13.79161358,-10.65746307,26.06511497,-1.696726441
0.5583110000000033,-0.398556709,9.788461685,-139.2280273,0.135670379,0.736805677,10.00325775,-6.983940125,15.58600998,-1.685148239
0.5666439999999966,-0.440346479,9.96258831,-139.2389526,-0.733807266,0.421448112,8.843726158,-6.309595585,20.84676933,-1.594576478
0.5749769999999899,-0.451735377,10.05025387,-139.2496338,-0.428896606,1.460074425,7.32281971,-2.668222427,10.46777058,-1.642397761
0.5833099999999831,-0.435247153,10.22767735,-139.2585144,-1.39043498,0.512015522,16.31360245,0.64714396,21.24253273,-1.341789246
0.5916429999999764,-0.363019109,10.32534409,-139.2578278,-0.132706031,1.482888579,8.773728371,7.128007412,11.65837193,-0.307639837
0.5999759999999696,-0.277193606,10.42614079,-139.266098,-0.646067262,0.70779711,9.582404137,8.957735062,12.04440403,-1.3630234
0.6083089999999629,-0.169313088,10.49652863,-139.2671509,-0.362845957,0.868297756,8.173446655,11.44126701,8.388126373,-0.553331614
0.6166419999999562,-0.040151145,10.61575413,-139.2710114,-0.979570806,0.346707642,11.93483829,14.06621647,14.25161266,-0.885241151
0.6249749999999494,0.12901409,10.64225292,-139.2553558,-0.115053698,0.90634501,11.88125992,18.42645073,3.124604464,1.378686666
0.6333079999999995,0.296004593,10.75249195,-139.2538147,-1.469114184,-0.398511112,10.67772675,18.48529053,13.17281723,-0.323315829
0.6416409999999928,0.468385458,10.76219177,-139.2424622,0.384099841,0.48835972,4.594334602,18.90400124,1.117037058,0.866324842
0.6499739999999861,0.647172153,10.82681274,-139.2389984,-1.832050681,0.210561305,14.48057556,19.85741997,7.700153828,-0.122730657
0.6583069999999793,0.843400121,10.87933159,-139.223465,0.096087091,-0.145230591,9.926019669,21.67482758,6.27236557,1.255789757
0.6666399999999726,1.04483819,10.90249443,-139.2149353,-1.155245185,-0.285482585,10.47691727,22.45975113,2.738009453,0.502679586
0.6749729999999659,1.209185243,10.94588757,-139.2096252,-0.549422443,-0.522138774,7.326597214,18.07761002,5.166828156,0.040726643
0.6833059999999591,1.368762136,10.96004677,-139.2124176,-1.230049372,-0.099295221,11.6113739,17.69358635,1.633970737,-0.823318541
0.6916389999999524,1.520627379,10.97897816,-139.2119141,0.131518424,-1.030912042,12.48584843,16.68854713,2.22203517,-0.479024708
0.6999720000000025,1.658045053,10.95362854,-139.2146454,-0.318908781,-0.378773183,7.369988441,15.03320217,-3.107429743,-0.694184303
0.7083049999999957,1.736475706,10.94534111,-139.211319,-1.091823697,-1.703578949,9.157631874,7.815519333,-1.031600714,-0.074729547
0.716637999999989,1.794445038,10.91499615,-139.2114105,-1.392682433,-0.526551545,9.846974373,5.439080238,-3.696966171,-0.355128527
0.7249709999999823,1.85205555,10.94116306,-139.2143555,-1.949589729,-0.159140408,15.50619698,5.451989651,3.080111504,-0.885804236
0.7333039999999755,1.890083313,10.90289593,-139.1976013,0.073932283,-0.984444559,6.685085773,2.662907124,-4.581093311,1.666692734
0.7416369999999688,1.898866057,10.89857674,-139.187149,-2.606045485,-1.357874393,9.635401726,-0.71334362,-0.522491992,0.829593897
0.7499699999999621,1.846467972,10.93233109,-139.1705017,-1.229900956,-0.583038867,6.629125595,-8.18701458,4.055784225,1.372615814
0.7583029999999553,1.806432605,10.95073509,-139.167038,-2.708645582,0.306027591,15.25568295,-6.412561893,2.175442696,-0.079724304
0.7666359999999486,1.760775328,11.04491425,-139.1516571,0.002978189,-0.94509995,9.895545959,-7.350709438,11.29651833,1.00143981
0.7749689999999987,1.698959827,11.03342628,-139.1421051,-0.719095826,-0.625366807,7.306967735,-9.166195869,-1.387613058,0.747218609
0.783301999999992,1.592905879,11.16828918,-139.1324615,-2.277239799,-0.923641264,7.53797102,-14.47039795,16.15231895,0.216645285
0.7916349999999852,1.506092548,11.19395161,-139.1394043,-1.184225917,1.424536586,12.10690403,-11.7884016,3.014103889,-1.298910618
0.7999679999999785,1.429828405,11.34167099,-139.1430511,-0.859951437,-0.302397937,12.88895607,-10.58596992,17.6527462,-1.338305831
0.8083009999999717,1.368405342,11.3440752,-139.141098,-0.299433053,-0.511130095,7.206172466,-8.940559387,0.252044082,-0.216043264
0.816633999999965,1.277496934,11.49702263,-139.1423035,-2.070619583,0.092350736,8.692756653,-12.40002155,18.28816032,-1.024685144
0.8249669999999583,1.198996305,11.52220154,-139.1454468,-0.37184462,0.76055795,9.016533852,-10.8651886,2.97163558,-0.890081942
0.8332999999999515,1.115627646,11.64757824,-139.1437225,-1.084468126,-0.560305357,13.73712826,-11.56673908,14.98917484,-0.554919779
0.8416330000000016,1.053858876,11.65106869,-139.1347504,-0.434991568,-0.069000185,7.703111649,-9.149725914,0.399530917,0.592687845
0.8499659999999949,0.952521622,11.78465652,-139.1366119,-1.846611381,-0.322326779,7.364788055,-13.63688374,15.96848392,-0.952299237
0.8582989999999882,0.859570622,11.79936123,-139.1373444,-0.404187441,0.591489434,7.936620712,-12.65933895,1.722557664,-0.551333725
0.8666319999999814,0.763487756,11.90563107,-139.1468658,-1.631641507,-0.529037654,14.31931305,-12.81594467,12.67884541,-1.755126357
0.8749649999999747,0.686781049,11.92457008,-139.1399994,-0.236411422,0.173456892,8.527157784,-10.8933115,2.245805025,0.318103194
0.8832979999999679,0.566278636,12.02757263,-139.1453552,-1.431831002,-0.995558798,8.434643745,-15.846241,12.29501724,-1.218687415
0.8916309999999612,0.436543375,12.01154232,-139.1393127,0.167522371,-0.014097057,6.569816589,-17.2385788,-1.952791691,0.267130941
0.8999639999999545,0.286907822,12.09121799,-139.1448212,-2.14128232,-0.488964558,14.89787769,-19.33884239,9.499093056,-1.161926031
0.9082969999999477,0.156121284,12.10249138,-139.1264648,-0.188303068,-0.0471524,7.445236206,-17.68454552,1.327790976,1.741076708
0.9166299999999978,-0.008618606,12.17981434,-139.1280975,-1.977049232,-0.213130519,8.576304436,-21.24838829,9.222794533,-0.660732329
0.9249629999999911,-0.185755029,12.17900848,-139.1134644,-0.28430146,-0.009784814,6.172687054,-23.1515522,-0.134461984,1.293160796
0.9332959999999844,-0.353755713,12.23504734,-139.1124115,-1.441563725,0.371741831,15.61508751,-21.70739746,6.666774273,-0.299597085
0.9416289999999776,-0.484901696,12.24097824,-139.0945587,-0.554263413,0.939731896,9.630866051,-17.72050858,0.664382219,1.685903788
0.9499619999999709,-0.616088331,12.29259682,-139.0953369,-1.137303114,0.314698845,8.247418404,-17.242033,6.13845253,-0.488732487
0.9582949999999641,-0.734561682,12.29057407,-139.0790558,-0.603274047,0.761942089,8.480480194,-16.16828346,-0.29554987,1.525353551
0.9666279999999574,-0.843879938,12.3477993,-139.0763702,-0.765670419,0.423877656,12.11128902,-14.70758152,6.803833485,-0.048321262
0.9749609999999507,-0.91332984,12.30443954,-139.061615,-0.113357112,0.536581814,11.36493492,-10.24609184,-5.257539749,1.264446735
0.9832940000000008,-0.988025486,12.35979748,-139.0652008,-2.380278111,0.525479019,9.193259239,-10.39306545,6.591797829,-0.764674604
0.991626999999994,-1.040073633,12.32156849,-139.0549011,-0.018673521,0.657891393,5.452280521,-8.039400101,-4.634141445,0.710129201
0.9999599999999873,-1.086029172,12.36342525,-139.0530853,-1.325118303,0.238738999,12.87354374,-7.080453873,4.959915161,-0.151213646
1.0082929999999806,-1.098495722,12.35039806,-139.035553,-0.826439798,0.7855196,11.58681393,-3.48050046,-1.629385471,1.626478195
1.0166259999999738,-1.114007473,12.35331249,-139.037674,-1.14383018,0.483443737,10.00328255,-3.326635599,0.297791064,-0.698999584
1.024958999999967,-1.112376809,12.3503418,-139.0287018,-0.964565933,0.111662626,6.907775879,-1.570318937,-0.400260836,0.650396585
1.0332919999999604,-1.112229228,12.33743477,-139.0211945,-0.090288699,0.072473347,8.703756332,-1.694624901,-1.622879386,0.395534992
1.0416249999999536,-1.085393906,12.31426239,-139.0078583,-1.719546199,0.695244431,14.38735867,1.344849825,-2.833408594,1.101668358
1.0499580000000037,-1.062358618,12.33433819,-139.0045471,-0.891451657,0.151919439,7.842756748,1.16017127,2.343984365,-0.024192646
1.058290999999997,-1.019852281,12.28976727,-138.9992218,-0.72491926,0.862312019,9.035946846,3.428465128,-5.379180908,0.129275039
1.0666239999999902,-0.977504551,12.29661465,-138.9853973,-0.478308886,0.30262655,10.44964314,3.209002972,0.736153185,1.177512169
1.0749569999999835,-0.906453967,12.24473476,-138.972641,-0.886812806,0.08350201,11.03160954,6.664619446,-6.268892765,0.990784347
1.0832899999999768,-0.839676023,12.21894741,-138.9603729,-1.1585325,0.543029785,8.969461441,6.181687832,-3.173283577,0.933254659
1.09162299999997,-0.764719784,12.20136642,-138.959671,-1.221323848,0.325051606,9.060764313,7.440270424,-2.128018379,-0.342526436
1.0999559999999633,-0.674519479,12.14120865,-138.9397888,-0.253313333,0.241371527,11.77178478,8.802383423,-7.305295467,1.782366753
1.1082889999999566,-0.571749926,12.13325024,-138.9441376,-1.854127884,0.737644136,11.63606167,10.90062523,-0.965285361,-0.905476034
1.1166219999999498,-0.479921162,12.06595135,-138.9254303,-0.21085982,-0.073798582,3.766764164,9.028658867,-8.152460098,1.66302979
1.124955,-0.391394556,12.05870914,-138.9213104,-1.969595075,-0.377837867,12.00960922,8.97714901,-0.887315571,0.102047123
1.1332879999999932,-0.291728288,12.00871277,-138.89711,0.093586758,0.498630136,10.10337067,9.834048271,-6.074685097,2.348799944
1.1416209999999865,-0.186179221,11.97706223,-138.8911285,-2.217674017,-0.061551202,14.5899477,10.9753418,-3.813153028,0.308702797
1.1499539999999797,-0.079052366,11.94454193,-138.8662415,-0.082126714,-0.082909487,3.141273975,10.71656132,-3.966197729,2.457993269
1.158286999999973,0.003788066,11.90006161,-138.8501892,-1.317012548,0.011536637,9.297234535,8.003142357,-5.350135326,1.491465688
1.1666199999999662,0.093970127,11.86229515,-138.8139954,0.001858638,0.000337547,11.20644855,8.407284737,-4.586344719,3.800307512
1.1749529999999595,0.181336015,11.82829571,-138.8093872,-2.175187349,-0.188870832,13.08130741,8.827228546,-4.087967873,0.173254669
1.1832859999999528,0.281888932,11.80764771,-138.7923737,-1.479572654,0.25298202,5.426349163,10.12963772,-2.526396513,1.550967813
1.1916190000000029,0.351181209,11.79115868,-138.7843628,-0.459140837,-0.057155035,8.291372299,6.585726738,-1.981581092,0.519635916
1.1999519999999961,0.432256281,11.76667976,-138.7632141,-0.760735571,-0.344915152,11.07244492,7.692543507,-2.978794575,2.047243357
1.2082849999999894,0.504215777,11.7586441,-138.7666779,-1.789292693,0.352161676,12.35114193,7.184101582,-0.973046482,-0.809806883
1.2166179999999827,0.581346393,11.74202347,-138.7638245,-1.054475665,0.092614487,7.247057915,7.666265011,-2.048921347,-0.099652193
1.224950999999976,0.639037132,11.73497486,-138.7637939,-0.364003837,-0.747273028,8.911453247,5.38454771,-0.851942182,-0.38870883
1.2332839999999692,0.698603392,11.7182579,-138.7565308,-1.41493547,0.048683178,10.12155724,5.451426029,-2.052481413,0.420662552
1.2416169999999624,0.740334332,11.73200226,-138.7653351,-1.374620795,0.35192275,11.02740669,3.680048704,1.63293314,-1.433129311
1.2499499999999557,0.792894125,11.72917175,-138.769928,-0.959980369,-0.159110859,8.112423897,4.898978233,-0.404589653,-0.99007988
1.258282999999949,0.826444924,11.72757435,-138.7654419,0.163381144,-0.462219447,9.086382866,2.379306555,-0.186817423,0.130043477
1.266615999999999,0.862943292,11.71281147,-138.7637177,-1.839281917,0.073659606,9.864777565,2.818488121,-1.826205373,-0.228389338
1.2749489999999923,0.887953579,11.72940159,-138.7671814,-1.383179307,0.222952127,9.823083878,1.545434833,1.983156562,-0.829248071
1.2832819999999856,0.930834174,11.74319935,-138.7760925,-1.437152624,0.602549374,8.975372314,3.844158649,1.582216978,-1.527543187
1.2916149999999789,0.965951324,11.74046898,-138.7665558,0.667641342,-0.009884606,9.386299133,2.449463844,-0.310329288,0.69701457
1.2999479999999721,1.003264904,11.73932934,-138.7704926,-2.111262083,-0.336653292,10.36352062,3.055086851,-0.202262789,-0.918308794
1.3082809999999654,1.032530427,11.73770714,-138.7658234,-0.719886065,0.369818896,9.02384758,1.868174314,-0.184281617,0.12010514
1.3166139999999587,1.070249319,11.76471615,-138.7801666,-2.228415012,0.258316875,10.48040485,3.35669446,3.153061152,-2.202017307
1.324946999999952,1.106207848,11.75397491,-138.7689819,0.926782608,-0.638088048,8.68456459,2.511142731,-1.262692213,0.907922089
1.333280000000002,1.128800869,11.77178383,-138.7723236,-2.212626934,0.214494169,10.21115971,1.273975134,2.071858644,-0.890799046
1.3416129999999953,1.141011119,11.76355934,-138.7714996,-0.187247083,-0.339623958,8.110414505,-0.088433146,-0.982164979,-0.302260786
1.3499459999999885,1.167576194,11.79596519,-138.7791901,-2.357188702,0.314754635,11.39135838,1.856596589,3.812832832,-1.436100602
1.3582789999999818,1.195339203,11.77387905,-138.7649994,0.787554622,0.060521048,8.037228584,1.45158422,-2.611742496,1.293877482
1.366611999999975,1.209834456,11.79629803,-138.7661133,-2.600249767,-0.11817839,9.976493835,0.247126117,2.629787922,-0.644338846
1.3749449999999683,1.21894145,11.76959133,-138.7637634,-0.165507779,-0.289459497,8.339730263,-0.498978078,-3.192954779,-0.061563812
1.3832779999999616,1.218438625,11.79547787,-138.7699432,-1.891323805,0.076359361,11.4492445,-1.428749204,3.033237696,-1.248885989
1.3916109999999549,1.210085034,11.7497282,-138.7634583,0.423309922,-0.951770842,8.026996613,-2.686689854,-5.46709013,0.426605105
1.3999439999999481,1.182692051,11.78732777,-138.7594757,-2.464959383,-0.176814869,10.43952942,-4.904267788,4.464996815,-0.080569573
1.4082769999999982,1.136586666,11.75455284,-138.7723083,-0.470066726,0.08526729,7.929069996,-6.757638454,-3.955696344,-1.807071686
1.4166099999999915,1.086339355,11.79592991,-138.7727509,-1.669464946,-0.365357429,11.68741131,-7.538999081,4.906150818,-0.606839716
1.4249429999999847,1.034860253,11.7543726,-138.7716522,0.033441696,-0.919607222,7.387565613,-7.742429256,-4.973863125,-0.159717605
1.433275999999978,0.946794212,11.82410717,-138.7736206,-2.483393669,0.031485401,8.975679398,-12.03906345,8.307055473,-0.833269536
1.4416089999999713,0.86571461,11.82873249,-138.7837524,-1.245797515,0.69070816,9.238976479,-11.0239706,0.545736969,-1.560483456
1.4499419999999645,0.785405457,11.90517044,-138.787384,-0.60453254,-0.3304272,10.60374832,-11.06610489,9.108294487,-1.017256618
1.4582749999999578,0.722612202,11.89120865,-138.7826385,-1.025725484,0.055447925,9.418400764,-9.18758297,-1.656562448,0.180708453
1.466607999999951,0.633704603,11.96807098,-138.7818298,-1.411832333,0.223905444,7.275079727,-12.20942402,9.167387009,-0.471468478
1.4749410000000012,0.568018138,11.99973202,-138.7939606,-1.474275589,0.591884434,10.98480892,-9.111149788,3.795697212,-1.873847723
1.4832739999999944,0.520453691,12.04826546,-138.7932739,0.622372448,0.89747256,11.45370579,-7.244641781,5.766661644,-0.429486752
1.4916069999999877,0.502529681,12.05264378,-138.8031616,-1.083286762,0.249441996,10.05305195,-3.435841799,0.529023528,-1.573431134
1.499939999999981,0.465312451,12.07826328,-138.811142,-0.477433383,0.165163398,6.004427433,-5.786114216,3.009518862,-1.419604897
1.5082729999999742,0.439224541,12.08894348,-138.8331909,-1.142868161,0.497635156,10.38330269,-4.110329151,1.275179029,-3.006688595
1.5166059999999675,0.454437792,12.03777599,-138.8369293,0.311975211,0.903271258,12.65452194,0.400888413,-6.199683189,-0.847177982
1.5249389999999607,0.491802663,12.03914165,-138.8565979,-2.057668447,0.50318867,9.777588844,3.437737942,0.162061274,-2.699804544
1.533271999999954,0.527395129,11.97970104,-138.8579712,-0.485433936,0.112295307,6.170084,2.785958529,-7.190749645,-0.553741455
1.541605000000004,0.557563066,11.96676254,-138.8690643,-1.001053929,0.935060501,9.881881714,2.367293358,-1.547266483,-1.719291568
1.5499379999999974,0.621181011,11.85491085,-138.8701172,-0.36477235,0.130411297,13.72811699,6.141680717,-13.4803791,-0.442293942
1.5582709999999906,0.688245595,11.86115456,-138.8769989,-2.543761253,0.495622307,8.489440918,6.674505711,0.760922015,-1.189281702
1.566603999999984,0.748978853,11.78074551,-138.8804932,-0.250120342,0.08012215,6.031023026,5.855183601,-9.710344315,-0.746616542
1.5749369999999772,0.795035005,11.7664156,-138.8766785,-0.850266099,-0.131424829,9.98522377,3.89456749,-1.6923455,0.079429738
1.5832699999999704,0.879094303,11.66483402,-138.8867645,-0.506971955,0.495906025,13.62819386,8.813961983,-12.26403332,-1.462944508
1.5916029999999637,0.977952778,11.63322067,-138.8856354,-2.194416761,0.993444204,8.335259438,10.29407883,-3.767149925,-0.180593148
1.599935999999957,1.083372355,11.57374763,-138.8991852,-0.472770721,0.211899787,7.366203308,11.45835018,-7.222613335,-1.918596148
1.6082689999999502,1.186452985,11.51081944,-138.8784485,-0.447655618,0.243546367,8.919784546,10.33298874,-7.477116585,2.200903177
1.6166020000000003,1.310895205,11.4267025,-138.8920288,-1.443481922,0.391795039,13.74153328,13.73648262,-10.18395424,-1.830637097
1.6249349999999936,1.447753787,11.35723782,-138.8839722,-1.168321133,0.366168112,6.964223862,14.69007206,-8.285963058,0.771449625
1.6332679999999868,1.570283651,11.30992603,-138.8947601,-1.268214464,-0.530378878,9.071079254,13.43902111,-5.765803337,-1.576825261
1.64160099999998,1.687895417,11.24788475,-138.8783264,-0.573648453,-0.181683317,8.519096375,12.18502522,-7.359137058,1.77921617
1.6499339999999734,1.79331696,11.19764614,-138.8931122,-1.987741113,-0.168722153,13.78272915,11.47717571,-6.136313438,-2.013010025
1.6582669999999666,1.902295232,11.15043545,-138.8921356,-1.394772887,-0.457057476,5.620977402,11.51483154,-5.630996227,-0.082157679
1.66659999999996,1.964305878,11.16047096,-138.8958282,-1.424110889,-0.998434246,8.587940216,6.006462097,1.131508946,-0.930065691
1.6749329999999532,2.016137838,11.11880493,-138.8855133,-0.898940384,-0.192192599,9.491937637,4.442071438,-4.925373554,1.012069464
1.6832660000000033,2.043516159,11.13100529,-138.8997345,-1.70138967,-0.48121053,13.20624161,2.095167637,1.346693993,-2.180296183
1.6915989999999965,2.069619894,11.0862484,-138.8978882,-0.896294475,-0.519218743,6.767570972,1.556320906,-5.332102299,0.00937481
1.6999319999999898,2.049222946,11.13135052,-138.9059753,-1.387739539,-0.476413727,8.370141983,-3.779470205,5.318181515,-1.603643417
1.708264999999983,2.030358076,11.06925106,-138.9131165,-0.46572423,0.135161608,10.70160866,-3.626655579,-7.449246883,-1.000171781
1.7165979999999763,2.009782314,11.08981323,-138.9208527,-1.528538942,0.186833203,11.48328209,-3.809157372,2.37730813,-1.454440236
1.7249309999999696,1.972907662,11.03961849,-138.9308319,-1.164229274,-0.832996786,6.762797356,-5.728201389,-6.031652927,-1.36730063
1.7332639999999628,1.911659598,11.09992027,-138.9308014,-1.743643761,-0.051279105,8.022583961,-8.870811462,7.175187111,-0.6956442
1.741596999999956,1.862069488,11.06800365,-138.9412231,-1.513511539,0.439975351,13.7263937,-7.235316753,-3.839612246,-1.528030038
1.7499299999999494,1.821342587,11.11716366,-138.9428406,-1.343136311,-0.318778366,9.293207169,-6.370503426,5.833103657,-0.835574746
1.7582629999999995,1.755139232,11.10950184,-138.9501495,-1.496481061,-0.434273124,4.762446404,-9.312300682,-0.913083613,-1.196069837
1.7665959999999927,1.659111142,11.15937614,-138.9434509,-0.799020112,0.188924327,9.108096123,-13.19931126,5.948906422,0.152788922
1.774928999999986,1.592341661,11.18905163,-138.946106,-1.815600753,-0.051075995,16.25929832,-9.489344597,3.583073378,-0.773870111
1.7832619999999793,1.528719783,11.21837139,-138.9325409,-0.112689391,-0.106685802,8.338878632,-9.470313072,3.503950596,1.043933868
1.7915949999999725,1.432500362,11.2591114,-138.9295807,-2.190632582,-0.951266944,3.870721817,-13.14916229,4.927514076,-0.166710302
1.7999279999999658,1.316357374,11.2577219,-138.9128571,0.394308269,0.061399445,9.530221939,-15.84992504,-0.175752088,1.518309593
1.808260999999959,1.236748219,11.31481934,-138.9117737,-2.496716261,0.852210283,16.16897392,-11.11292934,6.887310505,-0.393473148
1.8165939999999523,1.169610977,11.30742645,-138.8967743,-0.419954777,-0.221868172,6.095565319,-9.930037498,-0.907422662,1.329839826
1.8249270000000024,1.058858395,11.36390686,-138.8917389,-1.206785321,-0.286266595,4.268603325,-14.94095325,6.820944786,0.074639894
1.8332599999999957,0.973528206,11.32730961,-138.8766785,-0.745730102,1.08405149,12.70301533,-12.11621284,-4.415318012,1.394567132
1.841592999999989,0.924515724,11.39439678,-138.8682251,-1.912393928,0.708666325,15.70650673,-7.607569695,8.099375725,0.446148813
1.8499259999999822,0.902493477,11.38878441,-138.8526306,-0.975390375,0.12382289,4.896911144,-4.531785965,-0.700690269,1.389341831
1.8582589999999755,0.831880033,11.41994572,-138.8359375,-0.20254761,-0.286840558,4.368050098,-10.39744663,3.803176165,1.499278188
1.8665919999999687,0.794646621,11.414608,-138.817215,-1.920980334,0.625099838,15.99637222,-6.43164444,-0.666802585,1.753448009
1.874924999999962,0.789135456,11.45323181,-138.8037872,-1.104831815,0.268436909,9.9705019,-2.513793945,4.692886829,1.132866383
1.8832579999999552,0.767851233,11.47993565,-138.7820129,-1.354359984,-0.343671769,4.532957077,-4.593362331,3.181262493,2.058641911
1.8915909999999485,0.706469059,11.46748829,-138.7663574,0.49520877,-0.387199342,6.331214905,-9.271086693,-1.431951165,1.468797445
1.8999239999999986,0.66773653,11.46543789,-138.7527924,-1.998931408,0.078087345,17.78794098,-6.491812706,-0.284510106,1.140857935
1.9082569999999919,0.654910922,11.46168613,-138.7491913,-0.737673998,0.591988027,7.914983749,-3.147259474,-0.408687919,0.002279667
1.9165899999999851,0.609951138,11.47561836,-138.7379913,-0.733415663,-0.501830637,5.497882843,-7.183140278,1.630320311,0.843732834
1.9249229999999784,0.556573451,11.41203117,-138.7287598,0.673248231,0.208122477,9.55119133,-8.156457901,-7.579471111,0.77244854
1.9332559999999717,0.527208686,11.39121723,-138.7254333,-2.094260693,0.031834777,15.74394608,-5.121809483,-2.552522421,-0.042071376
1.941588999999965,0.503518999,11.32626057,-138.7276917,-0.525619388,0.095920853,5.174908638,-4.328229427,-7.755286217,-0.547542691
1.9499219999999582,0.45310387,11.3236208,-138.7283173,-1.371238828,-0.247049972,6.515043259,-7.555084705,-0.373954982,-0.529074848
1.9582549999999515,0.406103164,11.22060966,-138.7276154,0.222327545,0.569188178,11.75498009,-7.175329685,-12.32074451,-0.271728665
1.9665880000000016,0.390735388,11.1781826,-138.7354126,-1.817688227,0.404864192,15.55324268,-3.181736708,-5.154801369,-1.336256504
1.9749209999999948,0.388013631,11.06303596,-138.7367249,-0.078634828,0.358454645,3.970178127,-1.825719237,-13.77653122,-0.449952602
1.983253999999988,0.351162314,11.03567314,-138.744751,-1.849608541,0.004029741,9.03099823,-5.758502483,-3.345385551,-1.380158901
1.9915869999999813,0.349735439,10.89985085,-138.7459869,-0.558634818,0.499941319,12.62196922,-1.6799227,-16.25713921,-0.402207583
1.9999199999999746,0.377862364,10.87205601,-138.76091,-2.447238445,0.675889492,13.81502342,2.194141388,-3.402735949,-2.194768667
2.008252999999968,0.420076162,10.78143501,-138.763916,-1.095641375,-0.032802969,4.993157864,3.600388288,-10.83260632,-0.649999738
2.016585999999961,0.432429194,10.77869987,-138.7638245,-1.205919385,0.374100447,7.975849152,-0.039766099,-0.384021431,-0.440526456
2.0249189999999544,0.487437189,10.70623398,-138.7675476,-1.781315565,0.479360968,14.80463219,5.146592617,-8.654935837,-0.725484908
2.0332519999999477,0.568817735,10.71164417,-138.7732086,-1.938220143,0.380529404,9.134540558,8.371603012,0.585567057,-1.127525806
2.0415849999999978,0.65684396,10.70602608,-138.7817078,-1.475637555,0.066523507,6.494498253,9.207550049,-0.638114691,-1.309310198
2.049917999999991,0.743008137,10.73208332,-138.7832184,-1.351355433,0.228138372,7.374668598,8.853714943,3.068867445,-0.672950029
2.0582509999999843,0.862608254,10.78180599,-138.7986603,-2.111804008,0.744994581,16.19466972,13.15411377,5.985765934,-2.225889921
2.0665839999999776,1.005807638,10.81997776,-138.811676,-1.11933589,0.241896942,7.216845036,15.95715809,4.498448849,-2.065237522
2.074916999999971,1.129042506,10.92289829,-138.8248596,-1.541345358,-0.408280939,4.134665012,13.54829311,12.36553097,-2.136804104
2.083249999999964,1.245751262,10.94117355,-138.835434,-0.320129305,0.452991188,10.7667799,12.72622967,2.111868382,-1.744778037
2.0915829999999573,1.403413892,11.05808258,-138.8488464,-1.957670689,0.142519757,14.6347084,17.68566513,14.03553104,-2.253528833
2.0999159999999506,1.551821828,11.10336113,-138.8464355,-0.559652328,-0.919036686,5.326385975,16.2351265,5.383242607,-0.311891794
2.1082490000000007,1.654432893,11.17743206,-138.8487244,-0.645810544,-0.718442321,5.675167084,10.82906151,8.925847054,-0.886905968
2.116581999999994,1.752583146,11.17898178,-138.8410492,0.003385198,-0.094005659,10.95757008,10.08084106,0.155760169,0.441871196
2.1249149999999872,1.857155561,11.24660873,-138.8334656,-2.13524437,-1.010322452,14.23544312,10.84314632,8.188768387,0.230861112
2.1332479999999805,1.921213746,11.24625111,-138.8193359,0.404553264,-0.978045344,1.93959403,5.836895466,-0.043761928,1.207045197
2.1415809999999738,1.940770984,11.28072262,-138.8164368,-2.568697453,-0.315437555,11.32688236,0.756721377,4.195176601,-0.225571781
2.149913999999967,1.959080815,11.29113007,-138.803894,0.377856076,-0.928081393,10.66052532,0.382625401,1.241112113,0.975876749
2.1582469999999603,1.96780479,11.31721878,-138.7815552,-2.498073816,-0.84503907,10.87218952,-0.999300897,3.270117998,2.093579054
2.1665799999999535,1.914101839,11.32811928,-138.7756958,0.471063644,-1.084574223,3.231557608,-8.102179527,1.274538875,0.18859762
2.1749130000000036,1.847609282,11.32418442,-138.7640076,-2.373534918,-0.182838708,11.91487217,-9.786930084,-0.374953985,1.027540565
2.183245999999997,1.775393486,11.39693928,-138.7621155,-0.765913546,-1.006054759,13.14360523,-10.23069668,8.677282333,-0.508455396
2.19157899999999,1.69187665,11.37405396,-138.7449951,-0.537845016,-0.569925189,6.52278471,-11.95540524,-2.629903078,1.720533729
2.1999119999999834,1.561735392,11.4186697,-138.7500763,-1.554239869,-0.461521208,8.552368164,-17.01665688,5.279069901,-1.206315637
2.2082449999999767,1.397418618,11.36146164,-138.7429657,0.536846399,-0.6829229,8.518740654,-21.42082214,-6.788786411,0.66471529
2.21657799999997,1.24222827,11.36903858,-138.7460938,-2.024481297,-0.612652004,15.06029892,-20.06805801,0.844501793,-0.844540179
2.2249109999999632,1.041331053,11.33525753,-138.731369,1.359793901,-0.853435099,4.695429325,-25.99140739,-3.963023901,1.48590827
2.2332439999999565,0.817404926,11.2159071,-138.7242584,-0.801339746,-0.242934883,12.03457069,-28.55923462,-14.3636322,0.614089072
2.2415769999999497,0.575410545,11.15732574,-138.720871,-0.154996082,-0.467713386,11.05026913,-30.64823723,-6.966937542,0.132272035
2.24991,0.328785628,10.96080208,-138.7289581,-0.120826066,-0.35934484,7.44587183,-30.9291153,-23.64720535,-1.222223282
2.258242999999993,0.049533807,10.89650059,-138.7378845,-1.499013186,-0.114654906,9.359724045,-34.83769226,-7.662545204,-1.368762255
2.2665759999999864,-0.210959837,10.66464424,-138.7632141,-0.743116975,1.463962197,12.86885357,-32.2129364,-27.87459183,-3.479225397
2.2749089999999796,-0.444791704,10.57790756,-138.7970428,-2.270292521,0.324675322,11.0157795,-28.84609795,-10.32878304,-4.361890316
2.283241999999973,-0.666569173,10.39032078,-138.8347015,-1.598923922,1.099830985,5.679971695,-27.31213379,-22.52298355,-5.116449833
2.291574999999966,-0.901545584,10.31921005,-138.8713989,-0.954056919,0.907133043,9.787904739,-28.93989754,-8.416754723,-4.780580521
2.2999079999999594,-1.068003416,10.2000246,-138.9134827,-2.894768715,1.977301598,16.11828423,-20.59548378,-14.27199078,-5.668522835
2.3082409999999527,-1.175260425,10.1162281,-138.9619598,-1.403635502,1.892810941,7.885724068,-13.37530899,-9.884421349,-6.274477959
2.316574000000003,-1.279008627,10.07100773,-138.9846497,-1.394866109,0.611641943,6.916820049,-13.4930582,-5.425288677,-3.253508329
2.324906999999996,-1.33436811,10.05340862,-139.0162506,-2.669575214,1.820720553,12.45239353,-7.518149853,-1.972385764,-4.101364136
2.3332399999999893,-1.332286954,9.997220039,-139.0411987,-1.250071883,1.64515388,10.39095497,-0.750125825,-6.728489399,-3.559751749
2.3415729999999826,-1.303905964,10.0188303,-139.0737152,-0.780005991,1.033687472,9.759036064,2.540675879,2.737290859,-4.083203316
2.349905999999976,-1.234052658,10.01389885,-139.0892487,-2.312421799,0.921857119,10.84663582,7.187278271,-0.609042466,-2.3035779
2.358238999999969,-1.135702968,10.02519226,-139.1276093,-0.842788279,1.830111861,7.446172237,11.05764008,1.504426599,-4.8094697
2.3665719999999624,-1.014759541,10.00390911,-139.1362,0.305306077,0.527976215,11.69135666,13.17368412,-2.590226889,-1.518911481
2.3749049999999556,-0.855475843,10.02579021,-139.1651001,-2.705464602,0.940771163,12.2641468,18.1773777,2.739366293,-3.71838069
2.383237999999949,-0.657778025,10.03253841,-139.1733093,-1.081626415,0.743443906,7.821019173,22.37691116,0.766711175,-1.41356051
2.391570999999999,-0.477104396,10.02345943,-139.1856232,-0.08217673,0.804187417,4.842891693,20.40028763,-1.016795993,-1.836656928
2.3999039999999923,-0.282094002,10.05062103,-139.2006989,-2.406068087,0.815680444,14.25344944,22.19843102,3.215612411,-2.216106176
2.4082369999999855,-0.033183433,10.09148788,-139.224411,-1.768771887,0.610471725,10.50660038,28.83145523,4.97003603,-3.170288801
2.416569999999979,0.180022612,10.09579277,-139.227066,-0.224288166,-0.213038996,5.194226265,24.12233353,0.460403323,-0.771987796
2.424902999999972,0.376204193,10.10924625,-139.2498627,-2.053619862,0.200325638,10.85071278,22.49084282,1.662108183,-3.126077414
2.4332359999999653,0.593197107,10.17546558,-139.266449,-1.221172214,-0.089149043,10.69347477,24.87069511,7.872923374,-2.48241806
2.4415689999999586,0.782515645,10.16509247,-139.2551117,-1.202091217,-0.206019416,8.55043602,20.9543457,-1.168022394,0.905233026
2.449901999999952,0.914472461,10.20695019,-139.2668152,-0.976023793,-1.105079889,5.623738766,14.56328297,4.946263313,-1.911091447
2.458235000000002,1.048065543,10.2440052,-139.264328,-1.570789695,0.544989049,9.579836845,14.44192314,4.513203621,-0.162842527
2.466567999999995,1.173698068,10.23942089,-139.2655792,-0.504948616,-0.396179944,11.00086021,13.58289719,-0.609503567,-0.593955755
2.4749009999999885,1.258556128,10.28187275,-139.2597198,-1.586820602,-0.646510124,9.327561378,8.522573471,5.170949936,0.196486801
2.4832339999999817,1.333934069,10.26826668,-139.2815552,-0.466772527,0.153037027,8.252759933,7.994125843,-1.747800231,-2.997954369
2.491566999999975,1.406660795,10.23695946,-139.2675018,0.250871003,-0.042680182,7.916265011,6.881649494,-3.650682449,1.416467428
2.4998999999999683,1.431467056,10.19787216,-139.279541,-1.436295033,-0.935416043,11.57846642,1.712209105,-4.780781746,-1.758097053
2.5082329999999615,1.455105543,10.17593479,-139.2752228,-0.648409963,-0.37204805,7.678920746,1.201973557,-2.554418325,0.242848575
2.516565999999955,1.448774815,10.08608818,-139.2970734,-1.04506886,-0.054883186,8.25660038,-1.8177526,-10.89879322,-2.762251854
2.524898999999948,1.433579564,10.02614689,-139.3202972,-0.537942231,-0.261913598,10.74695873,-2.880154133,-7.193719387,-2.897520542
2.533231999999998,1.418372869,10.00352478,-139.3728485,-2.037849903,-0.360830724,9.703682899,-2.247687578,-2.924108505,-6.596421719
2.5415649999999914,1.386410356,9.909600258,-139.4197845,-0.96404779,0.142544299,7.510391712,-4.384735107,-11.3409977,-5.714779854
2.5498979999999847,1.337452173,9.894064903,-139.4959259,-2.15677309,0.754514098,9.957892418,-5.824946404,-2.132936001,-9.408275604
2.558230999999978,1.312193394,9.887843132,-139.5664215,-0.916389406,-0.102169707,11.61756897,-3.108198404,-0.873509586,-8.715333939
2.566563999999971,1.292058349,9.85986805,-139.6427307,-1.509649754,0.492230862,6.583694935,-2.365487576,-3.616998911,-9.397311211
2.5748969999999645,1.248568535,9.871636391,-139.749176,-2.112542629,0.432889998,9.454932213,-4.564137459,1.197696447,-13.00162411
2.5832299999999577,1.22659409,9.891493797,-139.8463593,0.053406984,0.260031104,10.86952305,-2.155604601,2.079133034,-11.99497986
2.591562999999951,1.232041121,9.908873558,-139.9566803,-2.760527134,0.836365819,7.864326954,1.393594027,1.870274901,-13.45965576
2.599896000000001,1.234754682,9.935760498,-140.0728149,-1.695539355,1.08530283,7.945147514,1.20783937,2.874224663,-14.24862385
2.6082289999999944,1.248409867,10.00955582,-140.2028046,-0.343539,0.452289164,12.11194706,2.797868967,8.58643055,-15.90604591
2.6165619999999876,1.312793851,10.03194332,-140.3128815,-2.139342785,0.669579327,10.72530174,8.504849434,2.339220285,-13.52071857
2.624894999999981,1.36988461,10.07386017,-140.4553833,-0.546649277,0.430003524,4.758366108,8.297733307,4.701749802,-17.33150482
2.633227999999974,1.406923294,10.15275383,-140.5799866,-1.515544415,0.236787885,9.817998886,5.550811768,9.051997185,-15.40103817
2.6415609999999674,1.488199592,10.20210266,-140.7220764,-1.512283087,0.327314079,13.20246506,11.24560261,5.559520721,-17.40958214
2.6498939999999607,1.586404681,10.27688503,-140.8540955,-0.851835251,0.984478891,4.678127289,13.08162975,8.496500969,-16.28163147
2.658226999999954,1.645984173,10.33859825,-141.0057526,-0.580536187,-0.288410902,8.711070061,8.879307747,6.962413311,-18.55707359
2.666560000000004,1.740505457,10.421278,-141.150116,-1.725888491,0.333812803,12.50475693,12.94464684,9.357651711,-17.78511047
2.6748929999999973,1.843809605,10.45506573,-141.305954,-1.091093659,0.660469413,7.506430149,14.26183224,3.542168856,-18.98931503
2.6832259999999906,1.928955317,10.54005718,-141.4529419,-0.571371853,-0.771041751,6.801756382,11.91170025,9.567920685,-18.12593651
2.691558999999984,2.026367426,10.59613895,-141.6044617,-2.033871651,0.943588853,12.25398636,13.503088,6.172675133,-18.58284187
2.699891999999977,2.118157625,10.63388252,-141.7579498,-0.335295469,-0.146654591,10.06682587,12.88916683,3.8164711,-18.71306419
2.7082249999999704,2.192181587,10.71607399,-141.9028778,-1.528841376,-1.091433406,5.465232372,10.59284782,9.27712059,-17.98828125
2.7165579999999636,2.239063501,10.69939423,-142.0556488,-0.108456619,0.509659588,9.202637672,7.512453556,-2.75254488,-18.3773098
2.724890999999957,2.275771141,10.76467419,-142.2021637,-1.759035826,-0.274455547,13.68616962,6.166526318,7.21033287,-18.10928345
2.73322399999995,2.32385397,10.76456451,-142.3501282,-1.09295094,-0.730215251,9.641096115,7.567420006,-0.768478513,-17.88519669
2.7415570000000002,2.317584991,10.77414894,-142.4815826,0.237017483,-0.03792252,3.382555485,0.685104012,0.585515916,-16.08449936
2.7498899999999935,2.310384989,10.7445755,-142.6166229,-2.08463645,-0.013904863,13.73161697,0.641354918,-4.244343758,-16.21741104
2.7582229999999868,2.325091124,10.72910023,-142.7333374,-0.984389067,0.155458465,9.392282486,2.865285635,-2.348582268,-14.2300787
2.76655599999998,2.314558268,10.73248005,-142.852478,-1.292663455,-0.127431586,7.870335102,-0.121731661,-0.218425408,-14.50737858
2.7748889999999733,2.299774647,10.68260002,-142.9516296,-1.041712284,0.195233136,8.073736191,-1.077065945,-6.385770798,-11.96132565
2.7832219999999666,2.266647816,10.65958214,-143.0721436,-1.558276296,0.147667423,12.99908447,-2.818321943,-3.382501125,-14.54621124
2.79155499999996,2.268264532,10.64705658,-143.1802979,-1.834469914,0.159368724,9.743592262,1.07718122,-1.938472867,-13.19718552
2.799887999999953,2.238265753,10.6125164,-143.2762604,-0.172838733,-0.180181384,5.33843708,-2.995329142,-4.644399643,-11.60286617
2.808221000000003,2.208742857,10.60542965,-143.3679352,-2.067003012,0.446383834,11.68496704,-3.038809299,-1.200680256,-11.26733208
2.8165539999999964,2.207222939,10.58481216,-143.463501,-1.676545858,0.722869813,11.92259789,0.406933457,-2.962146044,-11.62337112
2.8248869999999897,2.194657087,10.56641579,-143.5346985,-0.461400181,-0.392897576,7.623118877,-1.452826858,-2.462053537,-8.845172882
2.833219999999983,2.184787512,10.58051872,-143.6024017,-2.271965742,-0.205130607,9.994787216,-1.213564038,1.330172777,-8.49930191
2.8415529999999762,2.190494537,10.55895138,-143.6790619,-1.502364874,1.322068095,8.232323647,0.858819664,-2.864324808,-9.47087574
2.8498859999999695,2.18987155,10.56651497,-143.7443848,0.137431771,0.002557574,9.895256042,-0.157975793,0.557007074,-8.191393852
2.8582189999999628,2.210525751,10.54950047,-143.8069153,-2.007475138,-0.10989701,10.95015526,2.347980022,-2.256242752,-7.864811897
2.866551999999956,2.204779863,10.54051018,-143.8650208,-1.103831291,0.29017517,5.769460678,-0.934061587,-1.398396373,-7.264081955
2.8748849999999493,2.176753521,10.54435062,-143.9320068,-1.116908789,-0.53800267,12.00304985,-3.392183065,0.224636868,-8.518258095
2.8832179999999994,2.196880817,10.52893257,-143.9807434,-1.337533116,0.661687911,11.52699661,1.964330435,-2.124047995,-6.130678177
2.8915509999999927,2.189884186,10.49202824,-144.0492554,-0.823208272,-0.260300577,7.746554375,-0.842106342,-4.668744087,-8.495740891
2.899883999999986,2.160891771,10.49985313,-144.0997314,-0.796496212,-0.578494251,6.082271576,-3.894939661,0.65672338,-6.443350792
2.908216999999979,2.140715361,10.4456768,-144.1645203,-1.43580687,0.404116035,12.30175686,-2.511591196,-6.715937614,-7.985380173
2.9165499999999724,2.123582602,10.44590378,-144.2224121,-1.490395546,0.891239822,11.43669033,-2.315745115,-0.282461017,-7.284984112
2.9248829999999657,2.109243393,10.45672417,-144.2854462,-1.879995584,-0.857947469,8.104044914,-1.849309206,1.089859843,-8.077897072
2.933215999999959,2.071424246,10.39355659,-144.3386536,0.25654608,0.32239306,5.6595788,-4.904421806,-7.859510899,-6.452546597
2.9415489999999522,2.01858592,10.39752102,-144.4069519,-2.704789877,-0.084392026,13.90705204,-6.372066975,0.257935375,-8.621407509
2.9498820000000023,2.014007807,10.38490963,-144.4673615,-1.075316548,-0.154149696,11.19043159,-0.760448217,-1.819161534,-7.528959274
2.9582149999999956,1.968038797,10.38143921,-144.5178986,-0.78712821,0.031215537,3.513544559,-5.932807922,-0.554484129,-6.497320175
2.966547999999989,1.898474574,10.37001991,-144.5762787,-1.324981451,-0.387022913,12.18736649,-8.605449677,-1.656536937,-7.299686432
2.974880999999982,1.87246263,10.37498093,-144.6381226,-2.25154376,0.61940378,10.85528469,-3.292978764,0.424812078,-7.872496605
2.9832139999999754,1.81356895,10.35644722,-144.6802979,0.110106818,-0.60423094,7.366213799,-7.67739296,-2.438615799,-5.361251354
2.9915469999999686,1.753236294,10.3935461,-144.7337494,-2.527175426,0.299292386,8.340531349,-7.595531464,4.325348377,-6.983837128
2.999879999999962,1.709304094,10.37735271,-144.7883301,-1.019181609,0.636923969,11.01877689,-5.610171318,-2.192386866,-6.836631775
3.008212999999955,1.657376051,10.3969717,-144.8279724,-0.641153514,-0.103961177,10.48688889,-6.87715292,2.285404444,-5.334382534
3.0165459999999484,1.61125803,10.41210556,-144.8726349,-2.172446251,-0.641417086,10.19026756,-6.085160732,1.609572887,-5.77474165
3.0248789999999985,1.566025853,10.40042591,-144.9185638,-0.964897156,1.188951135,5.477900028,-5.929951668,-1.481296778,-5.988198757
3.033211999999992,1.504149437,10.43138695,-144.9649048,-0.398949057,0.379556447,10.82484722,-7.9395051,3.51342845,-6.02609539
3.041544999999985,1.490877867,10.43677711,-144.9888763,-1.811825633,0.186265394,12.9891243,-2.574090004,0.644402981,-3.430988789
3.0498779999999783,1.455102921,10.44634628,-145.0146637,-1.733910918,0.516574025,4.011674881,-5.25254488,1.014631152,-3.525556326
3.0582109999999716,1.397180915,10.46267891,-145.0262909,-0.166998297,-0.265721351,9.895039558,-8.198054314,1.994862437,-2.020745754
3.066543999999965,1.394406438,10.47673321,-145.0310974,-2.684723854,0.873457968,12.60489178,-1.748005152,1.618281722,-1.062209606
3.074876999999958,1.386575699,10.46470165,-145.0351105,-0.357100457,0.24089843,7.839754105,-2.352193832,-1.383514404,-1.03042233
3.0832099999999514,1.353348851,10.51132202,-145.0416718,-0.771387637,-0.326063246,6.746055126,-5.364965916,5.519637585,-1.36261344
3.0915430000000015,1.336945176,10.473773,-145.0539703,-1.549380541,0.741074979,13.43462849,-3.198231697,-4.466545582,-1.947975039
3.0998759999999947,1.336037993,10.46928596,-145.0777893,-0.841244936,0.473046929,8.983542442,-1.109519005,-0.66057831,-3.252200842
3.108208999999988,1.324091673,10.47576141,-145.0924225,-0.557222426,-0.17948699,8.516052246,-2.621962547,0.812278628,-2.297942638
3.1165419999999813,1.319936156,10.43616676,-145.0990601,-0.999336362,0.064080946,7.552462101,-1.875615001,-4.823122025,-1.127756357
3.1248749999999745,1.298092127,10.39212513,-145.120285,-1.631489038,0.383959681,11.81127167,-3.667945623,-5.267221451,-2.946161985
3.133207999999968,1.304385543,10.39389133,-145.1303864,-0.696013749,-0.061660811,11.39816666,-0.545032442,0.130017862,-1.653206706
3.141540999999961,1.315177798,10.3462429,-145.1263733,-2.185787439,0.13182734,6.831283569,-0.300442189,-5.630149841,0.052944623
3.1498739999999543,1.300680757,10.31874275,-145.1320343,-0.659267664,0.363733053,7.950661182,-3.137603283,-3.369924307,-1.050068378
3.1582069999999476,1.306742787,10.31879902,-145.1354828,-1.895138621,0.01021426,13.33236313,-0.709578395,0.075229011,-0.943000913
3.1665399999999977,1.336752057,10.25848103,-145.1259308,-0.645521939,0.288155109,9.542336464,1.876575947,-7.266156673,0.838174701
3.174872999999991,1.322098017,10.26183319,-145.1254425,-1.583002687,0.320647508,7.027131557,-3.282451391,0.479908317,-0.478153706
3.183205999999984,1.343903303,10.24330616,-145.127533,-1.209176183,0.568553746,10.91338158,1.141831398,-2.282599926,-0.651434064
3.1915389999999775,1.379405499,10.18056965,-145.1195679,0.532224715,0.508547843,8.715052605,2.574948311,-7.426887512,0.607031822
3.1998719999999707,1.398340225,10.13315773,-145.1182861,-1.911565781,-0.565463245,11.80922794,0.726009965,-5.740803719,-0.167145714
3.208204999999964,1.433995724,10.11824226,-145.1209412,-0.987830222,0.398960114,6.491224766,2.818948984,-1.71703732,-0.785191536
3.2165379999999573,1.451535344,10.02750397,-145.1265411,-1.27576232,0.493702173,9.869037628,0.702444792,-10.95721817,-0.84400183
3.2248709999999505,1.490217566,9.997940063,-145.1380463,-0.79955548,-0.297817051,11.88275623,3.374419212,-3.504578114,-1.827357769
3.2332040000000006,1.544422865,9.955710411,-145.1474152,-1.990264893,0.132905334,7.859066486,5.178122997,-5.150190353,-1.423447132
3.241536999999994,1.565534949,9.861332893,-145.1533356,-0.019452486,0.225352049,5.688584328,1.143342614,-11.2618494,-0.917002559
3.249869999999987,1.579630852,9.846189499,-145.167038,-2.635737419,-0.15967159,13.72359371,0.452321827,-1.915599108,-2.027994394
3.2582029999999804,1.645518661,9.818462372,-145.1718597,-1.70753479,0.465979218,12.43793106,6.499612331,-3.264777899,-1.041846275
3.2665359999999737,1.688040495,9.753688812,-145.1680603,0.43618089,0.159602061,1.912490249,3.504744768,-7.812098026,0.219257861
3.274868999999967,1.687708259,9.72059536,-145.1706238,-2.430366278,-0.618206203,10.9044857,-1.496806264,-3.899523973,-0.733245969
3.28320199999996,1.731817245,9.709338188,-145.1734924,-1.531997561,0.044190146,14.26691818,3.83160758,-1.414840579,-0.756529212
3.2915349999999535,1.785623789,9.694880486,-145.1562653,-2.086390972,0.472471744,5.487817287,4.597908974,-1.593756199,1.547432899
3.2998680000000036,1.791889668,9.699537277,-145.1699829,-0.935193896,-0.198257208,8.422657967,-0.490960836,0.453371942,-2.094079018
3.308200999999997,1.837943554,9.703961372,-145.1662903,-1.566991925,-0.127005324,10.67395878,3.940391302,0.622810125,-0.10948804
3.31653399999999,1.872738242,9.696123123,-145.162796,-0.690119445,0.232128784,7.365987778,2.584706783,-0.981242895,-0.010053586
3.3248669999999834,1.861536026,9.705245972,-145.1701813,-1.880881667,-0.371473223,10.20771217,-2.702903509,1.143419504,-1.458256841
3.3331999999999766,1.894001245,9.74739933,-145.1790161,-0.682972431,-0.060732573,10.77799988,2.555352926,4.965345383,-1.666961551
3.34153299999997,1.899242282,9.717782021,-145.1629333,-1.033790588,-0.254133314,8.782195091,-1.19612062,-3.411393404,1.418362498
3.349865999999963,1.863933206,9.704111099,-145.1707611,-0.469583511,-1.038874507,8.574166298,-5.597670555,-1.725362062,-1.326932549
3.3581989999999564,1.862432957,9.721579552,-145.1659241,-2.009938717,0.471274167,8.331012726,-1.777026176,2.19155407,-0.087767176
3.3665319999999497,1.821614027,9.664006233,-145.1559753,-0.327455938,-0.377295107,10.03832245,-6.620218277,-6.922465801,0.942936957
3.374865,1.769597888,9.679308891,-145.1447449,-1.210837483,-0.30577001,10.25336838,-7.965168476,1.954955101,0.669684112
3.383197999999993,1.72282052,9.65012455,-145.1584778,-2.432441235,0.383636534,9.147325516,-6.857021809,-3.60547328,-1.972514033
3.3915309999999863,1.661438584,9.604769707,-145.1474457,0.125851467,-0.428552687,8.990840912,-9.084229469,-5.323625088,0.868604422
3.3998639999999796,1.599027395,9.607068062,-145.1548309,-1.482261658,1.151887894,10.49031925,-8.860923767,0.195718363,-1.336486697
3.408196999999973,1.561470747,9.558859825,-145.1655426,-0.309370875,-0.412323266,10.64472675,-5.792493343,-5.738139153,-1.690321684
3.416529999999966,1.515407205,9.454012871,-145.170639,-0.044986241,-0.079332553,8.090539932,-6.946594238,-12.64909172,-0.721591532
3.4248629999999594,1.441501975,9.414818764,-145.1762543,-1.09060967,-0.393428653,10.50568199,-10.26310062,-4.637085915,-1.090590239
3.4331959999999526,1.403055191,9.313799858,-145.2005005,-2.446559191,0.674511313,10.89673519,-5.661323071,-12.2449007,-3.022416353
3.4415290000000027,1.375935078,9.209101677,-145.1933746,0.04246892,0.34014526,6.580338478,-4.894227505,-12.45916271,0.578574419
3.449861999999996,1.314547658,9.168771744,-145.1972809,-3.343215704,0.570104301,8.758995056,-8.810643196,-4.904139996,-0.804146111
3.4581949999999892,1.263617516,9.128692627,-145.2022858,-0.91955173,-0.250788182,12.64834595,-7.526602268,-4.73885107,-1.011621356
3.4665279999999825,1.271585345,9.104809761,-145.1999054,-3.768416882,0.369546503,9.720797539,-0.608120322,-2.914835691,-0.111511573
3.4748609999999758,1.256147861,9.138282776,-145.2078247,-1.036730051,1.338596821,5.685507774,-3.212857723,4.075891018,-1.548111439
3.483193999999969,1.235156655,9.179383278,-145.2062378,-1.91862464,-0.140394464,10.61873055,-4.06919241,4.881150723,-0.37628594
3.4915269999999623,1.261569262,9.254413605,-145.2090454,-1.514127254,-0.203951269,10.99191093,1.710365295,9.075252533,-1.028578162
3.4998599999999556,1.297874928,9.37173748,-145.2066345,-3.864201307,0.525525093,7.990419865,2.790312767,14.02720165,-0.484762281
3.508192999999949,1.313613534,9.467606544,-145.2097473,0.314448982,1.140109539,6.164092064,0.44297263,11.57095051,-1.171607971
3.516525999999999,1.354123831,9.640541077,-145.2069702,-3.340479374,0.09004543,10.03729343,3.287127018,20.70004845,-0.612090707
3.524858999999992,1.414558768,9.815905571,-145.1987152,-0.112724036,-0.8837834,7.758851528,5.580319405,21.13836098,-0.082362607
3.5331919999999855,1.461235881,9.928369522,-145.189743,-2.43256259,0.532290101,9.431097984,3.896822691,13.46494484,0.266260058
3.5415249999999787,1.508185387,10.13645744,-145.1859741,-0.606475413,-0.034216445,8.839384079,4.051098824,25.04994202,-0.756324768
3.549857999999972,1.551103592,10.3142271,-145.1628876,-1.565406799,-0.526657164,8.062288284,3.139153719,21.34322357,1.699249029
3.5581909999999652,1.5724473,10.4005127,-145.1434021,0.961870432,-0.030426426,6.655436039,0.641534209,10.49189949,1.446487188
3.5665239999999585,1.580550671,10.5605669,-145.1256714,-2.601109028,-0.028873196,11.00938034,-0.933267772,19.20074081,1.105561852
3.5748569999999518,1.616259098,10.67814922,-145.1085358,-0.358227611,-0.003173598,11.3045578,2.411093712,14.23890305,1.036531329
3.583190000000002,1.621100783,10.72996616,-145.089798,0.982032716,-0.635788977,4.479125023,-1.357003689,6.224002838,1.575787663
3.591522999999995,1.610852957,10.75618839,-145.0891266,-1.37296772,-0.641832173,12.90434456,-2.733589411,3.225498199,-0.618442893
3.5998559999999884,1.609627604,10.74831963,-145.0873871,-0.086348332,-0.152122989,8.5719347,-1.706125617,-0.993870735,-0.223778754
3.6081889999999817,1.564595103,10.76128197,-145.0965118,-0.533134878,-1.105905414,8.807685852,-6.690168858,1.606524706,-1.717882633
3.616521999999975,1.509634018,10.64694881,-145.0965271,0.067644492,-0.113216072,7.914818764,-8.115064621,-13.77066422,-0.089611411
3.624854999999968,1.431038618,10.57936478,-145.1103363,-1.135818243,-0.261209846,11.30478477,-10.62151909,-8.067396164,-1.994875193
3.6331879999999614,1.371268153,10.45152855,-145.1226349,-1.343730927,-0.181325898,8.622742653,-8.423203468,-15.42603493,-1.530028105
3.6415209999999547,1.285362959,10.34927654,-145.1264648,0.361231595,0.157472357,6.982275963,-11.72055054,-12.19390202,-0.742697656
3.649853999999948,1.226291895,10.20118046,-145.1447601,-2.632738829,0.541550457,14.88094711,-8.216805458,-17.86963463,-2.227990627
3.658186999999998,1.192398548,10.0428915,-145.153656,-0.213388771,0.58809191,8.453709602,-5.377902508,-18.92950058,-1.205111504
3.6665199999999913,1.145455003,9.91993618,-145.1622162,-2.212910652,-0.532340944,10.13149452,-6.975923538,-14.82538319,-1.165486455
3.6748529999999846,1.117199183,9.739291191,-145.1589508,-0.788809299,0.383955687,7.271431446,-4.961671352,-21.58116722,0.294922411
3.683185999999978,1.072044015,9.608942032,-145.1671295,-1.858235955,0.302015603,11.79547691,-6.774775028,-15.71266079,-1.12399137
3.691518999999971,1.083589077,9.489638329,-145.1702423,-1.320734859,0.112504616,11.7131052,-0.059950124,-14.23492146,-0.607633829
3.6998519999999644,1.086522102,9.355962753,-145.1598053,-1.614057302,0.378465235,5.599349976,-1.37278235,-16.07089996,1.082432032
3.7081849999999577,1.059651494,9.260274887,-145.1685486,-1.525876999,-0.681969643,12.22476482,-4.56826067,-11.41258907,-1.288665056
3.716517999999951,1.091084599,9.192952156,-145.1758575,-2.831736803,0.505233228,11.36272812,2.392574549,-8.149285316,-1.168380618
3.724851000000001,1.079524636,9.111520767,-145.1648102,-1.215587735,-0.046049483,7.102162361,-3.105764627,-9.658732414,0.988555789
3.7331839999999943,1.054760575,9.096776962,-145.1682892,-2.623676062,-1.016119361,11.60115528,-4.425307274,-1.831174612,-0.835754097
3.7415169999999875,1.089793563,9.100549698,-145.1584167,-2.850698233,0.992863059,9.178854942,2.511706591,0.558287859,0.639613092
3.749849999999981,1.079214334,9.095125198,-145.1389923,-0.286402225,-0.101060614,8.621800423,-3.158145666,-0.661961436,1.85664773
3.758182999999974,1.077011943,9.140005112,-145.1320648,-2.26084137,-0.515049815,11.14110088,-1.898206949,5.485364914,0.185344607
3.7665159999999673,1.087990403,9.161004066,-145.1281281,-1.683053493,0.365866333,7.271147251,-0.277005106,2.472080946,-0.037025377
3.7748489999999606,1.043305159,9.19824791,-145.1140747,-1.445321798,-0.350600034,10.73022366,-7.127456188,4.582309723,1.008611798
3.783181999999954,1.014968157,9.264295578,-145.1109161,-1.390408516,-0.523708284,13.47332859,-4.980931759,7.876865387,-0.22536689
3.791515000000004,1.01111722,9.314290047,-145.114975,-1.916215062,0.529953897,7.02101469,-1.880174637,6.072648525,-1.150578618
3.7998479999999972,0.924898148,9.326888084,-145.0907745,0.732665956,-1.439231992,6.606808186,-12.33629227,1.505963683,2.384250164
3.8081809999999905,0.817272723,9.350367546,-145.1032104,-2.277123451,-1.194771051,12.54499245,-14.1675539,2.877452135,-2.083193302
3.8165139999999838,0.760075808,9.406811714,-145.1087799,-2.208688736,0.67014128,8.845154762,-8.274999619,6.709778786,-1.205931306
3.824846999999977,0.636161566,9.445757866,-145.1076508,-1.533612967,0.408645511,5.734388828,-16.38583946,4.757499218,-0.490589559
3.8331799999999703,0.480222166,9.486488342,-145.1214294,-0.787157953,-1.688264847,10.60015011,-19.96234703,4.818551064,-2.135626078
3.8415129999999635,0.383301497,9.536401749,-145.1419525,-1.798170805,0.14596428,11.14951706,-12.72895622,6.054564953,-2.966115952
3.849845999999957,0.271166116,9.574941635,-145.129425,-1.739552975,0.691606402,7.040200233,-15.22608852,4.578826904,1.001132488
3.85817899999995,0.115096956,9.633396149,-145.1522217,-1.512628555,0.794684529,8.382842064,-19.77303314,7.089025021,-3.242417812
3.866512,-0.010092651,9.677895546,-145.1351929,0.864403367,-0.973784864,10.3993454,-16.88612747,5.287753582,1.552607298
3.8748449999999934,-0.114153743,9.728510857,-145.1304016,-3.3621099,0.013852919,10.02571487,-14.09153366,6.158098698,0.097923234
3.8831779999999867,-0.21214968,9.780599594,-145.1353149,-1.390785336,1.351467252,8.657615662,-13.18102169,6.198466301,-1.018844724
3.89151099999998,-0.292535603,9.828297615,-145.1277618,-0.587876379,1.030555606,6.917444706,-11.30086136,5.804186821,0.389208347
3.899843999999973,-0.370820463,9.90465641,-145.1281433,-1.351846695,0.764398158,10.23766708,-10.9050703,9.108833313,-0.44915846
3.9081769999999665,-0.397354782,9.961736679,-145.1427307,-1.541294336,-0.291236311,13.07795906,-4.387909889,6.945325375,-2.18211484
3.9165099999999597,-0.348922163,9.997588158,-145.1388397,-1.330622554,1.576647401,7.63182497,4.210851669,4.244279385,0.031249367
3.924842999999953,-0.317035139,10.05492783,-145.1463165,-1.254052281,2.939970493,5.563080788,2.481558561,6.971068382,-1.374446988
3.933176000000003,-0.274656743,10.0981102,-145.1401062,0.319851846,-1.163029552,12.13197422,3.435381651,5.123820782,0.303451866
3.9415089999999964,-0.159999058,10.15464973,-145.1425781,-2.440900326,0.846399903,12.81543064,12.31627369,6.872684956,-0.829683661
3.9498419999999896,-0.018146979,10.15217018,-145.1408539,-0.381256253,0.308953077,6.309895515,15.46644115,-0.353438079,-0.253824294
3.958174999999983,0.1090286,10.1396656,-145.1311188,-0.514065683,1.122437,5.472578526,13.55728245,-1.413175821,0.590689957
3.966507999999976,0.243673325,10.17734528,-145.1474609,-1.395285368,0.566618383,13.7642765,14.98358727,4.460771561,-2.399452209
3.9748409999999694,0.426879168,10.15670109,-145.1424408,-1.790433288,-0.215579391,13.38640594,20.37982368,-2.389104843,0.04377475
3.9831739999999627,0.611665905,10.08828163,-145.1512146,0.81650281,-0.29961282,4.264774323,20.84095383,-8.272722244,-1.417761087
3.991506999999956,0.766079903,10.05963326,-145.1487885,-2.326174974,0.891330481,10.36939621,16.96403122,-3.346565008,-0.149369463
3.999839999999949,0.940897763,10.0080204,-145.1564026,-0.497848004,-0.704859316,13.12039566,19.61810112,-6.261312008,-1.26253891
4.008172999999999,1.108355999,9.89643383,-145.1282654,-0.276598126,-0.770611882,6.776263237,18.0078907,-13.24321842,3.037209511
4.016505999999993,1.20664978,9.808349609,-145.1437073,-1.638547897,-0.605594158,9.99691391,10.59329414,-10.65936565,-2.069323301
4.024838999999986,1.314226031,9.711244583,-145.1233673,-2.328010321,-0.854829013,12.53466797,10.98999596,-11.5097456,2.143937588
4.033171999999979,1.406923294,9.567353249,-145.1273346,0.789991379,-0.526208341,6.096845627,9.684360504,-17.32896996,-0.518342614
4.041504999999972,1.449103475,9.453165054,-145.1137695,-2.155455112,-0.180074856,8.437854767,3.283156872,-13.57089996,1.446436286
4.049837999999966,1.450367808,9.345650673,-145.1244659,-2.078485489,-1.316467404,9.157222748,-1.157750964,-12.98353863,-1.397167087
4.058170999999959,1.432756901,9.214075089,-145.1146851,-1.784308672,-0.57125771,11.28124619,-3.810387135,-15.66803741,1.069266438
4.066503999999952,1.404885888,9.149206161,-145.1307526,-1.957468033,-0.235742003,11.87833881,-4.556721687,-7.883883476,-2.166452169
4.074837000000002,1.361195922,9.090945244,-145.1227875,-1.22846961,-0.627457082,6.610136032,-6.91498518,-7.021285057,0.655058503
4.0831699999999955,1.258963943,8.998859406,-145.1335449,-1.774094105,-0.354103297,3.764564276,-13.57504845,-10.98857212,-1.495167017
4.091502999999989,1.086608887,8.969484329,-145.1226654,-2.551529408,-0.468647003,8.344049454,-22.3988781,-3.412445068,0.899572432
4.099835999999982,0.922691524,8.973617554,-145.131546,-1.054903746,-1.536124945,13.64217377,-21.02497864,0.423454672,-1.516068578
4.108168999999975,0.795865953,8.976721764,-145.1130524,-2.833165407,-0.866959214,11.53350735,-17.07905006,0.491793364,1.743151546
4.116501999999969,0.620713055,8.982073784,-145.1169739,-0.744567573,0.333046883,2.321329594,-22.46503639,0.581750751,-0.926633716
4.124834999999962,0.40017277,8.997973442,-145.0967407,-2.36021781,0.70484221,5.669164181,-28.35375977,2.014407158,1.913768888
4.133167999999955,0.143979341,9.056814194,-145.0919342,-1.674648046,0.468419135,10.60302639,-32.35512543,7.009880543,0.079327367
4.141500999999948,-0.083552204,9.095543861,-145.0771484,-0.290020645,-1.23745513,13.57739449,-29.08837891,4.732156754,1.260605574
4.1498339999999985,-0.250349641,9.132322311,-145.0823517,-2.631912708,0.875617802,9.775678635,-21.43801117,4.361876011,-1.057087302
4.158166999999992,-0.403616369,9.194220543,-145.0740204,0.452091753,0.33132413,5.417719364,-20.05412483,7.505512238,0.523196578
4.166499999999985,-0.563889325,9.237934113,-145.0840759,-3.709665298,2.084775209,9.657418251,-20.56023407,5.202329636,-1.601799607
4.174832999999978,-0.681300163,9.348406792,-145.1023407,-1.410353065,1.435724497,7.981181145,-15.24081898,13.36233521,-2.515151978
4.1831659999999715,-0.786711693,9.42578125,-145.0965424,-1.128965974,1.281153321,6.526114941,-14.2828207,9.221459389,0.349403828
4.191498999999965,-0.859370172,9.516963959,-145.1253357,-2.384949207,1.420359015,13.81499195,-9.658220291,11.07285595,-3.743406057
4.199831999999958,-0.848566234,9.628819466,-145.1246033,0.04691362,0.543746471,11.84024239,-0.237584844,13.36661148,-0.169041172
4.208164999999951,-0.788937628,9.729811668,-145.1414642,-3.010944128,2.080856323,8.828788757,5.989429474,12.23074913,-2.332496881
4.216498000000001,-0.688922584,9.800563812,-145.1585999,0.92280829,1.478011489,6.834751129,10.83180141,8.462510109,-2.373940945
4.224830999999995,-0.564994335,9.877319336,-145.1554871,-2.597209692,1.488553405,8.298354149,13.29783726,9.291437149,-0.034335889
4.233163999999988,-0.42452237,9.978733063,-145.1740112,-1.419402003,2.048378229,12.21340847,15.72161484,12.13457012,-2.541355848
4.241496999999981,-0.229420692,10.02077484,-145.1604919,0.85935533,-0.367498368,8.152629852,21.62439156,5.119109631,1.08770895
4.2498299999999745,-0.001192236,10.05130959,-145.1687775,-1.296093225,0.715334356,11.15306854,26.04254341,3.612377405,-1.427392364
4.258162999999968,0.240100756,10.07062054,-145.170639,-0.738924026,-0.379892081,10.20642567,27.48163033,2.400644064,-0.728943169
4.266495999999961,0.435151637,10.05330944,-145.1771393,-0.48036316,0.470736653,5.201880932,22.023386,-2.135447025,-1.211464286
4.274828999999954,0.614291668,10.08863926,-145.1930237,-2.311093092,-0.583809733,12.05125523,20.32334328,4.307548046,-2.446224928
4.2831619999999475,0.833343446,10.07448673,-145.1997223,-1.6914258,-0.630425513,12.20743752,24.90732002,-1.762503624,-1.22749877
4.291494999999998,1.04934299,10.07322311,-145.1806641,-0.159467056,0.660584509,4.248457909,24.01428032,-0.030365691,1.717973113
4.299827999999991,1.185793638,10.07130241,-145.1855316,-2.555711508,-0.124138802,8.492560387,14.95725727,-0.295114458,-1.028732061
4.308160999999984,1.345999837,10.09282684,-145.1643829,-1.246953964,-0.932471693,15.42133617,17.26092339,2.722178698,1.982209086
4.316493999999977,1.536762357,10.10230923,-145.1453857,-2.768090487,1.265331388,7.928484917,20.97311974,1.14016664,1.757777333
4.324826999999971,1.681425929,10.12644386,-145.1327209,-0.821898818,0.107258357,8.375398636,15.57847881,3.02038002,0.923393369
4.333159999999964,1.836095095,10.15198708,-145.1128998,-1.484733701,-1.6391958,11.9318409,16.62310219,3.081341743,1.790921688
4.341492999999957,1.998611331,10.14529133,-145.0929413,-0.923464656,0.510597467,7.262508392,17.56719208,-0.639805257,1.890638232
4.3498259999999505,2.120023966,10.16197109,-145.0886688,-2.245465994,0.387642354,8.411752701,12.95978165,1.964125514,-0.022348426
4.358159000000001,2.254271746,10.22199535,-145.0730286,-1.236736536,-1.186283231,13.16667175,14.2575264,7.35356617,1.119137287
4.366491999999994,2.416883707,10.22290993,-145.0510559,-1.35883522,0.359729409,9.13540554,17.52636337,0.161779523,2.132154703
4.374824999999987,2.515823364,10.21260071,-145.0528259,-0.746943355,-0.69183147,7.269072533,10.40611744,-1.162617564,-0.687550247
4.38315799999998,2.588236332,10.24352551,-145.0404968,-1.556138277,-1.053995132,11.0018425,6.907672882,3.718419075,0.834127724
4.391490999999974,2.683037519,10.19080544,-145.0490112,-0.843477249,-0.535160422,10.76130295,10.05645847,-6.285337925,-1.259977341
4.399823999999967,2.762160301,10.14282799,-145.0461731,-0.691184044,-0.70791471,7.701047897,7.915157318,-5.789034367,0.153634176
4.40815699999996,2.779021502,10.09059334,-145.0540161,-0.748813391,-1.436856031,6.853853703,0.687204301,-6.221581936,-1.161900043
4.416489999999953,2.775068998,10.0399704,-145.0475006,-3.575261116,-0.175579697,10.38101864,-2.130092382,-6.084699154,0.604239762
4.4248230000000035,2.738504171,10.02552319,-145.0485535,-1.766969919,-1.119576812,9.399702072,-5.864853382,-1.656383157,-0.581353605
4.433155999999997,2.679149389,9.9892416,-145.036972,-1.547364116,-2.301677465,8.718523979,-8.883542061,-4.33880806,1.114706039
4.44148899999999,2.618002653,9.971333504,-145.0454559,-3.664055824,-0.170336917,9.582127571,-8.663567543,-2.110318422,-1.406080604
4.449821999999983,2.518566608,10.00101852,-145.0242157,-1.023398995,1.435109496,5.366990089,-13.89320087,3.619035482,1.890894175
4.4581549999999766,2.357977867,10.03902817,-145.0330505,-1.422101378,-1.669295788,8.455071449,-20.59522247,4.593811989,-1.71293962
4.46648799999997,2.216023684,10.10238934,-144.9909821,-3.366720438,-1.723675251,13.4617281,-19.43630791,7.743647575,4.207959652
4.474820999999963,2.104995489,10.17356491,-145.0180359,-3.429287672,1.448088646,9.287507057,-14.26363564,8.496422768,-3.955568314
4.483153999999956,1.997871161,10.26694012,-144.973587,0.322483391,0.462175459,5.466548443,-15.32022381,11.3334837,4.385210037
4.49148699999995,1.864860177,10.37943745,-144.981781,-2.188759565,0.230118364,6.744350433,-17.30707359,13.4055481,-1.874950171
4.49982,1.753791213,10.47935677,-144.9576721,-1.579759121,-0.19587785,10.15589714,-15.36860752,12.15895176,2.052520037
4.508152999999993,1.661629796,10.60454464,-144.9438171,-2.512900352,0.459356338,11.10838985,-12.87544727,15.1448555,0.746194065
4.516485999999986,1.599555492,10.72094822,-144.9093781,0.769119501,-0.601225674,8.914186478,-9.733119011,14.02605247,3.206851721
4.5248189999999795,1.537890434,10.82818031,-144.9107361,-2.759646416,0.047839548,6.200298786,-8.875860214,12.94026279,-0.973533332
4.533151999999973,1.451926231,10.92383671,-144.8674469,-0.485586941,-0.497852206,6.938890457,-12.81548405,11.55448151,4.345686436
4.541484999999966,1.362714052,11.0902462,-144.888031,-3.200102568,0.375447333,12.41464806,-11.73768902,19.98600197,-3.389418125
4.549817999999959,1.327082276,11.21102047,-144.8696136,-0.065944314,-0.684631586,8.819174767,-6.223632336,14.48695278,1.371924281
4.5581509999999525,1.261899352,11.32238483,-144.8773499,-2.149237871,0.490033984,5.380508423,-9.137303352,13.42042637,-1.717063308
4.566484000000003,1.192310572,11.46705818,-144.8768616,-0.484354228,-0.875653207,11.43266201,-9.881270409,17.30580139,-0.772410333
4.574816999999996,1.170280457,11.57328606,-144.8756104,-2.006356001,-0.107145622,8.915971756,-4.167039871,12.82740688,-0.633401692
4.583149999999989,1.116581559,11.67923832,-144.8571777,0.258729577,-0.446089476,7.330020428,-8.408604622,12.70192242,1.458244205
4.591482999999982,1.085344911,11.69733334,-144.8480988,-1.88186121,1.099428892,9.769625664,-5.463554859,2.271316767,0.512489617
4.599815999999976,1.082561612,11.76316071,-144.8356628,0.093947366,-0.562622666,9.419440269,-2.157038689,7.873303413,0.85543859
4.608148999999969,1.100230813,11.76007271,-144.8162689,-1.303934932,0.44449994,9.186090469,0.154018387,-0.245089784,1.773401499
4.616481999999962,1.106193662,11.72006035,-144.8231201,0.925251067,-0.452910185,8.81122303,-0.636372864,-4.869407177,-1.168611169
4.6248149999999555,1.148910284,11.64908218,-144.8079529,-2.384083033,0.116239808,11.76649952,3.256850243,-8.395489693,1.473356605
4.633147999999949,1.18632257,11.57465935,-144.8205261,0.393060476,-0.791024864,10.52399063,3.273115158,-9.012611389,-1.751027465
4.641480999999999,1.227679968,11.42120934,-144.8133087,-0.253721476,0.120806366,5.214584351,3.297193289,-18.30774117,0.729672968
4.649813999999992,1.233133078,11.30239582,-144.8369293,-1.531658173,-1.748799324,12.42953491,-0.305565029,-14.36803722,-2.930178881
4.658146999999985,1.264374375,11.07254505,-144.8315887,-0.467665762,-1.062327027,11.29857254,2.122114897,-27.47290802,0.770937681
4.666479999999979,1.273430347,10.97079754,-144.8534698,-2.742696285,-0.384678483,7.952744484,0.069619499,-12.31818199,-2.761688709
4.674812999999972,1.231274486,10.7226181,-144.8638306,-0.105639912,-1.159986138,6.00278759,-6.325375557,-29.7144928,-1.030166864
4.683145999999965,1.197739601,10.5766592,-144.8814392,-3.27197504,-0.87248677,16.41115379,-5.153162479,-17.60906029,-2.161316872
4.691478999999958,1.14927721,10.35285091,-144.8815918,0.609135449,-1.130517125,6.263579369,-7.311012268,-26.76557541,0.069901295
4.699811999999952,1.080696583,10.17962074,-144.8954468,-5.212174416,-0.660622418,12.67213821,-9.452413559,-20.86876297,-1.687966228
4.708145000000002,0.989680946,10.02839565,-144.897171,-0.422916442,-1.416102409,6.538126945,-12.38678074,-18.06061935,-0.311968714
4.716477999999995,0.908106327,9.891535759,-144.8973999,-4.12622261,0.581852973,13.16084576,-11.30460358,-16.47563171,-0.211842597
4.724810999999988,0.799534619,9.800396919,-144.9035187,0.40316692,-1.659739971,7.554225445,-14.4077673,-10.85952759,-0.969537377
4.733143999999982,0.67404449,9.698540688,-144.8895721,-4.474865437,-1.241400719,11.70756149,-16.86253738,-12.2549181,1.351740599
4.741476999999975,0.51391542,9.641890526,-144.9108276,-0.623466969,-0.783730447,4.569575787,-20.29051208,-6.738453388,-2.851236343
4.749809999999968,0.347189188,9.626911163,-144.9151764,-4.397837162,-0.352812022,11.07948112,-21.43966484,-1.854573965,-0.955565155
4.758142999999961,0.182867885,9.674200058,-144.9230957,-2.32192111,-0.105455831,9.623369217,-21.06710052,5.754790783,-1.340777636
4.766475999999955,0.039337233,9.747056961,-144.9214325,-2.3821733,-0.042613827,11.36764145,-18.77755737,8.690425873,-0.276236802
4.774808999999948,-0.079549924,9.82242775,-144.9324799,-1.979808688,-0.536528528,7.807725906,-15.53779125,9.127429962,-1.74590528
4.783141999999998,-0.253319353,9.9360466,-144.9164581,-1.237769723,-0.146870747,7.194472313,-22.70292473,13.57598877,1.479146361
4.791474999999991,-0.413061827,10.02528763,-144.9355011,-3.245582581,-0.420686543,12.59490681,-20.26954079,10.8041935,-2.620760441
4.7998079999999845,-0.552891076,10.14741039,-144.9119415,0.772830248,-1.192062259,7.823898315,-18.79486465,14.57736397,2.451962233
4.808140999999978,-0.68282336,10.20201397,-144.9320984,-1.956011534,0.164344236,7.01973772,-16.65859413,6.659677982,-2.763763905
4.816473999999971,-0.809475362,10.25343323,-144.9061737,0.223873451,-0.292976707,7.007571697,-17.27133942,6.07669735,2.687394857
4.824806999999964,-0.944646418,10.35030937,-144.9209137,-4.313767433,-0.297937006,13.14188194,-17.39459229,11.73324203,-2.023435354
4.833139999999958,-1.020962358,10.40090656,-144.91185,0.379554719,0.573264658,5.329350471,-10.87333298,6.000391483,0.717736602
4.841472999999951,-1.11701107,10.44077301,-144.9250336,-2.003472805,-0.137502939,8.219721794,-12.72093964,4.894957542,-1.977457404
4.849806000000001,-1.186611533,10.43185711,-144.9001465,-0.288575292,-0.739008129,10.80459118,-10.41384125,-1.182366014,2.461323261
4.858138999999994,-1.2428056,10.46494579,-144.9164734,-2.984738827,0.328223974,11.05765057,-7.873445988,4.094154358,-2.331215858
4.8664719999999875,-1.265163302,10.46771717,-144.8951874,-0.458069026,-0.017932516,8.45284462,-4.665773392,0.223663464,2.061228275
4.874804999999981,-1.309285879,10.48347282,-144.8840637,-1.743862748,-0.706762373,10.46077824,-7.020567894,1.943659425,0.849342465
4.883137999999974,-1.321530461,10.39529324,-144.861145,0.56946981,-0.381324917,8.478319168,-3.48856926,-10.69475079,2.006363153
4.891470999999967,-1.350294352,10.38544273,-144.8560638,-2.818691492,-0.458468914,8.385098457,-5.054905891,-1.112797737,0.130094707
4.8998039999999605,-1.376899242,10.27588081,-144.8357544,-0.162107408,-0.742387652,9.139710426,-5.149755001,-13.25481701,1.627426147
4.908136999999954,-1.404980659,10.26881123,-144.8358917,-2.481322527,-0.202109873,10.31647205,-4.864130974,-0.765212536,-0.450131714
4.916470000000004,-1.418473721,10.13978863,-144.8275604,0.348610073,-0.376382142,9.391671181,-3.316774845,-15.5562582,0.145181522
4.924802999999997,-1.461283565,10.11893749,-144.8214111,-3.78725934,-0.933061182,11.746768,-6.764424801,-2.437130451,0.249508247
4.93313599999999,-1.49813199,9.949541092,-144.8345795,1.082607031,-0.15942125,6.620213985,-5.666754246,-20.33398247,-2.535464287
4.941468999999984,-1.520134449,9.9174366,-144.8453369,-3.667458534,-0.390512288,13.62133121,-3.918785572,-3.736489296,-1.766011834
4.949801999999977,-1.547179103,9.745769501,-144.849762,1.24708724,-0.166958004,8.270752907,-4.672998428,-20.63295364,-1.532692313
4.95813499999997,-1.548954129,9.679943085,-144.8591766,-3.519396067,-0.167039797,13.06127453,-1.524188161,-7.783667564,-1.714988589
4.9664679999999635,-1.556981802,9.529047012,-144.8711243,0.264794946,-0.825360596,3.752182484,-2.243871689,-18.11648178,-2.360903263
4.974800999999957,-1.598603368,9.489202499,-144.8666534,-4.244525433,-0.749051332,13.82979107,-6.580336094,-4.711880207,-0.013357826
4.98313399999995,-1.640301466,9.347967148,-144.881424,0.097556345,-0.909867227,9.929392815,-6.233621597,-16.94434357,-2.684794664
4.991467,-1.654512167,9.318635941,-144.8713074,-4.619037628,-1.404542089,14.4018774,-3.399636745,-3.472176313,0.691174567
4.999799999999993,-1.686972737,9.239397049,-144.8755341,-0.811197639,1.577543139,1.742673397,-5.333460331,-9.543210983,-1.233876228
5.008132999999987,-1.752107024,9.253725052,-144.8732605,-2.788670301,-1.086156249,11.64665604,-9.355690002,1.792330861,-0.099575348
5.01646599999998,-1.795257807,9.229913712,-144.8607941,-1.554152489,-0.791905761,11.96110153,-6.939087868,-2.955383301,0.931820333
5.024798999999973,-1.849842548,9.232691765,-144.8702087,-2.060849428,-1.093906999,9.433139801,-7.864941597,0.447250247,-1.516478181
5.033131999999966,-1.882861853,9.239001274,-144.8723907,-2.173707008,-0.335889488,7.688280106,-5.440502167,0.71192205,-0.687037826
5.04146499999996,-1.944202662,9.292160034,-144.8713684,-1.748904347,0.295022607,8.066175461,-8.880647659,6.448665619,-0.052778136
5.049797999999953,-2.004284859,9.384038925,-144.8878174,-2.12932229,-0.159374431,12.27577877,-8.40920639,11.03268051,-2.021808863
5.058131000000003,-2.053439856,9.463263512,-144.8880463,-2.10387063,-1.144920707,8.851452827,-7.389104366,9.580850601,-0.116711259
5.066463999999996,-2.123519659,9.521398544,-144.8985138,-0.522314548,-1.078492284,8.388436317,-9.722537041,6.963563442,-1.438329101
5.07479699999999,-2.153129816,9.606657028,-144.9015656,-3.239226103,0.241150394,10.7080822,-4.990459919,10.31372452,-0.374287993
5.083129999999983,-2.203434706,9.713066101,-144.9036407,-0.961768746,0.580109835,5.469964981,-7.513399601,12.71714878,-0.217695415
5.091462999999976,-2.278034925,9.867868423,-144.9188232,-1.86520052,-1.213495016,9.455562592,-10.14094925,18.70913124,-1.474420071
5.099795999999969,-2.347995996,9.952537537,-144.9001007,-1.465691686,-0.754809976,10.40985966,-10.30164909,10.00942898,2.162738323
5.108128999999963,-2.432707787,10.07334995,-144.9299469,-1.530787349,-1.017953634,10.14353657,-11.03649712,14.70720959,-3.343593121
5.116461999999956,-2.479725599,10.21709538,-144.9254456,-1.787860632,-0.388736218,7.768373489,-7.257502079,17.15987968,0.816761434
5.124794999999949,-2.587409735,10.32194424,-144.9344177,0.13743493,-0.09460333,4.513972282,-14.22004032,12.69305897,-0.948482454
5.133127999999999,-2.72571063,10.4520216,-144.9450531,-3.226307392,-0.599097252,10.49086094,-17.88533974,15.59708023,-0.98841548
5.1414609999999925,-2.833779812,10.59237957,-144.9525452,-1.136750102,0.452302426,9.694860458,-14.29475784,16.94233704,-0.511708558
5.149793999999986,-2.926151037,10.7055397,-144.9606628,-0.885292351,-0.253097802,8.609389305,-12.42532921,13.55825901,-0.72871244
5.158126999999979,-2.972038507,10.82228374,-144.9522705,-0.872656643,-0.25914675,10.70919418,-7.181912422,14.01729012,1.24841249
5.166459999999972,-3.045403481,10.89617634,-144.953476,-0.908194423,1.446749449,5.421429157,-10.29627037,8.810426712,-0.13207981
5.174792999999966,-3.108679533,10.98232174,-144.9561157,-0.191323519,-0.625518143,10.93636703,-9.022986412,10.41749096,-0.213276967
5.183125999999959,-3.120983601,10.98604012,-144.9374695,-0.012669922,0.297940969,9.964724541,-3.421895027,0.273585647,1.760901809
5.191458999999952,-3.164074421,10.99720192,-144.9275665,-0.298157215,-0.07866884,8.817993164,-6.889345169,1.351406932,0.787048578
5.199792000000002,-3.198508024,10.91113567,-144.9209137,-1.115041614,-0.578695714,8.811342239,-5.802841187,-10.40825653,-0.247600049
5.2081249999999955,-3.22599411,10.88315678,-144.9179535,-0.839036405,-0.452863842,10.46014404,-4.861236095,-3.291058064,-0.27049914
5.216457999999989,-3.231700659,10.81499767,-144.9154205,-2.568570137,0.813121498,11.09861565,-2.26082778,-8.237602234,-0.617905021
5.224790999999982,-3.256927013,10.74809265,-144.931839,-0.275069386,-0.604435563,8.368081093,-4.16586113,-7.829824924,-2.764685631
5.233123999999975,-3.256584883,10.64635277,-144.9455109,-1.959708929,-0.099070206,8.228918076,-1.17399025,-12.14994717,-2.759357929
5.2414569999999685,-3.274610043,10.58407021,-144.9485474,-0.621873498,0.053984765,9.235996246,-3.598453999,-7.363259792,-1.182980537
5.249789999999962,-3.261019468,10.47517395,-144.9610291,-3.019263268,0.263755858,14.62638664,0.385186881,-13.01588726,-2.671628714
5.258122999999955,-3.215319395,10.3823843,-144.9603729,-0.080255397,0.384372741,6.583518505,3.964955568,-11.04287434,-0.937954903
5.266455999999948,-3.1892519,10.29989719,-144.9510956,-2.207986116,-0.001492217,8.389790535,1.408398628,-9.996890068,0.082119241
5.274788999999998,-3.152177095,10.1393404,-144.9393158,0.665276945,-0.126701936,9.593135834,2.686677694,-19.23856354,-0.041021209
5.283121999999992,-3.100019693,10.04912949,-144.9365082,-3.889068842,-0.337940603,12.15498829,4.681232452,-10.88096714,-0.714214563
5.291454999999985,-3.05807209,9.962327957,-144.9351654,-1.49387455,-0.081824623,6.617011547,3.508689404,-10.32826233,-0.849688292
5.299787999999978,-3.044608593,9.870792389,-144.9476166,-2.08374238,-0.821873367,7.865682602,0.352733672,-10.94369507,-2.508850574
5.3081209999999714,-2.987171412,9.840103149,-144.9490204,-2.634433746,-0.307822376,11.84304619,5.424659252,-3.587900877,-0.804248512
5.316453999999965,-2.939477682,9.829773903,-144.9578094,-2.742987871,0.207461104,5.638068676,4.385669708,-1.238204956,-1.559381843
5.324786999999958,-2.911525965,9.872498512,-144.9643097,-1.502818465,-0.209593847,7.79142189,1.97757268,5.235139847,-0.883857667
5.333119999999951,-2.841430426,9.926710129,-144.9627533,-3.737627745,0.031170812,12.15023613,6.859928131,6.435858727,0.055864651
5.341453000000001,-2.757729769,9.991901398,-144.9631042,-0.281228095,0.697107434,6.515699387,8.54695797,7.890286922,-0.066558592
5.349785999999995,-2.674200296,10.09577942,-144.9832916,-1.848868966,0.054922488,8.641212463,8.92715168,12.51222324,-2.247303724
5.358118999999988,-2.57246089,10.13828278,-144.9680786,-0.174057081,-1.197874784,10.43219471,10.38593292,5.090164185,1.593948245
5.366451999999981,-2.489028454,10.21571732,-144.9947205,-1.101746082,-0.370900869,9.267138481,9.058833122,9.369124413,-3.190752506
5.374784999999974,-2.388146877,10.20859909,-145.0000305,-0.390208185,0.297493786,7.187058926,10.71863651,-0.748383999,-1.107137084
5.383117999999968,-2.301704645,10.22185421,-145.0172272,-1.329086781,-1.168825865,9.238140106,9.220433235,1.620305181,-2.420481205
5.391450999999961,-2.166278362,10.22551155,-145.0072327,-1.404849291,1.079989791,8.748125076,14.51994228,0.338645816,0.738893926
5.399783999999954,-2.058269024,10.223773,-145.0313721,-1.936437368,-0.140840024,10.08800507,11.9814949,-0.023091236,-3.325150728
5.408117000000004,-1.924519181,10.22040367,-145.015213,-2.091588497,-1.784519672,9.775501251,14.21636295,-0.389426082,1.38406527
5.4164499999999975,-1.826245308,10.24691582,-145.0328064,-1.735863447,-0.148905039,6.315630913,10.64958,3.195939541,-2.429574251
5.424782999999991,-1.722445965,10.26663971,-145.0234528,-1.796455145,-0.467446089,12.87037563,10.76038837,2.409377575,0.703110874
5.433115999999984,-1.609798431,10.28025246,-145.0317688,-0.568765402,-0.98900795,8.593083382,12.17859554,1.609444976,-1.3901999
5.441448999999977,-1.513222098,10.27940369,-145.016571,-0.619675159,-0.321080625,6.815300941,9.768296242,-0.07163021,1.325844049
5.449781999999971,-1.450102448,10.25800037,-145.0198364,-1.284909964,-0.825315714,10.42181015,6.124798775,-2.609821558,-0.909830391
5.458114999999964,-1.340732217,10.20158386,-145.0089264,-1.800003529,-0.118157685,11.80544186,11.39398098,-6.720342636,0.672168791
5.466447999999957,-1.257307887,10.24802017,-145.0037842,-2.751297951,-0.836306036,8.005861282,8.382822037,5.504243374,0.279733032
5.47478099999995,-1.174871206,10.16960239,-145.0027618,-0.313346326,0.224996835,7.42532444,8.372167587,-9.332893372,-0.53225106
5.4831140000000005,-1.095826745,10.22126961,-144.9979248,-2.221053839,-1.454226613,12.17602634,7.865363121,6.135377884,0.238852754
5.491446999999994,-1.052086115,10.11138439,-144.9780731,0.899201334,-1.859808326,7.716433525,3.330350876,-13.14899254,1.650133371
5.499779999999987,-1.040115714,10.08602905,-144.9745789,-2.96258831,-1.474003553,10.1321764,-0.157694042,-3.101614952,-0.097500585
5.50811299999998,-1.075551391,9.994887352,-144.9749298,0.936705589,-1.481334925,5.009345531,-5.749717236,-10.85668278,-0.639113605
5.5164459999999735,-1.138007522,9.921245575,-144.9635925,-2.700501442,-1.179848552,13.85769081,-9.249187469,-8.914562225,0.713663995
5.524778999999967,-1.232688308,9.826794624,-144.9724121,1.20524919,-1.383746386,7.960046768,-12.66830254,-11.22967911,-1.759557366
5.53311199999996,-1.332171798,9.670275688,-144.9567108,-3.674591541,-0.713021636,9.991723061,-13.77796555,-18.87281799,0.980641305
5.541444999999953,-1.493647218,9.602225304,-144.9603424,-0.772190988,-1.363423228,8.913099289,-20.78835297,-8.073289871,-1.128448367
5.549778000000003,-1.62085247,9.435386658,-144.9515686,-2.963133812,0.653014779,9.373278618,-16.95887375,-20.09446716,0.0377554
5.558110999999997,-1.759406805,9.429224968,-144.9724731,-1.440999389,-0.428487867,9.13927269,-17.7082634,-0.585912943,-2.937120914
5.56644399999999,-1.8784585,9.308202744,-144.9593048,-2.650467634,0.345998287,10.57415485,-16.0644722,-14.61703682,0.641278148
5.574776999999983,-2.002912521,9.329751968,-144.9824982,-1.904704094,0.096577771,7.877330303,-15.97727966,2.754683733,-3.096287966
5.5831099999999765,-2.111911774,9.277827263,-144.9835205,-2.613334417,-0.541292369,7.706221104,-14.58003426,-6.275386333,-0.799266756
5.59144299999997,-2.230104923,9.336520195,-144.9851532,-1.544814706,0.4908216,13.0498991,-15.64888191,7.122015476,-0.355359197
5.599775999999963,-2.30988884,9.337182045,-144.987381,-2.340547323,-0.399389058,10.53833675,-11.04943085,0.03747363,-0.714675605
5.608108999999956,-2.398731232,9.375174522,-144.9877777,-0.841476262,0.537849009,6.547966957,-12.15734959,4.630900383,-0.24657546
5.6164419999999495,-2.489093781,9.412902832,-144.9998474,-1.631251812,-0.717381775,10.2089138,-12.12733078,4.531927109,-1.690680504
5.624775,-2.577628136,9.432929993,-144.9882965,0.214568615,-0.18120268,7.984892368,-12.36111164,2.412912369,1.113143563
5.633107999999993,-2.680873156,9.47161293,-145.0116425,-2.67723012,-0.207792521,12.34038162,-13.44764137,4.712327957,-3.003615141
5.641440999999986,-2.784728527,9.471075058,-145.0039063,0.055178173,0.181194007,6.724240303,-14.11686611,-0.032927107,0.501219392
5.649773999999979,-2.907152653,9.528101921,-145.0363464,-2.854964733,-0.772684276,8.108562469,-15.5688324,6.972912312,-3.9524436
5.658106999999973,-3.004637241,9.511260986,-145.0335083,-0.186739117,1.510008216,10.9916544,-13.25289726,-1.960500836,-0.196064189
5.666439999999966,-3.084031105,9.572276115,-145.0784454,-3.203424692,0.202858344,11.92619514,-10.15411091,7.541163921,-5.376159191
5.674772999999959,-3.135255814,9.616537094,-145.0759125,-1.386707306,0.391860187,6.860886097,-7.692660332,5.364006042,0.129812956
5.6831059999999525,-3.208957911,9.656453133,-145.1177521,-1.046173096,0.914001346,7.953729153,-9.524129868,5.005637169,-5.134412289
5.691439000000003,-3.218787432,9.693584442,-145.1195221,-1.527280927,0.913500726,12.58106136,-2.635794401,4.53835535,-0.442780465
5.699771999999996,-3.208934546,9.715971947,-145.1493683,-1.463012576,0.602041245,8.398293495,0.266055077,2.827760458,-3.827804565
5.708104999999989,-3.178950787,9.800512314,-145.165741,-1.493628025,0.935933113,7.236728191,2.436656713,10.31508446,-1.847414017
5.716437999999982,-3.117179632,9.788995743,-145.1937561,-1.561444044,1.327550054,11.69717789,6.465033531,-1.249808311,-3.840509653
5.724770999999976,-2.989979982,9.869059563,-145.2069702,-1.108695149,0.0940575,12.97271729,14.03094482,9.75336647,-1.490223765
5.733103999999969,-2.840741873,9.878423691,-145.2215271,-1.768258095,1.109738827,5.478581429,16.69072342,1.158173323,-2.118822575
5.741436999999962,-2.703814745,9.951491356,-145.2242737,-0.123979591,-0.185232922,7.316681385,14.97890377,8.847543716,-0.32605651
5.749769999999955,-2.529853106,9.96650219,-145.2279663,-2.713794231,0.413537771,13.76242542,19.43421936,1.767229319,-0.808449507
5.758102999999949,-2.329337597,10.02781963,-145.22966,-0.53301698,-0.286018133,9.744647026,22.58541489,7.434894085,-0.301851124
5.766435999999999,-2.129553556,10.08880806,-145.2229919,-2.40285182,0.272684962,4.206943512,22.31526184,7.231337547,0.61440897
5.774768999999992,-1.947384238,10.14074326,-145.2283325,0.562768936,-1.403607726,9.158558846,20.47016335,6.326693058,-0.872664511
5.783101999999985,-1.73762095,10.18055534,-145.2198944,-1.910647869,0.212277338,13.33910656,23.4743824,4.691018581,0.693608165
5.791434999999979,-1.568581939,10.21389389,-145.2267151,-0.425445288,-1.361452103,8.851593018,18.92562103,4.099867344,-1.143330097
5.799767999999972,-1.415815353,10.23230267,-145.2207489,-1.714727402,-0.923409939,5.169263363,16.68583488,2.137815475,0.305296093
5.808100999999965,-1.293543816,10.2510767,-145.2245026,0.417305619,-0.344461024,11.02479744,13.25828743,2.341089964,-0.890209973
5.816433999999958,-1.147499323,10.19815731,-145.1987457,-0.951992571,-0.580628335,12.12377739,15.45668221,-6.466071606,2.450974941
5.824766999999952,-1.044963598,10.20220566,-145.189682,-1.514176965,-1.246164203,6.269307137,10.61799812,0.54594183,0.573195398
5.833100000000002,-0.972442448,10.11143684,-145.1705475,-1.153440118,-0.038386319,5.901695251,6.779397011,-10.98234749,1.61036706
5.841432999999995,-0.889194727,10.15062523,-145.1809845,-2.295544863,-0.447532445,15.04157543,8.718393326,4.802105904,-1.672212601
5.849765999999988,-0.795226693,10.05746841,-145.1623077,0.088735074,-0.756494582,10.09181595,9.365333557,-11.26169586,1.586059093
5.8580989999999815,-0.725003719,10.05091763,-145.1711426,-2.453235149,-0.558750391,7.221366405,7.113047123,-0.692800939,-1.539402723
5.866431999999975,-0.689616382,9.95906353,-145.1728668,-0.497399658,-0.830472589,7.978432655,2.764775038,-11.07056236,-0.794592023
5.874764999999968,-0.608324051,9.903187752,-145.1769104,-2.122165442,0.229977027,13.86158752,8.340085983,-6.619795322,-1.025030732
5.883097999999961,-0.534060478,9.86717701,-145.1753693,-0.347722888,-0.960201085,9.074656487,7.361365318,-4.374220371,-0.31702739
5.891430999999955,-0.474750876,9.696862221,-145.1667633,-0.083912387,-0.37264812,5.107783318,5.436956406,-20.36776733,0.399377316
5.899763999999948,-0.427855968,9.650839806,-145.1631775,-2.641086102,-1.009672761,12.30098629,4.03575325,-5.577332973,-0.074550219
5.908096999999998,-0.390993506,9.512024879,-145.1504059,-1.015033007,-1.129088044,9.67245388,2.661088943,-16.58899879,0.970677257
5.916429999999991,-0.342648298,9.455273628,-145.1401062,-2.3256495,-0.058430769,8.35545063,4.07988739,-6.870827675,0.717634141
5.9247629999999845,-0.333860636,9.328226089,-145.1360931,-0.221801117,-0.899353504,9.011707306,-0.529164612,-15.16875267,-0.034579225
5.933095999999978,-0.278232396,9.185674667,-145.1288452,-2.24254775,-1.017474055,13.42109585,5.015998363,-17.16246414,0.310303748
5.941428999999971,-0.251789123,9.159633636,-145.1294861,-1.966797829,-0.08393947,7.136619568,1.682880878,-3.043291807,-0.518163264
5.949761999999964,-0.246253699,8.997846603,-145.1439819,-0.868100882,-0.748200774,7.769850731,-0.581481755,-19.46028137,-2.25703764
5.9580949999999575,-0.228241473,8.989022255,-145.1385498,-2.638447762,-1.12134409,14.49324036,0.562258005,-0.981652617,0.17742978
5.966427999999951,-0.246909395,8.853257179,-145.1307831,-0.660536528,-1.660713434,7.37902832,-3.903495073,-16.3468399,0.398301423
5.974761000000001,-0.278582871,8.851669312,-145.1291656,-3.436836958,-0.930965483,10.70966625,-5.327594757,-0.112792291,-0.257717609
5.983093999999994,-0.348149806,8.808947563,-145.1296844,-0.751780093,-1.228028059,4.377675533,-9.857192039,-5.177649498,-0.54738909
5.991426999999987,-0.452908993,8.792325974,-145.1281433,-2.986269712,-1.44261992,13.62518311,-14.09102154,-1.917443514,-0.309970707
5.999759999999981,-0.599479973,8.763098717,-145.141983,-0.170156524,-1.319595218,8.949023247,-18.85429764,-3.544741869,-2.129734516
6.008092999999974,-0.728377163,8.736268997,-145.149231,-2.766248703,-0.471981287,10.3531723,-16.8307724,-3.131200075,-1.344735026
6.016425999999967,-0.901526809,8.785494804,-145.1604614,-0.107844003,-1.077406049,4.794761658,-22.09217262,5.873116016,-1.706408262
6.0247589999999605,-1.081403494,8.675237656,-145.1767883,-0.978293717,-0.686970472,9.78514576,-22.77574158,-13.11786461,-2.650652409
6.033091999999954,-1.264920115,8.726221085,-145.1965637,-2.374873161,-1.230394721,12.16150761,-23.18318558,6.113249779,-2.674985647
6.041425000000004,-1.420955658,8.70565033,-145.2067566,-1.950696111,0.487179488,7.032640934,-20.02976227,-2.361697435,-1.723492742
6.049757999999997,-1.603662133,8.75152874,-145.2407684,-1.380910158,0.028686211,7.219520092,-22.8261013,5.558830261,-4.341730595
6.05809099999999,-1.765721798,8.721220016,-145.2640839,-0.699330568,-1.706694841,8.064241409,-20.51633072,-3.478298903,-3.31434226
6.066423999999984,-1.924822092,8.803023338,-145.2982941,-2.948967218,0.550615132,11.20195389,-19.98547745,9.890172958,-4.195754528
6.074756999999977,-2.056436062,8.839452744,-145.3373566,-0.24896054,-0.126424536,10.14344311,-16.56702423,4.604340076,-4.928346634
6.08308999999997,-2.169727325,8.864908218,-145.3744659,-0.943788648,-0.126881182,6.850682259,-14.42964077,3.163947821,-4.741977215
6.091422999999963,-2.27879262,8.909732819,-145.4131622,-1.468101263,-0.183922678,9.738881111,-13.85859776,5.630855083,-4.855576515
6.099755999999957,-2.326152325,8.91371727,-145.44133,-0.836093545,1.270960927,8.881183624,-6.678797245,0.559671104,-3.775013924
6.10808899999995,-2.336436272,8.971880913,-145.4710846,-0.549813032,0.054548271,10.52307606,-2.167566061,7.193962574,-3.722452641
6.116422,-2.328469515,8.919996262,-145.4758911,-1.590581059,0.178207591,8.793743134,-0.473491937,-6.249168396,-1.277804613
6.124754999999993,-2.29888916,8.97045517,-145.4928284,-0.817168415,-0.115904458,9.410646439,2.37746191,6.20891571,-2.249813318
6.1330879999999866,-2.220196962,8.924201012,-145.4834747,-1.031432509,0.790001571,10.74768066,7.750177383,-5.640806198,0.43298313
6.14142099999998,-2.134344578,8.912093163,-145.4740448,-0.668411136,-1.086143851,10.2547102,8.642486572,-1.415237784,0.538628995
6.149753999999973,-2.056195974,8.863558769,-145.4578857,-1.837008953,-0.468341738,5.324733734,7.559323788,-5.942617893,1.242879629
6.158086999999966,-1.97802639,8.887956619,-145.4647827,-1.921084881,0.141106844,13.21540356,8.023557663,3.03446722,-1.228625298
6.16641999999996,-1.862945676,8.829808235,-145.4496613,0.172296077,-0.802398622,10.79768562,12.01241302,-7.085577965,1.101156235
6.174752999999953,-1.785359859,8.815423965,-145.4421692,-3.049502373,-1.940543771,11.46667862,7.686500549,-1.674466848,0.326530337
6.183086000000003,-1.736688137,8.770353317,-145.4422607,0.440797389,-0.511415601,3.109605551,4.322761059,-5.457612991,-0.632069767
6.191418999999996,-1.695940495,8.776911736,-145.4326477,-2.872607946,-0.812115312,14.70048046,3.223013878,0.830720901,0.689765751
6.1997519999999895,-1.675804377,8.68967247,-145.4105225,1.46490109,-2.343512297,10.41265488,0.495251268,-10.59244823,1.859568119
6.208084999999983,-1.655772567,8.660676003,-145.3959045,-3.052819729,-0.001359663,7.716943741,0.645529866,-3.45032692,1.194340587
6.216417999999976,-1.699716926,8.665967941,-145.3930359,0.080561928,-1.882303238,5.363948345,-6.845109463,0.572631836,-0.096271098
6.224750999999969,-1.744717956,8.508895874,-145.3607025,-1.577328086,-1.339417815,13.31237888,-7.466487885,-18.87729836,2.793540478
6.2330839999999625,-1.810227275,8.556025505,-145.3518982,-1.889432788,-0.553273439,12.20449638,-9.538319588,5.569892406,0.766864657
6.241416999999956,-1.899216771,8.447075844,-145.3098602,-0.425064236,-1.672507286,5.948676109,-12.91238308,-13.15210724,4.096152782
6.249749999999949,-2.018003941,8.405704498,-145.2569885,-1.836169362,-1.349743605,12.10163307,-16.70316124,-5.227648735,5.645327568
6.258082999999999,-2.136739492,8.32469368,-145.2053223,-1.604892135,0.641563833,5.330739498,-16.63977051,-9.859191895,5.336344242
6.266415999999992,-2.256901503,8.355835915,-145.151886,-1.854174733,-1.137373328,10.44431496,-16.86983109,3.438506842,6.025391102
6.274748999999986,-2.377367973,8.205963135,-145.0693359,0.155750126,-0.782768905,8.527029037,-17.36880493,-18.28886604,8.604465485
6.283081999999979,-2.495536327,8.252736092,-145.0068512,-2.652864933,-0.21193631,13.01945877,-16.77360153,5.24052,7.199189186
6.291414999999972,-2.608255625,8.17710495,-144.9235535,-0.553930402,-0.720207751,4.50083828,-16.44707108,-9.432970047,9.05921936
6.2997479999999655,-2.755655766,8.118719101,-144.8248444,-0.939988434,-0.70287019,11.26428318,-20.88671684,-7.597941875,10.92844677
6.308080999999959,-2.842324257,8.103170395,-144.7308807,-2.750719309,0.792022407,9.50809288,-13.4812479,-2.333239555,10.63966942
6.316413999999952,-2.953841925,8.049801826,-144.6341095,0.62206775,-0.65335238,4.661369324,-16.53370285,-7.02956152,10.70147991
6.324747000000002,-3.084107637,7.979852676,-144.5150452,-2.343035936,-1.080781102,12.77248859,-19.11252022,-9.052856445,13.24996853
6.333079999999995,-3.16749692,7.958562851,-144.4036865,-0.889937222,0.440098077,9.596866608,-13.37902355,-3.324869633,12.61924171
6.341412999999989,-3.272215366,7.896408081,-144.2767487,-0.79308784,-0.920989633,7.807616711,-16.16298676,-8.22233963,14.25717068
6.349745999999982,-3.372376919,7.78869009,-144.1559601,-1.480095625,-0.059478719,9.144552231,-15.51681709,-13.78693199,13.13201427
6.358078999999975,-3.464323997,7.782906532,-144.0287628,-1.60579741,-0.048979044,7.904087067,-14.59262562,-1.521268249,14.64330387
6.366411999999968,-3.534836769,7.709175587,-143.8942108,-0.852326632,-0.487362534,11.01850605,-12.15771198,-9.859728813,14.97439384
6.374744999999962,-3.618683815,7.626000881,-143.7487946,-2.285517454,-0.112412333,10.2206583,-13.88336945,-10.9697485,16.23758888
6.383077999999955,-3.693096876,7.637559414,-143.609848,-0.857653439,0.074335307,7.270412445,-12.66290092,0.278913528,16.12537003
6.391410999999948,-3.761750221,7.555001259,-143.4602356,-1.200001717,-0.429844052,9.145273209,-12.107687,-10.9744873,16.73309517
6.399743999999998,-3.83343482,7.508928299,-143.2995148,-1.051730752,-0.36978665,13.14181614,-12.65037727,-6.833509445,18.25724411
6.408076999999992,-3.865012407,7.495900631,-143.1531219,-2.839791059,0.948258638,5.902471066,-7.58295536,-2.662382841,16.92855644
6.416409999999985,-3.907561064,7.474494457,-142.9871216,0.126976967,0.27947697,7.364762783,-9.221014023,-3.952982664,19.07828522
6.424742999999978,-3.916438103,7.442572117,-142.8223572,-2.014451265,-0.632096291,14.69514561,-5.130558491,-5.093289852,18.94920158
6.433075999999971,-3.90430522,7.413291931,-142.6484985,-1.437776327,0.852951348,7.597287655,-2.761587143,-4.968484402,19.94414711
6.441408999999965,-3.910975218,7.4122715,-142.4866943,-0.845872939,-0.732413948,8.725002289,-4.806807995,-1.369171262,18.86571121
6.449741999999958,-3.860543251,7.345210075,-142.2987823,0.034079928,-0.147928804,10.45266342,1.63672483,-9.596902847,21.31095123
6.458074999999951,-3.844679832,7.311956882,-142.1181946,-2.574721336,0.20700331,8.478245735,-2.360723972,-5.358922482,20.82233047
6.466408000000001,-3.821656466,7.304100037,-141.9502563,-1.339707136,-0.936968386,12.14090824,-1.318787932,-2.327963829,19.42684364
6.4747409999999945,-3.742120743,7.291134834,-141.7571716,-1.928112864,0.340362847,8.709886551,5.100270271,-3.004679441,22.48801804
6.483073999999988,-3.709228992,7.287152767,-141.5772552,-0.816491425,-0.314812124,9.012739182,-0.311264247,-1.919300675,20.88419914
6.491406999999981,-3.653824329,7.289081573,-141.4003296,-2.787486076,-0.395817429,11.08033085,2.450796604,-1.057958007,20.70952606
6.499739999999974,-3.580533504,7.290689945,-141.2146301,0.986470401,-0.288934588,7.342648029,4.447914124,-1.253471494,21.61834717
6.508072999999968,-3.53770709,7.29913044,-141.0222931,-1.894444227,-0.374759942,8.91629982,0.711435616,-0.345267177,22.55049896
6.516405999999961,-3.504530907,7.266267776,-140.843277,-1.475687146,-0.708992004,10.16111851,-0.261764795,-5.297039509,20.57161903
6.524738999999954,-3.464880466,7.316455364,-140.6535492,-1.630548239,-0.728105128,11.77261066,0.367205828,4.701290131,22.5810585
6.533072000000004,-3.410888433,7.302557468,-140.4574127,-0.668006063,-0.421042621,6.269691944,1.96655941,-3.115653038,22.74475861
6.5414049999999975,-3.402167559,7.288509369,-140.2715759,-1.962095737,-0.217015386,8.15518856,-3.287831783,-2.936301708,21.66388893
6.549737999999991,-3.410362482,7.344271183,-140.074707,-1.276507854,-1.500463605,12.52133369,-5.511532307,5.236755848,23.33158112
6.558070999999984,-3.395028591,7.33561039,-139.8738403,-0.878212094,-0.449985445,9.546019554,-2.741889715,-2.398197889,23.49451637
6.566403999999977,-3.433575153,7.341814995,-139.6771393,-0.989721656,0.324001372,7.529459476,-9.159514427,-0.701151609,22.95861435
6.5747369999999705,-3.493174553,7.416985989,-139.4945679,-2.680835962,-1.632114768,9.393600464,-11.46848679,7.750745296,21.92167473
6.583069999999964,-3.536364555,7.403683662,-139.3128815,0.631935954,-0.223227471,8.458785057,-9.51352787,-2.96993351,21.02758026
6.591402999999957,-3.578084469,7.450594902,-139.1546631,-2.024576902,-0.383556157,12.24419022,-8.963308334,4.510028839,18.82867432
6.59973599999995,-3.628844023,7.49162817,-139.009079,-1.762295365,-0.006880476,6.278958321,-9.881527901,3.774591923,17.14210129
6.608069,-3.723368406,7.538730145,-138.8830872,-0.433855504,0.066068538,6.659882069,-14.80415154,4.744245052,14.87562752
6.616401999999994,-3.817254066,7.598128796,-138.7451477,-0.988491535,-1.367628336,13.86807632,-14.96723747,5.982719898,16.38845634
6.624734999999987,-3.869223595,7.610535622,-138.6289673,-1.095363021,0.17596063,10.48592854,-9.581635475,0.615689576,13.57918644
6.63306799999998,-3.943771839,7.617592335,-138.5154114,0.118381307,0.215180427,4.166080952,-12.2713356,-0.125343293,13.0776329
6.6414009999999735,-4.038788795,7.666067123,-138.4185486,-1.540350318,0.571162701,9.561570168,-14.45026302,5.057583332,11.58583355
6.649733999999967,-4.129030704,7.671038628,-138.3607788,-1.417079687,-0.200913206,11.14132977,-13.27279854,0.054583937,6.439854622
6.65806699999996,-4.210227013,7.670742989,-138.2939911,0.647410333,-1.469453692,8.243496895,-12.31725979,-0.557071269,7.6088624
6.666399999999953,-4.28649807,7.626995087,-138.2547302,-1.943281651,0.667860925,9.426628113,-11.29868317,-5.631482124,3.811398745
6.674733000000003,-4.385978699,7.608210087,-138.2200623,-0.051463641,0.262381166,6.804114342,-13.99350357,-2.504854679,3.633942842
6.683065999999997,-4.495101452,7.570464611,-138.1864319,-1.040236592,-0.229432568,10.59819984,-15.14691639,-4.875580788,3.182031393
6.69139899999999,-4.580349445,7.490071774,-138.1419983,-0.911637008,0.322612613,12.22258568,-12.43347263,-9.980268478,4.202220917
6.699731999999983,-4.664268017,7.378011227,-138.1089478,0.219634965,-0.30131948,5.313451767,-12.10345936,-13.77215099,2.383021116
6.708064999999976,-4.752830029,7.301637173,-138.0630341,-1.300545454,0.112945572,9.727249146,-12.83782005,-9.527895927,4.393559456
6.71639799999997,-4.841705799,7.16285181,-138.0325012,-1.707340479,0.724485755,9.276212692,-12.64632797,-16.95092773,1.774631619
6.724730999999963,-4.924019814,7.016854763,-137.9878235,-0.829366982,0.324103683,9.409953117,-12.04483128,-17.85434532,3.506743908
6.733063999999956,-4.965139389,6.943915844,-137.9756165,-1.901825547,0.317549825,12.02441311,-6.632780552,-8.897924423,0.240504861
6.7413969999999495,-4.968007565,6.839266777,-137.9451752,-2.441533327,1.976175189,7.383913517,-2.290207148,-12.76922035,2.21939683
6.74973,-4.959729671,6.744344234,-137.9348602,-1.438286424,1.412132144,7.956712723,-0.671490014,-11.50649166,-0.21778506
6.758062999999993,-4.93315649,6.702757359,-137.9104156,-1.254485011,0.792282641,11.41618347,1.33373332,-5.170732498,2.173496008
6.766395999999986,-4.835773468,6.672588825,-137.9176025,-3.09469223,0.966703773,10.99457073,10.26813126,-3.586159229,-1.617449284
6.774728999999979,-4.696230412,6.652197838,-137.8958588,-1.372289538,1.170839071,7.692087173,14.92915821,-2.601445913,2.071269751
6.783061999999973,-4.572084904,6.644751549,-137.8988647,-1.770390153,0.611178577,9.981372833,13.42196274,-0.911854088,-0.886598468
6.791394999999966,-4.40992403,6.691106796,-137.8974152,-1.623397708,0.70729816,11.22101879,17.92410278,5.582957268,0.295511514
6.799727999999959,-4.211588383,6.740852356,-137.9064484,-0.931323528,1.004502892,8.91440773,22.40880203,5.983615398,-1.082778215
6.808060999999952,-3.983446598,6.737238407,-137.9074707,-0.99025929,0.891340613,9.621182442,25.87489891,-0.372008562,-0.466678768
6.8163940000000025,-3.72513485,6.782288074,-137.9270477,-2.21656251,0.818004429,9.531302452,29.7565937,5.500738144,-2.420124531
6.824726999999996,-3.472693682,6.820166588,-137.9264984,0.8711586,1.291527271,6.983448029,28.76651001,4.585246086,0.03779383
6.833059999999989,-3.208873034,6.820759773,-137.9429474,-3.322479725,-1.295761228,14.0447464,30.37475395,0.133668005,-2.410634518
6.841392999999982,-2.888255596,6.858666897,-137.9439087,-1.122864246,0.026349856,10.89910984,36.96863556,4.60306263,-0.189891368
6.849725999999976,-2.579025269,6.871676445,-137.9423218,-1.168234587,2.270010233,5.181005001,35.56637192,1.499766111,-0.190839022
6.858058999999969,-2.288491011,6.895482063,-137.945755,-1.039747715,-0.328832865,9.822132111,33.39170074,2.926454782,-0.606942713
6.866391999999962,-1.961063862,6.905546188,-137.9452972,-1.218583465,-0.112048529,11.60995674,37.76718903,1.153769016,-0.358253956
6.874724999999955,-1.587248325,6.854642391,-137.9346619,-1.046572208,0.624118865,9.373480797,43.18582535,-6.087656021,0.740483165
6.883057999999949,-1.237283468,6.867444992,-137.940094,-2.526571512,0.740330637,7.30471611,40.55578995,1.50081706,-1.063952804
6.891390999999999,-0.924856305,6.884166241,-137.9207001,-0.169681177,-0.918191493,9.079409599,35.68787003,2.018813848,2.030493975
6.899723999999992,-0.616807103,6.875020027,-137.9155273,-2.977134228,-0.601906657,12.11299419,35.37470627,-1.155164719,0.145745143
6.908056999999985,-0.313257128,6.829030037,-137.9064331,-0.212355837,-2.514518023,7.861780643,34.77268982,-5.469887257,0.714432955
6.9163899999999785,-0.06359458,6.790604115,-137.89534,-0.863104284,-0.848856032,7.512088776,28.2838459,-4.667416096,0.85134089
6.924722999999972,0.143918782,6.790868759,-137.9119873,-1.832214236,-0.702862799,9.535968781,23.61697769,0.088266701,-2.301350594
6.933055999999965,0.283111542,6.795088291,-137.9000702,-1.834396601,-0.873006523,6.301926136,15.01593876,0.461799115,0.960815728
6.941388999999958,0.348888844,6.770855427,-137.9239349,-0.191622898,-1.718037724,9.346317291,6.710930347,-2.86565733,-3.152280331
6.9497219999999515,0.393369913,6.786007881,-137.891861,-2.816159725,-2.376663685,14.27715302,3.364979982,1.792471051,3.354529619
6.958055000000002,0.447991252,6.768318176,-137.9194336,-1.609632015,-0.416930974,8.847002983,5.427002907,-2.090198278,-3.593318701
6.966387999999995,0.476259589,6.737224102,-137.8673401,-0.483099669,-0.092384048,6.094574451,1.139346719,-3.730956316,5.779774666
6.974720999999988,0.425328493,6.673579216,-137.8811951,0.224759668,0.359890133,7.677192688,-7.435800552,-7.593020439,-1.910143495
6.983053999999981,0.366616905,6.620184422,-137.8455963,0.410260916,-1.840771794,10.47025394,-9.058666229,-6.428674221,3.830993414
6.991386999999975,0.28826201,6.493618011,-137.8371582,-1.373840451,-0.290831655,9.49050045,-11.03455162,-15.12468529,0.775727272
6.999719999999968,0.18983297,6.390625,-137.829071,-0.895696282,0.207108557,8.044521332,-13.44032955,-12.40571785,0.561963558
7.008052999999961,0.039332617,6.26544857,-137.8158264,-2.014130831,-0.496621162,11.18599892,-19.75067329,-14.96073246,1.285041213
7.0163859999999545,-0.113317832,6.143337727,-137.8155823,-0.768505514,-1.262108803,12.55646038,-19.8404007,-14.70417976,-0.436966211
7.024718999999948,-0.22029601,5.996536732,-137.8132935,-1.508043528,-0.573672235,13.12751865,-14.37910938,-17.56101227,-0.107848778
7.033051999999998,-0.312081844,5.852648258,-137.8031464,-1.231540561,1.115480661,6.837102413,-12.65877724,-17.32331085,0.675012171
7.041384999999991,-0.423748434,5.730049133,-137.812439,-2.282399893,0.054234296,5.392311096,-14.80043602,-14.64810753,-1.530976295
7.049717999999984,-0.551722109,5.604369164,-137.7801971,-0.729509413,0.897618771,6.651880264,-17.25919914,-15.16633797,3.264663696
7.058050999999978,-0.65610218,5.523924828,-137.8052216,-3.888165236,0.74231863,11.13115501,-13.74771404,-9.568365097,-3.40650177
7.066383999999971,-0.713132381,5.459124088,-137.7560883,-1.25111711,0.389638931,10.78110409,-8.926241875,-7.896242619,5.319975376
7.074716999999964,-0.721193254,5.452383995,-137.7938232,-5.796045303,0.511221647,11.60325146,-2.056195498,-0.802839756,-4.972427368
7.083049999999957,-0.699913383,5.508859634,-137.7368469,-1.051072598,-0.043402851,9.514821053,0.387108028,6.743511677,6.567362785
7.091382999999951,-0.666430235,5.628262043,-137.7883606,-6.293894291,1.386401892,6.958313465,3.104112625,14.44735336,-6.314563274
7.099716000000001,-0.639848173,5.835131168,-137.7276001,0.347778827,-0.703575313,6.959637642,0.942706883,24.6914444,7.083927631
7.108048999999994,-0.618159413,6.089688778,-137.7846527,-6.926457882,1.582656503,7.176801205,1.798402548,30.6634407,-6.800444603
7.116381999999987,-0.581542313,6.414927483,-137.7200317,2.509959221,-1.432922125,7.693266392,2.030673981,38.89760208,7.661817551
7.124714999999981,-0.554421663,6.785890579,-137.7727966,-7.348482609,1.937354445,9.943153381,2.465784311,44.61833191,-6.172529221
7.133047999999974,-0.523382068,7.21304512,-137.7250061,2.495935202,-2.744810104,10.69264507,1.506581306,51.15442657,5.718620777
7.141380999999967,-0.516798615,7.655474186,-137.7694244,-7.831857204,1.257456899,11.40729141,-0.039381985,53.17820358,-5.126074314
7.14971399999996,-0.496025741,8.138192177,-137.754364,3.131553888,-2.485101938,11.09116077,0.726191342,57.86080933,1.845408678
7.158046999999954,-0.459690303,8.574185371,-137.7690582,-5.514849186,3.38022089,6.442544937,3.095282793,52.37124634,-1.628646612
7.166380000000004,-0.418243051,9.04001236,-137.7873688,3.903697729,-0.521821856,4.951148033,3.791686058,55.86629105,-2.199410915
7.174712999999997,-0.416243166,9.449966431,-137.7541199,-2.992199898,1.499458313,9.68543148,-1.9278723,49.20492554,3.97707963
7.18304599999999,-0.404995024,9.850084305,-137.79776,0.982568264,-2.187508106,15.91687107,0.709182739,48.00125122,-5.274634361
7.1913789999999835,-0.332254887,10.16444206,-137.7555389,-3.093561172,1.296403527,9.413608551,6.322651386,37.73153305,4.909564018
7.199711999999977,-0.266855389,10.41251373,-137.796814,2.956742525,-0.099948794,5.68553257,7.213589191,29.74422073,-5.173503399
7.20804499999997,-0.199964076,10.67886448,-137.7515259,-2.190999269,1.046778321,9.863786697,5.502480507,31.98347092,5.14979744
7.216377999999963,-0.184010029,10.86408234,-137.8163605,0.273725539,-1.757483721,12.05673504,1.850066066,22.20245743,-8.024162292
7.224710999999957,-0.145703226,10.93628025,-137.7819214,-0.698016405,-0.130644083,10.03727913,2.287786722,8.694879532,3.750205517
7.23304399999995,-0.110208228,11.04087162,-137.8630524,0.612968147,-0.663428068,9.535830498,4.597449303,12.52241993,-9.98367691
7.241377,-0.068452612,11.0987711,-137.8291473,-1.665817142,-0.131828085,8.759630203,2.700252533,6.987409592,3.683403254
7.249709999999993,-0.095710985,11.06360245,-137.9047699,-0.765080392,-0.438870281,8.789000511,-3.047056913,-4.257380962,-9.365065575
7.2580429999999865,-0.089147046,11.07299137,-137.8771515,-1.68070972,-1.103567123,12.58708954,-1.378570914,1.167138219,2.936621189
7.26637599999998,-0.060720142,11.07830143,-137.9354706,-1.161829233,1.48520112,6.477538586,3.237281084,0.595556617,-7.323917866
7.274708999999973,-0.050906714,10.9854126,-137.8934479,0.036062233,-0.688073516,5.769704819,-1.316174746,-11.10509014,4.619809151
7.283041999999966,-0.100276299,10.92916679,-137.9279785,-3.335255861,-0.060758825,12.84120941,-6.65592432,-6.794548512,-4.533912659
7.2913749999999595,-0.096962869,10.87435246,-137.9066467,0.469591439,-0.849696875,13.64532185,-1.614836574,-6.534127235,2.174212933
7.299707999999953,-0.050089855,10.80085564,-137.9285126,-3.257184744,1.526439071,9.741641045,4.600419521,-8.867354393,-3.045033216
7.308041000000003,-0.033198562,10.68760109,-137.8995056,1.114386082,-0.037603691,3.102979898,-0.148139969,-13.54597664,3.074272633
7.316373999999996,-0.067721456,10.5672121,-137.907135,-2.084450722,-0.127136871,9.492053986,-5.492076874,-14.49706841,-1.368184566
7.324706999999989,-0.062789835,10.49862289,-137.8986053,-1.814204931,-1.413174868,15.4324789,-1.12228775,-8.183542252,0.665419459
7.333039999999983,-0.017276248,10.39995384,-137.9198456,-2.010903597,1.101552844,10.09442043,4.404803753,-11.88835144,-2.967268944
7.341372999999976,0.008704436,10.25949192,-137.9356842,-1.028963804,-1.412011623,5.390988827,1.930775881,-16.80674362,-2.191720963
7.349705999999969,-0.026206492,10.16623306,-137.9427643,-2.892010212,1.720953107,5.689293385,-5.558917522,-11.24118042,-1.292097569
7.3580389999999625,-0.077233978,10.08832169,-137.9837646,0.121649556,-1.299938202,11.16102886,-6.786607742,-9.297878265,-5.16773653
7.366371999999956,-0.101414159,10.04800415,-137.9583588,-3.654215097,-1.444296122,13.91512775,-4.95288372,-4.892920494,2.538729191
7.374704999999949,-0.127335399,9.969914436,-138.0279388,-1.775929332,-1.526158094,10.4636898,-3.18475914,-9.306740761,-8.562980652
7.383037999999999,-0.136818007,9.91635704,-137.9896088,-3.563639641,1.139897943,9.164302826,-3.451582193,-6.487099648,4.061597824
7.391370999999992,-0.174994901,9.892466545,-138.0655823,-1.590978146,1.48880291,6.110600948,-4.537191391,-2.797241449,-9.308586121
7.399703999999986,-0.212069526,9.856966972,-138.0246429,0.182293639,-1.084812284,6.856799126,-6.811812401,-4.32723093,4.370711327
7.408036999999979,-0.287986487,9.82065773,-138.0691071,-3.790934324,-1.13384068,11.92625809,-9.723895073,-4.286991119,-5.593445778
7.416369999999972,-0.318327665,9.837960243,-138.048584,-0.919555664,-0.1516563,12.79279804,-5.58058691,2.01312542,1.981338024
7.424702999999965,-0.364165574,9.841780663,-138.0656281,-3.30402422,0.484082252,7.739584446,-6.674621582,0.515153468,-2.332675695
7.433035999999959,-0.444260597,9.822475433,-138.0590668,0.380928725,-1.011229038,4.462042809,-11.2659235,-2.37189126,0.302965224
7.441368999999952,-0.542397261,9.793539047,-138.0622559,-3.816103458,0.350779235,10.50453377,-13.23468494,-3.424764633,-0.727764547
7.449702000000002,-0.610811591,9.84701252,-138.0640411,-1.243016958,-0.541035414,12.71448994,-9.691749573,6.368569851,-0.603151262
7.458034999999995,-0.671686649,9.84632206,-138.0727997,-2.076114893,-0.510669947,10.21965313,-8.628679276,-0.02657477,-1.485433578
7.466367999999989,-0.750581563,9.854586601,-138.067337,-0.890772343,0.27177611,6.388673306,-11.09779167,0.93358773,0.202121958
7.474700999999982,-0.803179264,9.905511856,-138.0895081,-1.79497385,1.62808454,6.007704735,-7.378936768,6.188374043,-2.864017487
7.483033999999975,-0.878006697,9.937837601,-138.0554199,-0.628352642,-0.280728936,8.640059471,-11.20419312,3.769057989,3.632995129
7.491366999999968,-0.968373239,9.961416245,-138.0895996,-3.919623852,0.213922724,10.02000237,-11.66248417,2.936519146,-4.310275078
7.499699999999962,-1.021626949,10.02121162,-138.0509796,-0.412682891,-0.928784311,10.73141003,-8.713694572,7.046041965,4.231831074
7.508032999999955,-1.057781935,10.06612778,-138.080307,-3.093741179,0.804027379,8.175485611,-5.250470161,5.49258852,-3.685337543
7.516365999999948,-1.095004082,10.11256409,-138.0616608,0.050720297,-1.984326601,9.628305435,-6.377061367,5.480191708,1.853369236
7.524698999999998,-1.153582692,10.20850563,-138.0785522,-4.63851881,1.606649518,8.464504242,-8.197209358,11.59167194,-2.087778091
7.5330319999999915,-1.202022314,10.31429768,-138.094696,0.881544471,0.447231323,5.035953045,-6.988011837,12.680686,-2.098125935
7.541364999999985,-1.296473503,10.36888409,-138.0675964,-2.78613925,-0.831528902,7.825485706,-13.44682312,6.518849373,3.024734259
7.549697999999978,-1.427811742,10.45691586,-138.1098938,-2.094587564,-0.552695692,12.57134151,-16.36346626,10.63014221,-5.190841675
7.558030999999971,-1.499785066,10.57214642,-138.0761566,-1.489462972,-0.688310266,10.92694759,-10.90371323,13.759408,4.017260551
7.566363999999965,-1.59056592,10.62338352,-138.0968018,-0.792309642,-0.223150104,5.455307961,-11.95776558,6.162709236,-2.72237134
7.574696999999958,-1.707914829,10.67395401,-138.0724945,-1.491187334,0.590457141,7.524903297,-16.15063858,6.021037579,2.728736401
7.583029999999951,-1.847720981,10.71725655,-138.0739594,-1.77455759,-0.027163461,12.48138905,-18.26266098,5.149846077,-0.463784248
7.591363000000001,-1.968053341,10.7347908,-138.0450439,0.859702826,0.679190636,8.361858368,-16.61725044,2.026829243,3.168122768
7.5996959999999945,-2.076989651,10.70595455,-138.0485535,-1.31961,-0.370418668,10.13934231,-14.51286316,-3.494359016,-0.9904899
7.608028999999988,-2.179111481,10.65433598,-138.0082703,-1.181744814,0.26379624,11.32269001,-14.68119812,-6.328318596,4.199147224
7.616361999999981,-2.279679537,10.60228634,-138.0271606,-2.506491423,1.491440177,5.160364151,-13.16839695,-6.203807831,-2.923135757
7.624694999999974,-2.385093451,10.52682114,-137.9967957,1.643060803,0.604199111,7.881072998,-14.85155869,-9.15794754,2.90388608
7.6330279999999675,-2.471134663,10.45904541,-137.9990845,-4.401495457,-0.006951192,17.16816711,-11.7942934,-8.164037704,-1.070688009
7.641360999999961,-2.492852211,10.37063122,-137.9897461,0.568428218,-0.343515605,8.925598145,-4.340421677,-10.60983944,0.322611302
7.649693999999954,-2.510390043,10.24985027,-137.9921417,-3.243187904,3.124483585,4.813611031,-3.571432352,-14.51790714,-1.371348143
7.658027000000004,-2.545162201,10.14664173,-137.9891052,-0.647327304,-0.634693027,10.94570255,-5.770209312,-12.35189056,-0.507430911
7.666359999999997,-2.53502655,10.07280254,-137.9797516,-2.134071827,1.125258446,13.08816338,-0.499925882,-8.950779915,0.25652656
7.674692999999991,-2.478101492,9.982588768,-137.9793701,-1.728251576,0.814817905,10.88613605,5.288520336,-10.77989292,-0.744541883
7.683025999999984,-2.393601418,9.908126831,-137.9682312,-1.632681966,-0.450494856,7.821189404,8.390622139,-9.033705711,0.48189345
