,time,Euler_X,Euler_Y,Euler_Z,Acc_X,Acc_Y,Acc_Z,Gyr_X,Gyr_Y,Gyr_Z
0,0.0,-2.37148356425,3.11108493825,-149.07424545,-0.7350523545000001,0.30790907525,6.7335134745000005,8.060552270250001,1.79159408825,2.4250441492499997
1,0.0020832499999983,-2.2807546555,3.125680387,-149.06235885,-0.06066784274999998,0.6620863712499999,7.1596947905,10.13969211325,1.1789394022499997,1.15905684225
2,0.004166499999996625,-2.18097829825,3.15398573875,-149.0543861,-1.11283570525,0.12758074149999998,6.010815858999999,11.254974900999999,2.85733485225,0.771664232
3,0.006249749999994925,-2.0594478545,3.179129064,-149.04566574999998,0.22066541574999998,0.652675271,6.46803689025,13.852496147750001,2.4589058159999997,0.8212628734999999
4,0.00833299999999325,-1.921245992,3.19682762025,-149.05075837500002,-0.65159530925,0.52479454125,6.6281691205,15.9729640505,1.650071503,-0.87088415025
5,0.010416249999991575,-1.7904223799999999,3.220163852,-149.05051805,-0.52664955425,0.25947522375,6.461856066999999,15.01844883,2.286298275,-0.20643174649999996
6,0.012499499999989875,-1.6552166640000001,3.2261900305,-149.05173875,-0.52657049875,0.16935465675,6.399942875,15.5878036025,0.23074865449999993,-0.47673207525000005
7,0.0145827499999882,-1.4921689329999999,3.2291242477499997,-149.06138992500001,0.205078818,0.45274682424999996,9.097864627749999,18.9485917075,-0.11776465124999969,-1.4546359180000001
8,0.016666000000000725,-1.337508738,3.2226394715,-149.050647725,-0.8323383107500001,-0.20741363624999998,9.49889242625,17.823435064999998,-1.31548663075,0.9028989522499999
9,0.01874924999999905,-1.19408623875,3.19832849525,-149.061912525,-0.02768034099999994,-0.002728484499999989,6.45139575,16.61214029825,-3.3867659975,-1.7390147597500003
10,0.02083249999999735,-1.036454916,3.1737594602499994,-149.0515709,-0.46174575375,0.30099026475,7.5498087415,18.1822078225,-3.4780522882500002,0.8071529420000001
11,0.022915749999995676,-0.8842846305,3.1190469565,-149.054851525,0.35189484075,-0.16838322500000005,8.24555128825,17.61513018725,-7.0585490465,-0.8366252555
12,0.024998999999993974,-0.729462087,3.06487187725,-149.048587825,-1.0022749995,-0.07465340925,9.249619781,17.8677388425,-7.0161477327499995,0.2713350545
13,0.0270822499999923,-0.59688911575,2.99769228675,-149.04895785,-0.13111122325,0.11674319575,8.32411933025,15.256415965750001,-8.56281840775,-0.48978281025000003
14,0.029165499999990626,-0.46064999674999996,2.9261218012500003,-149.042709325,-0.7760773970000001,-0.1315277145,8.1544541715,15.63464903825,-9.09882927025,0.2784107775
15,0.031248749999988924,-0.3134006915,2.84041366,-149.043285375,-0.3609265945,-0.3236493525,10.711669088499999,17.01803147925,-10.788300751000001,-0.49712777150000004
16,0.03333200000000147,-0.1942671875,2.77564120275,-149.042781825,-1.131175384,-0.300934341,7.467049479250001,13.60277772025,-8.27569282075,-0.36956217625
17,0.03541524999999977,-0.09340267825,2.6853889525,-149.04132465,-0.08328009974999999,-0.24204975374999999,7.99308151,11.44329059125,-11.337491601,-0.208951533
18,0.0374984999999981,0.00682138225,2.60510981075,-149.039817825,-1.2998138385,-0.070926087,9.32668030125,11.33253443275,-10.1348512165,-0.2088905275
19,0.0395817499999964,0.11424827000000001,2.5399476735000004,-149.0385399,-0.8213623465,-0.14862775075,10.705259203250002,12.226919650500001,-8.32723856075,-0.1878356635
20,0.04166499999999473,0.19772151,2.4692758025000003,-149.039466875,-1.33693866425,-0.313411841,7.39386761125,9.33217793675,-8.980590044749999,-0.4721664415
21,0.04374824999999305,0.2674310635,2.41941201675,-149.032722475,-0.26449936075,-0.24326549449999998,8.680372477,7.6721529959999994,-6.48829758075,0.49219038724999997
22,0.04583149999999135,0.33514232725000004,2.35508471725,-149.0337639,-1.375235632,0.07976639274999998,10.75321364275,7.44213950625,-8.22061705625,-0.45677553100000007
23,0.047914749999989674,0.409038596,2.33216875775,-149.02734755,-0.73118928075,-0.28941374200000003,8.7944252495,8.170294762500001,-3.25188434125,0.4404528565
24,0.049997999999987976,0.4604364745,2.289355874,-149.02848052500002,-1.171824135,-0.13828866575,6.44034364825,5.4847924710000004,-5.638955176750001,-0.46842040124999995
25,0.05208125000000052,0.50793582575,2.2745836675,-149.02256775,-0.8888790235,-0.0027795955000000094,10.9257845885,5.012533307,-2.2740415337499997,0.38004793200000003
26,0.054164499999998825,0.56595877575,2.27549096925,-149.02755735,-1.62680467225,0.10356469824999999,10.1191158305,6.306141257250001,-0.39970064175,-0.98923143
27,0.05624774999999715,0.6217206865,2.2769860924999996,-149.0251503,-0.2954513505,-0.09563650175,8.2143941805,6.0116330975,-0.3227750657499998,-0.07093538325000001
28,0.05833099999999545,0.6571382955,2.29681566375,-149.02803039999998,-1.075166255,-0.12303417375,8.2572510255,3.58628442875,1.8697916575,-0.7388810512499999
29,0.06041424999999377,0.6967344285000001,2.3129069207499997,-149.02455902500003,-1.04007213525,0.028814606250000006,10.535206078749999,4.0749977379999995,1.4276129007499996,0.03664124774999994
30,0.0624974999999921,0.7519307435,2.36295843125,-149.027469625,-1.02066741175,0.3364152705,9.13881278025,5.96418262275,5.49447816575,-0.804347951
31,0.0645807499999904,0.79926727725,2.38709804425,-149.02364350000002,-0.55864481625,-0.262461801,7.0516588685,4.99314923675,2.3973421455,0.06475918
32,0.06666399999998872,0.8373719155,2.4530751705,-149.024127975,-1.48775391275,-0.044685612250000034,10.9691179995,3.9056330919999995,7.403962254,-0.53128729
33,0.06874725000000124,0.884873025,2.5172645449999997,-149.022804275,-1.07501702025,0.178510096,8.82482373525,5.0329542755,7.19574344175,-0.31921743975
34,0.07083049999999957,0.93267511575,2.5922587514999997,-149.02611925,-0.49655227375,-0.5046403632500001,10.142918109250001,5.0848777295000005,8.48259729175,-0.90507917125
35,0.07291374999999788,0.95933326325,2.6716249587500003,-149.02576829999998,-1.02348568275,-0.13528422099999998,7.027395964500001,2.528845329,9.01616978575,-0.470235752
36,0.0749969999999962,0.9761400745,2.76730245375,-149.027774825,-1.116492829,-0.1638578,11.36292409875,1.3619506285,10.9603436595,-0.7969804854999999
37,0.07708024999999452,1.0049096419999999,2.8677785394999997,-149.02669145,-0.918783389,0.173591096,7.79059433875,2.777707301,11.54753899425,-0.43785615274999995
38,0.07916349999999282,1.02521552875,2.96934872875,-149.0247803,-0.749155067,-0.40884111800000006,9.84289836875,1.752928689,11.681880833,-0.35169954574999995
39,0.08124674999999115,1.0297365785,3.09239256375,-149.02422335,-1.1732364445,0.07962081900000004,8.634235203000001,-0.13708115374999996,14.256494524499999,-0.5482311995
40,0.08332999999998945,1.0340317265,3.2130116819999994,-149.0202675,-0.9148706645,-0.041719626499999996,11.210509775750001,-0.1776226162500002,13.971255183,-0.13266267275
41,0.085413250000002,1.0518106222499999,3.3452378510000003,-149.017955775,-0.7928876305000001,0.03712480874999998,8.900497674250001,1.4473160505,15.3654983035,-0.347614251
42,0.0874965000000003,1.04826220875,3.4812188744999997,-149.01381685,-0.8180596417499999,-0.36365782575000005,9.190638184500001,-1.12134262925,15.8231077185,-0.14388222999999994
43,0.08957974999999863,1.0301924272499998,3.6313798427499995,-149.011611925,-0.91723124675,-0.0379622765,9.343732474000001,-2.8591199515000003,17.51773596,-0.382622566
44,0.09166299999999693,1.018433299,3.79087293175,-149.00601577499998,-1.4173841774999998,-0.06738801675000004,10.064331532,-2.11713111425,18.645588279000002,0.006556794249999942
45,0.09374624999999524,1.0141616575,3.9680979255000004,-149.002006525,-1.116331216,0.160824919,9.59620845325,-1.2117852122499997,20.7682952875,-0.22444811075
46,0.09582949999999357,0.9857288207500001,4.15559762725,-148.997097,-0.7677563952500001,-0.608822953,9.22531104075,-4.11480442475,22.01165247,-0.13265053200000007
47,0.09791274999999187,0.94611987275,4.351415395749999,-148.99382400000002,-1.06634135525,0.04879137875,10.82192766675,-5.449253141999999,22.999311922500002,-0.3106593455
48,0.0999959999999902,0.912954226,4.5677815675,-148.9923935,-1.1696583855,-0.206174924,8.9570744055,-4.64849863125,25.461158275000003,-0.59017523725
49,0.10207924999998852,0.87666098775,4.78690665975,-148.98981475,-0.8392309027500001,-0.166625975,10.536266325749999,-5.038666963250001,25.7918381675,-0.431766659
50,0.10416250000000105,0.81780888125,5.032715559,-148.99171065,-0.967773907,-0.50627965,8.808288932249999,-7.70227554425,28.9902343775,-0.9986201005
51,0.10624574999999935,0.745183453,5.258944273,-148.996051775,-0.8986652495,0.03843044125,11.51641917375,-9.3278592825,26.635520935000002,-1.2596705110000002
52,0.10832899999999768,0.684776634,5.53034400925,-149.002700825,-1.3357653025,-0.21496482025,8.82360780075,-7.83383417025,32.0498509425,-1.5526468754999998
53,0.11041224999999598,0.61738814425,5.7645742890000005,-149.0051956,-0.29625356025,-0.11700074999999999,9.72642314525,-8.7176066645,27.5946593275,-1.051016979
54,0.1124954999999943,0.5327017752500001,6.050038099249999,-149.013134,-1.3901396395,-0.46961688625,10.4536619195,-10.731065748750002,33.7379531875,-1.6871732474999999
55,0.11457874999999262,0.4405139835,6.297926068500001,-149.01790619999997,-0.3447982165,0.020405115249999994,10.614454506500001,-11.6649441725,29.23304701,-1.2636409325
56,0.11666199999999093,0.35535438374999995,6.57618653775,-149.0305481,-1.40842653075,-0.03445910525,9.50856125175,-10.705140827249998,32.8778700825,-2.21228432675
57,0.11874524999998926,0.26013767725000003,6.8296477795,-149.037170425,-0.1313669905,-0.04993559049999999,9.9414209125,-11.994657515,29.9011898025,-1.415040627
58,0.12082850000000178,0.16730427724999997,7.0989857912500005,-149.04774475,-0.57325567325,-0.0852183225,9.3832368845,-11.65016758425,31.8118186,-1.89964297425
59,0.1229117500000001,0.06630348425,7.34052956125,-149.054031375,-0.40096319099999994,0.07823113524999999,11.6080892105,-12.696495533499998,28.475064755,-1.2700637129999999
60,0.1249949999999984,-0.017650437000000005,7.610835313999999,-149.064659125,-1.3684917540000001,0.17154009275,9.436301232749999,-10.569643498249999,31.932545185000002,-1.7656807302500002
61,0.12707824999999673,-0.10442179425000003,7.825138807249999,-149.0709114,0.32281444974999995,0.1400024985,10.118066788499998,-10.976758213500002,25.204513549999998,-1.183634881
62,0.12916149999999504,-0.17887200175000004,8.059902429500001,-149.083049775,-0.97150116025,0.56135749825,9.232942342,-9.400125743,27.670164109999998,-1.83980160925
63,0.13124474999999336,-0.245489977,8.272240280750001,-149.08970645,0.32448647924999996,0.18251930725,10.18211174,-8.552778481999999,24.972145794999996,-1.13160591575
64,0.13332799999999168,-0.28965764850000003,8.4595280885,-149.09901430000002,-0.97596656525,0.4472807615,11.175712108,-5.8079411985,21.970440387500002,-1.424434319
65,0.13541124999999,-0.335835698,8.651192188,-149.107627875,-0.11720445175000002,0.10973050725000001,8.8760473735,-6.0491960025000004,22.4936655755,-1.3353639207499999
66,0.1374944999999883,-0.37142477925,8.805366634999999,-149.114467625,-0.670105258,0.54278676225,11.341203451999998,-4.80449437825,17.9961612225,-1.136366531
67,0.13957775000000083,-0.38747967025,8.97207331675,-149.12324905,-0.08054461674999999,0.5280376225000001,8.73352921,-2.42847371125,19.5026168835,-1.305334296
68,0.14166099999999915,-0.38480056074999996,9.103988409,-149.132640825,-0.63015132025,0.56210383775,11.849945544499999,-0.1721553787500002,15.331136702750001,-1.3808798640000002
69,0.14374424999999746,-0.37222354474999997,9.2386100295,-149.13730619999998,-0.2897985205,0.42363286375,8.37354874625,0.9359403857500004,15.654524327499999,-0.80134484175
70,0.14582749999999578,-0.34253429,9.337417603750001,-149.142807,-0.601721835,0.63613011325,12.06972885,3.0047714415000004,11.359686433,-0.9390533269999999
71,0.1479107499999941,-0.28190862025,9.46949291325,-149.14458467499998,-0.59898890925,0.7985466065,9.1025781635,6.643432021,15.34730899375,-0.462369129
72,0.1499939999999924,-0.19211659575,9.544447423000001,-149.1497917,-0.39114314024999997,0.691571623,11.03054237425,10.2171599875,8.49727433925,-0.99132867925
73,0.15207724999999073,-0.09963929274999998,9.64714527225,-149.15171815,-0.7851392477499999,0.15730963650000002,9.903008221499999,10.47005155575,11.8207999455,-0.51826571675
74,0.15416049999998904,0.005617597250000009,9.706599476000001,-149.1524315,0.07146823025000004,0.28442803025,10.55241310475,11.97920465575,6.637927889,-0.41966691625
75,0.15624375000000157,0.129799124,9.77162718675,-149.152282725,-0.52687863625,0.46344737700000005,9.4720110895,14.21892667025,7.3018835392499994,-0.31265693175
76,0.15832699999999988,0.27563107275,9.82611298625,-149.14602660000003,-0.8759338929999999,0.2206139785,11.720538855500001,16.70158148,6.038356064999999,0.36596356325
77,0.1604102499999982,0.41306081725,9.88578772425,-149.1444664,-0.340776004,-0.280530937,9.09135794675,15.78210711525,6.65447864225,-0.18114386049999995
78,0.16249349999999652,0.5473200755,9.8983039835,-149.135257725,-0.5539587085,0.07351773775,11.424539089,15.252969027249998,1.010571659,0.7149671055
79,0.16457674999999483,0.689982243,9.9586410525,-149.12600327500002,-1.0075746045,-0.004430149499999992,9.11979031675,16.26002526325,6.750509382499999,0.6813132765000001
80,0.16665999999999315,0.83855153625,9.97773552025,-149.11340712499998,-0.315164961,-0.17924352,10.709232092499999,16.90569625975,1.81290262925,1.02486430075
81,0.16874324999999146,0.9754505307499999,10.018323185,-149.1053848,-1.160303369,-0.48421720025000003,9.99619436275,15.59353959625,4.38500875125,0.5265135867499999
82,0.17082649999998978,1.0882727504999998,10.05282807275,-149.096813175,-0.8909109027500001,-0.34515226725000003,11.3917801365,12.7008097175,3.65479022275,0.5627064780000001
83,0.1729097499999881,1.198032543,10.07008528825,-149.091632875,-0.6360624134999999,-0.77800659825,9.648460032500001,12.406960486749998,1.57705962675,0.21144540624999994
84,0.17499300000000062,1.30338273925,10.111604212500001,-149.087062825,-0.5464532225000001,-0.20884814125,10.37475538075,11.8842756755,4.49533504175,0.08221855
85,0.17707624999999894,1.384447202,10.11208414975,-149.086616525,-0.437220022,-0.7798793017500001,9.9059317125,9.052063703249999,-0.4443944392500001,-0.30764623375
86,0.17915949999999725,1.42841427025,10.138672353,-149.085517875,-1.1491519585,-0.97028136275,11.553274631499999,4.5803148745,2.7025726002500003,-0.27831804
87,0.18124274999999557,1.46960897775,10.13675808875,-149.08729935,-1.04300523925,-0.2049447465,10.217331648750001,4.31283962825,-0.7329900859999999,-0.55111591525
88,0.18332599999999388,1.4955994187500001,10.173287391,-149.0830345,-1.1329901235,-0.740895737,9.53159654075,2.3552187675000003,3.9027847210000006,0.08826018875
89,0.1854092499999922,1.513222888,10.1598777785,-149.077365875,-0.44412503225000005,-0.6050952857499999,10.209865214999999,1.31819164775,-2.086890623,0.3810308725
90,0.18749249999999051,1.49035238475,10.20760798475,-149.0719948,-1.93007510875,-0.9446803705,9.6757181875,-3.5365708174999995,5.260287433999999,0.15766845999999998
91,0.18957574999998883,1.4517604039999998,10.21134257325,-149.0611992,-0.90513496075,-0.39084459099999996,11.873422624749999,-5.5275361755,-0.019399732000000003,0.9433115590000001
92,0.19165900000000136,1.4131178335,10.2843718535,-149.053573625,-1.515983824,-0.42589451750000007,8.9548795225,-5.46984405925,8.29830908825,0.35692149425
93,0.19374224999999967,1.366141036,10.304100988250001,-149.0436516,-0.053037658249999994,-0.32153664150000005,10.528455613750001,-6.520981252,1.9072970747500002,0.7591004075000001
94,0.195825499999998,1.29022628825,10.377420425250001,-149.04017635,-2.041449487,-0.677492462,10.703714253,-9.85773670575,8.3190547215,-0.13746846299999999
95,0.1979087499999963,1.1968258867500001,10.43529534525,-149.035453775,-0.7417627425,-0.13382506375,9.91157174,-11.974330424999998,6.456453622,0.04454320674999997
96,0.19999199999999462,1.1129690985,10.5112662305,-149.03812027499998,-1.3155729919999999,0.18333638925,9.25051343375,-10.666033147250001,8.62165766925,-0.852137819
97,0.20207524999999293,1.03888937825,10.577650547,-149.03676604999998,-0.23205536624999995,-0.20956665675,9.53303027075,-9.58595609675,7.469337643249999,-0.394776225
98,0.20415849999999125,0.9496341717500001,10.651510955,-149.04149247499998,-1.606690541,-0.315415632,11.81899094425,-11.27518367675,8.36250913075,-1.06769122175
99,0.20624174999998957,0.8468340560000001,10.7295570375,-149.04117205,-0.5273700135,-0.053334824499999996,9.04731583625,-13.00516367,8.864846558,-0.52289873375
100,0.20832499999998788,0.7464790342500001,10.7875697625,-149.041980725,-0.8024717717500001,-0.09144842075000001,9.914808153750002,-12.688635588999999,6.45985487025,-0.5599368222500001
101,0.2104082500000004,0.6600258645,10.861703875000002,-149.03804015,-0.60003284375,0.067472646,9.1646542555,-11.132089853,8.398608602500001,-0.06207612624999999
102,0.21249149999999872,0.5591799020000001,10.9198098175,-149.038825975,-1.05557035675,-0.33017871174999996,10.682670355499999,-12.7504881625,6.48210727275,-0.52268105
103,0.21457474999999704,0.44173021599999995,10.9894673825,-149.03567505,-0.6874059589999999,-0.049495439000000016,8.977797212,-14.8278682225,7.853844613,-0.10861714175
104,0.21665799999999535,0.33314095425,11.032542705000001,-149.03589245,-0.87701830275,0.17740878825,10.00600969825,-13.679753066249999,4.67220753175,-0.436962915
105,0.21874124999999367,0.23969033350000002,11.099892615,-149.03500367499998,-0.92051792875,0.19916917350000002,8.872388601250002,-11.89910149475,7.586700932499999,-0.367676396
106,0.22082449999999199,0.14276766749999997,11.1467583175,-149.034461975,-0.5766314192499999,-0.20854328574999997,10.58492303,-12.302743911999999,5.116316832,-0.30949050549999996
107,0.2229077499999903,0.023137032999999974,11.191393614999999,-149.034202575,-0.6856093445,-0.21351611825,9.3317428825,-15.0281384,4.8501657235,-0.41427834350000003
108,0.22499099999998862,-0.09490104749999999,11.22486138,-149.03321077500001,-0.9107183405,-0.022396288000000018,11.07012224225,-14.8464944375,3.5259057882500002,-0.22713429649999997
109,0.22707425000000114,-0.20788916550000008,11.264851332500001,-149.03035735,-0.7645125724999999,-0.06043784349999999,7.931333304000001,-14.299771072,4.296734274,-0.08214808999999995
110,0.22915749999999946,-0.32241262075,11.293770075,-149.02522277499997,-0.890626371,-0.06906231499999999,10.43142080475,-14.52617657175,2.9807746557500003,0.2876030505
111,0.2312407499999978,-0.4571422225000001,11.3301131725,-149.021404275,-0.86650002025,-0.1726627995,8.45835161175,-16.9283064595,3.8670083015000003,0.05428623025000001
112,0.2333239999999961,-0.593056256,11.345779895,-149.012657175,-0.623484466,0.036441346500000006,11.741105794750002,-17.176848531250002,1.3812932112499998,0.67147412875
113,0.2354072499999944,-0.7109414467499999,11.380147455000001,-149.008842475,-1.0823004395,0.63940981025,9.6203539375,-14.913791389500002,3.6229592262500003,0.10271632300000003
114,0.2374904999999927,-0.811861664,11.395179987499999,-148.99892425,-0.46621579675,0.242738381,9.50445127475,-13.002019191,1.3026953425,0.8202862815
115,0.239573749999991,-0.9209801479999999,11.416132925,-148.99305345,-1.008917287,0.13906738925,10.281293036000001,-13.906689670999999,2.002714157,0.35752994575
116,0.24165699999998935,-1.01547910275,11.436708212500001,-148.9807968,-0.5513550975,0.761377871,9.6398175945,-12.2898154985,1.9653389602499998,1.1064486765
117,0.2437402500000019,-1.0909387767499998,11.43166232,-148.978397375,-0.290378388,0.51481090475,10.303400159499999,-9.79187208325,-1.0937982797499999,-0.10003643225000002
118,0.2458235000000002,-1.14017947025,11.4497149,-148.967784875,-1.4895627275,0.49653546875000004,10.20829129225,-6.8183983565,1.6526401045,0.92771892275
119,0.2479067499999985,-1.18777850275,11.445206642499999,-148.962192525,-0.31190827774999996,0.41373335575000003,8.80540275525,-6.509682893999999,-1.0542501209999997,0.27287808425000004
120,0.2499899999999968,-1.2238893957499999,11.4402191625,-148.953243225,-0.85774963725,0.419739218,10.18834924725,-5.206097603,-1.0974578635,0.66681225575
121,0.25207324999999514,-1.2347991170000001,11.4506323325,-148.94547655000002,-0.8312605845,0.6936772492500001,10.15745353575,-2.1661029459999996,0.731203258,0.58478258175
122,0.25415649999999346,-1.234430492,11.432394502500001,-148.93799595000002,-0.90890187025,0.39973255249999995,10.341755629249999,-0.7981234825,-2.6820121852499996,0.455552444
123,0.2562397499999918,-1.2251994609999999,11.435969830000001,-148.931495675,-0.982788615,0.18676063599999998,10.009059190999999,0.2899947467500003,-0.07359934599999995,0.42726154624999996
124,0.2583229999999901,-1.20991030325,11.4111897975,-148.92331695,-0.05109047900000002,0.1183907725,7.955513596999999,0.9693995422500001,-3.4765785932499997,0.514769256
125,0.2604062499999884,-1.18472296,11.3956446625,-148.91506195,-1.1823774315,0.45741064699999995,12.39950752425,2.159203559,-2.38247302175,0.5890442282499999
126,0.2624895000000009,-1.1449237765000002,11.3932755,-148.90452957499997,-0.8481626215,0.2159776425,8.55659234525,3.8638402664999996,-0.7823035867500001,0.85216961425
127,0.26457274999999925,-1.10616683975,11.362421992249999,-148.89647292499998,-0.7032120599999999,0.165476925,11.1411840915,3.7978708615,-4.21653226,0.53648375725
128,0.26665599999999756,-1.0577137915,11.35232281775,-148.88475035,-0.780822821,0.55457391575,8.12267863875,4.87202963375,-1.708155945,0.9769525827500001
129,0.2687392499999959,-0.999033466,11.316941260250001,-148.87040712499999,-0.318044845,0.030672727250000004,10.6115286355,6.043179617,-4.757767826499999,1.272915464
130,0.2708224999999942,-0.92671096325,11.2928555025,-148.85557175,-1.37139630325,0.32935181350000003,9.72327947475,7.673455356749999,-3.4010136125,1.3201514035000002
131,0.2729057499999925,-0.8597483785,11.2633855325,-148.842037225,-0.4737404745,0.37176046825000003,10.579241036,7.062223315250001,-4.0564054845,1.2041157185000002
132,0.2749889999999908,-0.78239320225,11.228044986250001,-148.83140565,-0.815696545,0.07186444475,9.5889825815,8.3630867015,-4.72585868825,0.813953217
133,0.27707224999998914,-0.6900623887499999,11.1978094575,-148.817852025,-1.2513469755000002,0.40152078874999997,10.33494698975,10.107339739,-4.143967107,1.20998124775
134,0.2791555000000017,-0.5964071824999999,11.17367267725,-148.80961607499998,-0.7231118937500001,0.1184772365,8.284029244500001,10.382666587,-3.37282492225,0.5627671492499999
135,0.28123875,-0.514362514,11.128145692999999,-148.795879375,-0.621371463,-0.1785671525,11.266715765,8.85586619325,-5.96075339525,1.2219400945
136,0.2833219999999983,-0.429650709,11.11041998825,-148.78927992500002,-1.049513977,0.23051414650000002,9.15019977225,9.33080566,-2.6128920827499997,0.3839574455
137,0.2854052499999966,-0.33194738274999996,11.06479215775,-148.773799875,-1.0273699035000001,0.135574097,12.06538856025,10.697473049000001,-5.9827146815,1.43924485875
138,0.2874884999999949,-0.234298395,11.0581142895,-148.7618523,-1.1258902717500001,-0.35255722899999997,7.508940099499999,10.764254929,-1.2736198305,1.03134761025
139,0.28957174999999324,-0.15138765875000001,11.014052628750001,-148.7443657,0.045765310749999996,-0.11833242850000002,9.9088197945,8.86642599175,-5.788972072249999,1.6952272019999999
140,0.29165499999999156,-0.07785347125,10.989486695250001,-148.731441525,-1.1543675845,0.1354921365,9.38812529925,7.8316168785,-3.41386856125,1.13590502725
141,0.2937382499999899,0.006629850750000001,10.957701444249999,-148.713855725,-0.9712039100000001,-0.11838865274999999,11.136257173,9.055369735500001,-4.29613846525,1.7281446365000002
142,0.2958214999999882,0.09149519325,10.93977904675,-148.70152285,-1.47780612125,-0.1025434595,9.120672105,9.2327803365,-2.62783518425,1.0742483437500001
143,0.2979047500000007,0.16708128049999998,10.922283412250001,-148.687397025,-0.37269880600000005,0.147104824,9.000438214750002,8.069938719,-2.58980789775,1.31672230375
144,0.299987999999999,0.22885116375,10.89828086025,-148.67966842500002,-0.844777964,-0.18146090225,10.15327954475,6.554682970250001,-3.33825844525,0.5367623345000001
145,0.30207124999999735,0.3035908415,10.890601872749999,-148.67007827499998,-1.3547754587499998,0.13435961400000002,10.0363919735,8.07938337475,-1.40908722575,0.7905130389999999
146,0.3041544999999957,0.37065624075,10.8786594855,-148.664531725,-1.0073306115,0.08508532099999999,10.461924552,7.26095742,-1.89344920225,0.28217283824999995
147,0.306237749999994,0.43335394525,10.8747935275,-148.660018925,-0.5483434887499999,-0.31582074624999995,8.834772349000001,6.74383807175,-0.93548637625,0.19487958375000008
148,0.3083209999999923,0.48452001449999993,10.85819339675,-148.65810015,-0.76306889775,-0.17069329774999997,10.768416645,5.4290138485,-2.4668621720000004,-0.13795185174999997
149,0.3104042499999906,0.538616225,10.86105108325,-148.6573906,-1.3367130905,0.13069084274999998,8.70915460425,5.8055692315,-0.14831289649999996,-0.2552393975
150,0.3124874999999889,0.5836530625,10.85710978525,-148.657344825,-0.79780217275,-0.23341588199999996,10.51299333575,4.746605873,-0.9356495737499999,-0.3695237685
151,0.31457075000000145,0.62797383975,10.863322260250001,-148.657649975,-0.6245150607500001,-0.004606504749999997,8.59993195575,4.64776700725,0.25560442725,-0.38470021625000006
152,0.31665399999999977,0.6611600965,10.854907991000001,-148.65720370000003,-0.81149980425,-0.126778474,11.566204308749999,3.305587739,-1.4694086837500002,-0.31388322274999997
153,0.3187372499999981,0.6957665829999999,10.8630051625,-148.65871810000002,-1.390118584,-0.10086225725,8.42425680175,3.5154002012500003,0.49527363474999997,-0.52945263675
154,0.3208204999999964,0.728319451,10.86589145775,-148.65639112499997,-0.83422690825,0.18356277425,10.214269636000001,3.20273995375,-0.129217442,-0.10840579875
155,0.3229037499999947,0.762936853,10.87289309575,-148.659351375,-0.38273744275,0.23660989575,8.105376601249999,3.541142404,0.34766850624999995,-0.7150181419999999
156,0.324986999999993,0.79307778175,10.869068861499999,-148.656108875,-0.9826320447500001,-0.30652938425000004,12.302057504999999,2.88228021575,-0.913669385,0.01005995274999999
157,0.32707024999999135,0.821877867,10.8756048675,-148.658458725,-1.18577682225,-0.0877365395,8.485276341250001,2.8375418185,0.29030536875,-0.6429781935
158,0.3291534999999897,0.8404098152499999,10.87747073025,-148.654773675,-1.07521644275,0.05615077925000002,10.959841727499999,1.4871209559999998,-0.2300350665,0.05230745674999991
159,0.331236749999988,0.8619347139999999,10.881638766000002,-148.65892409999998,-0.15516766924999997,-0.329675194,7.348183751250001,1.99841290725,0.022585272750000107,-0.86071197675
160,0.3333200000000005,0.875300333,10.878849269,-148.656208025,-1.0831646267500001,-0.014094579999999995,12.1931901,0.874825299,-0.8016743659999999,-0.05003102500000001
161,0.3354032499999988,0.88118846725,10.89178371475,-148.659412375,-1.2706497125,-0.26014393574999994,8.273209094999999,0.10981443549999992,1.054460913,-0.7571247815000001
162,0.3374864999999971,0.8813049645,10.8998980515,-148.657577525,-1.09158268375,-0.233956322,11.2022955425,-0.6883312462500001,0.5223063232499999,-0.16551919225
163,0.33956974999999545,0.8846451304999999,10.9110913285,-148.66000365000002,-0.46948499974999996,0.10814474924999999,7.4533092975,-0.22473648199999996,0.8531268834999999,-0.66939932125
164,0.34165299999999377,0.882172344,10.91608262175,-148.65774155000003,-0.97695324575,0.0816472805,11.54484224375,-1.0205992124999999,0.15349364274999977,-0.09549945949999994
165,0.3437362499999921,0.8741246275000001,10.92933321175,-148.659584025,-1.05905443825,-0.51457181575,8.07803368575,-1.59447346525,1.11470583075,-0.5940965764999999
166,0.3458194999999904,0.85696428625,10.942006350249999,-148.6567421,-1.0767753869999999,0.27686384324999996,11.549731017500001,-2.78767737675,1.05725342025,-0.019159398999999966
167,0.3479027499999887,0.8441439605000001,10.951268672749999,-148.65923312500001,-0.47516773275,-0.2819445655,7.780670642999999,-2.15415099275,0.6205303667500001,-0.67067997175
168,0.34998600000000124,0.8217087162500001,10.952902555749999,-148.656333925,-1.0315249337499999,-0.31157859774999996,11.4861328625,-3.4289492367500003,-0.2460694312499998,0.004168679750000015
169,0.35206924999999956,0.7886831835,10.962677479,-148.66051099999999,-0.753068231,0.0037782487499999906,8.207835912,-4.53357891,0.6737631262500001,-0.859216772
170,0.3541524999999979,0.74684903025,10.9666275975,-148.6640816,-1.23624230925,-0.120965775,10.343130946,-5.6055408715,0.021931886499999997,-0.76259665175
171,0.3562357499999962,0.7148336022499999,10.982888697500002,-148.66654970000002,-0.338959939,-0.17561494575,8.59370076675,-4.46265333875,1.486428946,-0.6594641097499999
172,0.3583189999999945,0.6635926665,10.977838277499998,-148.674114225,-1.270616047,-0.13665790375,11.142256022249999,-6.649705707250001,-1.0803155955,-1.261379536
173,0.3604022499999928,0.6087374090000001,11.004874705,-148.67897412500002,-0.9673711285,0.0636974795,8.788741349,-7.14158871675,2.75104931025,-0.9617313835
174,0.3624854999999911,0.5531989335,11.0036182415,-148.687854775,-0.8927472830000001,0.15914201525,8.94356262575,-7.1316529955,-0.6030841469999999,-1.4593647347499998
175,0.36456874999998945,0.5174848510000001,11.03450656125,-148.68777465,-0.7972914130000001,0.13612213075000001,10.088678120249998,-4.959784031,3.2187488972500002,-0.39039618175
176,0.366652000000002,0.46621118125,11.031329629750001,-148.69242475,-1.14871064575,-0.10612486874999999,10.300710916749999,-6.719853877250001,-0.8315566407499999,-0.96811893575
177,0.3687352500000003,0.41479639324999995,11.070200921,-148.695159925,-0.997410506,0.31531814575,9.813694238250001,-6.76811105,4.19271484025,-0.72214215625
178,0.3708184999999986,0.3779874405,11.06379866675,-148.70066070000001,-0.54911604175,0.3894678185,8.160152733,-4.9581127162500005,-1.2388457335000003,-1.0671723635
179,0.3729017499999969,0.367191924,11.09311747625,-148.70044324999998,-0.66938182725,0.57541866575,10.889908791749999,-1.9581632017500001,3.0272824765,-0.35008251675
180,0.37498499999999524,0.35239280824999997,11.08891582425,-148.70962525000002,-0.69783902175,0.26581151775,9.637001634,-2.2263029815,-0.9586195352499998,-1.486970484
181,0.37706824999999355,0.33549362675,11.10131645025,-148.71804045,-0.5849840304999999,0.354464397,10.48538839875,-2.49205690625,0.9945270125000001,-1.348221289
182,0.3791514999999919,0.34228450400000004,11.073562381749998,-148.727680225,-0.58780112875,0.5805528725,8.4533579355,0.38043566900000025,-3.78303428825,-1.506475642
183,0.3812347499999902,0.38191729775000005,11.058293341749998,-148.7350502,-0.8279285445000001,0.6621387285,9.80038881225,4.2658816575,-2.3049357385,-1.198214799
184,0.3833179999999885,0.426285483,11.021116733500001,-148.74432372500002,-0.399077788,0.16007275575000002,9.63253164425,4.8837229010000005,-4.9350763849999995,-1.4430259315
185,0.385401250000001,0.46929136650000003,10.98274540975,-148.74939345,-0.974363953,0.5398065095,10.0741113435,4.60913798175,-5.09576702125,-0.9132371992499999
186,0.38748449999999934,0.52897846675,10.927525282500001,-148.75468825,-0.614509858,0.33347582825,9.61940825025,6.6302973695,-7.07359716175,-0.9405322522499999
187,0.38956774999999766,0.607802309,10.875873567749998,-148.75590895,-1.264337778,0.19023302925,9.3516738415,8.8197249185,-6.685082540750001,-0.41999660974999997
188,0.391650999999996,0.6824030280000001,10.8280065085,-148.7593689,-0.456552796,0.0296878645,9.591326953000001,8.375151158249999,-6.1898597330000005,-0.7211144192500001
189,0.3937342499999943,0.7441227287500001,10.77351427175,-148.76109315000002,-1.30341129025,0.161049191,9.897957922749999,6.763759732,-7.005685777,-0.46935212825
190,0.3958174999999926,0.81542330975,10.734651326000002,-148.76146695,-0.91287022075,0.007616091250000012,10.311765314,7.9099709995,-5.127464623,-0.36187794075
191,0.3979007499999909,0.903805375,10.67535829525,-148.76366425,-0.9846466034999999,0.2479403465,8.98953187375,9.985627295,-7.60228001975,-0.49317012175
192,0.39998399999998924,0.98625068375,10.6417601095,-148.7647743,-0.94755959825,0.15769544249999998,10.36521375125,9.2606674425,-4.4759663345,-0.44945305575
193,0.40206725000000176,1.0607504247500001,10.58127355675,-148.768669125,-0.5405775607500001,-0.009892772749999987,8.885205388250002,8.337652504,-7.7492291927500005,-0.6763279735000001
194,0.4041505000000001,1.14714071175,10.544447659499998,-148.762283325,-1.407594338,0.41972881549999996,10.96489000275,9.570479362750001,-4.8457251195,0.45039121074999994
195,0.4062337499999984,1.242309451,10.477427485000002,-148.768116,-0.49777790899999996,-0.047494217000000026,8.3663969035,10.86876274675,-8.514775634749999,-0.8564794215
196,0.4083169999999967,1.33264607175,10.433227539999999,-148.76400754999997,-1.250680089,-0.07977717550000002,11.07283019975,10.0852712405,-5.75770647825,0.21630600099999997
197,0.410400249999995,1.4075764714999999,10.380051849,-148.76909255,-0.64722612525,-0.238856075,8.50201678225,8.415388109,-6.873439908,-0.782364458
198,0.41248349999999334,1.493121922,10.347722768,-148.7648163,-1.5433524252500002,0.25590418974999996,11.056533814,9.510121641749999,-4.30644857875,0.23439602575000007
199,0.41456674999999166,1.56816765675,10.2991609585,-148.77261352499997,-0.97959133975,-0.5073906930000001,8.30106759,8.49716877975,-6.331979990000001,-1.10484443775
200,0.41664999999999,1.6315585375000001,10.27914666975,-148.76933284999998,-1.2645769855,-0.44337698449999996,10.802799104,6.86960172575,-2.8276203575,0.08339367825000003
201,0.4187332499999883,1.66283842925,10.257509948,-148.77324675,-1.0424541827499998,-0.5253748410000001,7.94789659975,3.1555875542500003,-3.06447103625,-0.7244507520000001
202,0.4208165000000008,1.7010346202500002,10.25652551825,-148.773155225,-1.511743888,-0.20806581600000001,11.144922495000001,3.9233362667500002,-0.5800286530000001,-0.3332346827499999
203,0.4228997499999991,1.7155044825,10.24995803825,-148.77599335,-1.0360795820000002,-0.56120229525,9.4364174595,1.1298155185,-1.282600507,-0.66131160275
204,0.42498299999999745,1.709543407,10.245795013499999,-148.775390625,-1.0320021435,-0.52698158875,10.2085261335,-1.3877025237499998,-0.933958888,-0.2739378995
205,0.42706624999999576,1.6837141662500001,10.252526520249999,-148.779552475,-0.7034049927499999,-0.15321288275000003,8.97801911975,-3.66837200575,0.2989984752500001,-0.84513847525
206,0.4291494999999941,1.66273649025,10.2434833035,-148.781215675,-1.13205304725,-0.12218670550000003,10.39206457275,-3.13642179975,-1.53067511325,-0.5062653535
207,0.4312327499999924,1.6272370814999997,10.2526717195,-148.783241275,-0.8883681000000001,-0.36054867325,10.67002987875,-4.8738932544999995,0.6258486807500001,-0.60326322925
208,0.4333159999999907,1.5672966315,10.2416424745,-148.7885933,-1.1616701825,-0.29715027475,8.449872016,-7.741729854500001,-1.801660765,-0.965400532
209,0.435399249999989,1.5090043695,10.266325949999999,-148.78883745,-1.3709467055,0.20187552450000001,9.8984731435,-7.64398610675,2.462575048,-0.424712792
210,0.43748250000000155,1.459281169,10.26156211025,-148.79275895,-1.22009786975,-0.12706614849999998,9.205562472,-6.54156893525,-1.02525791525,-0.8344317372500001
211,0.4395657499999999,1.403458096,10.2909057145,-148.79209135000002,-0.94045882975,-0.25138628074999997,10.421390773499999,-7.3736030464999995,3.0295719950000004,-0.32942795025000005
212,0.4416489999999982,1.3241336642500001,10.289220329749998,-148.79244995,-1.18323581675,0.03531069475000001,7.941068589,-10.17001795925,-0.6476722954999999,-0.44812740775
213,0.4437322499999965,1.260662591,10.32922458825,-148.78929904999998,-1.0544666445,0.14429855149999998,11.14096510225,-8.346661924500001,4.3382897975,-0.04048330349999998
214,0.4458154999999948,1.20635546375,10.349873305,-148.783229825,-1.2403661495,-0.020022295249999995,9.869554995,-7.307114124249999,2.02343180775,0.2566995470000001
215,0.4478987499999931,1.140492048,10.38495588275,-148.774864175,-0.66341932125,-0.26822354625,10.12135696675,-8.751188277499999,3.74271422625,0.5736723877500001
216,0.44998199999999144,1.053204086,10.407529116500001,-148.76680755,-1.1167752594999998,-0.4191526175,7.2580749905,-11.311170458500001,2.2866467722499997,0.49301639950000004
217,0.45206524999998976,0.978905388,10.429002763,-148.754199975,-0.49943269225,0.27277993775,11.229809520999998,-9.84886651025,2.11250236625,1.1271704734999999
218,0.4541484999999881,0.9162754424999999,10.45776391075,-148.74661254999998,-1.5269894002500002,0.04464552925,9.60449189025,-8.34223032,3.02963939325,0.4284268559999999
219,0.4562317500000006,0.83695711925,10.4718470585,-148.73389815000002,-0.396016389,-0.42440922000000003,9.342002154500001,-10.459753273,1.253804475,1.1423308792500002
220,0.458314999999999,0.74902790025,10.489366768750001,-148.7266121,-1.11795945475,0.25316410925,8.340614976,-11.374130486250001,1.65487855675,0.4188119747499999
221,0.46039824999999723,0.6843626835000001,10.488413809,-148.71427535,-0.72279885425,0.51740093525,11.187290311249999,-8.694657386500001,-0.5790898202500001,1.10638143125
222,0.4624814999999956,0.639830686,10.51276970075,-148.70645905,-1.04593290375,0.23896635875,10.47964072275,-6.182943702,2.504976094,0.47266909850000005
223,0.4645647499999939,0.584213756,10.50539898825,-148.692821475,-0.73706594875,-0.07488831875,7.7257541422500005,-7.645593524,-1.3463770745,1.2561477795
224,0.4666479999999922,0.52958886325,10.517792463,-148.681659725,-1.06182131425,0.32474762075,10.78666687025,-7.473421097,1.076111868,0.90449954575
225,0.4687312499999905,0.500794135,10.50989770875,-148.66994475,-0.8901886342499999,0.23946762825,8.4201273915,-4.3879490494999995,-1.385842044,1.01270045725
226,0.4708144999999888,0.47937683750000004,10.5178654215,-148.657375325,-0.9236722735,0.08714583525,11.06220602925,-3.52410584675,0.52322497975,1.0631988647500001
227,0.4728977500000013,0.434018418,10.5079050065,-148.6461525,-0.5957387015,-0.3070644605,6.4717495745,-6.3763569595,-1.6537961654999997,0.94139692175
228,0.4749809999999996,0.3954850955,10.49462843,-148.634864825,-0.9911355600000001,0.092314154,12.71135950075,-5.54039105775,-2.00760208825,0.9506563619999999
229,0.477064249999998,0.3786184415,10.47840189675,-148.62578965,-0.79130314275,0.27366714925,8.23987978625,-2.8963168710000002,-2.41384129875,0.6689957449999999
230,0.4791474999999962,0.354576245,10.455456017749999,-148.62062070000002,-0.63353081775,-0.24153562274999996,11.14438080925,-3.671067521,-3.17027091975,0.22908401475
231,0.4812307499999946,0.3145955205,10.427531242249998,-148.613597875,-0.52721875625,0.08089255149999999,7.03093242675,-5.63262856,-3.7920341495,0.45999649175
232,0.483313999999993,0.28932367275,10.38882899075,-148.610202775,-1.075702943,0.08848018075,11.93561100975,-3.7741715312499995,-5.09374320475,0.05010147300000001
233,0.48539724999999123,0.28137992325,10.352121116500001,-148.6063919,-0.7786498815,0.22403457199999996,8.09526205075,-1.70819687825,-4.8796885014999996,0.10786148175000002
234,0.4874804999999896,0.2642753945,10.31295132775,-148.60703660000001,-0.89736247825,-0.03371735275000001,10.746500848250001,-2.704629734,-5.12416333725,-0.41170719275
235,0.4895637499999879,0.240400836,10.279547690249998,-148.60598372500002,-1.19602597875,0.13706523925,8.085932374,-3.554766655,-4.48649752775,-0.2168789435
236,0.4916470000000004,0.24015345825,10.2329230285,-148.60807417499998,-0.7678317055,0.53003581325,11.66464114175,-0.63924515275,-6.0243116605,-0.574751526
237,0.4937302499999987,0.25702941975000004,10.193600892000001,-148.611866025,-0.9553704485000001,0.18253904775,8.6485022295,1.4332924922499999,-5.170333803,-0.76453695425
238,0.495813499999997,0.2645190895,10.13572025175,-148.617156975,-0.6211984789999999,0.08845843774999998,10.6371185775,0.3453763729999998,-7.40082132925,-0.95880488275
239,0.4978967499999953,0.27286571625,10.1039454935,-148.62410735,-1.4762146624999999,0.27250490525,8.96667909625,0.4728421272500001,-4.295837403249999,-1.12144907575
240,0.4999799999999936,0.31144940475,10.0428929335,-148.631900775,-0.88851331925,0.35468772425,11.038374304,4.132297754500001,-7.75581568625,-1.2642419857499998
241,0.502063249999992,0.36583884074999995,10.029154777999999,-148.640125275,-1.491005227,0.275287334,9.62685906825,6.0264349274999995,-2.13323301175,-1.29684248575
242,0.5041464999999903,0.40408444375,9.981538055,-148.6448555,-0.5287432222499999,-0.089170114,8.635883688249999,4.0206518105,-6.1420388594999995,-0.91552017625
243,0.5062297499999886,0.461043753,9.978144168,-148.64754485,-1.5769307465,0.54152840375,10.217572928749998,6.22277796375,-0.8602952362500002,-0.6542323902499999
244,0.5083130000000011,0.5348215775,9.95224428175,-148.650432575,-1.50047462775,-0.126060383,10.33039248025,8.254226521749999,-3.5631387075,-0.7160395755
245,0.5103962499999994,0.62059839075,9.960613966250001,-148.649868025,-1.1084708235,0.10775415975,10.404414176,9.618773579749998,0.5277463792500001,-0.27363047749999997
246,0.5124794999999978,0.688821055,9.95809269,-148.65208817500002,-0.8910021035,-0.10196337100000001,7.38425320425,7.5745016325000005,-0.7276682407499999,-0.65797210475
247,0.5145627499999961,0.77943189425,9.978593109750001,-148.65476230000002,-1.5459530949999998,0.27012796725000005,11.839938878,10.26631414925,1.9784472135000002,-0.675674714
248,0.5166459999999944,0.8823686987499999,10.015934468000001,-148.66006850000002,-1.4754825020000002,0.28074992074999994,8.55407393,11.81349146325,4.050046324749999,-1.0740915015
249,0.5187292499999927,0.9804875104999999,10.04763889325,-148.660926825,-1.2154397815,-0.47298867250000004,9.646588207,11.13980924825,3.35410494425,-0.49382667975
250,0.520812499999991,1.06438267225,10.103965281750002,-148.66638567500001,-0.679893963,0.016823615999999986,7.9714905025,9.53165138025,6.29851567725,-1.14170047625
251,0.5228957499999893,1.15466599175,10.141272544,-148.673847225,-1.613519922,-0.11547344675000001,12.790998934,10.32867789325,3.980296864,-1.30676504225
252,0.5249790000000019,1.25941392775,10.229091167750001,-148.67530440000002,-0.7807877545,-0.3629674875,8.15025758525,11.94699287575,10.1111397745,-0.772464916
253,0.5270622500000002,1.33270277075,10.2612202175,-148.67479325000002,-0.8136548995,-0.68313708925,8.568606019,8.11678648,3.3762040140000003,-0.37583779175
254,0.5291454999999985,1.3939994572499999,10.3208765985,-148.674564375,-0.27611926075,-0.514539603,8.877452731,6.689680575,6.73568031075,-0.521326618
255,0.5312287499999968,1.4478112905,10.343780277499999,-148.67074585,-0.9457221332500001,-0.39326503150000003,10.7548090235,5.6999077775,2.3134775459999997,0.01660763850000002
256,0.5333119999999951,1.48831614875,10.387764454500001,-148.663326275,-0.6634570882499999,-1.04599554825,9.006740747,4.036409733999999,4.84956646975,0.35360772900000004
257,0.5353952499999934,1.496126421,10.39741087075,-148.65582275,-0.6368551032499999,-0.50342365525,9.2804939145,0.10572335275000011,0.7049676775,0.49189571325000003
258,0.5374784999999918,1.4740909115,10.40937090175,-148.646945925,-0.594823921,-1.07475398475,9.41013598425,-3.4928724025000006,1.0383580614999999,0.550536517
259,0.5395617499999901,1.447250426,10.40336966475,-148.63428115,-0.4221547262499999,-0.45736901850000006,11.69383096475,-4.17277251225,-1.15147879725,1.1395036375
260,0.5416449999999883,1.38350588075,10.392261029,-148.62345885,-1.0962254925,-0.959682107,7.367792784750001,-8.54197183275,-1.7219060965000001,0.7767647135
261,0.543728250000001,1.295562856,10.3771348005,-148.61765672500002,-0.8174362332499999,-0.51907401525,11.701922179,-11.35886868775,-2.22918188575,0.37966344525
262,0.5458114999999992,1.1895711122500001,10.3614408985,-148.6092148,-1.0493289975,-0.6350793392499999,8.653777479499999,-13.565751435,-2.2978589234999998,0.407080263
263,0.5478947499999975,1.073571533,10.33891248775,-148.61279295,-0.5378676487499999,-0.32894994325,11.4878307585,-14.5492912545,-3.14748340725,-0.800343749
264,0.5499779999999959,0.94790831225,10.308965683,-148.61081695,-1.55423238875,-0.19602482775000002,7.388859749,-15.8012034895,-3.9738835695000003,-0.34276443725
265,0.5520612499999942,0.7942963242499999,10.29444527575,-148.620906825,-0.78388017425,-0.5752402545,9.9915884715,-18.929419992499998,-2.18739968525,-1.5889992995
266,0.5541444999999925,0.637429655,10.229571819250001,-148.62388995,-0.60606560125,-0.055102609249999976,12.12268781725,-19.450469492499998,-8.158605575,-0.8449571877499998
267,0.5562277499999908,0.46785309924999996,10.22068810475,-148.63695905,-0.58015610275,-0.22865032375000002,8.52730524475,-20.8021550175,-1.4621834159999998,-1.950105265
268,0.5583109999999891,0.29041725425,10.143795255,-148.63892745,-0.59457469,-0.04212795225000002,10.06984388725,-21.958185195,-9.6216189855,-0.5544394850000001
269,0.5603942500000016,0.11045862750000002,10.09792876225,-148.646080025,-0.79591932525,0.09498903899999997,9.52687287525,-22.15012144925,-5.943463446,-1.2122577270000001
270,0.5624775,-0.08131829650000007,9.99598550925,-148.652698525,0.14195058500000002,-0.053509567000000036,10.923581005,-23.56754207875,-12.603104592249998,-1.0861527194999998
271,0.5645607499999983,-0.27085192300000005,9.918773413,-148.66493605,-1.4037823530000002,0.13834054599999998,9.18202376325,-23.1835680015,-9.70675712725,-1.68223162
272,0.5666439999999966,-0.46292436675,9.8025202765,-148.6762352,-0.204163611,0.5245959905,9.975418329,-23.474484861249998,-14.34384048,-1.7331663594999998
273,0.568727249999995,-0.6349110005,9.690125108,-148.70062255000002,-1.5291115345,0.8011973185000001,10.43154728575,-20.8040658255,-13.90161067225,-3.178774476
274,0.5708104999999932,-0.7860191575,9.595518232,-148.726894375,-1.140885651,0.6225634737500001,8.34932017225,-18.2673492425,-11.745492755,-3.5564398319999997
275,0.5728937499999915,-0.9376015512499999,9.4760339255,-148.75642012500003,-1.1216406970000001,0.83224553625,10.49599075375,-18.2476229675,-14.776044251250001,-3.9240022897499998
276,0.5749769999999899,-1.069428064,9.398478626,-148.79068377500002,-1.5625897797500001,1.32388298225,11.187500241,-15.800723077500002,-9.6445987745,-4.5436029435
277,0.5770602499999882,-1.145498857,9.3173775665,-148.82430649999998,-1.99620780375,1.3574669959999999,9.41290223675,-9.10603714,-10.14241433125,-4.43912874175
278,0.5791435000000007,-1.19248941525,9.257508159,-148.855011,-1.02878689775,1.014917165,9.851481793,-5.6968739035,-7.52285316625,-4.138148069250001
279,0.581226749999999,-1.23258945325,9.21308791575,-148.8846588,-1.42462042725,1.0911171287499999,11.12377416925,-4.8993614907500005,-5.70265665675,-3.93077480775
280,0.5833099999999973,-1.22909323875,9.176633358,-148.9141655,-1.9379472734999998,1.4864610640000002,9.1157771365,0.32807196650000003,-4.741602749749999,-3.96275359375
281,0.5853932499999956,-1.1805647910000001,9.158491611750001,-148.93429947500002,-1.10289736075,0.9071190579999999,9.958089114749999,5.5558057427500005,-2.59606659425,-2.758781232
282,0.587476499999994,-1.1141802745,9.16821861275,-148.9608841,-1.44145618375,0.89160839475,10.16798841975,7.805163383250001,0.8157754987499999,-3.5078378915
283,0.5895597499999923,-1.0319758132499999,9.1553611755,-148.98026655,-0.8797074705,0.71009258925,8.924192189,9.582207143,-1.9660497714999998,-2.64884518725
284,0.5916429999999906,-0.9185386170000001,9.167928457250001,-148.998291,-0.999613598,1.1825185120000001,10.038299084750001,13.300790846750001,1.14073039575,-2.49677363025
285,0.593726249999989,-0.79113786125,9.17438411625,-149.012485525,-1.3915008755,0.41170428724999997,10.7026518575,14.898012161,0.35945420175,-2.01146709925
286,0.5958095000000014,-0.6365146340000001,9.191655873250001,-149.0302124,-0.6725387275,0.6255938409999999,9.868494748,18.2351756075,1.6682396864999998,-2.4588967265
287,0.5978927499999998,-0.49085189425000003,9.190085410000002,-149.03535082500002,-1.0924652182499999,0.356379695,8.537681343000001,16.9152626975,-0.654261291,-0.95857469175
288,0.5999759999999981,-0.32926715175,9.200548409500001,-149.05052947500002,-0.7523397385,0.7167688347500001,9.758959055,19.0198054325,0.8638274369999999,-2.1596968469999998
289,0.6020592499999963,-0.1539876705,9.22690153,-149.061141975,-1.7895307542499999,0.4145558625,9.50014638875,20.581145288,2.69332549725,-1.5820192842499998
290,0.6041424999999947,0.028433807249999984,9.2232534885,-149.0683937,-0.19762890049999998,0.1684077345,9.20061183,21.37354659975,-0.8404504360000001,-1.23378742125
291,0.606225749999993,0.1937177945,9.23418569475,-149.078495025,-1.6251345387499998,0.2526353395,9.92549288425,19.364005328250002,0.8666710854999999,-1.5259492360000002
292,0.6083089999999913,0.35870094025,9.248371599999999,-149.092735275,-0.7406759337500001,-0.32451890775000003,9.733637571500001,19.422050325249998,1.2552684542499999,-2.07315342325
293,0.6103922499999896,0.52013358125,9.2515270715,-149.096637725,-1.2063748834999999,0.135090869,9.60428083,18.7697682365,-0.09891168775000003,-0.8112895265
294,0.612475499999988,0.6463415397500001,9.249996543249999,-149.107746125,-1.0767863094999999,-0.663559079,9.30840861675,14.681737068,-0.6052961945000002,-1.69979622975
295,0.6145587500000005,0.7609057124999999,9.27186930075,-149.123905175,-1.1344788635,0.044182173750000026,7.887451767749999,13.3570511335,2.12931656825,-2.2875886297499997
296,0.6166419999999988,0.85886997,9.26875424375,-149.133274075,-1.1501753965,-0.42998093725000003,9.949738024750001,11.23830783575,-0.7952611297500001,-1.4977861157499999
297,0.6187252499999971,0.94611540475,9.269419312499998,-149.1528282,-1.2449585794999998,-0.2791809925,10.611058712,10.11881285725,-0.38502693175,-2.6813527867499998
298,0.6208084999999954,1.014792919,9.28833437,-149.168922425,-1.10146800425,0.05609263874999998,7.919410824750001,7.858931304499999,1.802743107,-2.341006555
299,0.6228917499999937,1.0676773115,9.272576690249998,-149.194419875,-0.381343957,-0.18835459274999997,9.306756019,6.09228599025,-2.391447842,-3.318174019
300,0.6249749999999921,1.1133125645000002,9.260444283,-149.2155075,-0.9688106552500001,-0.26083438775,10.92504024725,5.1493137775,-1.8844620735,-2.8555298042500006
301,0.6270582499999903,1.13728803375,9.250465750250001,-149.2451973,-1.1300576925,-0.05307019225000001,8.928915976999999,2.7079720197500006,-1.70935642725,-3.8155768057499997
302,0.6291414999999887,1.15941438825,9.2251281735,-149.2731781,-0.554097455,-0.044979621750000004,8.42598652725,2.4558161945,-3.4754898544999997,-3.610083298
303,0.6312247500000012,1.16626871375,9.188260674750001,-149.3174629,-1.1127391607500001,-0.038580078999999996,9.7439867245,0.9310330450000001,-4.9315695155,-5.45805496075
304,0.6333079999999995,1.1718556210000002,9.15599930275,-149.3628807,-0.6978317350000001,-0.1090039965,9.87858617275,0.8270933332500001,-4.390228927,-5.68108749325
305,0.6353912499999979,1.17053438725,9.132981896250001,-149.42322537500002,-1.4318046720000002,0.12651550000000003,8.8667482125,0.27665952624999984,-3.3495441685000005,-7.3979051705
306,0.6374744999999962,1.15764737125,9.0966670515,-149.492427825,-1.59951916325,0.14244908475,9.68386363925,-0.933520034,-4.90379834125,-8.4639763245
307,0.6395577499999945,1.15759563475,9.0945842265,-149.57299425,-0.9404210959999999,0.266762454,9.60660087925,0.8246733247500002,-0.8975323289999999,-9.87617159
308,0.6416409999999928,1.1498769819999999,9.082280636,-149.65442654999998,-1.466478005,0.22836740225,9.14174115775,-0.07728740575000004,-2.0598869029999998,-9.97026527025
309,0.6437242499999911,1.1462291925,9.08667850475,-149.7546234,-1.235538378,0.3430105225,9.205244601,0.7731856772500001,-0.13893085724999987,-12.21010518025
310,0.6458074999999894,1.14626547675,9.10525250425,-149.856449125,-1.6628473029999997,0.64519256375,9.8053193095,1.2552621364999998,1.55640779425,-12.49292326075
311,0.647890750000002,1.15605622525,9.1220817565,-149.965461725,-0.9453015027500001,0.20927577475,9.733878375249999,2.56169022575,1.2925559655,-13.282616613999998
312,0.6499740000000003,1.1812758745,9.162386179,-150.0853958,-2.07451406125,0.75798200075,8.4528663145,4.634433478,4.139818969499999,-14.689204215
313,0.6520572499999986,1.204153657,9.1935420045,-150.20787430000001,-0.58945610025,0.44681023075,9.8006567955,4.415143788249999,2.9638269695,-14.9158263225
314,0.654140499999997,1.25202441225,9.244347571999999,-150.333190925,-1.31153696775,0.60217519875,9.8116071195,7.4724106180000005,5.368694126499999,-15.363440752499999
315,0.6562237499999952,1.3070715365,9.28289842625,-150.461868275,-1.448287338,0.2840160505,9.3817557095,8.417461215500001,3.84329527625,-15.6797995575
316,0.6583069999999935,1.362278849,9.33354353875,-150.5965271,-0.5717102439999999,0.19238899650000002,8.584676981,8.5614389765,5.26188898075,-16.44066143
317,0.6603902499999919,1.41516649725,9.390449762000001,-150.7276802,-1.4175969065,0.19398258624999998,10.45579946075,8.2413063645,5.9745733735,-16.0515377525
318,0.6624734999999902,1.48486447325,9.42680597225,-150.86905289999999,-0.750026442,0.39012846375,8.9058067795,10.457085846,3.52898675225,-17.199268342499998
319,0.6645567499999885,1.5535539985,9.4934308525,-151.00489045,-0.9534916582499999,0.28928808875,7.904822348500001,10.261482715,7.0907400845,-16.63671422
320,0.666640000000001,1.61182320125,9.534143686499998,-151.14878082500002,-1.057942124,-0.10433063675000001,10.676378727249999,9.181842328,4.004150033,-17.5467362375
321,0.6687232499999993,1.687727213,9.586431979750001,-151.29079819999998,-1.07684993725,0.5538183825,10.3103481525,11.28202498025,5.347031325250001,-17.3381161675
322,0.6708064999999976,1.7540678082499999,9.62926387675,-61.43216325,-0.9247891157499999,-0.07049110700000003,7.253350377,10.1378022505,4.19291520125,-17.23333502
323,0.672889749999996,1.82861328125,9.67248964275,-61.572410600000005,-0.6203996875000001,0.04501084375,9.75699901525,11.118241368749999,4.1890277862500005,-17.112576482500003
324,0.6749729999999943,1.895653367,9.7068159565,-61.71466445,-1.4106558635,0.39251602075,10.730967044,10.269113914750001,3.1581758855,-17.3138470625
325,0.6770562499999926,1.9629161955,9.7449066645,-61.85427095,-0.8494983762499999,-0.4199350225,9.7239029415,10.2560178105,3.5331814885000004,-17.0457482325
326,0.679139499999991,2.01209813325,9.77806663525,-61.9910698,-0.9434423167500001,-0.1251611265,7.1957526197499995,8.045157552500001,2.9988080262500003,-16.666350604999998
327,0.6812227499999892,2.0500402749999997,9.78770065525,-62.129936225,-0.5097737612500001,-0.06034939375000001,11.0345265865,6.7468879965,0.12193685750000005,-16.83955288
328,0.6833060000000017,2.0876458885,9.813652277,-62.26472855,-1.117306277,-0.29360743499999997,10.557427047000001,6.627890765,2.08406481125,-16.415176155
329,0.68538925,2.1125615535,9.82143354475,-62.394821175,-0.85569573175,-0.08461319375000001,7.4779775155,5.019213245,-0.11852674925,-15.780066015
330,0.6874724999999983,2.1187648175,9.818608283,-62.51572035,-0.8974523217500001,-0.1325336045,11.65983009375,2.5917675940000002,-1.2942105532500001,-14.6311001775
331,0.6895557499999967,2.12640833875,9.8140289795,-62.634429950000005,-1.0697753727500001,-0.12074384475000001,8.28384029875,2.715375066,-1.56034258,-14.38097000225
332,0.691638999999995,2.1363775435,9.80712819175,-62.745895374999996,-0.8559303432500001,0.18747589025,10.221276878000001,2.8328134362499995,-1.73796782275,-13.485256908499998
333,0.6937222499999933,2.13311430825,9.78886628,-62.85036087499999,-0.93809632775,-0.23740113000000002,8.25975668375,1.103515744,-3.1063796132499997,-12.6406581415
334,0.6958054999999916,2.12053224475,9.767758609,-62.951274875,-1.3310671152499998,0.08541203299999998,11.42268061575,-0.09004054574999998,-3.4272651075000002,-12.163983583250001
335,0.69788874999999,2.11583331225,9.762166261749998,-63.054222124999995,-1.0604593119999999,0.203802163,8.806412816249999,0.89777904575,-1.6080971657499998,-12.509745360499998
336,0.6999719999999883,2.11145058275,9.7289240355,-63.144920375000005,-0.6414766835000001,-0.21501394724999998,9.678905008500001,0.67483289525,-4.8003740312500005,-10.92080712275
337,0.7020552500000008,2.082536906,9.707237481,-63.23651885,-1.003511063,0.132145146,9.97005355325,-2.25696343425,-3.48490029575,-11.091400623750001
338,0.7041384999999991,2.0716588795,9.699341296,-63.324722275000006,-1.9099735615000002,0.34855169825000004,10.13849735425,-0.16834960124999998,-1.7405996025,-10.7359522575
339,0.7062217499999974,2.06484279025,9.674839496250002,-63.405185675,-0.756710246,0.06530529999999997,9.25991356475,0.1539766935000001,-3.7293881774999997,-9.78769922175
340,0.7083049999999957,2.05069252875,9.667877434000001,-63.479389174999994,-0.970761247,-0.32823771350000003,10.879968644,-0.8685947655000001,-1.5939097925,-9.09240031225
341,0.710388249999994,2.037409097,9.655967235999999,-63.554657,-1.55639174575,0.5313857345,8.36699139975,-0.7351671307500001,-2.2252979280000003,-9.234521030749999
342,0.7124714999999923,2.0357739927500003,9.63769698275,-63.6230507,-0.596984051,0.14313071925,9.235944151,0.5141321347500002,-2.8849217295,-8.362292528249998
343,0.7145547499999907,2.0374427434999998,9.6398298745,-63.68670655,-1.1630120725,0.092836799,10.4975360645,0.817731306,-0.486206144,-7.927599548999999
344,0.716637999999989,2.03317976,9.62088275,-63.753200549999995,-1.39447847,-0.06314462425,10.054954527,0.1463599352499998,-2.956420988,-8.14109480375
345,0.7187212500000015,2.0154241025,9.622700929,-63.813793149999995,-0.94907286775,0.012801490500000012,8.79780179275,-1.57072885325,-0.47600225724999995,-7.561034441
346,0.7208044999999998,2.00213512775,9.608401298750001,-63.874736775,-0.9198071175,-0.0941540395,9.252043364499999,-1.04985380175,-2.40486937775,-7.5141665935
347,0.7228877499999982,2.00128972525,9.592648507,-63.933971424999996,-1.06030168375,0.22655422975,11.52421140625,0.4242679477500001,-2.60727906225,-7.3238265515
348,0.7249709999999965,1.9737283885,9.59163379675,-63.9940834,-1.2396938204999999,-0.36907052625,7.9592515225,-2.7778864205000002,-0.77137918775,-7.449491024
349,0.7270542499999948,1.9547089339999997,9.573038339,-64.045478825,-0.52074892425,-0.051682486750000006,9.86413669725,-1.9040021152500002,-2.91612309225,-6.37905275825
350,0.7291374999999931,1.925476402,9.55027270325,-64.10969542500001,-1.5245076865,0.5622008629999999,10.15243029525,-2.90419661975,-3.3879760130000003,-7.856738329
351,0.7312207499999914,1.9083597065000002,9.5571725375,-64.16559219999999,-0.90957171475,-0.20873016875,9.5695040215,-1.595974788,0.16659495224999987,-7.01595008375
352,0.7333039999999897,1.8785974680000002,9.536190508,-64.22064972499999,-1.25965370225,-0.060158770499999986,8.67616653325,-3.1353648984999998,-3.17688564975,-6.781452417250001
353,0.735387249999988,1.8353384732500002,9.5179612635,-64.278537725,-0.8795469217499999,0.056127075250000005,11.285354376,-4.695365220249999,-2.8851428392500003,-7.127085209
354,0.7374705000000006,1.8040994555000003,9.5287861815,-64.3380585,-1.609045595,-0.10039701125,9.19290757175,-3.228142917,0.6671675480000001,-7.43222045875
355,0.739553749999999,1.7769990115,9.499171735000001,-64.390041375,-0.41653309024999996,-0.11014703025,8.83172667125,-2.8752779957500003,-4.22417801625,-6.409847259499999
356,0.7416369999999972,1.72490340475,9.504979847249999,-64.443382275,-1.3020070344999999,0.13385664275,10.00724697125,-5.85453730825,0.09277477850000004,-6.67400062075
357,0.7437202499999955,1.6834701297499999,9.507989169,-64.496692675,-1.8425385355000001,0.09631363325,9.133659243499999,-4.56220263225,-0.27491761750000004,-6.683010339750001
358,0.7458034999999938,1.65462407475,9.5018191335,-64.53808215000001,-0.4810088725000001,0.05145488325,10.574573994249999,-3.286674559,-1.338119719,-5.2227623165
359,0.7478867499999922,1.5983962267499998,9.506632803750001,-64.58006284999999,-1.01335505375,-0.15379472249999998,8.19046854925,-6.557859778499999,-0.05406525725,-5.34367430225
360,0.7499699999999905,1.55996072275,9.5204930295,-64.624290475,-1.42627619175,0.35458586000000003,9.634091973,-4.375302523249999,1.09424643575,-5.61863055825
361,0.7520532499999888,1.520484507,9.51100349425,-64.66043852499999,-0.8764407457500001,0.24831214000000001,10.07086086425,-4.6612017155,-1.738351792,-4.64766484475
362,0.7541365000000013,1.4791671635,9.53159904575,-64.69978334999999,-1.12520216775,-0.19653335300000002,11.32317233225,-4.83122885225,1.9333335905,-5.06887114075
363,0.7562197499999996,1.4388411790000002,9.532967328249999,-64.740612025,-1.51304423825,0.02130404124999999,7.458796024500001,-4.6735476257499995,-0.408009112,-5.23546028125
364,0.758302999999998,1.39761579025,9.52629709175,-64.77734755,-0.22284101825000002,0.382576473,9.62913942275,-4.86313880425,-1.355534017,-4.687680810750001
365,0.7603862499999963,1.3608011009999998,9.53859758325,-64.81171417499999,-0.982730288,0.27909455625,9.972561240000001,-4.3921821115,0.89774388075,-4.5063703655000005
366,0.7624694999999946,1.34050334975,9.53538560725,-64.84207917500001,-1.6638251990000001,0.17157532275,10.25742817025,-2.50049697425,-0.875619374,-3.9419029355
367,0.764552749999993,1.303697467,9.5389010915,-64.862819675,-0.8647032827500001,0.33808974525,8.81323575875,-4.6560788752499995,-0.11890120975000011,-2.8757166565
368,0.7666359999999912,1.2755912839999999,9.545245647000002,-64.87732697499999,-0.92182776525,-0.0043252482500000106,9.07726466775,-3.7566386015,0.31891968100000007,-2.09837597625
369,0.7687192499999895,1.26876510675,9.5369026655,-64.889293675,-1.2468288765,0.48077496324999996,10.426823139,-1.2492605074999998,-1.4711087492500001,-1.802723363
370,0.7708024999999878,1.25093033925,9.54445052175,-64.895008125,-0.45939254025,-0.03389143024999999,8.663409709,-2.6923091562500003,0.4533784689999999,-1.0616844745
371,0.7728857500000003,1.2335209845,9.5485458365,-64.899299625,-1.63173605475,0.2227263115,10.299858332,-2.65107330675,0.003957629249999983,-0.9183246489999999
372,0.7749689999999987,1.22850948575,9.53049373375,-64.9111519,-0.800751999,0.42815691975,9.65966344,-1.02188631875,-2.5971489995,-1.7187215092500003
373,0.777052249999997,1.2277633844999998,9.52543520825,-64.920696275,-0.50280341525,0.09595547,9.298385502750001,-0.54539105475,-1.1065476837500001,-1.50638280075
374,0.7791354999999953,1.2211618275,9.50716638375,-64.92879490000001,-0.6501408177499999,-0.0075218435,8.619630694,-1.29195304975,-2.6147939059999996,-1.2729153260000001
375,0.7812187499999936,1.218114808,9.471294642,-64.941299425,-1.4663851259999998,0.27763525024999997,11.64131903675,-0.7690035105,-4.77474308025,-1.7696298435
376,0.783301999999992,1.218178198,9.452390907000002,-64.953372975,-0.70852078525,0.24760931,8.7299884575,-0.41472649975,-2.734191332,-1.75054723025
377,0.7853852499999903,1.23470476275,9.4197369815,-64.95798875,-1.121010862,0.041412107000000004,9.65987324775,1.4094746040000001,-4.40119165175,-0.8447670285
378,0.7874684999999886,1.23483276375,9.37442207275,-64.96759415,-1.2533640115,-0.011979209500000011,9.34791517325,-0.4761624335,-5.85789245375,-1.386713162
379,0.7895517500000011,1.2401775717499999,9.3547521835,-64.9732971,-0.7903032302499999,0.151500475,9.698741436,0.09034136674999999,-2.84473297925,-1.0019584
380,0.7916349999999994,1.2616990655,9.321365596,-64.974582675,-1.54638452825,0.20724243875,10.322590828000001,1.9222460015,-4.4027510025,-0.4316318779999999
381,0.7937182499999977,1.2754908502500002,9.27512323825,-64.976764675,-0.8236539465000001,0.02036650849999999,10.313478111750001,1.02063781025,-5.986153044,-0.51689206075
382,0.795801499999996,1.28625230475,9.2691345215,-64.9769478,-1.24100181475,0.3190963155,7.8269417295,0.62998849925,-1.1517537235,-0.37025377375
383,0.7978847499999943,1.3088909389999999,9.22017622025,-64.97529602499999,-0.5016196815,0.1456486995,9.5340156545,2.01163661475,-6.337474703750001,-0.04041284349999996
384,0.7999679999999927,1.3400333822500001,9.183447242,-64.973239875,-1.07063978175,0.184426315,12.2139008025,3.02193242325,-4.7959906255,-0.01702384474999999
385,0.802051249999991,1.3599316777500001,9.16357755575,-64.97128677500001,-1.2189492285,0.057684075249999994,8.055879593,1.69472102675,-2.84883438025,-0.07907435300000001
386,0.8041344999999893,1.38929668075,9.11292386125,-64.971366875,-0.6963820755,0.292560119,8.32535707975,2.858955145,-6.47167009125,-0.21740722674999996
387,0.806217750000002,1.4196181295,9.06849062425,-64.97724152500001,-1.4494552165,0.028351750250000002,10.99002635525,3.08904826625,-5.7803265445,-0.94453772275
388,0.8083010000000002,1.4571032224999998,9.0512355565,-64.98129655,-1.0019638575,-0.048147588999999984,9.56789147775,3.9198075160000005,-2.51520597925,-0.774071835
389,0.8103842499999985,1.4915092885,9.001099467,-64.98536299999999,-0.9705542819999999,0.15983778975,7.4499024149999995,3.54814824475,-6.497729583749999,-0.6878767685
390,0.8124674999999968,1.5154626072500001,8.9574637415,-64.99671555,-1.06897956875,-0.11536958275,11.86448740925,2.4177918285000004,-5.66442852575,-1.5587095022499997
391,0.8145507499999951,1.5463044942500002,8.94039165975,-65.0023117,-1.757956207,-0.040318259249999974,9.04433131225,3.14984324575,-2.53673779975,-0.9907073825000001
392,0.8166339999999934,1.58731731775,8.902085781,-65.003551475,-0.3236375225,0.22024689625,8.36869725575,4.278864771,-4.995362044,-0.35926529025
393,0.8187172499999917,1.60581266875,8.86489439025,-65.00895692499999,-1.2612876372500001,-0.2688824295,11.366256951750001,1.64677169925,-4.9104093915,-0.8935621082499999
394,0.82080049999999,1.616429597,8.8498260975,-65.00773999999998,-1.52027308175,-0.33990818825,8.846785783249999,0.5942278205,-2.2376595139999997,-0.15792134775
395,0.8228837499999883,1.64657601725,8.8215208055,-65.00243760000001,-0.9285069257499999,0.14341665625,9.71683370925,2.85100865375,-3.84633649925,0.356543796
396,0.824967000000001,1.65724560625,8.80036664,-65.00320815,-1.39838254425,-0.024714517499999995,9.480127572499999,0.624980748,-2.93326862175,-0.38669491575
397,0.8270502499999992,1.6626225115,8.80349206925,-65.00471495,-1.6384886650000001,-0.18108914425,8.696901321750001,0.012134726999999956,-0.10105463125000003,-0.56002008425
398,0.8291334999999975,1.680512458,8.79307663425,-64.996921525,-0.7885142417500001,-0.20416828225,10.047923088,1.3402676580000001,-1.6174748987499998,0.599523577
399,0.831216749999996,1.6773248762500002,8.7753162385,-65.0045433,-0.9843171575,0.34876810375,9.24941193875,-0.91564485425,-2.586721152,-1.243074909
400,0.8332999999999942,1.6804446875,8.78417110425,-65.00928114999999,-0.9760729557500001,-0.18163909475,9.40905070375,-0.20146562175000005,0.6138996704999998,-0.961363081
401,0.8353832499999925,1.68652898075,8.777451396,-65.0067482,-1.23485124275,-0.04249741125000002,10.95238328025,0.014612764249999799,-1.2641073467499997,-0.09588060524999997
402,0.8374664999999908,1.66860234725,8.740299344,-65.010597225,-0.38303905725000004,-0.36157314475,9.22106885925,-2.7595399617500003,-4.85951062325,-0.72842082375
403,0.8395497499999891,1.6507559272499999,8.732758403,-65.016704575,-1.0837942735,-0.38972141950000005,8.761210679000001,-2.7032209037499997,-1.391057968,-1.119764788
404,0.8416330000000016,1.6245389877499998,8.694652080500001,-65.008831025,-0.9945977479999999,-0.13714791849999997,9.067201258,-3.9609187545,-4.93509242025,0.6616157145
405,0.84371625,1.5888517497499999,8.6582945585,-65.01127245,-0.81239982125,-0.10050513800000002,10.32059979325,-4.92224901925,-4.794418216,-0.5828326937499999
406,0.8457994999999983,1.557414815,8.652107000500001,-65.008037575,-1.71858181075,0.3390361069999999,10.2297270305,-4.485776618,-1.164753247,0.021480739500000012
407,0.8478827499999966,1.5050964202500001,8.62314927575,-65.00798417499999,-1.7410455162499998,-0.41186331974999996,8.752771616999999,-6.943391978499999,-3.9396491350000002,-0.27846513674999995
408,0.849965999999995,1.46222983275,8.60672986525,-65.006855025,-0.03489601625000001,0.057252138999999966,9.354369281250001,-5.8323198465,-2.35730070225,-0.16197155424999998
409,0.8520492499999932,1.4274140747500002,8.60101020325,-65.015556325,-1.6215836105,0.77092134225,10.36943268675,-4.6785775825,-1.1832271369999998,-1.38679945475
410,0.8541324999999915,1.384575069,8.57037985325,-65.01790235,-0.8287282865000001,-0.313910527,9.78284096725,-5.76147460925,-4.071398854,-0.48833227149999997
411,0.85621574999999,1.3495933414999999,8.56084644775,-65.0230713,-0.838906363,0.21943366549999999,9.40829455775,-4.7638735164999995,-1.59073703,-0.90238958625
412,0.8582989999999882,1.3236453235,8.542523503249999,-65.03350065000001,-1.5113919827499998,0.1848457985,9.485150336,-3.5825769902499998,-2.66120791275,-1.489493653
413,0.8603822500000007,1.3052801192499999,8.49956750875,-65.04060742499999,-1.064384606,0.0892457925,8.744700909,-2.73834461,-5.6417250625,-1.0275183915000001
414,0.862465499999999,1.28022703525,8.488523483249999,-65.04034042500001,-0.5912192799999999,0.2624565215,9.447927593,-3.67460232975,-1.7194288962500002,-0.2351386985
415,0.8645487499999972,1.251708761,8.498172164,-65.04810335,-2.3929493727500004,0.24319122724999997,9.586812974499999,-3.946394682,0.6649823195000002,-1.2522609085
416,0.8666319999999956,1.24504762875,8.48284435275,-65.04574585,-1.4143384827499998,-0.2471667375,9.87842822,-1.504298478,-2.2257239212499997,0.011997107499999965
417,0.868715249999994,1.243674591,8.51803994175,-65.04354860000001,-1.7448507547499998,0.5526632072500001,9.280412912500001,-0.8611183164999999,3.7916579242499995,-0.16024567849999996
418,0.8707984999999923,1.22884103625,8.569423914,-65.04342270000001,-1.0777340532500002,0.3852636145,8.71904969325,-2.44588449625,5.73290509125,-0.4421881325
419,0.8728817499999906,1.2365742475000001,8.6200470925,-65.038673375,-1.6855082735,-0.28465693249999996,9.966763255750001,0.18205666524999992,5.61378961775,0.08674905825000001
420,0.874964999999989,1.2575097830000002,8.70445108375,-65.03511047500001,-1.7892226425000002,0.5146553985,10.48285186275,1.7827893795,9.739157318,-0.14378551374999998
421,0.8770482500000014,1.2655422984999998,8.7862918375,-65.03173447500001,-1.562286772,0.27380381524999997,7.83564949075,0.24144319800000003,9.3563435075,-0.19082283975
422,0.8791314999999997,1.2830056399999998,8.88454628,-65.03250120000001,-0.86287255575,0.008648673250000016,8.54304325475,1.4421139062500001,11.391401411,-0.7166799232500001
423,0.881214749999998,1.31281207475,9.00578379625,-65.026664725,-1.7276767715,-0.287103027,8.513638855,2.80401396775,14.12660064475,-0.04331692675000002
424,0.8832979999999963,1.339217022,9.08450222,-65.02506255,-0.48796604199999993,0.12965631475000003,9.834981919,2.464400828,9.018682002999999,-0.4182804152499999
425,0.8853812499999947,1.35848498325,9.20399022,-65.023338325,-2.064752713,-0.21941072774999998,10.4583313465,1.61276650425,13.871096968500002,-0.5586561859999999
426,0.887464499999993,1.3770367205,9.31640887175,-65.017448425,-0.36554722224999997,-0.34791786575,8.078832149499998,1.4327368734999997,13.11376214,-0.06354242950000001
427,0.8895477499999912,1.3851419090000001,9.403009415749999,-65.005977625,-0.8443586825,-0.19345736675,7.419446229999999,0.07121768574999976,9.957252028,0.6609179005000001
428,0.8916309999999896,1.3894038202499999,9.465069769249999,-64.999271375,-0.14354275175000006,-0.15313066325,10.870585917500001,-0.30587296175,7.0761148920000005,0.13779163324999993
429,0.893714249999988,1.38822656875,9.554118395,-64.98849870000001,-1.5676952600000003,0.14236704225,9.70076000575,-1.0398580729999998,10.2947769175,0.5150736569999999
430,0.8957975000000005,1.3904837517500002,9.5814511755,-64.97953415,0.03423533224999999,-0.218345261,7.4399876595,-0.598259509,2.8849713794999996,0.512070045
431,0.8978807499999988,1.3909533767500002,9.60576582,-64.9690094,-0.6727284342500001,-0.10594318524999999,11.059893608,-0.8167293069999999,2.4810877455000004,0.675863743
432,0.8999639999999971,1.37622194725,9.606808068,-64.966560375,-0.74068591175,-0.5569691285,8.837508441,-2.4883595145,-0.25585579800000013,-0.1711448205
433,0.9020472499999954,1.364688046,9.57598721925,-64.96440505000001,-0.18497959550000004,-0.10149022950000003,10.35041761525,-2.0844705257499996,-4.1573644285,-0.12771254775000002
434,0.9041304999999937,1.32631188625,9.53302287925,-64.96549225000001,-0.5381319765,-0.628310412,6.89658403425,-5.2365428210000005,-5.554173470249999,-0.43330636650000004
435,0.906213749999992,1.29004406925,9.449714661,-64.969455725,-0.71197500075,-0.1383954585,10.7748804085,-4.92856346075,-10.434601424499999,-0.6566049829999999
436,0.9082969999999904,1.24677406975,9.3754731415,-64.979606625,-1.13873781275,-0.22056166449999998,9.9893026345,-5.649175346,-9.364716648749999,-1.401809603
437,0.9103802499999886,1.1922009065,9.2740406975,-64.9862976,-0.712292932,-0.448302105,8.355271816750001,-7.073961079749999,-12.654562474749998,-0.89252181325
438,0.9124635000000012,1.14749212575,9.18130981975,-64.992767325,-1.1420419217500002,0.53380615975,11.2858953475,-5.8770244717499995,-11.539260389,-0.88108825675
439,0.9145467499999995,1.104096204,9.064674138500001,-65.006275175,-1.6367837115,0.06036823200000002,10.06624484025,-5.608263791500001,-14.494094014,-1.6838674249999999
440,0.9166299999999978,1.07001803075,8.964064598,-65.006507875,-0.80532213275,-0.17538350849999998,9.92006504475,-4.7169779837500005,-12.46879319925,-0.10372184774999998
441,0.9187132499999962,1.0355866329999999,8.85465276225,-65.011352525,-1.15585672125,0.07161096474999998,8.975226164,-4.69130933275,-13.573031365750001,-0.6578633487500001
442,0.9207964999999945,1.00111138825,8.734273076000001,-65.015216825,-1.1061076782500001,0.25236463725,11.487790821499999,-4.72191831475,-14.88265865975,-0.49699952825
443,0.9228797499999928,0.98197376725,8.66027545925,-65.016151425,-1.833825052,-0.09408505625,9.156314850000001,-2.926718327,-9.352425337,-0.2700574175
444,0.9249629999999912,0.982376635,8.56002473825,-65.01164242499999,-0.91414669525,0.28427679450000004,9.9701008815,-0.6893177629999999,-12.41145247225,0.4430494385
445,0.9270462499999894,0.957165286,8.4756189585,-65.01265715,-1.5838239490000001,0.15158972150000002,10.83582627475,-3.6692559719999998,-10.5973503285,-0.26458548749999994
446,0.929129500000002,0.9431818945000001,8.416059136249999,-65.016319275,-1.9729892312500001,-0.473678793,9.03702914825,-2.2698668242499997,-7.54424846075,-0.62413891025
447,0.9312127500000003,0.94423517575,8.35750591725,-65.008045175,-1.35552257275,0.010761026499999996,10.408112765250001,-0.6687269505000002,-7.441976905999999,0.77847749
448,0.9332959999999983,0.9069831295,8.31599235525,-65.01395797500001,-1.69462630175,-0.36851927625,10.838805675,-5.04412929725,-5.41458111875,-0.9361557214999999
449,0.935379249999997,0.88693356125,8.305688739,-65.0119171,-2.05206897875,-0.59491038325,7.80344846925,-3.10102333775,-1.70491814625,-0.07926636924999997
450,0.9374624999999952,0.8750895065,8.29388535,-65.00568770000001,-1.309300467,0.66535812975,10.1622679245,-2.2096154392500003,-1.7816590182499998,0.42933622000000005
451,0.9395457499999935,0.8384757325,8.3058838845,-65.003788,-1.4517652840000002,-0.41142899725,11.70702528925,-5.102052261999999,0.9821394679999998,-0.14988820999999986
452,0.9416289999999918,0.80672733475,8.3449561595,-65.00120924999999,-2.2021298705000003,-0.30470260225,9.145465494000002,-4.523059389,4.312624693,-0.093671441
453,0.9437122499999901,0.7645191625000001,8.3669326305,-64.9923172,-0.99311126375,0.03987467475,8.6427907355,-5.88474637225,2.23062542075,0.6482034772499999
454,0.9457954999999885,0.7202239185,8.4075636865,-64.9927597,-1.39668628575,-0.24779763074999997,10.47696173275,-5.983559191,4.4614239335,-0.4820023475000001
455,0.947878750000001,0.6823094785,8.456086874,-64.986427325,-1.5269076077500001,-0.010780849749999988,10.711567760000001,-5.3084549005,5.349856615,0.29669298975
456,0.9499619999999992,0.61818298725,8.502328514999999,-64.98225785,-0.626309285,-0.14701811225000003,8.492536187,-8.445278407250001,5.18171295525,0.10505987699999994
457,0.9520452499999978,0.53732645525,8.53899466975,-64.97576905,-0.9274527207500001,-0.8212719225,8.983412982,-10.471724389750001,3.9332902135,0.36397510774999997
458,0.954128499999996,0.47278597975,8.5789574385,-64.98329165,-1.9037335815,-0.03152116775000002,10.473385335500002,-8.26833319725,4.39204800125,-1.2969513090000002
459,0.9562117499999943,0.39522181449999993,8.620627641999999,-64.978679675,-1.04094344375,0.7166307755,9.025759934,-10.044453979,4.58525952675,0.14856250574999996
460,0.9582949999999923,0.28488905750000004,8.66279649725,-64.990730275,-0.999410942,-0.42668958749999997,8.759429216000001,-13.688250780250002,4.6211996675,-1.79437366125
461,0.960378249999991,0.19915401974999997,8.71819329275,-64.99807737500001,-2.0744060427499997,-0.5174185579999999,9.42668569075,-10.80288171725,6.166544318,-1.2551713735
462,0.9624614999999892,0.13518197825,8.7624987365,-65.00510405,-0.6968946385000001,0.63338446225,9.37616801175,-8.2164299465,4.92556011675,-1.1918976159999999
463,0.9645447500000017,0.04830189749999999,8.7936064005,-65.00962067500001,-1.26185327775,0.4279628545,8.67598307125,-10.994923351999999,3.2522149905,-0.9252891389999999
464,0.966628,-0.032467728000000015,8.84327137475,-65.01980209999999,-0.862943098,-0.12003679575000001,8.584057808250002,-10.17719495275,5.5646362305,-1.574151814
465,0.9687112499999984,-0.08558086,8.897913456000001,-65.007789625,-1.174147442,0.31431555600000005,10.631942985999999,-7.253136634999999,6.12424290175,1.08315574025
466,0.9707944999999966,-0.13707948475,8.93032526975,-65.016922,-1.47181722125,0.27784539,10.02728188075,-6.678429125,3.45607483375,-1.44402215075
467,0.972877749999995,-0.17642068475,8.95422101025,-65.013099675,-0.6436617072499999,0.62296551475,7.9677268255,-5.454485655,2.4032336474999996,0.07697721600000001
468,0.9749609999999933,-0.20310909875,9.009130716500001,-65.011001575,-1.0212833209999999,0.7463104737499999,9.002142905,-3.89681875575,6.19660305975,-0.12234322524999999
469,0.9770442499999918,-0.21229901774999999,9.047327995249999,-65.01693342499999,-1.62608775475,0.16586243350000002,10.191226483249999,-1.64966630925,4.1195977930000005,-1.0503694267500001
470,0.97912749999999,-0.18327026425,9.06063890475,-65.018497475,-0.7004526707500001,0.35599028700000007,10.787984967,2.8555655472500003,1.2084568142499998,-0.51992411725
471,0.9812107499999883,-0.1438742465,9.09174633125,-65.018543225,-0.999317467,1.4750698915,7.9611468315,4.074831307499999,3.3045279385,-0.351766687
472,0.9832940000000008,-0.09727722024999999,9.1080075505,-65.0197296,-0.5331456212500001,0.075027242,7.72620397825,4.955929935,1.5263030527500003,-0.4595449345
473,0.9853772499999992,-0.008713588250000008,9.114646194999999,-65.0178566,-1.4328342602499997,0.14988936474999998,12.385425807499999,9.931364953000001,0.32821655324999965,-0.12163568999999999
474,0.9874604999999974,0.09031626350000002,9.12794435,-65.01497652500001,-0.8096134589999999,0.86159380525,10.08308792125,11.183387994,1.2129369527499996,0.023158371249999976
475,0.9895437499999957,0.185442622,9.095090388500001,-65.01077652500001,-0.60730250925,-0.09687635300000008,7.15553176425,10.6618698845,-4.4131324745,0.17103583349999998
476,0.991626999999994,0.29154922625,9.08389103525,-65.01108550000001,-0.8697363062500001,0.13924700575,10.068136928249999,12.094788195749999,-1.7289100279999998,-0.34472918475
477,0.9937102499999924,0.4120277725,9.066266179749999,-65.012500775,-1.4521781805,0.50089233375,10.439456580749999,13.81961411125,-2.5459595910000004,-0.50499750025
478,0.9957934999999906,0.54155285675,9.015561461,-65.008655525,-0.56568985425,-0.43720947925,9.89092802825,14.821954518,-6.508110969500001,0.17111910175
479,0.997876749999989,0.64948897825,8.970030547250001,-65.015625,-1.24046701175,0.29998548350000004,10.3106956475,12.4069937465,-5.9386982315,-1.11890053375
480,0.9999600000000015,0.75088295325,8.92743504025,-65.013889325,-1.15317427375,-0.3225426262500001,8.43528532975,11.480462789249998,-5.499086259749999,-0.08112033449999997
481,1.0020432499999998,0.86954140675,8.85891664025,-65.011512775,-0.8258653655,-0.9318364559999999,9.792098759249999,13.511482120499998,-8.6808437105,0.02593457699999996
482,1.0041264999999981,0.9591628910000001,8.79695272425,-65.005794525,-1.00070556625,0.2160580757499999,11.3183105,9.989454027499999,-7.8146978915,0.45403833225
483,1.0062097499999965,1.00565177175,8.72663509825,-65.007572175,-1.3658826872499998,-0.6455621345,9.2704248425,4.932858467499999,-8.863148452,-0.43361391875
484,1.0082929999999948,1.04331408425,8.6440747975,-64.994113925,-0.8305871485,-1.09380365925,8.13439571925,3.6167907709999993,-10.305433097,1.47805404675
485,1.010376249999993,1.0648440915,8.56230437775,-64.99536897499999,-0.93519502875,-0.314525586,9.7787562595,1.9367722254999997,-10.277308999999999,-0.261050813
486,1.0124594999999914,1.0593471415,8.49349319925,-64.98220062499999,-2.2301061155,-0.766347628,8.573678374250001,-1.5366245220000003,-8.62296024025,1.43085956575
487,1.0145427499999897,1.02902728325,8.402704835,-64.98418810000001,-0.5681814105,-0.38561341150000006,10.36687302725,-4.266981004750001,-11.3638693065,-0.278468408
488,1.016625999999988,0.9741570799999999,8.3285087345,-64.97780607499999,-1.73399165275,-0.020878922249999987,11.462399957750002,-7.3411154895,-9.285539301,0.651063025
489,1.0187092500000006,0.8980998545000001,8.29121565825,-64.985466,-1.9496690332500002,-0.5829054897500001,9.208272695749999,-9.665634101,-4.9479551305000005,-1.05833894025
490,1.020792499999999,0.81191802025,8.23845171925,-64.979732525,-1.1811465175,-0.38062515275,7.119805754500001,-11.0870099675,-6.72077488975,0.563049078
491,1.0228757499999972,0.6985413432500001,8.204942465,-64.9905014,-1.99887499225,-0.20439816275,7.82123065,-14.101205230000001,-4.49000644775,-1.44019587325
492,1.0249589999999955,0.57537902875,8.19771337525,-64.98777387499999,-1.4784596787500002,-0.494446501,9.305194974499999,-15.478091958,-1.2538423172499997,0.07131963224999999
493,1.0270422499999938,0.46226595325000003,8.197636962,-64.99419405,-1.37657471025,-0.03079635650000001,11.322075368250001,-14.1453685745,-0.46842683100000027,-1.0052531660000001
494,1.0291254999999921,0.33325758575,8.22756958025,-64.992904675,-2.234637335,0.3356500195,9.884791256,-16.16829872125,3.2291362580000005,-0.13882288325000003
495,1.0312087499999905,0.17762787625000004,8.243506312500001,-64.99252702499999,-0.9416288660000001,0.0015506762499999695,6.79565525075,-19.352492212999998,1.4807783962499999,-0.27164210375000003
496,1.0332919999999888,0.025894395999999986,8.299552202,-64.98804855,-1.8961846527500001,0.27092216899999993,6.616208135999999,-18.95479965425,6.3268373455,0.23578247975
497,1.0353752500000013,-0.11828204800000001,8.347317456999999,-64.988636,-0.5048975945,0.03667438400000002,9.97277915475,-17.9654445675,5.2671375860000005,-0.36931551425000003
498,1.0374584999999998,-0.23110917774999998,8.391667366,-64.98210905,-1.91967266775,0.47996728125,11.53496933075,-14.3095068925,4.9437794685,0.46771627675000005
499,1.039541749999998,-0.32908386,8.450042128749999,-64.984031675,-0.9785693475,0.9094576612499999,9.58124601975,-12.389183517500001,6.54326242225,-0.5630971167500001
500,1.0416249999999962,-0.43107598275000003,8.491989374,-64.978385925,-0.85426188975,0.862891793,8.1949018235,-12.9861040125,4.64038530025,0.33282847725
501,1.0437082499999946,-0.500540751,8.54751479625,-64.99277495000001,-1.62370207175,0.43873959775000004,7.13588285475,-8.737848045,6.248037399249999,-2.0088291765
502,1.045791499999993,-0.5351689085,8.617036700249999,-64.99040225,-1.1247361005,1.26964608575,8.27048885825,-4.852683304999999,7.9117399455,0.006573341750000017
503,1.0478747499999912,-0.5557648875,8.668875217499998,-65.0054245,-1.76798158875,1.1816469729999999,10.579109073,-2.86300039275,5.7694182995,-2.07453936325
504,1.0499579999999895,-0.5447062635,8.743933678000001,-65.016796125,-1.2089319237499998,0.81425314025,11.9522345075,0.87321501725,8.62987625475,-1.59048425025
505,1.0520412499999878,-0.512208171,8.821256041249999,-65.02177047500001,-1.3364033475,0.9301360322499999,10.466059207,3.3341711177499995,8.81701713875,-0.8527653255
506,1.0541245000000004,-0.44938205924999997,8.886994004,-65.0360184,-1.026429206,0.97854881,6.67498469375,7.1476895815,7.5196714425,-1.93127855675
507,1.0562077499999987,-0.34362053875,8.94228839875,-65.04088594999999,-0.7441541104999999,0.7329924075,9.91432213825,12.11887693525,6.209771961,-0.86774007075
508,1.058290999999997,-0.22642385225,9.021327734,-65.039718625,-1.8388113082500002,1.462408334,9.676457763999998,13.403158665749999,9.07617658325,-0.13254088150000004
509,1.0603742499999953,-0.08117282425,9.0754667515,-65.045326225,-0.22663210700000003,0.5839408265,7.80292129475,16.868561745,6.037094473750001,-0.9814513472499999
510,1.0624574999999938,0.109601484,9.1128485215,-65.0356064,-0.9260344355000001,0.74860164525,11.440728425,22.062049150000004,4.10431718825,0.82231643975
511,1.064540749999992,0.29201589850000004,9.159315586750001,-65.036472325,-1.185427159,0.46213432025,10.4986872695,21.25581694,5.123572231500001,-0.46379084875
512,1.0666239999999902,0.48380027449999996,9.1767749785,-65.02967835,-0.5224303377499999,-0.14646833375,7.7957463252500006,22.235223055,1.712769985,0.43128616374999995
513,1.0687072499999886,0.67976962425,9.19930624975,-65.0371933,-1.41974137725,-0.004454378750000015,9.7314895415,23.006647585,2.269150883,-1.28654609625
514,1.070790500000001,0.8670664874999999,9.21553230225,-65.03289795,-1.0918885765,-0.24408744100000002,9.910898925,21.75551748,1.53885573125,0.13110628349999998
515,1.0728737499999994,1.0574311912499998,9.2047252645,-65.03364945,-0.44990559274999997,-0.10689424749999998,9.349568842,22.1844103325,-1.76547187225,-0.4582420589999999
516,1.0749569999999977,1.2336639315,9.22062683,-65.02560425,-2.0657606255000003,-0.29940404725,9.7732862245,20.3405516125,1.5447212604999998,0.5617875755
517,1.077040249999996,1.3849898875,9.21787691025,-65.020797725,-1.1251057384999998,-0.42354741675,10.088498829749998,17.397153855,-0.78030273325,0.22998385124999998
518,1.0791234999999944,1.54046365625,9.222370625249999,-65.005332925,-1.337991722,-0.09595507200000002,10.29831099375,17.6824287195,0.19000646449999992,1.463095434
519,1.0812067499999927,1.6793845297499999,9.22166490475,-64.999839775,-1.6141091885,-0.12840218675,10.14554810525,15.88749372725,-0.49641025424999996,0.29328641274999995
520,1.083289999999991,1.80346542625,9.23169231525,-64.98413085,-1.2029496282499998,-0.84607127325,9.0618680725,13.912367701500001,0.8259216844999999,1.47928947225
521,1.0853732499999893,1.93377786875,9.2227855925,-64.97098922500001,-0.89379286775,-0.34488165225,9.924286364750001,14.70431614125,-1.4872712420000003,1.2343279269999998
522,1.0874565000000018,2.0425124465,9.219044208,-64.9588852,-1.71124631175,0.32033871125,10.673394204500001,12.148416161250001,-0.7915630935,1.09317746575
523,1.0895397500000001,2.12615638975,9.2368251075,-64.94815444999999,-1.7914269269999998,-0.8371349695,9.660175679750001,9.1580281275,1.7102401555,0.835033726
524,1.0916229999999985,2.21467000225,9.26481664275,-64.92850874999999,-1.7665559052500002,-0.6320404225,8.952597259500001,9.5771484375,3.055266157,1.8402356805
525,1.0937062499999968,2.29249909525,9.2614589935,-64.925449375,-0.732245952,-0.207659066,9.54263794575,8.607694865,-0.8152020574999999,-0.003208106499999974
526,1.095789499999995,2.3474312125,9.287487508,-64.91237642499999,-2.5168185385,-0.33338945075000004,10.688585401000001,5.6811454305,2.753796324,1.060317401
527,1.0978727499999934,2.38610362975,9.30275607225,-64.905441275,0.28162077075,-0.594816692,9.729132295,3.854919671,1.3948944202500002,0.4038437305
528,1.0999559999999917,2.425038129,9.2977635865,-64.90672685,-1.916422054,-0.6910976822500001,9.171753526749999,4.034955024499999,-0.99163800575,-0.42995427900000005
529,1.10203924999999,2.43938154,9.293487549249999,-64.89617155,-0.6168677220000001,-0.57886989975,8.99934708975,0.8788149220000006,-0.93908834475,0.9399626329999999
530,1.1041224999999883,2.4361064135,9.2848758705,-64.902076725,-2.19492092725,-0.6843352315,8.97060346575,-0.9494629490000002,-1.4411422005000003,-0.9281544982500001
531,1.106205750000001,2.4196624157500004,9.28882813575,-64.891819,-1.48268469425,-0.70192933,8.48602593075,-2.8123928297500003,0.07847365624999991,0.9297170077500001
532,1.1082889999999992,2.377833873,9.2873003485,-64.89048385,-1.120108314,-0.7105437962500001,9.2592197665,-5.70859098425,-0.60433203075,-0.09930956374999995
533,1.1103722499999975,2.32530516375,9.290119648000001,-64.88205335,-2.308080256,-0.9760826007500001,10.828144550250002,-7.11439909,-0.1026775832500002,0.697843939
534,1.1124554999999958,2.2555731682499998,9.326921700500002,-64.875801075,-2.14061310875,-0.16480825100000002,7.8994886875,-9.14907300375,4.0494591589999995,0.32732442025
535,1.1145387499999941,2.16508881725,9.35787034075,-64.863487225,-0.37652804700000003,-0.6131924580000001,7.038468479999999,-11.74847721975,3.2827118029999998,1.0490790307499998
536,1.1166219999999925,2.058047265,9.40635085225,-64.8618622,-3.1709062455,-0.67911736675,11.409406902499999,-13.553983212750001,5.4496956465,-0.3445303142499999
537,1.1187052499999908,1.9498560577500001,9.48576354975,-64.84820557500001,-2.318796575,-0.3574045597500001,11.299161195749999,-13.8981826325,9.1408873195,1.00715214
538,1.120788499999989,1.84526845825,9.567909002999999,-64.8512268,-1.4842406547500002,0.21018296125,7.03403890125,-13.168371677000001,9.422704794249999,-0.9678434432499999
539,1.1228717500000016,1.7338660954999998,9.6634385595,-64.8310852,-0.59090168775,-0.02820822600000006,7.0883657335,-14.429867147000001,11.042261601,1.6677912174999998
540,1.124955,1.6279888152499997,9.76746702325,-64.837158175,-2.3964002727500002,-0.3127649315,9.19619536375,-13.25323915475,12.09764003875,-1.40312868325
541,1.1270382499999982,1.54439976825,9.86126899825,-64.81007385,-1.3109155555,0.388101412,10.290760636,-11.23797941225,10.876543046250001,2.53216628725
542,1.1291214999999966,1.463313803,9.97616124275,-64.8043175,-0.474126395,-0.0558335225,9.93572688,-10.526753186999999,13.408706665,-0.030721276749999887
543,1.131204749999995,1.3992268145,10.05901241125,-64.78273390000001,-1.2484587282500001,-0.063416847,7.7831103805,-8.79026675275,9.57093468025,1.87644149375
544,1.1332879999999932,1.340002611,10.1566498295,-64.76964570000001,-0.90200342225,-0.0671841875,7.95592725275,-8.0539916005,11.323793293,0.8742460832500001
545,1.1353712499999915,1.2776874005,10.229120492499998,-64.75399780000001,-1.25159046075,-0.3030841125,9.272704958999999,-8.45946477325,8.27462709,1.22658547775
546,1.1374544999999898,1.23951146,10.3212087165,-64.754138925,-1.12224984175,-0.14484293749999996,8.7692735205,-5.234167874,10.650632143,-0.6779930292499999
547,1.1395377499999881,1.2069752215,10.37811875225,-64.739959725,-1.2868046350000002,-0.05608339975,9.450494768,-4.858723819750001,6.406246425,1.066365786
548,1.1416210000000007,1.1598995775,10.456822872,-64.750263225,-0.8311316222499999,-0.29973709925,9.41595173025,-6.085223974,9.0188930025,-1.8356894105
549,1.143704249999999,1.127489731,10.502756359,-64.74682999999999,-1.2446038797499999,-0.8220997565,9.592073797749999,-4.62324500075,5.0937840925,-0.160137117
550,1.1457874999999973,1.0974443999999999,10.5672743305,-64.744903575,-1.16273364425,-0.15932954099999996,9.9973732235,-4.31110398875,7.3124074925,-0.3315507845
551,1.1478707499999956,1.0602152197499999,10.5705258855,-64.743309025,-0.5694337190000001,-0.011859390750000004,6.7011942865,-5.1993864775,-0.06731075074999993,-0.28908628324999996
552,1.149953999999994,1.0416812894999998,10.584346534,-64.74168774999998,-0.98183153025,-0.7123328820000001,10.79224455375,-2.9263336659999997,1.2708025567500003,-0.24362347250000002
553,1.1520372499999922,1.01853226125,10.565703631749999,-64.7324295,-0.604729226,-0.147504732,9.736047029749999,-3.6771809495,-2.6782653950000004,0.69238135225
554,1.1541204999999906,1.0033944545,10.523439884,-64.7301788,-0.79325632775,-0.06608662775,9.311463475,-2.5214181095,-5.456356897749999,-0.04802359625000002
555,1.156203749999989,1.0042205005,10.4632513525,-64.727188125,-1.0350871832500002,-0.32680912775,10.15141332275,-0.6496286987500001,-7.63750481575,0.07080397025000001
556,1.1582870000000014,1.0042236075,10.388588789,-64.72095487499999,-1.1181953622499998,-0.45556446925,9.53600084675,-0.7788020385000003,-9.37479710675,0.4938714802500001
557,1.1603702499999997,0.99834752075,10.2817883485,-64.72727585,0.18001980699999998,-0.35299623775,8.308173061249999,-1.2490890982500005,-13.288706781,-0.90430755175
558,1.162453499999998,0.9994104655,10.1588155045,-64.725147225,-1.65275870275,-0.801011252,10.776408434,-0.5439961327499998,-15.143979308999999,0.12368819099999998
559,1.1645367499999963,0.9786880752500001,10.04151415875,-64.7331123,-0.8533281907500001,-0.830905173,10.4622063645,-2.9778417280000005,-14.556459249,-0.99404059375
560,1.1666199999999947,0.9685214904999999,9.898419618750001,-64.738761875,-1.9937316829999998,-0.62303819875,10.17602383925,-1.7567558685,-17.564439059999998,-0.69889082
561,1.168703249999993,0.9296034052500001,9.79021096225,-64.75208665,-1.23595800425,-1.09161643675,7.9074456685,-5.0364137297500005,-13.443640290749999,-1.61418384325
562,1.1707864999999913,0.8712379187500001,9.635253191,-64.76195525,-1.71338250475,-0.644324988,11.334125994,-7.4631801835,-19.0305324485,-1.106893927
563,1.1728697499999896,0.8129973260000001,9.533143401250001,-64.773731225,-0.98639918875,-0.9232038837500001,8.83846295,-7.410710601999999,-12.741361856250002,-1.42359800425
564,1.174952999999988,0.74278788275,9.394916652500001,-64.7809143,-2.7949247212499997,-0.6290903015,12.341299533499999,-8.927558184499999,-16.9861154575,-0.7216398755
565,1.1770362500000005,0.66310216475,9.30252408925,-64.789005275,-1.5486364512500002,-1.2970928175,7.656295001749999,-10.052835465000001,-11.577327489249999,-1.002237279
566,1.1791194999999988,0.5702536555,9.190124273250001,-64.79175565,-1.48772681275,-0.3487009925,12.251339198,-11.73986768775,-13.8745381825,-0.26967635475
567,1.181202749999997,0.4685618135,9.12455141525,-64.79372025,-1.6593706235,-0.84098850925,6.8668557405,-12.808811546000001,-8.316490530500001,-0.36074762024999996
568,1.1832859999999954,0.34796947225,9.04748177525,-64.79668425,-2.0608578472500003,-0.9029808495000001,12.023562432499999,-15.0845763675,-9.6554851525,-0.40666462475000004
569,1.1853692499999937,0.22931745650000002,9.011645317,-64.79482647500001,-2.1337890625,-0.942244077,7.94212186425,-14.91839957,-4.78991735,0.040432035749999984
570,1.187452499999992,0.08926354350000001,8.964672326999999,-64.806961075,-1.58500593325,-0.35863852775,10.89222311975,-17.2238864875,-6.01708763725,-1.6410468855
571,1.1895357499999903,-0.05260485400000002,8.97472739225,-64.80638505,-2.863366872,-0.53634108225,7.0793328285,-17.68941903,0.731280014,-0.21698473424999998
572,1.1916189999999887,-0.18811401725,8.9857361315,-64.81637190000001,-1.78709017475,-0.25295381825,11.7367415425,-16.72288966,0.9306797385,-1.4868716969999998
573,1.1937022500000012,-0.30630800974999994,9.04994392375,-64.81496430000001,-2.3424917607499998,-0.149650462,9.58564400625,-14.854108571,7.2564246059999995,-0.12954731274999992
574,1.1957854999999995,-0.443364134,9.09569787975,-64.821136475,-1.71488887075,-0.3853256815,9.63410878275,-16.991518259,5.07915526625,-1.144536853
575,1.1978687499999978,-0.57722887,9.166429520000001,-64.81483840000001,-1.7908554524999998,-0.45883720375000003,8.352141023249999,-16.8255567545,7.990415723249999,0.4229163825000001
576,1.1999519999999961,-0.6932604127499999,9.230266331749998,-64.816780075,-1.06549116975,-0.558383476,8.610088825,-14.535530029500002,7.2633043530000005,-0.6040541899999999
577,1.2020352499999944,-0.8029481195,9.2985241415,-64.806659725,-0.58715502925,-0.25881408525,10.893800855,-14.000719665750001,7.7003077865,0.91290754075
578,1.2041184999999928,-0.9103113822500001,9.3363821515,-64.808967575,-1.7879070752499997,-0.24842622099999997,8.16980087775,-13.4850034725,4.14602136625,-0.6931631045
579,1.206201749999991,-1.020743787,9.395833491749999,-64.7948761,-0.9000707552499999,-0.6135813517500001,10.021565913499998,-14.162031888999998,6.67594240525,1.3957680465000002
580,1.2082849999999894,-1.11764340125,9.41671633675,-64.804901125,-1.32787642625,-0.39844810975,6.3408789635,-12.08278191375,2.0914831169999997,-1.6225886345
581,1.210368250000002,-1.1971898675000001,9.4420261375,-64.795833575,-1.20398589975,-0.008413978249999982,10.44071006775,-10.36229133675,2.550118327,0.7310975940000001
582,1.2124515000000002,-1.27936995025,9.45522141375,-64.798942575,-1.1039915505,-0.33750925600000004,8.99531078375,-10.4519566285,1.1972102230000001,-0.806845665
583,1.2145347499999986,-1.34349261225,9.45419609475,-64.79516602499999,-1.6413434705,-0.0745365395,10.922841312,-8.42570435925,-0.59561098725,0.058659762250000025
584,1.216617999999997,-1.392238602,9.4359174965,-64.79927065,-0.97062285225,-0.6010581507499999,8.59623110425,-6.41652297975,-2.5732710017500002,-0.98468825225
585,1.2187012499999952,-1.43463696525,9.425071358,-64.786087025,-1.1626074015,0.06364595199999998,9.615858436749999,-6.0154073837499995,-1.7580073630000002,1.11905714875
586,1.2207844999999935,-1.4739527104999999,9.370606185,-64.786815625,-0.30603154,-0.450340746,8.50973343875,-5.38119935975,-6.9544298515000005,-0.6892472657500001
587,1.2228677499999918,-1.49076285975,9.32793140375,-64.775196075,-2.2421079947499996,-0.417124279,10.4207005505,-2.92113737325,-5.6095532630000005,0.8597514777499999
588,1.2249509999999901,-1.5219943225,9.267098068500001,-64.766296375,-0.64011072,-0.699485913,10.04601180475,-4.57392126325,-7.71206933325,0.46105940625
589,1.2270342499999884,-1.5461913942499999,9.21057438925,-64.76006315000001,-1.6871355734999998,-0.11752643224999999,9.838001012749999,-3.7081731555,-7.25470149475,0.20355646324999999
590,1.229117500000001,-1.573377222,9.15570235325,-64.7516899,-0.95709460225,-0.711133547,9.346470236750001,-4.0478820204999995,-7.005590498249999,0.44296952725
591,1.2312007499999993,-1.5975562037500002,9.085173487,-64.74817275,-1.90477557825,-0.40996797474999996,9.5912129885,-3.65405982725,-8.885810494000001,-0.16778935849999993
592,1.2332839999999976,-1.6302082835,9.007417082749999,-64.74179459999999,-1.2748761105,-1.00615892925,9.52888000075,-4.64908045525,-9.78997427275,0.12880104375
593,1.235367249999996,-1.6629675627500002,8.930774808,-64.7490883,-1.1041740102500002,-0.1289443845,12.107364175999999,-4.4608891905000005,-9.630577495499999,-1.42552843675
594,1.2374504999999942,-1.7033912242499998,8.874248624,-64.75104905,-1.362010412,-0.44445644875,8.740710973499999,-5.44219923,-7.1684211297500005,-0.77388307075
595,1.2395337499999926,-1.73236724725,8.788993120250002,-64.7585144,-1.2678735555,-0.22752197474999994,10.62276733075,-3.9990555194999997,-10.67162179875,-1.44365715975
596,1.241616999999991,-1.75042074925,8.730516433750001,-64.765235925,-1.48254951825,-0.842357993,7.947124719,-2.6718532292500003,-7.387803610000001,-1.3443249465
597,1.2437002499999892,-1.7845773994999998,8.6403172015,-64.7724991,-1.78292366475,-0.05857188999999996,11.86947012125,-4.633436382,-11.21668934825,-1.46397234675
598,1.2457835000000017,-1.823573351,8.612309694,-64.77845765000001,-1.70618102125,-0.584347531,8.4556829935,-5.21495664125,-3.771225214,-1.0977045875
599,1.24786675,-1.8489925265,8.53589367875,-64.7855072,-2.26426518725,-1.0997330695,13.92578387,-3.5921280382500003,-9.60754793875,-1.3842289595000001
600,1.2499499999999983,-1.884091556,8.5500460865,-64.7818451,-1.9610890744999998,-0.3898421975,6.4580582390000005,-4.9167205990000005,1.2855350385,0.2315079645
601,1.2520332499999967,-1.9288161995,8.502301812,-64.79356385,-0.9618323369999999,-0.26490340375000004,9.264096737000001,-5.831891775,-6.142292588749999,-1.85610066525
602,1.254116499999995,-1.9710836710000001,8.52734386925,-64.781696325,-2.92943233275,-0.8132476825,9.45677351925,-5.92000031475,2.56154820225,1.1857085079999998
603,1.2561997499999933,-2.0136656165,8.530350446749999,-64.78756712500001,-0.73700118075,-0.21905997424999996,12.376490832750001,-5.66341704125,-0.047815829500000184,-0.9187348335000002
604,1.2582829999999916,-2.0684983135,8.564350009,-64.78876112500001,-2.702260673,-0.869300874,10.266317129,-7.20294201475,3.656865181,-0.31472529475
605,1.26036624999999,-2.1359313432500002,8.603923320749999,-64.789146425,-0.8410026134999999,-0.77099633225,7.08472102825,-8.74529689425,4.27796238975,-0.14273530925
606,1.2624494999999882,-2.20130828025,8.66472268125,-64.799060825,-2.0374580025,-0.05706710749999999,10.02464473225,-8.305227875500002,6.9457748829999995,-1.22655708075
607,1.2645327500000008,-2.2563967405,8.74804925925,-64.805786125,-2.4086282252499998,-0.7764359860000001,9.77952432675,-7.147448182249999,9.5511535415,-0.71208862975
608,1.266615999999999,-2.32347324475,8.832660913249999,-64.810791025,-0.7906060515,-0.22002301375,9.617438315249998,-8.606032966750002,9.745912313249999,-0.47854453350000004
609,1.2686992499999974,-2.39560940875,8.909872055000001,-64.82178117499998,-1.74892738475,-0.34267723749999995,10.524439574999999,-9.099887728499999,8.9106106785,-1.27166373275
610,1.2707824999999957,-2.45582398775,9.01708889,-64.8204689,-1.60411632075,-0.24882179125,7.15543055525,-7.894274085500001,12.410345793500001,0.36278093975000003
611,1.272865749999994,-2.51157075175,9.112291574250001,-64.830986,-0.8667478340000001,-0.10219488275000001,8.20671808725,-7.15117543925,10.997230411,-1.0823617427499999
612,1.2749489999999923,-2.5682106315,9.21749806425,-64.82551194999999,-1.6707315745,-0.44411291950000004,9.13535296975,-7.543287753249999,12.183473706000001,0.79828052225
613,1.2770322499999907,-2.63141107575,9.3011550895,-64.829677575,-0.982705787,-0.743181266,11.5676579475,-8.15566313375,9.575166107,-0.4162250460000001
614,1.279115499999989,-2.6869616507500003,9.39800048025,-64.83506394999999,-1.12956381575,-0.39491886625,9.0395333775,-7.197915554,11.23823314675,-0.5568919777499999
615,1.2811987500000015,-2.752191961,9.4897444255,-64.833835575,-0.5507126485,-0.39445485175000006,7.4438678025,-8.49691599475,10.56181445725,0.266023159
616,1.2832819999999998,-2.8429669142500003,9.55366849925,-64.83909605,-1.67603196175,-0.513935008,9.806055069000001,-11.4273722195,7.2462484824999995,-0.7352858037500001
617,1.2853652499999981,-2.9270151855,9.645896435000001,-64.84646227500001,-1.6174070015000002,-0.33874869975,7.439153075250001,-10.595731138,10.642737986,-0.773850903
618,1.2874484999999964,-3.00404489025,9.707474708,-64.85470959999999,-0.7012435942499999,0.025711630249999978,9.993698952999999,-9.716247677,7.03718090175,-1.0413949564999998
619,1.2895317499999948,-3.07454115125,9.79041624025,-64.86038589999998,-1.73543360825,-0.45553316525000004,11.0441730025,-9.01433920875,9.513052465249999,-0.574047096
620,1.291614999999993,-3.13481348775,9.85146641875,-64.8613205,-0.6847832947499999,0.522723429,8.1369305845,-7.859110310749999,6.9337098605,-0.19097656750000003
621,1.2936982499999914,-3.194597721,9.896006824,-64.86845015,-0.8801603615,0.07727918025000002,8.29568147525,-7.689196021,4.9584015605000005,-0.95895217725
622,1.2957814999999897,-3.22671329975,9.92201662175,-64.86157225,0.0012025979999999853,-0.46018233900000005,7.605219602750001,-4.6465415955,2.6462882392499996,0.53681357025
623,1.297864749999988,-3.245531261,9.91052460775,-64.85320282500001,-0.44445618724999997,0.74155131175,11.37695336325,-3.0950734837500002,-1.8997954425000003,0.50054690975
624,1.2999480000000005,-3.27271360175,9.896219252749999,-64.84754562500001,-0.930292976,-0.26797654849999997,9.3468328725,-4.02059948475,-2.1423268122499994,0.15862896299999998
625,1.302031249999999,-3.287697494,9.837938786750001,-64.83935547499999,-1.1448118537499998,-0.5583529917500001,8.972226976750001,-2.619641304,-7.503146886250001,0.19351236524999996
626,1.3041144999999972,-3.2886546255,9.790143011,-64.8337517,-0.55222445375,0.43472455825,9.950698019499999,-0.870669484,-6.154736048749999,-0.048603043
627,1.3061977499999955,-3.288804233,9.721786023,-64.8378029,-1.9753190652500001,-0.329864044,9.33777666,-0.58748143925,-8.5908106555,-1.2890365562500001
628,1.3082809999999938,-3.2963198425,9.6542881735,-64.84223175,-1.17845183625,-0.48302087575,9.434990762,-1.453364501,-8.48478305375,-1.34674543125
629,1.3103642499999921,-3.2977104785,9.596543194999999,-64.85181044999999,-1.538211882,-0.028216986749999992,8.87959766275,-0.6453505755000002,-7.31798148175,-1.86632378375
630,1.3124474999999904,-3.2892458437500003,9.52820968525,-64.8582039,-1.44656872775,0.080339359,11.590588092499999,0.5091885255,-8.53777318425,-1.5741261095
631,1.3145307499999888,-3.2636709215,9.48515963525,-64.8655052,-2.0240545592499997,0.03818073175,8.5159460305,2.5568482875000003,-5.5788095,-1.47309071575
632,1.3166140000000013,-3.2278422715,9.43400609375,-64.864589725,-0.6359451715,0.15993200975000002,9.27178907375,3.6275746525,-6.527055144749999,-0.58975177625
633,1.3186972499999996,-3.1879053710000003,9.368908763,-64.86190794999999,-1.3606499285,-0.157539077,7.57612669475,4.078766734249999,-8.249892117,-0.43687317049999996
634,1.320780499999998,-3.13487792,9.299026013499999,-64.8576622,-0.78504405175,-0.17444600875000002,11.64879346075,5.62488716825,-8.83202982,-0.31257373825
635,1.3228637499999962,-3.078816533,9.2394373415,-64.85852432499999,-2.22430798425,-0.1364291145,9.0649207825,6.071784436750001,-7.600132285999999,-0.841392413
636,1.3249469999999945,-3.0270649195,9.17354440675,-64.859638225,-1.0069974995,-0.3260270645,8.00935232575,5.59001986625,-8.280305147249999,-0.9135734587500001
637,1.3270302499999929,-2.9709166885,9.11824226375,-64.863132475,-2.0382777450000003,-0.41379977775000004,10.164689541249999,6.14428544025,-7.071988104500001,-1.113265151
638,1.3291134999999912,-2.90730416775,9.085725307499999,-64.866687775,-1.27074521775,-0.1263975685,7.96240031825,7.056408642499999,-4.26827353125,-0.9765619785
639,1.3311967499999895,-2.8457817437500004,9.062665701,-64.87601090000001,-2.688837558,-0.08414007350000001,9.776333809499999,6.898836016250001,-3.1403149965,-1.5729318707500002
640,1.333280000000002,-2.78151178375,9.09138059625,-64.87266922500001,-2.32135179625,-0.429866653,9.77987408625,7.0090868465,2.99478799125,0.189180427
641,1.3353632500000003,-2.7057482005,9.1111791135,-64.87802505,-1.9143859817500002,-0.234100841,9.142940283749999,8.5230960255,1.933340013,-0.8576160205
642,1.3374464999999987,-2.62581414,9.170154095,-64.88080595,-0.7729300929999999,0.030307631,8.34277939775,9.015725194749999,6.693435847,-0.3639207295
643,1.339529749999997,-2.5463759899999996,9.223773242,-64.88237000000001,-1.63308687875,-0.54386340075,8.250838875749999,8.89623153125,5.9679641025,-0.236224249
644,1.3416129999999953,-2.4534146189999997,9.272158624,-64.88317492499999,-0.10073272125000002,-0.4107773155,9.6841225615,10.539827109,5.411011249,-0.1985454372499999
645,1.3436962499999936,-2.35953307175,9.30586218825,-64.89320755,-1.7946560085,0.04964038349999997,10.71078837025,10.81283044675,3.6616873729999995,-1.34806784975
646,1.345779499999992,-2.2708996535000003,9.32969784725,-64.89173890000001,-0.838069685,-0.67604243025,7.4807902575,9.9798732985,2.42289572975,-0.08205835525000002
647,1.3478627499999902,-2.1659166515,9.3236529825,-64.898998275,-0.30508543549999995,-0.23559776699999999,8.549741268,12.07026433975,-1.1899925480000002,-1.229246527
648,1.3499459999999885,-2.0541700722500003,9.33853697725,-64.9030304,-1.6964667737499999,0.21195828149999996,10.450077772,12.8594558225,1.4425425729999999,-0.7849963045
649,1.352029250000001,-1.9544163347499999,9.31957483275,-64.90415189999999,-1.90931406625,-1.2281767595,9.65563630925,11.340051174500001,-2.7332476605,-0.569180444
650,1.3541124999999994,-1.8478179574999998,9.340493441249999,-64.89938735,-1.0393719745,-0.7094518095,9.32819032725,12.06860303775,2.097040832,0.268261239
651,1.3561957499999977,-1.7671808305,9.32167995,-64.90478135,-1.22927214025,-0.6180771064999999,9.479806183250002,9.13075858875,-2.6650590742499998,-1.0619982014999998
652,1.358278999999996,-1.68894439925,9.317594409749999,-64.897705075,-1.135421634,-1.2717057392500002,8.8685095305,8.610696435249999,-0.94572523225,0.45265793425
653,1.3603622499999943,-1.6203520295,9.299439908,-64.897937775,-0.740626134,-0.63714919425,10.5051317215,7.5737812525,-2.6432517692500004,-0.45097389525
654,1.3624454999999926,-1.5792340335000001,9.27879917525,-64.89307785,-1.41805474475,-0.511530418,9.18541640025,4.18993473125,-2.8830949439999998,0.11941351025000005
655,1.364528749999991,-1.5398929715,9.23947524975,-64.8895874,-1.501260668,-1.00476902725,10.848836304999999,3.99889659925,-5.19783324,-0.07136119899999999
656,1.3666119999999893,-1.4905196725,9.208025455000001,-64.88131335,-1.310008701,-0.277602913,8.943405510249999,5.11736726675,-4.187674283250001,0.46492066225
657,1.3686952500000018,-1.46860846875,9.17223036175,-64.88059615,-1.4794956745,-0.6425847485,8.7778182035,1.9579154262499996,-4.726477384499999,-0.38576649875
658,1.3707785000000001,-1.4362812935,9.116284490249999,-64.87667465000001,-1.497767538,-0.65986134475,9.35094070325,3.14936733025,-7.14664751275,-0.1425690725
659,1.3728617499999984,-1.418792844,9.11180865725,-64.86896515000001,-1.000834107,-0.9099992290000001,10.422844171249999,1.2779707905000002,-1.0216685535,0.5637694149999999
660,1.3749449999999968,-1.41178931275,9.030775903999999,-64.870182075,-1.125857316,-0.6122598647499999,9.427898885,0.18059940550000042,-10.08661842175,-0.7806869727499999
661,1.377028249999995,-1.4221002610000002,9.024493575000001,-64.865703575,-1.6373787075,-1.6874629855,8.73725831275,-1.97764331125,-1.238236428,0.22820364449999997
662,1.3791114999999934,-1.464242071,8.945988416999999,-64.86026000000001,-0.47054682675000004,-0.41189980525000003,11.76764631,-5.816318138250001,-9.81442189275,0.07658656675000003
663,1.3811947499999917,-1.52773977825,8.923353076,-64.858406075,-1.6190100910000003,-1.20661843575,7.466024398749999,-8.30351174075,-3.15204633825,-0.13523359224999995
664,1.38327799999999,-1.5965631455,8.82508885875,-64.85723494999999,-0.5360482632499999,-0.976589948,11.536368726500001,-8.93856948725,-12.217753296500002,-0.4578609355
665,1.3853612499999883,-1.7009997217500001,8.78158867375,-64.85074995000001,-2.25843887025,-1.0915103852499999,7.46439671525,-13.304299355,-5.70974415575,0.342177391
666,1.3874445000000009,-1.8294230400000002,8.67785263075,-64.85575865,0.07451654799999988,-0.6199895664999999,10.371548414500001,-15.9743182675,-12.810946584,-1.25363474325
667,1.3895277499999992,-1.94014078375,8.6197481155,-64.85715865,-3.0248286424999997,-0.34284897150000004,8.53842079625,-13.9155704975,-7.426277696750001,-0.6550169512499999
668,1.3916109999999975,-2.067634493,8.5691375735,-64.861831675,-0.6973736359999999,0.09064243699999999,10.937066315000001,-15.86414242,-6.442523896,-1.02820998425
669,1.3936942499999958,-2.1840329762499997,8.51539111125,-64.867324825,-2.82991915925,-0.20492877250000002,8.97292387475,-14.5236406325,-6.84297367025,-1.162937711
670,1.3957774999999941,-2.29855540375,8.50491166125,-64.8813286,-1.2674285975,-0.050937019249999965,11.15730822275,-14.1452004925,-1.6246696595,-2.0127413125
671,1.3978607499999924,-2.416326165,8.48992013925,-64.8872757,-2.9069496095,0.39066729675,8.83546960325,-14.702363252499998,-2.2144598057500002,-1.0864759907500001
672,1.3999439999999908,-2.509399444,8.510284781500001,-64.8976135,-0.27923688274999997,-0.19202870800000002,9.50622260575,-11.6370480055,2.09370439025,-1.43620301025
673,1.402027249999989,-2.58625561025,8.518541932,-64.90634155000001,-2.7230499540000004,0.11077615999999998,10.196757316,-9.7442389735,0.5861753225,-1.32001053175
674,1.4041105000000016,-2.6729973555,8.5589717625,-64.91309355,-0.49103702625,0.048332081499999985,9.48523914675,-10.933130384750001,4.491097748,-0.91561933225
675,1.40619375,-2.74324882025,8.59241426,-64.9216919,-1.5120860040000002,0.19517511325000003,7.8310587405,-8.9526373285,3.64078208825,-1.13831913475
676,1.4082769999999982,-2.8011590245000004,8.61566197875,-64.92678452499999,-0.6290388705,0.11891745775,10.92285048825,-7.50302159675,2.3885755092500003,-0.8371468727499999
677,1.4103602499999965,-2.8605235220000003,8.656325816999999,-64.941406275,-2.27164304075,0.35780498024999996,8.7311919915,-7.53779351525,4.504997235499999,-1.8353337345
678,1.4124434999999949,-2.92065322425,8.669875621749998,-64.946369175,-0.15880720199999998,-0.71026061075,9.0419119605,-7.755674243,1.25854898975,-0.8657933025
679,1.4145267499999932,-2.9684581754999995,8.711497306750001,-64.96634292499999,-1.737733282,0.5107664007499999,8.03897261725,-6.0464744575,4.644127935249999,-2.455221165
680,1.4166099999999915,-3.0020593402499998,8.715091466999999,-64.97400665,-0.82648899375,0.5393727592500001,11.517998455250002,-4.5123050217500005,0.08282977325000007,-1.24152197325
681,1.4186932499999898,-3.0137559772499998,8.775330066750001,-64.996433275,-2.358551383,0.19991736150000003,9.79004657425,-1.6526870734999997,6.92377555375,-2.6315747499999995
682,1.4207764999999881,-3.0247804525,8.80919647225,-65.0028992,-1.1591629832500001,0.6069627815,7.8502398735000005,-1.8291405444999997,3.670882389,-0.921049431
683,1.4228597500000006,-3.0123978257500004,8.85428762425,-65.02590562500001,-1.12265987725,0.51345146075,9.91516339625,1.2501742247500005,5.07786953425,-2.80652645975
684,1.424942999999999,-2.9763649702499997,8.89308285725,-65.03074265,-1.28655360625,0.201669112,10.21542561125,3.7868040962499996,4.2893638015,-0.6929515005
685,1.4270262499999973,-2.9349787235,8.933697223749999,-65.05506514999999,-1.08200526975,0.22935679550000004,9.50077998725,4.76026326325,4.55146485625,-2.9886884392499997
686,1.4291094999999956,-2.8742449284999996,8.97835779175,-65.0645256,-1.31439985325,0.840411201,8.866725207250001,6.8386416425,5.023051739,-1.215334855
687,1.431192749999994,-2.7886137365,9.0051116945,-65.08466340000001,-1.06422164125,-0.002233460750000027,10.231682541000001,9.999080178749999,2.89905542125,-2.5741990505
688,1.4332759999999922,-2.669368714,9.03812265375,-65.0892296,-0.8590049,0.45949969474999997,9.321270227000001,13.759153485000002,3.561595738,-0.6866984815
689,1.4353592499999905,-2.557305038,9.065359354,-65.09840012500001,-1.08155556575,0.26848636225,8.5688617235,12.9631342875,2.8577937930000004,-1.2845925462499999
690,1.4374424999999889,-2.4253771305000003,9.089783668499999,-65.0970459,-1.1567105389999999,0.10328930625000002,10.0931051965,15.1657562275,2.53202217825,-0.03926022724999999
691,1.4395257500000014,-2.27068740125,9.125776290000001,-65.10051727499999,-1.6650744827500001,-0.053050816,10.28381276025,17.970691442499998,3.87238079325,-0.5705285444999999
692,1.4416089999999997,-2.10821798425,9.138362288499998,-65.095848075,-0.7034249875,-0.27044909775,8.34323358625,18.75906777275,1.09295129675,0.28802903
693,1.443692249999998,-1.95146650075,9.183003069,-65.09329604999999,-1.3810563982500002,-0.40225427975,8.854508608749999,18.1149395725,4.91768544925,0.14379832150000002
694,1.4457754999999963,-1.7903115155,9.19541191975,-65.094085675,-0.533421725,-0.2147371545,9.85059225675,18.6900517945,1.05574941575,-0.40289588175
695,1.4478587499999946,-1.6223958134999998,9.228334903499999,-65.090770725,-1.5950753612500002,-0.49316833925000003,10.76093781125,19.431867598500002,3.46930372775,0.18034998325
696,1.449941999999993,-1.48223415,9.23671925175,-65.090843175,-0.71308682125,-1.2002775369999998,8.012923956,16.168406186749998,0.611297667,-0.33884113675000005
697,1.4520252499999913,-1.349399686,9.229738951249999,-65.08664322499999,-0.5582373375,-0.78222947175,8.75854766375,15.20946359675,-1.316610277,0.12793038024999998
698,1.4541084999999896,-1.22850737,9.2218984365,-65.082469925,-0.60232426225,-0.2718619705,11.12240135725,13.76120507625,-1.3445874155,0.10295957325000006
699,1.456191749999988,-1.10458758475,9.180754662,-65.06910322499999,-0.6733096792500001,-1.2211370170000002,8.3741999875,13.958439467749999,-5.3971034287499995,1.1206134410000002
700,1.4582750000000004,-1.01655937725,9.145495532999998,-65.059665675,-1.22135257725,-0.470681255,9.6175776725,9.723033664999999,-4.680777609500001,0.66609823725
701,1.4603582499999987,-0.9405560792500001,9.08473932775,-65.04980087499999,-1.115605188,-0.7275375685000001,9.17098474475,8.282981514,-7.777123094,0.670728102
702,1.462441499999997,-0.8596279172500001,9.0470775355,-65.0417099,-1.2019121275,-0.28173549475,11.4859187605,8.915387571,-4.925464068249999,0.51314598325
703,1.4645247499999954,-0.7872090039999999,8.9907408965,-65.031150825,-1.64375654975,-0.7664807327500001,9.70673549025,7.84344540375,-7.245659813,0.7911630867499999
704,1.4666079999999937,-0.72996462875,8.93096804625,-65.03631975,-0.63282495,-0.88609676825,7.43423604825,6.32017910475,-7.5572935265000005,-1.0707520695000001
705,1.468691249999992,-0.6816582382499999,8.855300068750001,-65.03547667500001,-1.86025331175,-0.39533173650000003,13.0172023775,5.11687642325,-9.508482218,-0.36780127875
706,1.4707744999999903,-0.6244525165,8.805735349999999,-65.03681945,-0.7970402035,-0.8151432635,8.677806257250001,6.244475423999999,-6.37645388425,-0.59081153925
707,1.4728577499999886,-0.5751784369999999,8.725369453499999,-65.03404234999999,-1.0612470095,-0.44199738650000003,10.0647337445,5.19176037625,-10.113245664499999,-0.10901414224999997
708,1.4749410000000012,-0.5332147405,8.6462292675,-65.02997969999998,-1.176312581,-0.819397293,8.86442768625,4.32120227825,-9.89555591275,0.019281169249999987
709,1.4770242499999995,-0.518061541,8.567644,-65.02427675000001,-1.7740529702499999,-1.18030424425,10.274576903749999,1.04530149675,-9.901011108250001,0.24586791174999997
710,1.4791074999999978,-0.5010616705,8.48121249675,-65.019432075,-0.8627790827499999,-0.7714201455,9.9473755355,1.2935616969999997,-10.76646950775,0.15047733824999998
711,1.4811907499999961,-0.50018624975,8.41516208625,-65.015022275,-1.9169797187500002,-0.6480489819999999,9.461420358,-0.643264367,-8.35482037075,0.11187004849999999
712,1.4832739999999944,-0.51746866875,8.3162255285,-65.00883865,-0.845937538,-1.29788076125,10.47687319025,-2.83629429075,-12.30654477975,0.331368249
713,1.4853572499999927,-0.51879273,8.239198923250001,-65.01002885,-1.32476160675,-0.425700778,8.87734758975,-0.8243225827499998,-9.69217354075,-0.59348872325
714,1.487440499999991,-0.5476250665,8.17353332025,-65.015697475,-1.4034207315,-0.623811267,10.7480738145,-4.013525456,-8.2597668165,-1.00431543225
715,1.4895237499999894,-0.5811502765000001,8.09023582925,-65.01877975,-1.91696523125,-0.912365921,10.06204009125,-4.64054429575,-10.447972625250001,-0.808629159
716,1.491607000000002,-0.61487460325,8.04611790175,-65.020137775,-0.9131839537499999,-0.8411732540000001,9.045783817,-4.6912362575,-5.665507077,-0.5155283885
717,1.4936902500000002,-0.658771783,7.965543032,-65.02939985,-2.430396229,-0.66622620825,10.629350183,-5.791489234999999,-10.066525409,-1.5152970102500003
718,1.4957734999999985,-0.72773092925,7.9750871655,-65.03212355,-1.7137904464999998,-1.5351640285,7.75235727375,-8.89300978175,0.73471069825,-0.56539932025
719,1.4978567499999969,-0.8178370905,7.919565797,-65.041503925,-0.9909352994999999,-0.9293252677500001,10.6161619425,-11.34356725275,-7.0777650485,-1.5249374629999999
720,1.4999399999999952,-0.9238159530000001,7.930758834000001,-65.0512924,-1.9912061802499998,-0.806169972,7.735187888,-13.211520909999999,0.9934515204999999,-1.4785949215
721,1.5020232499999935,-1.034516461,7.90273749825,-65.06980135,-1.3066017347499999,-1.0805667787500002,12.512408732499999,-13.66141581675,-3.7548550975,-2.4952910095000003
722,1.5041064999999918,-1.15450967125,7.93084394925,-65.0813446,-1.1478558575000002,-0.8197668604999999,6.79084628925,-14.8595418925,3.02182105175,-1.6436433344999999
723,1.5061897499999901,-1.3017306105,7.894117117,-65.10435104999999,-0.23639613000000004,-0.404953137,10.328842281750001,-17.9579558375,-4.749765977750001,-3.114205152
724,1.5082729999999884,-1.431791514,7.88670802125,-65.11932372500002,-2.10608242825,-0.773272015,8.769839049249999,-16.005079746,-1.2690318224999997,-2.1936294585000002
725,1.510356250000001,-1.5590919552500002,7.907049655999999,-65.137771625,-0.85941779625,-0.15388316674999997,10.9172633885,-15.6372659355,2.03653335525,-2.4113791585
726,1.5124394999999993,-1.67963120325,7.883591056,-65.155090325,-1.40508124225,-0.2104851185,5.59098827825,-14.805454431000001,-3.162484169,-2.52333630625
727,1.5145227499999976,-1.7986408772500002,7.89152741425,-65.17451857500001,-1.045497626,-0.713674575,10.53234553475,-14.603595018250001,0.5419431029999999,-2.6395993232499997
