,time,Euler_X,Euler_Y,Euler_Z,Acc_X,Acc_Y,Acc_Z,Gyr_X,Gyr_Y,Gyr_Z
0,0.0,21.087390263333333,2.3392835059999997,-28.02954356666667,-0.43040606400000003,0.19156356666666663,10.793223698666667,-13.841989836666665,0.545847813,-0.14459659399999994
1,0.0083329999999932,20.98768743,2.3561317523333334,-28.032864900000003,-2.606806516666667,0.4362644156666667,11.531682648333335,-12.41668892,1.2137435673333332,-1.5286790726666668
2,0.0166659999999865,20.888631819999997,2.3380291460000002,-28.04247283333333,-1.4692893426666667,0.11795565466666669,10.562363943,-12.051794368333333,-3.0256140630000004,-0.5540615763333333
3,0.0249989999999797,20.797468820000002,2.3410481216666668,-28.049476633333338,-1.5353581903333333,0.5372225543333333,8.940274873333333,-11.376508396666667,-0.5079388420000001,-1.371544341
4,0.033331999999973,20.690642036666663,2.336995721,-28.05014543333333,-1.5447324713333332,0.745744971,10.720068294666667,-13.045429545,-1.0656247336666664,-0.15246446933333332
5,0.0416649999999663,20.607126236666666,2.3228546776666668,-28.067909233333335,-2.2044814826666665,-0.08803312233333331,13.05390835,-10.179644265999999,-2.9549609026666666,-1.7854233386666667
6,0.0499979999999595,20.54156049,2.3044139943333337,-28.07512663333333,-1.3212886256666665,1.2712575396666665,8.007774988666666,-8.294465540333332,-2.8784466783333333,-0.3375102083333333
7,0.0583309999999528,20.442509966666666,2.303325574,-28.088119500000005,-2.498481750333333,0.1605657436666667,7.345380465000001,-12.306955023333336,-1.1890385743333334,-1.8193495769999999
8,0.0666639999999461,20.355183916666665,2.284974257,-28.098345433333336,-0.498429472,-0.38462251399999997,11.362389247000001,-10.680962724333334,-3.0720397233333334,-0.6377176146666667
9,0.0749969999999393,20.29089292,2.2852558689999998,-28.11253613333334,-2.6255049703333335,0.9330112536666668,12.746632259999998,-8.130603631333333,-1.09276739,-2.054513673
10,0.0833299999999326,20.229033153333333,2.245981454666667,-28.125419600000004,-0.384765115,0.3232830213333333,10.044255574333333,-7.620675563666666,-5.531365156333334,-0.07036229833333334
11,0.0916629999999258,20.15105629,2.2353762390000003,-28.140805600000004,-3.1919136046666665,0.8289202649999999,7.3192440670000005,-9.555472373,-2.4496344723333334,-1.725097576666667
12,0.0999959999999191,20.057710646666667,2.2321312030000002,-28.1500041,-0.9997724893333334,0.03351547566666666,10.557258129666666,-11.637816112333333,-1.237270097,-1.197896858
13,0.1083289999999124,20.006272633333335,2.218340039,-28.1639277,-2.7369285619999997,-0.17758787666666667,14.076930043333332,-6.603776931666666,-2.659995794333333,-1.4548971653333334
14,0.1166619999999056,19.94912211,2.2169971069999996,-28.17339836666667,-0.9521221616666667,1.239896238,7.789181074999999,-7.099386454666668,-1.1100825466666666,-1.277296538
15,0.1249949999998989,19.873419443333333,2.1760958036666667,-28.20444996666666,-1.8565543093333332,0.530480941,8.328229586,-9.434317112333334,-6.406330267333334,-2.272140681666667
16,0.1333279999998922,19.799956639999998,2.1737668116666664,-28.215309166666668,-1.1168006656666667,0.156670491,10.330657323333334,-9.049932797333334,-1.2677937746666668,-1.3967913586666665
17,0.1416609999999991,19.732821146666666,2.1505345106666667,-28.247006733333333,-2.244178732,-0.02220376600000003,12.76145649,-8.239473183666666,-4.509365081666666,-3.037664890333333
18,0.1499939999999924,19.680222193333332,2.1216169593333336,-28.272087066666668,-1.479266723,0.7457218666666666,10.269492465333334,-6.68252786,-4.761477470666667,-1.963045361
19,0.1583269999999856,19.597421643333334,2.100211262666667,-28.304224666666666,-1.647152543,0.2692370016666667,7.306533018666666,-10.316113632333334,-4.233107010333334,-3.192554474
20,0.1666599999999789,19.52741495666667,2.065947056,-28.333747900000002,-1.3516269473333333,0.139084138,13.028576216666666,-8.575668494333334,-5.628178278333333,-2.2699637813333333
21,0.1749929999999722,19.471269609999997,2.040965954666667,-28.356544500000002,-1.9486881096666668,0.7541135846666666,10.926906746,-7.166303475666667,-4.245862245666667,-1.9798907440000002
22,0.1833259999999654,19.39370028333333,1.9924422900000003,-28.402249633333337,-1.7259889443333334,0.7864063183333334,9.319483438666667,-9.432277758,-7.868408680000001,-3.5133728183333335
23,0.1916589999999587,19.307498296666665,1.970358769,-28.422365833333334,-1.7861853043333333,0.31772654266666667,8.093320052000001,-10.592452527666667,-3.880173146666667,-1.8082115850000002
24,0.1999919999999519,19.20846494,1.9251973629999999,-28.462216699999995,-0.8954456946666666,-0.113338838,10.650064945333334,-12.248767536333332,-7.177165189666667,-3.0310140056666666
25,0.2083249999999452,19.14001719,1.8944677513333332,-28.49184416666667,-2.0806751450000003,0.30126182199999996,13.602500276666667,-8.633649665666667,-5.1625879606666665,-2.573099533666667
26,0.2166579999999385,19.059757870000002,1.8320875766666667,-28.526941933333337,-1.5009869336666668,0.9105090696666668,8.959318954666665,-9.828179438666666,-8.988911789,-1.7978204589999998
27,0.2249909999999317,18.967021306666666,1.7939496636666667,-28.556457533333333,-2.1657510203333334,0.864033073,8.702237129333334,-11.555953026,-6.006337881,-2.3265624443333333
28,0.233323999999925,18.860230126666664,1.7666763266666667,-28.586293533333333,-1.9118294713333333,0.32585293033333323,9.122676372666668,-13.05491225,-4.791152477333333,-2.6005283196666666
29,0.2416569999999183,18.777498246666667,1.7328158616666667,-28.616869599999998,-2.186364889,0.03400669500000001,12.969799996666666,-10.186045168666666,-5.606474717333334,-2.581646601333333
30,0.2499899999999115,18.71762085,1.7172629436666667,-28.65233356666666,-2.1934538336666667,1.1075669526666667,11.136399589333335,-7.594950118,-3.6109543243333335,-3.7351663113333333
31,0.2583229999999048,18.65199534,1.677962065,-28.673884066666673,-0.8733835820000001,1.1416629353333334,7.654173532333334,-8.340068023,-5.804361482,-1.3806159100000002
32,0.2666559999998981,18.566097263333333,1.6555445193333334,-28.70670826666667,-2.1259072619999997,0.9319154423333332,8.418418726333334,-10.582688650666666,-4.346125523,-3.161467294
33,0.2749889999998913,18.48688126,1.6354116996666666,-28.727228800000002,-1.5943082970000002,-0.21407128966666666,10.531139054666667,-9.975204309,-3.5633463463333332,-1.9741018909999999
34,0.2833219999999983,18.446152366666666,1.6182844436666668,-28.74138386666667,-1.9686003923333333,0.3694073706666667,13.059710503333333,-5.2301491103333335,-3.022424221,-1.2473363676666667
35,0.2916549999999915,18.401663459999998,1.6191714803333335,-28.76214599999999,-2.242969632,0.8941839736666667,9.848795096333333,-5.823827425666667,-1.190976585,-2.837728579666667
36,0.2999879999999848,18.34039370333333,1.5997228026666666,-28.773938499999996,-0.775268028,0.6593061436666666,9.689131738333332,-7.707665761333334,-3.199078162333334,-0.924281299
37,0.3083209999999781,18.256761549999997,1.5880056820000001,-28.79868826666667,-2.6324501036666668,0.8018114716666666,8.978538513333334,-10.516903560000001,-2.7748033603333333,-2.831811865
38,0.3166539999999713,18.19180616,1.571850876,-28.8067932,-0.3977070106666667,-0.02571312366666667,9.752876283,-8.168836436333335,-2.667931874666666,-0.6057595736666667
39,0.3249869999999646,18.130837123333336,1.5536952016666665,-28.82135266666667,-2.560668548,-0.24526639399999994,9.318497339666667,-7.843878188333332,-3.1271101433333333,-1.447930207
40,0.3333199999999578,18.07423274,1.5520262120000001,-28.837315899999997,-1.9273883500000002,1.3117801943333334,11.767905237333332,-7.15430808,-1.3055106403333332,-2.048793196666667
41,0.3416529999999511,17.997609456666666,1.5325291356666666,-28.849255866666667,-1.1441571913333333,0.320694258,10.614068348000002,-9.581556797333334,-3.220883528666666,-1.065210541
42,0.3499859999999444,17.909252170000002,1.5175729990000002,-28.86840566666667,-1.7773462930000001,0.3681829883333334,8.792584100333332,-11.120985507,-2.886434475333333,-1.9498070876666667
43,0.3583189999999376,17.806863149999998,1.4951622883333335,-28.887041733333337,-1.4366676610000002,0.9024376746666668,8.614857673666668,-12.787963866333333,-3.7430300709999997,-1.761986315333333
44,0.3666519999999309,17.687811533333335,1.4617649120000002,-28.904309566666665,-1.6886875630000002,-0.9482596616666665,10.018115996666666,-14.685742537333331,-4.972429216,-1.058124026
45,0.3749849999999242,17.59902127333333,1.4589899776666666,-28.922943133333337,-2.1553639966666664,0.8979409733333332,12.024818104333335,-11.162531457,-1.4925587573333334,-2.4994969966666667
46,0.3833179999999174,17.487115226666667,1.430728396,-28.928276066666673,-1.126781255,0.32387822866666666,9.499876815,-13.869372368333336,-3.9433506726666665,0.12136885033333333
47,0.3916509999999107,17.359179816666668,1.4422612590000001,-28.95247396666667,-2.549240788,0.6313167063333334,10.766225179333333,-15.742071786666669,-0.10426263033333338,-3.623795747666667
48,0.3999839999999039,17.201491039999997,1.4183009663333335,-28.956339499999995,-0.9514671266666666,0.6041639846666667,9.83256483,-19.47448031,-3.3348804713333333,0.10763557766666669
49,0.4083169999998972,17.04345576,1.4213332736666666,-28.976425199999998,-1.8988616763333332,-0.17074064033333336,9.811974209,-19.51650460666667,-0.872659981,-2.868069291
50,0.4166499999998905,16.878825506666665,1.413832128,-28.980275466666665,-1.267698288,-0.363570005,8.355559347666668,-20.188956896666667,-1.5099764663333335,-0.5306548713333333
51,0.4249829999999974,16.70939382,1.404008925,-28.994814566666662,-2.2758225203333335,0.6444585623333333,11.121671038666667,-20.902057966666668,-2.140876968666667,-1.7977014183333333
52,0.4333159999999907,16.53347556,1.4446978966666666,-29.002370199999998,-2.248668036,0.8457384706666667,11.045836448333333,-21.539409636666665,3.914335591,-2.5745859643333335
53,0.4416489999999839,16.326945626666667,1.4472475253333332,-29.001401299999998,-1.2627810933333334,-0.49363137266666673,9.301263491333334,-25.28362147,-0.20335926599999996,-0.37874138366666665
54,0.4499819999999772,16.08853403666667,1.5021613833333334,-29.021914166666665,-2.5413653853333336,0.5080049833333333,9.621791997333334,-29.140766143333334,5.177141706333334,-4.501470327
55,0.4583149999999705,15.815007526666667,1.5333330829999998,-29.019363400000003,-1.1419618526666666,-0.8324566880000001,8.821694851333334,-33.42483647666667,3.2114373050000005,-1.1581671236666666
56,0.4666479999999637,15.540610630000002,1.5911121173333334,-29.035308833333332,-2.4925616583333334,-0.3140911853333333,10.722356793666668,-33.37603696,5.65108041,-4.000516255333333
57,0.474980999999957,15.251128196666665,1.6973089973333335,-29.02444966666667,-2.196300298,0.39112255,8.800205865666667,-35.370932896666666,12.165531635333332,-2.5412744683333335
58,0.4833139999999503,14.914629303333333,1.7798565623333333,-29.030319200000005,-1.9077842880000002,-0.7720377146666667,10.448468844999999,-40.86208597666666,8.883169056333333,-3.4818299610000003
59,0.4916469999999435,14.541919073333332,1.9075162013333333,-29.028811133333335,-1.5968613180000002,-0.03027890133333333,11.427627246666667,-45.242449443333335,14.328640140333334,-4.114530563333333
60,0.4999799999999368,14.112755456666667,2.0182812213333334,-29.030202233333327,-1.7869158586666665,-0.3719795643333333,7.805446147999999,-52.101996103333335,12.411255914666667,-3.666565418333333
61,0.5083129999999301,13.651626586666666,2.175408919666667,-29.025975533333337,-2.7877129713333333,-0.7241086499999999,8.834394296,-55.98483530666667,17.91930898,-4.439685741666666
62,0.5166459999999233,13.170043626666669,2.3666220506666664,-29.01727036666667,-1.5761483976666666,-0.6955397626666667,10.156093915,-58.328041076666665,22.101658503333336,-4.496217807
63,0.5249789999999166,12.63655027,2.5451436043333335,-29.005851766666677,-1.9586244423333332,-1.6258355776666669,11.564090413333334,-64.71040852666667,20.69684601,-3.824088812
64,0.5333119999999099,12.058777176666666,2.7424607279999997,-29.0240148,-2.610098958,-0.057146280999999965,11.052517571666668,-69.74912770666667,22.201948166666668,-7.422050158
65,0.5416449999999031,11.418769836666668,2.9868971509999995,-29.01330313333334,-2.356410582666667,-0.15407500666666665,7.293890874,-77.36255136999999,28.493821463333337,-4.996119419666666
66,0.5499779999998964,10.718775747666667,3.2635583876666665,-29.01876573333334,-2.1497946976666666,-0.578106165,8.302727538666668,-84.61670303333334,32.02353858666667,-7.2005718556666665
67,0.5583109999998896,9.996561049333334,3.5269312063333333,-29.013750699999992,-0.9904019386666666,-1.2242873113333335,11.223449072000001,-87.27319209666666,30.78965822666667,-5.396400769666667
68,0.5666439999999966,9.253668627333333,3.8063390256666665,-29.015302033333327,-1.8585370780000001,-1.1053602396666666,10.933002154333332,-89.70262908666668,32.538379033333335,-5.904423951999999
69,0.5749769999999899,8.471927324333334,4.118420283,-29.0212733,-2.6426101523333334,0.311464886,10.708277705,-94.36985019000001,36.43424733333334,-6.745284398333333
70,0.5833099999999831,7.6384191506666665,4.441742261333334,-29.016965233333334,-1.6145763000000002,0.3986950763333334,7.549700735999999,-100.59123994333333,38.027674356666665,-5.136994043666667
71,0.5916429999999764,6.736184914666667,4.765930096333332,-29.041781133333334,-1.2445403936666666,-1.0399092336666667,7.738661767333333,-108.64622496666668,37.711752573333335,-8.236039002333333
72,0.5999759999999696,5.813309510333333,5.058941602666667,-29.052523300000004,-0.8698266046666667,-1.5441138349999999,11.392583846666668,-111.14176175,34.36722946333333,-5.7258036930000005
73,0.6083089999999629,4.9071989060000005,5.416167259000001,-29.087755833333336,-3.0213639336666667,0.07980305933333331,11.891316414666667,-108.92853288666667,41.83083343333333,-8.701187451666668
74,0.6166419999999562,3.9640353916666666,5.728241920333333,-29.116269466666665,-0.39682943866666665,0.20169794566666663,11.415304025,-113.36411539333334,36.65007527666666,-6.981983345333333
75,0.6249749999999494,2.9510545133333337,5.9991467793333335,-29.171384166666666,-0.8292826016666668,-0.4301978646666667,8.007726353,-121.42955273333332,31.705004373333335,-9.183256466333333
76,0.6333079999999427,1.8712132076666668,6.285946527666667,-29.21633146666667,-0.6042307269999999,-0.697365016,7.778468450999999,-129.54105886666665,33.74661255,-7.567753633666666
77,0.641640999999936,0.789776385,6.573428789666667,-29.296908066666674,-2.4049278499999995,-0.941194157,12.349358559999999,-129.24935403333333,33.941393536666666,-11.078150433
78,0.6499739999999292,-0.30373680599999986,6.766033172666666,-29.34821066666667,1.0487950246666666,-1.1427562633333335,12.311921757333332,-131.02389783333334,22.711008393333334,-7.394739469
79,0.6583069999999225,-1.4491003353333334,6.962492625,-29.4447352,-2.1095162233333333,0.6312713373333333,8.719541548333332,-136.68449653333334,23.353894550000003,-12.033296266666667
80,0.6666399999999157,-2.648686607666667,7.15034469,-29.51392366666667,0.13677265266666666,-0.133013745,7.86070474,-143.46265666666667,22.440883633333332,-8.308793704000001
81,0.674972999999909,-3.873383303666667,7.26549991,-29.610354133333328,-1.1789179543333335,-0.5175212623333333,12.025050479999999,-146.13806153333334,14.003070889666667,-12.00630188
82,0.6833059999999023,-5.095752040333333,7.376853148333333,-29.68197629999999,-0.07917565133333333,-0.024945954666666676,12.184639932333333,-146.15760803333333,13.553536731333333,-8.647152424
83,0.6916389999998955,-6.343716025666667,7.447827021333334,-29.778767900000002,-2.1714561383333333,0.835369468,7.3589587210000005,-148.89936826666667,9.230152923333334,-11.322250683333332
84,0.6999720000000025,-7.605135519333333,7.4943916003333335,-29.856483466666663,0.6231965073333333,-0.4597509056666667,10.395444551333334,-150.7146657333333,6.137896499333333,-9.798789024333333
85,0.7083049999999957,-8.860942045666667,7.495283921666666,-29.94293723333333,-1.2724982299999998,0.8322718936666668,13.663716953333335,-149.99884543333334,1.207578499666667,-11.222014426
86,0.716637999999989,-10.126745540333333,7.473926544000001,-30.01880393333333,-1.3710556773333333,1.0518616836666668,8.796495436,-151.28573606666666,-1.5510056810000001,-10.070072812333333
87,0.7249709999999823,-11.401942569333334,7.447168191,-30.097585033333328,-0.5607391996666666,0.3781231043333333,8.086556434666667,-152.48082476666667,-1.8518686293333328,-10.710394064333334
88,0.7333039999999755,-12.647140184000001,7.382537841666667,-30.169232666666662,-0.6868757806666667,1.3359579246666666,14.146213214,-148.8862457333333,-6.289763134333334,-10.738614398000001
89,0.7416369999999688,-13.852057140666666,7.272070726,-30.21984356666667,-0.44031245533333335,0.5398889583333333,12.382169086666666,-144.47058106666668,-11.92813257333333,-9.713910739333334
90,0.7499699999999621,-15.044874826666664,7.151157379333334,-30.279363,-1.5031915706666668,1.2561219929999998,8.698958475333333,-142.83712260000001,-12.84125174133333,-11.314443273333334
91,0.7583029999999553,-16.23024654,7.019172033,-30.317095433333332,-0.708186527,2.4846831560000004,9.086972396333332,-142.35172523333333,-14.45200522866667,-9.226243972
92,0.7666359999999486,-17.38672542666667,6.8751796086666666,-30.364697766666666,-1.400081257,1.1707529426666665,11.736151856,-138.66988116666667,-15.496055285666666,-11.110492389000001
93,0.7749689999999418,-18.46342659,6.723063946,-30.391647333333335,-1.223747959,1.055013895,12.575284636666666,-129.48457083333332,-16.831170718333333,-9.23183441
94,0.7833019999999351,-19.487843513333335,6.5379993123333335,-30.410123166666665,-1.088509937,2.287614822666667,11.29921945,-123.25118000000002,-20.859706243333335,-9.817693870000001
95,0.7916349999999284,-20.473649976666668,6.3391799923333325,-30.413258866666666,-1.1382229726666666,2.823512872,11.930423419333332,-118.91765596666669,-22.82264041666667,-9.073566593333332
96,0.7999679999999216,-21.408803303333332,6.160660426,-30.417427066666672,-0.9726328356666666,2.6235340436666665,9.450889587,-112.73272706666667,-20.364991506666666,-8.579284349
97,0.8083009999999149,-22.2817955,5.9611466726666675,-30.3947118,-0.8513474799999999,2.4053986866666666,11.640348433333331,-105.72408294333333,-23.77833875,-6.865708271666667
98,0.8166339999999082,-23.060707090000005,5.765554110333333,-30.3845164,-1.8515298166666667,2.216097355,11.224242052,-94.145401,-22.632191973333335,-8.36959521
99,0.8249669999999014,-23.75126520666667,5.576983134,-30.3416163,-0.9985278946666667,2.8066306906666667,10.881126723,-84.07899984000001,-23.352202733333332,-4.566149888999999
100,0.8332999999998947,-24.385953266666665,5.368389368,-30.32006583333333,-2.217681884666667,3.011064211666666,11.151932240999999,-76.98711521333333,-24.40433120666667,-8.271984417666667
101,0.8416330000000016,-24.94948387333333,5.200226307,-30.263895666666667,-1.1304510829999999,2.176883419333333,11.929472923333334,-68.94217554666666,-21.66611989333333,-2.5586357116666663
102,0.8499659999999949,-25.433609009999998,5.0323781966666665,-30.25609076666667,-2.6802789373333327,3.546219587333333,12.07013162,-58.82209396333334,-19.084286053333333,-8.041169324
103,0.8582989999999882,-25.857063926666665,4.848173379666666,-30.182045000000006,-0.08726974299999997,1.8013368446666664,11.641623813333334,-52.253360750000006,-24.257791516666668,-1.831695666
104,0.8666319999999814,-26.20572344333333,4.713313102666667,-30.189565033333334,-4.2843468190000005,3.1213899453333336,11.666344961333332,-42.4733607,-14.575471879,-8.209214846333333
105,0.8749649999999747,-26.484277723333335,4.547756751666666,-30.12312826666667,1.2806857623333332,2.0537702243333333,11.906445503333332,-34.7416509,-21.793858843333336,-1.950656692
106,0.8832979999999679,-26.719939549999996,4.422910372333333,-30.127906833333327,-5.103247563,1.9030115206666665,11.120865185333335,-28.971617379999998,-13.543371515333334,-7.612519900333333
107,0.8916309999999612,-26.889336903333334,4.30282108,-30.093719500000002,1.4589997133333334,2.2173485756666667,11.148712478,-21.30208683133333,-15.173623402333334,-3.0497705143333333
108,0.8999639999999545,-27.038714090000003,4.1689130463333335,-30.074058500000003,-4.014195458333334,2.104153196,11.850290616666667,-18.871174496333335,-15.802292506666666,-5.591901780000001
109,0.9082969999999476,-27.134766260000003,4.104163885333333,-30.084320066666663,-0.3211918673333333,1.5145289896666665,9.857526459666667,-12.063864550333333,-6.837062079666667,-4.835500478666667
110,0.916629999999941,-27.196989060000003,3.9839222433333332,-30.04730223333333,-2.135544141,1.5939977863333334,11.982334135666667,-8.582622369,-15.279370624,-3.066809971333333
111,0.9249629999999344,-27.246832533333333,3.9299418923333334,-30.078102099999995,-2.2772843983333333,1.123767555,9.646688142333332,-6.346650004333333,-4.528576334333334,-6.492791852
112,0.9332959999999276,-27.25878652,3.856981675,-30.04644013333333,-0.9368730386666666,0.9527578156666667,12.863128343333335,-2.4822982336666666,-9.945254802666668,-1.0573085943333334
113,0.9416289999999208,-27.26558749,3.795057853,-30.08596803333333,-2.8787037929999997,1.67515858,10.249809267000002,-1.1589971979999998,-4.879627779333333,-7.891289869666667
114,0.949961999999914,-27.25976372,3.780839363666667,-30.070678733333335,-0.3949607016666666,0.7126754893333334,11.510666526666668,-0.16050295066666673,-2.771849036666667,0.41622279100000004
115,0.9582949999999072,-27.269979476666663,3.7118871213333335,-30.105372099999993,-3.0374386710000003,0.5758232376666667,11.745064099333334,-1.6702786886666665,-5.8995523059999995,-7.775863488
116,0.9666279999999006,-27.258892696666663,3.7414237660000005,-30.109990433333323,-1.150037567,0.9969620603333333,10.244109153333333,0.658588956,2.991841157333333,0.7077681623333333
117,0.9749609999998938,-27.258671443333338,3.7043643,-30.139307666666667,-2.0727671583333334,0.1882119326666667,11.461626688,-0.4800531466666668,-2.786158661,-5.4749788446666665
118,0.9832940000000008,-27.243564603333336,3.7654225826666665,-30.177647899999997,-2.073193272,0.004931310999999994,10.732877412999999,1.402042111,8.214618328,-1.1650978126666667
119,0.991626999999994,-27.242591219999998,3.7585514386666663,-30.198580433333323,-1.6566278586666667,1.1564916570000001,13.443099656666666,-0.43688492000000007,-0.03603903433333322,-2.9015080133333337
120,0.9999599999999872,-27.259936653333337,3.8220375376666667,-30.2507248,-2.791799227333333,0.8011101443333333,10.231189252,-2.393898805,9.245038179333333,-2.5199159383333334
121,1.0082929999999806,-27.288312913333332,3.8506464956666666,-30.276423133333328,-0.9036686020000001,-0.36529462533333334,9.833071708,-3.9212833249999997,4.0073386829999995,-1.4580347883333336
122,1.0166259999999738,-27.327665966666668,3.921115955,-30.3234736,-2.3714812996666663,1.019375205,10.011014621666666,-5.0590607510000005,9.722362756333332,-1.5954252283333332
123,1.024958999999967,-27.35644404,3.980961879,-30.367012033333328,-0.91110861,-0.5142101893333333,14.052903810000002,-3.842528661,8.317267259,-1.6281989216666668
124,1.0332919999999604,-27.3860995,4.041665077333334,-30.401194266666668,-2.2273565133333335,0.8283102013333332,11.261109350333333,-3.9544712699999995,7.958121536333333,-0.7026497123333334
125,1.0416249999999536,-27.43666331,4.122218052333333,-30.452011099999996,-1.0837864776666668,1.474590679,9.134483973,-6.402369161,10.933404445333332,-1.2665985823333334
126,1.0499579999999469,-27.511255266666666,4.177464167666667,-30.478012099999997,-1.8873919646666668,-0.26397709033333333,9.81477801,-9.427590053333333,6.936916589666667,-0.14882719533333325
127,1.05829099999994,-27.571275076666666,4.28481102,-30.533129366666667,-0.8658823816666666,-0.24200689300000003,12.473318733333334,-7.456941127,14.032546996666667,-0.21543276299999994
128,1.0666239999999334,-27.623441696666664,4.33723712,-30.561767599999996,-1.6662372550000002,0.518594593,13.959633510000002,-6.734328944666667,6.766658147,-0.5475256046666667
129,1.0749569999999269,-27.683497743333334,4.436575253666667,-30.601186133333332,-1.9824354646666666,0.9334197739999999,7.693785827,-7.574887039,12.299685478333332,1.0550249416666666
130,1.08328999999992,-27.765961326666666,4.491781155,-30.627815266666673,-0.5918733673333333,0.27231894900000003,10.460005759333333,-10.402186235333334,6.969446659,-0.20780392466666667
131,1.0916229999999132,-27.83744303333333,4.607296387333332,-30.669298800000004,-2.4546555283333333,0.49713350333333334,10.889184953333332,-8.911497116,14.118244806666667,1.797965923666667
132,1.0999559999999065,-27.895359036666665,4.667701403333333,-30.69878643333333,-1.1747376523333333,0.18926007533333333,14.405220033333334,-7.384751478999999,7.664770127333334,-0.15328413233333324
133,1.1082889999998995,-27.964707693333335,4.757673263666667,-30.729387900000006,-1.6301651796666665,0.8588863016666667,8.000629107,-8.791255871333334,10.802839916333333,1.513899694
134,1.116621999999893,-28.038751603333328,4.842748085666667,-30.76440683333333,-1.6031113860000001,0.8117949566666667,10.414418537333333,-9.270548343333333,10.610245705999999,0.6225582956666668
135,1.124955,-28.110464733333334,4.913454771333334,-30.784858699999997,-1.4715443449999999,-0.23288547266666668,12.25055345,-9.105806032666669,8.202276626,1.5236116646666666
136,1.1332879999999932,-28.17297872,5.012950579333333,-30.822367333333332,-1.5237159729999998,0.8901629299999999,10.993002890333335,-7.885928313333333,12.257370946999998,1.220706304
137,1.1416209999999865,-28.24636332333333,5.054098685333334,-30.8284073,-1.0451846870000001,-0.12661198299999996,10.582823116,-9.481814701666666,4.253423372666666,1.38315171
138,1.1499539999999795,-28.306203843333332,5.160693168666667,-30.874643966666667,-2.092866381,0.8589367866666667,9.685168902333332,-7.411425113666667,13.513996760000003,0.727295041
139,1.158286999999973,-28.363763173333336,5.198934078333333,-30.87316133333334,-0.35319324100000005,0.7537548343333333,14.030112263333335,-7.684573809333333,3.5129578313333334,2.015951315666667
140,1.1666199999999662,-28.42271804666667,5.296876748666667,-30.913561499999997,-3.0344301066666666,-0.31622881166666666,7.922121842999999,-7.371551673,12.251998583333334,0.8990896343333334
141,1.1749529999999595,-28.464280446666667,5.359303633333333,-30.92585500000001,0.14509439499999996,0.5506602573333333,12.247025807333335,-5.583148479333334,6.8574946720000005,1.9462551673333335
142,1.1832859999999528,-28.526745476666665,5.4026139576666665,-30.94069926666667,-2.394809127,0.30362374566666667,12.154790242333334,-8.084292729666666,5.0348281859999995,0.46778849766666664
143,1.191618999999946,-28.571618400000002,5.500400861,-30.978947966666663,-1.1521891306666667,0.23410715833333332,9.472024916999999,-5.706335385666667,12.046606383333334,1.282359789
144,1.1999519999999393,-28.595381416666665,5.519496599666667,-30.978078200000002,-1.7703458466666666,0.7711258133333333,11.454683936666667,-3.5900697706666667,1.5850386223333335,0.744016707
145,1.2082849999999326,-28.62563705333333,5.618513425,-31.013153066666664,-1.4581725600000002,0.829987546,10.726131122333333,-3.9771699113333328,12.002926826666666,1.6830860773333332
146,1.2166179999999258,-28.650809606666666,5.6524065336666665,-31.01932526666666,-1.042837401,-0.32634019866666664,12.128530821,-3.731118997,3.536651413,0.856275305
147,1.224950999999919,-28.660676319999997,5.725965976666667,-31.044047000000003,-2.3043175536666665,0.8517752590000001,10.404905952333333,-1.5875830649999998,8.734719513333333,1.3270649613333334
148,1.2332839999999123,-28.672935483333333,5.769080161999999,-31.052144366666678,-0.12827397899999995,0.6678655246666666,10.734450339666667,-2.182572046666667,4.616347015,1.1800691883333334
149,1.2416169999999056,-28.687060673333335,5.8284157116666675,-31.068115266666677,-2.8506906033333337,-0.1270345546666667,10.456837177333334,-2.2232602436666666,6.733436902333334,1.422785481
150,1.2499499999998989,-28.672164916666663,5.896723747,-31.0898412,-0.9566197790000001,0.8752391736666666,11.382417836666667,1.296396374666667,8.065796216333334,1.194451769
151,1.258282999999892,-28.686101276666665,5.919471582,-31.086456299999995,-0.28323745266666667,-0.2809621106666667,11.985545796666665,-2.479351326666667,1.7665711143333331,1.3432191413333332
152,1.266615999999999,-28.672124226666664,6.002710342333334,-31.1139628,-2.9963693616666665,0.7067337579999999,9.726974169,1.260912021,9.949576855666667,1.4835595293333335
153,1.2749489999999923,-28.661736806666667,6.014618714666667,-31.10561373333333,-0.11036999533333332,0.17317362133333333,10.670944851666667,0.3822924593333334,0.3510432243333333,1.2198480763333333
154,1.2832819999999856,-28.66105334,6.101247151666667,-31.13098396666666,-2.5378916266666667,-0.3342799793333333,10.255590121333332,-0.3374121026666667,10.196482340000001,1.889758746
155,1.2916149999999789,-28.635192869999997,6.119664669,-31.1168467,0.1877888243333333,0.298942526,13.062849364,2.1432154973333333,0.7114311853333332,2.183288971666667
156,1.299947999999972,-28.63704681333333,6.168808142333333,-31.12667846666667,-2.4381325243333336,-0.44295042,9.588001250333333,-0.8626106183333332,5.368837833333334,1.3312743903333335
157,1.3082809999999654,-28.612068813333334,6.212687651333333,-31.129913333333334,-1.3654430910000002,0.5020392186666667,10.364773751333333,2.298826337,4.381143987333334,1.8719480633333336
158,1.3166139999999589,-28.615067796666665,6.233303229000001,-31.11297356666667,-1.0184454246666665,-0.38186356166666674,10.720011075333332,-1.3585791189999998,0.8329363660000001,2.4824034373333332
159,1.324946999999952,-28.606791813333334,6.284670511999999,-31.1172155,-1.9672162136666664,-0.19076277333333333,11.615252497666667,0.29679228,5.220309983666667,2.210022171
160,1.3332799999999452,-28.604866663333336,6.298240185,-31.1003596,-1.237641692,-0.07686691499999998,10.743496577666667,-0.780277888,0.08910753333333332,2.0883115930000002
161,1.3416129999999384,-28.616027833333334,6.339906692333333,-31.096333833333336,-1.5406543413333333,-0.00860056233333334,9.80388975,-2.1196293036666662,3.729539871666667,2.517836729666667
162,1.3499459999999317,-28.6264623,6.3450768790000005,-31.059768666666667,-0.6768117843333333,-0.6812849016666668,11.551335653,-2.531575203,-1.9266685046666667,3.6761295003333334
163,1.358278999999925,-28.63823890666667,6.369882265666665,-31.04762013333333,-2.1069982053333334,0.6313179136666666,10.304958660333334,-2.3098834006666666,1.495320618,2.3779830533333333
164,1.3666119999999182,-28.653567633333335,6.380061785333333,-31.016980466666666,-0.9091409643333334,-0.7586717606666668,10.111532846333333,-3.0384372870000003,-1.0345162546666666,3.298328082
165,1.3749449999999117,-28.68474134,6.380469004333334,-30.986689233333337,-1.4682206009999998,-0.387469699,11.73911031,-4.864190617999999,-2.1303917416666667,2.9065499703333337
166,1.3832779999999048,-28.704823813333334,6.394295692333333,-30.951449066666658,-1.026216676,0.06185488899999999,11.242777189333333,-3.6785455740000006,-0.9213953413333332,3.994309504666667
167,1.391610999999898,-28.728846866666668,6.374754428999999,-30.910097766666656,-1.9283787806666666,-0.21116192133333334,10.624737740333334,-4.160029332,-4.852689663333333,2.8810125986666666
168,1.3999439999998913,-28.755866366666666,6.401001294333334,-30.88433583333334,-1.4685092370000001,-0.5094195149999999,9.004849435666666,-4.3896868226666665,0.916968251,3.737441619
169,1.4082769999999982,-28.80411593,6.3670427006666666,-30.8364741,-1.2851949876666666,0.35843597366666663,13.806644436666666,-7.154470443666667,-6.760814348333334,2.7500555116666665
170,1.4166099999999917,-28.828053156666666,6.394042015,-30.81368,-2.1353431539999996,-0.8176246583333334,9.758431593,-3.969587584333334,1.1712194483333331,3.455181201333333
171,1.4249429999999847,-28.844654719999998,6.358917236333333,-30.762580900000003,-0.9051067633333334,0.37561743966666666,10.909762065,-3.4204866886666667,-7.070985159,3.0061891076666662
172,1.433275999999978,-28.885188420000002,6.387319247000001,-30.745908100000005,-2.3480710190000003,-0.5487508176666668,8.393516223666667,-5.872751077,1.6519518693333335,2.9309174220000003
173,1.4416089999999713,-28.935167950000004,6.351957638999999,-30.69849143333333,-0.6827453476666667,-0.261929184,14.398724874666664,-7.387210209333333,-6.886818965333333,2.594286680333333
174,1.4499419999999643,-28.959484099999997,6.375005722000001,-30.675921133333322,-2.6047000883333333,0.307731579,10.085665863333334,-3.9862710633333336,0.7429712613333331,3.2470738886666664
175,1.4582749999999578,-28.989042280000003,6.354564031,-30.63798266666667,-0.5162356693333333,-0.31594105333333333,10.168755213333332,-4.825880209666667,-4.775386015666666,2.459308187
176,1.466607999999951,-29.018087386666668,6.364103635333333,-30.612719233333337,-2.421489795,-0.655875206,10.069747448,-4.589784781333333,-0.8427640200000003,2.7624184686666666
177,1.4749409999999443,-29.071080526666666,6.371702829999999,-30.58945463333333,-0.8188794899999999,0.31512087333333333,12.847913424666666,-7.450835546,-0.982937793,2.5447486836666666
178,1.4832739999999376,-29.09512965,6.356180032,-30.5552139,-2.5633248093333334,-0.32848296299999996,11.312287966666666,-4.084296708333333,-3.9821176130000002,2.2216935679999996
179,1.4916069999999308,-29.121657690000003,6.400710582666666,-30.547612533333325,-0.700763593,-0.5752073923333333,8.342965920666666,-4.078866481666666,3.7697155473333335,3.1075703703333333
180,1.499939999999924,-29.14544805,6.365815957333333,-30.507830299999995,-1.8865766526666665,0.067219192,11.802561759333335,-4.144703149666667,-6.343172710666667,1.6718668143333335
181,1.5082729999999174,-29.181828816666666,6.437993049666667,-30.5205892,-1.9128623006666665,-0.6728991863333333,11.749504725333333,-4.984005292333333,7.849644978666666,2.6027051903333334
182,1.5166059999999106,-29.19835091,6.395918369,-30.479944866666667,-1.1752697823333333,0.250485877,12.092022896666668,-3.2784343410000005,-7.152617931333334,1.3509418566666664
183,1.524938999999904,-29.21820259333333,6.479634602666667,-30.50075023333334,-2.6940785246666668,-0.6855983139999999,7.939058938,-2.878412803,9.527191003,2.4409001816666667
184,1.5332719999998972,-29.24349721333333,6.454797427,-30.473584499999998,0.4022368193333333,-0.6315599976666667,11.727355002000001,-4.185789028666666,-4.558835029666667,0.9384501093333334
185,1.5416049999998904,-29.260265990000004,6.511536280666667,-30.485867799999998,-3.4928946493333335,0.007083562666666672,11.600799239999999,-2.613040765,6.192285066666666,1.7756345470000001
186,1.5499379999999974,-29.277901333333332,6.539571285,-30.490231833333336,-0.141604955,-0.3986970683333333,11.104318618999999,-2.835692261333333,2.8282341363333336,0.7312309146666666
187,1.5582709999999906,-29.278779346666663,6.547669569666667,-30.45802563333333,-2.6273887953333332,0.10408115400000001,9.915651481333333,-1.3071114619999997,-1.486274401,3.544011274666667
188,1.566603999999984,-29.302448906666665,6.637759844333334,-30.503466266666667,-1.2541702986666665,-0.6879350043333333,9.556056976,-2.984361847,11.713126816666666,0.12198360766666665
189,1.5749369999999772,-29.295614876666665,6.602175553666666,-30.45654806666667,-0.7701789339999999,-0.10568727033333335,12.806700073333333,-0.604939888,-6.913499514333334,2.4994455773333333
190,1.5832699999999704,-29.30000178,6.698350588333334,-30.509399399999996,-3.5139865876666665,-0.3247683123333333,8.559576670333334,-0.5397091113333333,12.783998490333332,-0.27960518966666664
191,1.5916029999999637,-29.30123837666667,6.6861446696666675,-30.47585043333333,1.0526642086666667,-0.33673951500000004,12.595710753333334,-1.4084669353333332,-3.6602910360000003,2.419605811333333
192,1.599935999999957,-29.31054052,6.716201146666667,-30.486684166666667,-3.921813090666667,-0.6287822523333333,9.173995335333332,-1.7081109433333335,3.399158319,0.23237665533333332
193,1.6082689999999502,-29.311071396666666,6.774528503333333,-30.4954249,0.5925174123333333,-0.04502120633333332,11.183885257999998,-0.7281614146666667,6.159558056666666,2.2243146103333333
194,1.6166019999999437,-29.311375933333334,6.732292175333334,-30.464304566666673,-1.868700703,-1.06838427,10.009139378666667,-1.2299874823333334,-6.599000056,0.3137359323333333
195,1.6249349999999367,-29.304082233333332,6.798866431,-30.475217166666667,-1.9042605759999998,-0.426483844,11.135512353333333,0.268313388,7.153646787333334,2.501084963333333
196,1.63326799999993,-29.314593633333335,6.764834721666666,-30.4500707,0.041422836666666636,-0.6348114410000001,11.238937218333334,-2.407592773333333,-5.402020613333334,0.1710433103333333
197,1.6416009999999233,-29.328413646666665,6.7631894746666665,-30.4360606,-2.572140853,-0.640147999,10.178097883666668,-2.581505219,-1.4146831833333333,1.0577996606666666
198,1.6499339999999163,-29.327922186666665,6.782838821333333,-30.443354300000006,-1.3138127849999999,-0.36243809,11.406610489333332,-0.6189978123333334,2.110745032666667,-0.04744604233333338
199,1.6582669999999098,-29.33462715,6.738404432666667,-30.403020233333336,-0.3168105086666667,-1.2814019323333332,8.743098736,-2.1257770060000003,-7.423676172666666,1.2475926676666667
200,1.666599999999903,-29.357117336666665,6.750823656666667,-30.403065966666663,-2.8487846853333334,-0.24016498533333333,12.259752273333334,-3.4597274856666664,0.9308253923333334,0.302798709
201,1.6749329999998963,-29.368546803333334,6.734947999333333,-30.38473003333333,-0.9252237480000001,-0.5969945563333333,11.592754207333334,-2.396322648,-3.172963063333333,0.6609283686666666
202,1.6832659999998896,-29.370115916666666,6.704282124666666,-30.356112166666666,-1.6818407176666668,-0.37674366433333334,8.715508697999999,-1.3715826273333336,-5.26319625,0.7574386146666666
203,1.6915989999999963,-29.39234860666667,6.7134854,-30.358479833333337,-2.3191946843333335,-0.5451301536666667,10.253967284666667,-3.369198481333333,0.6633747616666666,-0.00021344399999998856
204,1.6999319999999898,-29.40070088666667,6.691665808333333,-30.342847199999998,-0.6866671443333333,-0.5115646326666666,11.977985380666667,-2.018627902,-3.584336718,-0.08193993066666665
205,1.708264999999983,-29.42233975666667,6.674814224333333,-30.329165133333333,-2.3642809393333333,-0.7028695596666666,9.902066548999999,-3.522589564333334,-3.005882024666667,0.151905218
206,1.7165979999999763,-29.434212369999997,6.692368984000001,-30.330899566666663,-1.372145032,-0.44034391866666667,11.031942365333334,-2.1911058426666665,1.572897434,0.3926278353333334
207,1.7249309999999696,-29.450833003333333,6.664121628,-30.310948699999997,-1.0553716146666667,-0.36108173066666666,9.353154660666666,-3.031560312,-4.5444393556666665,0.07209128133333331
208,1.7332639999999628,-29.469499589999998,6.657850265333333,-30.30549113333333,-2.0884795979999997,-0.872377495,11.831474940666666,-3.074677388,-1.3527388570000003,-0.21297811233333333
209,1.741596999999956,-29.475884753333332,6.677088737333334,-30.318972266666663,-1.5738164283333334,-0.30909758833333334,11.865262352333332,-1.3508990403333334,2.336655139666666,-0.5386376353333333
210,1.7499299999999494,-29.503466923333335,6.644730727,-30.29655963333333,-0.48940136033333337,-1.6887668373333333,8.151288033333334,-4.394630402333334,-5.060071428666667,-0.02274115900000001
211,1.7582629999999426,-29.52758280333333,6.658013184666667,-30.31244153333333,-2.8545886276666668,-0.321679329,12.378465653333334,-3.4196496806666663,1.8932249939999999,-1.1809656816666667
212,1.766595999999936,-29.550441739999997,6.662806033999999,-30.303593933333335,-0.519408693,-0.4214260676666666,10.417966365,-3.658122261333333,-0.4073137443333336,0.784683605
213,1.7749289999999291,-29.55710474333333,6.639864921666667,-30.300237,-2.1642636456666664,-1.143886308,9.927671591000001,-1.6004371346666666,-3.0377031166666666,-1.291858186
214,1.7832619999999224,-29.57804425666667,6.672934531999999,-30.314160666666663,-2.0305621523333333,-0.3484974123333333,10.467686653666666,-3.0728247960000004,3.893184900333333,0.10091152833333329
215,1.7915949999999157,-29.60998026333333,6.653166929666667,-30.321141566666668,-1.581124385,-0.589745216,12.12719345,-4.513044675333333,-2.0957995656666664,-2.201658964
216,1.799927999999909,-29.622227986666662,6.671563784333333,-30.3239161,-1.2766764063333333,-0.8331545593333334,10.646971383333335,-2.1976501543333335,1.6846396226666667,0.4364365936666666
217,1.8082609999999024,-29.63522784,6.698985576666666,-30.347806333333338,-2.6278284193333334,-0.20944134,8.787616253,-1.9896070559999999,3.805852413,-1.1179759900000001
218,1.8165939999998957,-29.654193879999998,6.7030628519999995,-30.346290600000003,-0.6308822436666667,-0.5714557566666667,10.321355343999999,-3.0778020026666666,-0.02878610299999984,-0.0487523773333333
219,1.8249270000000024,-29.682926813333335,6.713616053333333,-30.36398316666667,-2.7058626809999997,-1.2466198603333332,11.801774025333332,-3.943051139333333,1.7076456546666667,-1.5014509560000002
220,1.833259999999996,-29.67419624333333,6.753963788666667,-30.386103300000002,-0.6483599443333333,-0.3477623063333333,11.769475618000001,0.590438058,5.124798615666666,-0.30171863233333335
221,1.841592999999989,-29.69936815666667,6.7520518303333334,-30.398941033333333,-1.5550398230000002,-1.01671956,7.275192816000001,-3.5994789996666667,0.11701859033333335,-1.742412766
222,1.8499259999999824,-29.731309256666663,6.761519273333334,-30.40730286666667,-1.5721886556666667,-1.2898970446666667,12.728603679999999,-4.463310639333334,1.118069778,-0.7272649603333333
223,1.8582589999999757,-29.73858579,6.802193323666667,-30.437049866666666,-2.0051781136666667,-0.004664595666666664,12.083650745666667,-1.2299529713333335,5.550925572000001,-0.9687135220000002
224,1.8665919999999687,-29.758849459999997,6.802652040999999,-30.445666000000003,-0.9893009163333334,-1.3478712043333332,7.647462843333333,-3.0685386556666665,0.19144074133333344,-1.2919138526666667
225,1.874924999999962,-29.78545952,6.825812657666667,-30.465423600000005,-2.762254159,-0.618013521,12.305300713333333,-3.6589297453333334,3.139058987333333,-0.9537289623333334
226,1.8832579999999552,-29.800992333333337,6.845796108333334,-30.491287233333328,-1.4044419083333333,-0.23687946800000004,11.681155043666669,-2.261169136,3.2383693853333337,-1.910787841
227,1.8915909999999485,-29.807360963333334,6.870573203,-30.503257766666668,-0.9634261730000001,-1.3209415673333333,9.23138857,-1.3542672393333335,2.8452462749999996,-0.04997761066666665
228,1.8999239999999415,-29.841467536666666,6.883435567333333,-30.528518666666667,-2.531624456,-0.773265898,10.102494558333332,-4.479788661000001,2.465212663,-2.255815983
229,1.908256999999935,-29.860470453333335,6.928286552333334,-30.555147799999997,-1.021659692,-0.5859819453333333,11.203056652999999,-2.6653705436666666,5.8094080293333334,-0.39384453499999994
230,1.9165899999999283,-29.892549513333332,6.923929691333332,-30.56710053333333,-1.2957244713333333,-1.0030388433333333,8.540370623666668,-4.4370772836666665,-0.0935178600000001,-1.948291262
231,1.9249229999999216,-29.912298203333336,6.9543437956666665,-30.585126233333337,-1.5893926023333333,-0.941125671,12.068701426666665,-2.8455835976666664,3.8005123933333333,-0.34793527900000004
232,1.9332559999999148,-29.930143356666665,6.978315194333334,-30.611002633333328,-1.470050186,-0.4795156123333333,10.565263111333335,-2.5488217076666664,3.6379691760000004,-1.6372236013333332
233,1.941588999999908,-29.948304493333335,6.9770841599999995,-30.614290866666668,-1.5216281213333334,-1.3803155816666666,10.235010623,-2.8698916433333337,-0.36786317800000007,-0.7042463223333333
234,1.9499219999999011,-29.965212503333333,7.019956906666667,-30.639818833333337,-2.293964127666667,-0.4774121443333333,11.060940742666666,-2.427456816,5.605914672,-0.4942692719999999
235,1.9582549999998944,-29.99787775333333,7.047089259000001,-30.656585699999994,-1.2258003356666667,-0.9494112729999999,9.616950352000002,-4.435459295666667,3.3747140570000003,-0.4030613303333333
236,1.9665880000000016,-30.017819723333332,7.072179953,-30.669586166666665,-1.7638508876666668,-0.6574702256666667,10.517327310666666,-2.9617186786666667,3.02648477,-0.27568184566666665
237,1.9749209999999948,-30.02203496333333,7.099064032333334,-30.6916555,-2.2957103030000003,-0.5562467176666667,11.013964018666668,-0.9060010066666667,3.651752849333333,-0.9196022353333334
238,1.983253999999988,-30.02113978,7.148898442666667,-30.71434783333333,-0.7301647266666667,-0.9423879183333334,9.287462392666667,-0.334880511,6.154413699,0.2148479533333333
239,1.9915869999999811,-30.04451179666667,7.153727213333333,-30.719563800000007,-1.6593774953333333,-1.0626998543333332,10.515063443666667,-3.4537170926666665,0.40270701999999997,-0.570582807
240,1.9999199999999744,-30.026763916666667,7.217913627666667,-30.745463066666673,-1.459851146,0.4069993393333333,11.874353727999997,1.7525219319999998,7.8523471769999995,0.7283579109999999
241,2.008252999999968,-29.992823919999996,7.225867271666666,-30.742853799999995,-0.7215047569999999,-0.791031639,8.308484236333333,3.274267872333333,0.2389466266666667,0.4329659936666666
242,2.016585999999961,-29.939762116666667,7.265378475333333,-30.742090866666672,-2.6529699166666667,0.047769924000000095,10.959748903333335,5.606969991666666,3.6949991386666667,2.0385945936666667
243,2.0249189999999544,-29.84020741666667,7.307873408,-30.752474466666673,-1.0289982556666666,0.4842495920000001,13.633035977666665,11.349832861000001,4.594998270333334,1.1740329863333334
244,2.033251999999948,-29.69749451,7.322801908,-30.73369093333334,-1.6879200140000001,0.3356018233333334,7.949315866,16.077713886,0.08812168233333335,2.400716712
245,2.041584999999941,-29.514914833333332,7.385577996666666,-30.741877200000005,-2.360692779333333,0.8504038056666666,10.475261369666667,21.302666424333335,6.620659588666666,2.602177739
246,2.049917999999934,-29.278877893333334,7.429755528666667,-30.733950333333336,-0.9066942136666668,0.8049015503333333,10.450440724,27.431786219000003,3.8031264939999994,2.9472285706666663
247,2.0582509999999274,-28.975371043333336,7.459980805666667,-30.70539346666666,-2.0405308006666663,0.4626053026666666,9.978587786333334,35.24156952,1.1135944526666668,4.449899594000001
248,2.0665839999999207,-28.624539056666666,7.523923238333334,-30.710380533333332,-1.545113027,1.1015301943333335,10.787461437333334,41.43513298,6.665026744333335,2.710419317
249,2.074916999999914,-28.1937294,7.543220043000001,-30.66739146666667,-0.7946633399999999,0.785298268,11.211365063333332,50.258648556666664,-0.815771262,5.275248686333334
250,2.0832499999999072,-27.70358339666667,7.595856825666666,-30.653724666666662,-2.682092508,0.7132667053333334,10.621995605999999,57.866331100000004,4.469729503,4.025829076666667
251,2.0915829999999005,-27.164431253333333,7.630606810666667,-30.618171699999994,-0.3405111406666667,1.2136476636666667,10.516406059333333,63.382821400000005,1.3398137686666667,5.324809233333333
252,2.0999159999998938,-26.54784266,7.646246115333333,-30.58000436666667,-1.7747627896666665,0.361065338,11.373327573333333,72.64092127666667,-0.7533628643333331,4.517323096666667
253,2.1082490000000007,-25.889785766666666,7.673026562,-30.546546966666664,-0.5311009786666666,0.5820836026666667,9.969470343333334,77.68610000666668,0.720814109,4.7622171243333336
254,2.116581999999994,-25.155483883333332,7.661163965666667,-30.497377999999994,-1.780555685333333,0.9994484883333333,10.450360933333334,86.58859507333334,-4.172130187,4.210120201
255,2.1249149999999872,-24.383691153333334,7.666052023333333,-30.448206600000006,-1.0793054553333334,-0.7273056306666668,10.693990707,91.09564718,-2.3326732316666665,5.334842999666667
256,2.1332479999999805,-23.562473933333337,7.6564715706666675,-30.399022400000003,-1.6936003963333333,1.1814348103333334,11.455200833333334,97.01528423999999,-3.8374868233333337,4.515680869666667
257,2.1415809999999738,-22.702598570000003,7.639007886333334,-30.34118906666667,-0.8496711206666667,-0.38994628233333334,10.609596254000001,101.54031624333334,-5.034422715666667,5.211356321666666
258,2.149913999999967,-21.810861590000002,7.611528555666666,-30.295667000000005,-1.5190475983333334,-0.15546068300000002,10.287686347,105.53691356333333,-5.4808669886666666,3.3810182413333334
259,2.1582469999999603,-20.880479176666668,7.5718957583333335,-30.230323766666668,-1.4725783863333335,-0.03500694000000008,11.19240252,109.89590709666668,-7.660591285333335,5.1898315749999995
260,2.166579999999953,-19.940455116666666,7.525460402333334,-30.174756366666667,-1.4200141430000002,-0.8434670963333333,10.741454599,111.176473,-7.913773696666667,3.9418858686666667
261,2.174912999999947,-18.973322553333333,7.4462159476666665,-30.093401566666667,-0.719244202,-0.9101364736666668,11.438845001333334,114.08358,-12.588359038999998,5.7337489129999994
262,2.18324599999994,-17.992947896666667,7.372891903,-30.028366066666663,-1.6273492973333334,0.21958038433333335,9.717529296333334,115.89695486666666,-11.185119628,4.204725265333334
263,2.1915789999999333,-16.999586103333332,7.2639036180000005,-29.94336956666667,-0.585127463,-0.9817949633333334,10.53503132,117.2042211,-15.872638704666668,5.496545632666667
264,2.1999119999999266,-15.987995466666666,7.173766454,-29.864934266666662,-1.2509830393333332,-0.6713976513333333,11.133612633333334,119.46458433333333,-13.416351319999999,5.537001450666668
265,2.20824499999992,-15.006557146666665,7.022010803000001,-29.769444766666666,-0.6715460543333335,-1.4948948026666666,10.949702898666667,115.65316773333332,-20.954584120000003,5.906872431666667
266,2.216577999999913,-14.001489956666665,6.886754195000001,-29.684855133333333,-1.869088888,-0.9921030206666667,10.776921906333333,118.64860026666668,-18.646623296666665,5.374768177666667
267,2.2249109999999064,-12.98737653,6.745598792999999,-29.593091333333337,-0.789409218,-0.5189454753333335,8.717540421666667,119.6854604,-19.389714876666662,6.390394528666666
268,2.2332439999999,-11.972429908666667,6.564736048333334,-29.49908703333333,-1.223793884,-1.1838175256666668,9.538523672333334,119.74639129999998,-24.020313263333335,6.003931999
269,2.241576999999893,-10.956884065333332,6.3761898676666675,-29.404271466666668,-0.8288387063333333,-0.7259043826666667,11.583389757333334,119.88376363333334,-24.809892653333332,6.32649676
270,2.24991,-9.937032859,6.1651155153333335,-29.312726366666666,-2.352700829333333,-0.750775675,10.596173764333333,120.44468690000001,-27.329194386666668,5.842314482
271,2.258242999999993,-8.882863522666668,5.981075287,-29.224049866666665,-0.44111503799999996,-0.8976678996666667,10.501758415333333,124.6600876,-23.95427132,6.473641077666667
272,2.2665759999999864,-7.831241448666667,5.742536545,-29.14037323333333,-0.9752595673333334,-0.6864539623333333,8.760307310666667,124.39717103333332,-30.25721105,5.419729392000001
273,2.27490899999998,-6.790157317666666,5.492667356999999,-29.055361400000006,-1.5826986629999997,-0.9211026429999999,11.234869638333334,123.22076163333334,-31.482142766666666,5.873717626
274,2.283241999999973,-5.709551096333333,5.253376325,-28.977890033333335,-1.3608598113333332,-0.3167813716666667,12.596236866666667,128.03189343333332,-30.050748826666666,5.7245690819999995
275,2.291574999999966,-4.620214065,5.030811866333334,-28.899856600000003,-1.6652248303333332,-0.7112468976666667,7.716429391333333,129.1503804666667,-27.90693283,6.523063977333333
276,2.2999079999999594,-3.5354087353333337,4.762195348666666,-28.83482110000001,-1.361420999,-1.0442591506666667,9.409526029,128.7779363,-33.159333546666666,4.767088016
277,2.3082409999999527,-2.4261974643333333,4.507549842333333,-28.7726873,-1.4723595976666666,-0.8083284596666666,12.819290163333333,131.79368846666668,-31.347055436666665,5.266252597333334
278,2.316573999999946,-1.2961224513333331,4.2635402676666665,-28.713325500000007,-1.5263337989999999,-0.21000779666666666,11.064212003666668,134.30169170000002,-30.013081869999997,5.361600875666666
279,2.324906999999939,-0.1679971613333334,4.007850885333333,-28.662854500000005,-1.2835107246666668,-0.566285029,7.806372642333333,134.2246704,-31.231032053333337,5.084903399000001
280,2.3332399999999325,0.9706567923333332,3.7424963313333333,-28.621467600000006,-1.4678951153333333,-1.4491762913333333,10.687295595333334,135.55177816666665,-32.29208437666667,4.4491664570000005
281,2.3415729999999257,2.122666518,3.498022715333333,-28.579078666666664,-1.6007782616666664,-0.6064798483333333,13.08046341,137.19758603333332,-29.711350123333332,5.170202414
282,2.349905999999919,3.278391997,3.251971046,-28.543334966666674,-1.1991711260000002,-0.6688686806666667,10.225324950333333,137.68282063333334,-29.822884239999997,4.856390476333334
283,2.3582389999999123,4.428040960333333,2.97488908,-28.51845806666667,-1.0470077993333333,-1.1877014043333334,7.795211951,137.07387796666669,-33.44262186666667,4.687880357333333
284,2.366571999999905,5.5717242559999995,2.737768650333333,-28.495361300000003,-2.451376080333333,-1.0894003856666667,11.802881875666666,136.36013793333333,-28.662306466666667,4.550562819
285,2.374904999999899,6.739076693999999,2.4873971939999997,-28.479133599999994,-0.9728105466666666,-1.3384487183333331,14.825756073333332,139.28520713333333,-30.11629867666667,4.541002591333334
286,2.383237999999892,7.891272625,2.231998026333333,-28.47960663333333,-1.1434686583333333,-0.698246628,9.750248748999999,137.4932963,-31.0182724,3.1961045660000003
287,2.391570999999999,9.002756595333333,2.0138176876666667,-28.473203033333334,-1.9442903100000002,-1.5475695729999999,8.108768462999999,132.65906013333336,-26.287752153333333,3.8522520399999998
288,2.3999039999999923,10.090442022666666,1.7741907836666666,-28.478942866666667,-0.286703778,-2.1390992006666667,10.312349002666666,129.76175693333334,-29.007505416666664,3.5607732136666663
289,2.408236999999985,11.177068393333334,1.5197164713333333,-28.49897766666666,-2.4396639666666666,-1.905073106,13.191820462,129.73611703333333,-31.052951180000004,2.892108758333334
290,2.416569999999979,12.268688839333334,1.2952506046666665,-28.51438903333334,-1.3751451569999997,-1.1433553269999999,12.680096944333334,130.27275849999998,-27.25143814333333,3.073689898
291,2.424902999999972,13.285816510666665,1.06079223,-28.551775633333335,-1.3509758909999998,-1.9047111870000002,9.436005273333333,121.45624793333332,-28.959283830000004,1.2522428829999999
292,2.4332359999999653,14.252270379999999,0.8329790033333332,-28.568855266666663,-0.7059906326666666,-2.205174406,11.61605231,115.2190221,-27.57153956,4.334200302666667
293,2.4415689999999586,15.20920435666667,0.6515939036666667,-28.6093572,-2.5299130880000003,-1.7609796126666666,10.636096953333334,114.21697490000001,-22.80515162333333,-0.11836741366666659
294,2.449901999999952,16.098468460000003,0.406632801,-28.642880766666668,-0.003635644999999984,-3.587780078333333,8.732296785333332,105.99253846666666,-29.879054386666667,3.802026113
295,2.458234999999945,16.97184530666667,0.22443866766666667,-28.6950531,-3.1061465936666663,-0.6110289293333333,12.63920434,104.12518055999999,-23.266938530000004,-0.5079240599999999
296,2.4665679999999384,17.789508183333332,0.058762023666666684,-28.71452076666667,-0.21606868499999998,-2.491370042,11.011706351,97.42378489000002,-20.143554686666665,3.067249963666667
297,2.474900999999932,18.54292519666667,-0.15246339666666667,-28.789080299999995,-2.235834102,-2.4045936263333334,8.785969813666666,89.66356660000001,-27.394121806666664,-1.0425019016666666
298,2.483233999999925,19.253401436666667,-0.22690439699999998,-28.794741333333334,-2.239612937,-2.183352073,12.371338209000001,84.56526439,-9.136903009,1.5720064636666666
299,2.491566999999918,19.895810446666665,-0.43889188599999995,-28.862874333333338,0.36252524433333333,-3.3531376519999996,11.973617553000002,76.30220030333332,-27.251491543333334,0.2122050526666667
300,2.4998999999999114,20.507610956666664,-0.5186082046666667,-28.88862353333333,-4.294483582000001,-1.6278970240000001,10.475310326333334,72.70238749333333,-10.461146355,-0.0658458250000001
301,2.5082329999999047,21.066516243333336,-0.6113548523333333,-28.903523766666666,0.4274097106666667,-2.353148222,10.698691524333334,66.30986658666667,-11.575017609666666,1.4975996016666666
302,2.516565999999898,21.554043453333332,-0.7752000143333332,-28.96797433333333,-1.909708778,-2.422915379,10.191574891333333,57.74072011333334,-21.519624073333333,-0.39594387999999986
303,2.524898999999891,22.007386526666668,-0.765277495,-28.940394099999995,-2.098616202666667,-1.7532419959999999,11.217767238999999,53.6978124,1.8096458116666667,1.9410014946666667
304,2.533231999999998,22.401489256666668,-0.9268131353333334,-29.011644999999998,-0.11824520433333337,-3.0532784063333334,10.853536129666667,46.513908386666664,-21.5403773,-1.0683256786666666
305,2.5415649999999914,22.75381978333333,-0.9558327296666667,-28.984649633333333,-2.547685325,-1.0782380900000001,8.247855503999999,41.55871264,-2.5038816136666666,3.828230937333334
306,2.5498979999999847,23.05291811666667,-0.9709352056666667,-28.996462499999996,-0.9529065886666667,-2.5682542720000003,12.656067846,35.22286860333333,-2.5834474553333338,-1.1206787426666667
307,2.558230999999978,23.30785751666667,-1.128272732,-29.02250926666666,-0.608944118,-1.490686931,9.112624169999998,29.778372446666665,-19.043323833333332,4.2781864406666665
308,2.566563999999971,23.53401629,-1.0036296153333333,-28.975710533333338,-3.715058565,-1.5342383983333334,10.202294985,26.590679803333334,15.595298131,-1.2466390926666666
309,2.5748969999999645,23.70695686666667,-1.1892300246666667,-29.015146866666658,2.4668818713333334,-2.6039692563333334,10.658703645666668,19.924449127666666,-22.82942581333333,4.094668785666666
310,2.5832299999999577,23.856015523333337,-1.106467694,-28.980021133333338,-5.716430505000001,-0.6365725893333334,8.358060997,17.286112784666667,10.408417542,-0.4805499713333335
311,2.591562999999951,23.980063756666667,-1.13147674,-28.949935900000003,2.1444916726666667,-1.9342574676666666,12.225339732333333,14.242258072666667,-1.7974185559999996,3.9503618876666664
312,2.5998959999999443,24.06263669,-1.1935541729999999,-28.97523753333333,-2.902417421333333,-1.7129998206666663,8.15065046,9.148213544666666,-8.440972328,-0.04600322233333346
313,2.608228999999937,24.127986273333335,-1.12235866,-28.910535166666673,-0.9500047763333335,-0.5472049716666666,11.908102355000002,7.280956327999999,10.454110304333334,3.1011719706666665
314,2.6165619999999308,24.174118039999996,-1.167096555,-28.927701333333335,-0.772153934,-2.259733478333333,11.035599392666667,4.805642609666666,-6.134356101999999,-0.04753220100000011
315,2.624894999999924,24.196104046666665,-1.1768276396666666,-28.902249666666673,-1.002136141,-0.715583225,7.592168331333333,1.980130553333333,-0.30611880566666727,2.849823474666667
316,2.6332279999999173,24.21662013,-1.135844777,-28.884274800000004,-1.8813633123333335,-1.6013530693333333,13.497517904,1.8144828649999998,4.962442240333334,-0.400867383
317,2.6415609999999106,24.215545653333333,-1.1786896786666667,-28.88784533333333,-0.6615688603333333,-1.13402915,10.627139169666666,-0.8427044553333332,-5.365670560666666,1.2214576006666666
318,2.649893999999904,24.196917216666662,-1.1414545476666667,-28.869435633333335,-0.13180764533333336,-1.1471524236666668,10.061163264666668,-2.8939772446666665,4.570280553,-0.11158855799999993
319,2.658226999999897,24.199085236666665,-1.2009600896666666,-28.88449096666667,-1.7221256893333334,-0.48124425100000007,10.867266812000002,-0.4858758450000004,-7.763757367666667,0.7610124353333334
320,2.6665599999998904,24.15941365333333,-1.174042096,-28.866488133333334,-1.3293866416666666,-1.2643710376666666,9.020978292999999,-5.401005228333333,3.426185627666667,0.32153576599999995
321,2.6748929999999973,24.1132075,-1.2038679323333332,-28.867118833333336,-0.26466480899999983,-0.8528358736666667,10.953402042333332,-6.264367581999999,-3.811795791,0.8664697806666667
322,2.6832259999999906,24.094392776666666,-1.2489652633333332,-28.8744456,-0.7157942456666667,-0.6942108073333332,11.836817106666667,-2.9647798536666667,-5.710694114333333,1.0916407106666668
323,2.691558999999984,24.031303403333336,-1.273010115,-28.876078300000003,-1.7631006239999998,-1.1325543423333333,7.615485350333333,-8.287926673666666,-3.2303060689999996,0.44898780200000016
324,2.699891999999977,23.980558393333336,-1.2669113076666667,-28.854863466666668,-0.74293377,-0.38322611666666667,12.106339453333334,-6.699741185666667,1.2969895996666667,1.7097760840000003
325,2.7082249999999704,23.92342949,-1.3382701476666667,-28.873748766666676,-0.3284569580000003,-0.018289496666666665,12.548531213333334,-7.628898539666667,-9.273050863333333,0.8551015056666665
326,2.716557999999964,23.8398571,-1.333568692,-28.863410966666663,-1.235705872,-3.4084494910000003,7.8746666896666655,-10.666994410666666,0.6146351893333334,0.5829289753333334
327,2.724890999999957,23.779042563333334,-1.4021333256666668,-28.881370533333325,-2.0289177096666666,0.9625389293333333,9.730429647666666,-8.087239425333333,-8.912281514,0.8236214319999999
328,2.73322399999995,23.69555219,-1.362495045,-28.859135933333338,-1.5352216563333332,-0.8485849053333334,10.514153480666666,-10.593352795333333,5.021773656,0.19340427700000026
329,2.7415569999999434,23.62389374,-1.399413248,-28.850524866666664,-1.2363010246666668,-0.6673602663333332,12.02381897,-9.334665138666667,-4.167948325333334,2.192869186333333
330,2.7498899999999367,23.55149587,-1.3939055203333333,-28.860199000000005,-1.5855489273333332,-0.6750993133333334,10.305398623666667,-9.342562515333334,-0.2590068970000002,-1.65336895
331,2.75822299999993,23.45030848333333,-1.4154411753333334,-28.8354314,0.08457352700000002,-1.3111442723333333,8.856773058666667,-12.825783093333333,-1.7158210973333332,3.2297420503333334
332,2.766555999999923,23.389640806666666,-1.4074648223333333,-28.853775000000002,-2.7075332403333334,-0.37280493699999995,12.490585644666668,-7.984227179333334,-0.39356247566666674,-2.719830671999999
333,2.7748889999999165,23.30589676,-1.4281439183333333,-28.816950500000004,0.28359375400000014,-0.4719668993333333,11.326446213333332,-10.678179422666666,-1.053103765,4.482846180666667
334,2.7832219999999097,23.233140943333336,-1.3703164259999998,-28.83081563333334,-3.2972912789999995,-0.6706587076666667,9.844429651,-9.419884524,5.309280911,-4.588342507666666
335,2.791554999999903,23.171021776666667,-1.3808861573333333,-28.775967933333334,0.10185823599999999,-0.08816299866666666,11.713420231999999,-8.020300388,0.9163621266666672,6.018086352666667
336,2.799887999999896,23.082776386666666,-1.297521144,-28.78457136666667,-3.011694332,-0.8464046106666667,8.469948450333334,-11.284401576666667,8.375652829333333,-5.201590339333333
337,2.808220999999889,23.028583526666665,-1.2622217136666667,-28.719823200000004,-1.3278748593333334,-0.19268490866666665,11.012266795,-7.025682211,6.455894549333333,5.023387432000001
338,2.8165539999999964,22.969889956666666,-1.1918778223333333,-28.72233073333334,-0.7931075866666667,-0.4822687256666666,10.454876579333334,-7.758719285333334,7.231941430333333,-3.8976375263333334
339,2.8248869999999897,22.910223643333335,-1.109084835,-28.65877533333334,-1.3749908206666666,-0.9031529300000001,12.957275391000001,-7.697903156333333,11.628838859,2.635201514
340,2.833219999999983,22.87092526666667,-1.0279260103333332,-28.6459325,-1.2514332333333333,0.39288628066666664,11.936776159333334,-5.372018059000001,9.144999820333332,-2.698105335333333
341,2.841552999999976,22.794970196666668,-0.9070426576666666,-28.5828298,-1.006172379,-0.5709748963333333,7.804508844666667,-9.681615987666667,15.821287313999997,0.8452058833333332
342,2.849885999999969,22.745990116666665,-0.8017338763333334,-28.547554033333327,-2.635027369,-1.3411900203333333,9.686773618333334,-6.493977864666667,12.86116123,-1.315355127
343,2.8582189999999628,22.713577270000002,-0.686860303,-28.500020333333328,-0.6368326543333334,-0.16003009666666665,11.405500731000002,-4.514109234,14.42557446,-0.5653702816666667
344,2.866551999999956,22.71739769,-0.567893863,-28.462270099999998,-2.6017236313333334,-0.2859681446666666,14.582750956333333,-0.17025802533333323,14.497227986333334,-1.6564855236666667
345,2.8748849999999493,22.72078387,-0.4464377763333333,-28.413953133333333,0.18944654866666663,0.4249536346666667,9.190478960666667,-0.22681430999999988,15.207509040333335,-0.7861521640000001
346,2.8832179999999425,22.678930916666662,-0.29519035433333335,-28.3653056,-1.9923727513333336,0.3031297723333333,8.036236922,-5.667749444666666,18.561247506666664,-1.9317830503333333
347,2.891550999999936,22.65630658666667,-0.17922556400000003,-28.32759346666666,-0.6374308466666666,-1.5309588113333337,9.875779786666667,-3.3554139136666663,14.107131959999998,-1.6876920459999998
348,2.899883999999929,22.66693878,-0.062349061333333344,-28.29039,-0.3029404680000001,-0.6990306589999999,14.417790413333334,0.5968630313333333,14.226608595000002,-1.5933636426666669
349,2.9082169999999223,22.692546843333332,0.030072589666666687,-28.265759766666672,-1.4259018946666666,0.4387709796666666,11.169592220333334,2.430035432,10.882593631,-2.047649224333333
350,2.916549999999916,22.686259586666665,0.15828658133333331,-28.2196172,-0.690029522,-0.44110077133333325,7.798500855666667,-1.45602417,15.9057862,-1.1575928383333334
351,2.924882999999909,22.673733393333332,0.261678872,-28.20171353333333,-1.8934731879999998,-1.3810266850000001,10.785543122999998,-2.184907377,11.803503670666666,-3.2683642706666665
352,2.933215999999902,22.673557916666667,0.3576783943333333,-28.15632886666667,-0.08185254033333332,-0.6890759416666666,14.087161703333335,-0.7211904476666667,12.295794803333331,0.2601082323333334
353,2.9415489999998954,22.666359583333332,0.4307984633333333,-28.14601136666667,-1.2482331593333333,-0.23107900133333334,10.730522316,-1.542087724,8.109963895333333,-2.699591458
354,2.9498820000000023,22.642156599999996,0.509980681,-28.110674533333338,-0.502170344,-0.921724121,7.51408553,-3.6269248326666665,9.969710985,-0.0673654873333333
355,2.958214999999996,22.611455916666667,0.5846063716666666,-28.098009766666674,-2.057102998,-0.850665749,10.804731527666666,-4.339961529,8.369249037333333,-2.509679069
356,2.966547999999989,22.589878716666664,0.6594773420000001,-28.0610911,-0.4129450866666667,-0.4706465103333333,12.998590786666668,-3.3246474266666666,9.577407517333334,0.303400715
357,2.974880999999982,22.556310656666668,0.705203285,-28.054654466666666,-1.5343331496666668,-0.6700436773333333,10.653576215666666,-4.7288451196666665,4.872694412,-1.8908941743333332
358,2.9832139999999754,22.525856656666665,0.7622174596666667,-28.0210139,-0.4908349273333334,-0.42309457066666667,8.591932614,-4.362454575666667,7.441336949666667,0.7734090186666666
359,2.9915469999999686,22.47636795,0.7873625356666666,-28.015996299999998,-0.9746977686666667,-0.19967625066666664,11.426324524999998,-6.629507064999999,2.531523584,-1.0948507983333333
360,2.999879999999962,22.42600822,0.8219184576666666,-27.985649100000003,-0.6828914483333334,-1.2357149323333334,10.47604974,-6.760681647999999,4.796231905666667,1.4568609
361,3.008212999999955,22.375640869999998,0.8242131273333334,-27.985972066666672,-1.1092679103333334,-0.421648269,11.599710783,-6.706122874999999,-0.26098728166666696,-0.647937673
362,3.0165459999999484,22.332682293333335,0.8667372913333332,-27.9671173,-0.7560930103333333,0.25864926,9.375581106333334,-5.855896790666667,5.163915435333333,-0.18466148766666665
363,3.0248789999999417,22.269297280000004,0.8708695670000001,-27.963055899999997,-1.5803882480000002,-0.7148923576666667,11.738231657333335,-8.311141966333333,0.1674319106666665,-0.20046126833333333
364,3.033211999999935,22.22364998,0.8953914446666666,-27.9538981,-0.608485649,-0.5531942846666666,10.228769621333333,-6.136124373,2.7182467776666672,-0.4254439226666668
365,3.041544999999928,22.171512606666667,0.8821741639999999,-27.95831046666667,-1.310926174,-0.275946682,12.282396318333333,-6.9468503,-2.1502981186666665,-0.36874683700000005
366,3.049877999999921,22.12301317666667,0.903217311,-27.95414226666667,-1.0862485566666666,-0.9095276196666667,8.123133977333334,-6.479501009,2.1031977733333336,-0.8129360079999999
367,3.0582109999999147,22.07174682666667,0.8839330673333334,-27.957605966666662,-0.7609077096666667,0.09632677333333335,11.414524077000001,-6.815473874333333,-2.8011126520000005,-0.021434823333333314
368,3.066543999999908,22.021973926666664,0.9081387223333333,-27.95104726666666,-1.3634630543333335,-0.08359712866666667,10.511048317,-6.646604220333334,2.5740861096666663,-0.696839412
369,3.0748769999999013,21.979379653333336,0.8837196826666666,-27.95175933333333,-1.0796771696666667,-0.478002558,12.605948766666666,-5.821019331333333,-3.2524787583333334,0.49826089500000004
370,3.0832099999998945,21.96189435333333,0.9079787136666666,-27.9508921,-1.569537729,-0.06277133933333334,8.259059589,-2.728945056666667,2.3176485696666673,-1.3316671846666666
371,3.091543000000001,21.912637713333336,0.8849958626666666,-27.949618033333333,-0.527688096,-0.265653188,10.716121671333333,-6.610142708000001,-2.980959336,0.6955075863333334
372,3.0998759999999947,21.885986966666668,0.8955337106666666,-27.955057766666666,-1.357994348,-0.6833440066666667,11.26938661,-3.8319875399999996,0.5073880356666666,-1.4050518473333333
373,3.108208999999988,21.872810363333333,0.8686423623333334,-27.954714433333333,-0.41000002099999994,0.23875487333333334,11.625274341,-2.260516191666667,-3.4933210216666666,0.7138813336666668
374,3.1165419999999813,21.845382689999997,0.8848315703333333,-27.964721666666676,-2.3282517193333336,-0.335370796,8.268043200333333,-3.9310210543333333,0.9433937863333335,-2.1752122640000002
375,3.1248749999999745,21.82614835,0.8514431963333333,-27.960133866666666,0.16251631599999994,-0.492689545,14.345558166666668,-3.008631229,-4.0175548,1.4737320343333333
376,3.133207999999968,21.81065178,0.8787580903333333,-27.96080016666667,-2.3461307683333334,-0.08876782666666667,8.970215162666666,-2.5077145893333332,2.5893986226666668,-1.6242369166666666
377,3.141540999999961,21.776690803333334,0.8238781863333333,-27.969431566666675,0.12519338733333335,-0.6973712146666666,11.81704044,-4.745395899,-7.001617433,0.9492764773333334
378,3.1498739999999543,21.779753366666665,0.8393092576666666,-27.973696400000005,-2.2956140040000004,-0.11379441633333336,9.466325758666668,-0.27905006200000004,1.105066538,-1.4937795103333336
379,3.158206999999948,21.741315206666666,0.7921064063333333,-27.97243246666667,0.4928697846666667,-0.3376798926666667,10.628374973333335,-5.269544442333333,-5.6921412160000004,1.7628997963333333
380,3.166539999999941,21.71401914,0.7751543293333333,-27.989021299999994,-2.336904366666667,-0.46046709999999996,11.737167676,-3.9317341646666666,-3.0453361073333336,-1.4270074763333334
381,3.174872999999934,21.691104886666665,0.7473390026666666,-27.9808833,0.19311299033333332,-0.22660285,10.002873103,-3.4285292029999996,-3.241549611,1.5852222343333333
382,3.183205999999928,21.65685781,0.7206923116666667,-27.99920403333333,-2.509190003,-0.2155677503333333,9.792139372333333,-4.759868264333334,-4.214127063666667,-1.1816957593333333
383,3.1915389999999206,21.612014133333332,0.7072688216666666,-27.99853006666666,-0.30855154,-0.8769319059999999,11.599580128666666,-6.0366990566666665,-1.9643175253333336,0.11344526200000005
384,3.199871999999914,21.561588286666666,0.6641001403333333,-28.01470946666666,-1.9221541086666665,-0.06983128666666667,11.200505890666667,-6.702793559,-5.961628318333333,-0.21918093133333336
385,3.208204999999907,21.49421882333333,0.666707635,-28.013628666666666,-0.06731236966666669,-1.1984983486666667,9.179377078333333,-8.729597328,-0.16554074466666657,-0.534718454
386,3.2165379999999004,21.43744151,0.6093502143333333,-28.03576153333333,-1.5626691083333333,-0.271699314,11.196759859333334,-7.489321867666667,-7.802994171333332,-0.277376612
387,3.2248709999998937,21.33983803,0.6443050356666666,-28.03165689999999,-1.9941304923333334,-0.6114342113333333,8.991545360666667,-12.366865636666667,3.595564603666667,-1.616070628
388,3.2332040000000006,21.240751266666667,0.592125108,-28.047910033333327,-0.53077809,-0.6423790156666667,15.25073115,-12.550948020666665,-6.9733962410000006,0.14257288000000004
389,3.241536999999994,21.13362376,0.6528532829999999,-28.041699733333328,-1.9758207426666665,-0.7178825673333334,7.5941527686666666,-13.52244981,6.568508156,-2.4882953563333334
390,3.249869999999987,20.983568193333337,0.62019072,-28.058532699999997,-0.7462791499999999,-0.42455479766666665,10.8358078,-18.65449937,-4.8122886419999995,-0.7946650089999999
391,3.2582029999999804,20.82842827,0.6987695636666666,-28.053937266666665,-2.2543299993333332,-1.6606649556666666,9.022190888666666,-19.273148694,8.496542354333334,-3.3878982070000005
392,3.2665359999999737,20.648280463333332,0.699294931,-28.054273,-0.220239659,-0.06631272033333331,12.563767752999999,-22.302665391666668,-0.3690244853333333,-0.39070328066666676
393,3.274868999999967,20.439742406666667,0.7945249876666667,-28.05128226666666,-2.8968284926666663,-1.2048074206666668,8.531120777666667,-25.710099856666663,10.352087977000002,-4.122158289000001
394,3.28320199999996,20.22370401666667,0.8321108916666665,-28.045023599999997,0.09644490466666666,-0.7723532023333334,12.081796646666666,-26.60144297333333,4.0633772210000005,-1.1890738306666666
395,3.291534999999953,19.972385406666664,0.9614585536666667,-28.032193533333338,-3.4165447553333337,-0.5620034036666667,8.679959137333332,-30.87135505666667,14.627134284666667,-4.3321537176666665
396,3.2998679999999467,19.67297363333333,1.0311055980000001,-28.0237961,0.40823335,-1.3128818869999999,12.719623404666669,-36.58969879,7.779283205666666,-2.225679159333333
397,3.30820099999994,19.37603315,1.1517193713333334,-28.01409146666666,-2.3601041633333333,-1.078742524,9.614597639666666,-36.32629839333334,13.544998526999999,-4.174380223
398,3.3165339999999333,19.033559800000003,1.2581288813333333,-28.003128066666665,0.106539669,-0.7165856960000001,9.209607282,-41.79687436333334,12.077540715333333,-3.3233973979999996
399,3.3248669999999265,18.66378720333333,1.3892343243333334,-28.0069326,-3.2055928710000003,-0.9832303326666666,9.991323789666666,-45.05765660666666,14.264355420333336,-5.963238874999999
400,3.33319999999992,18.263052623333333,1.5533579786666667,-27.9897766,-0.16690047100000002,-1.3908111850000002,11.843684355333332,-48.76819229,18.924758909999998,-4.641231377666666
401,3.341532999999913,17.81999143,1.6959993043333332,-27.9873759,-2.1622581876666667,-0.4591353533333334,11.638966243333334,-53.87867736666667,15.911750476,-5.445678393333334
402,3.3498659999999063,17.331590653333336,1.8844018383333332,-27.97311146666667,-0.3584523400000001,-2.0798665683333333,7.5731504759999995,-59.29111735,21.654012679999997,-5.529190699333333
403,3.3581989999999,16.82959556666667,2.0163101749999996,-27.981068933333336,-1.2041302323333334,-0.510455787,10.743001778999998,-60.88594691,14.379652498333334,-6.005814552333334
404,3.366531999999893,16.27298164666667,2.2538527646666666,-27.96505483333333,-2.0442434153333333,-0.8793919086666667,8.162681341333334,-67.53185908,27.463758470000002,-6.596461772999999
405,3.374865,15.703405063333333,2.3976498446666668,-27.968869499999997,-0.8555229903333332,-0.575501037,13.790523530000002,-69.01915995333333,15.996169726666666,-5.668231328333333
406,3.383197999999993,15.11340205,2.6593956943333334,-27.953257266666665,-1.3972655139999999,-1.3086252413333332,7.4582116613333325,-71.53805033333332,30.335585910000002,-6.793122927333333
407,3.3915309999999863,14.47298908,2.8109223843333333,-27.958114633333334,-0.609652924,-0.8085260986666668,11.342914899,-77.51720937333333,16.96022924,-5.765230179
408,3.39986399999998,13.811185196666669,3.058257341333333,-27.960617066666668,-2.089773655,-0.869817535,8.545497100333334,-80.04445902333333,28.26749293,-7.839777628333334
409,3.408196999999973,13.133002283333333,3.2452445026666665,-27.964241033333334,-0.45636366933333333,-0.18895447366666665,12.690222103333333,-81.99432118666667,21.26208305333333,-6.265235583333333
410,3.416529999999966,12.43204975,3.5076157249999995,-27.972831733333326,-2.4052615166666667,-0.8233034213333333,7.499772707666666,-84.73588053666667,30.0924263,-8.180875778
411,3.42486299999996,11.715417226666666,3.7429660956666666,-27.982472733333328,-0.9506001473333333,-0.39891233066666665,12.623117129999999,-86.58243052333334,26.944535573333336,-7.599786599666667
412,3.4331959999999526,10.971050261,4.029380321333333,-28.007575966666664,-2.13461411,-0.8179199696666667,8.264619985666666,-89.76451110666666,32.72873560666667,-9.800869940333333
413,3.441528999999946,10.201451938,4.315400600333334,-28.017517100000003,-0.8341902293333332,-0.740745922,11.384474434666666,-92.93195343000001,33.121841429999996,-7.935212293
414,3.449861999999939,9.428688685666666,4.607306718999999,-28.044949866666666,-1.5257086753333333,-0.12598292766666666,8.953466732,-93.11778767666665,33.58562151333333,-9.330721856333332
415,3.4581949999999324,8.633518378333333,4.954663753333333,-28.0639547,-1.6762665666666665,-0.17581466066666665,9.992377918,-95.90628050333333,40.36822255333333,-9.150966007000001
416,3.4665279999999257,7.845671335,5.281081517333333,-28.087654100000005,-1.8216392596666668,-0.09320347266666669,11.003686588333332,-94.90784454333334,37.89785766333333,-8.956805865
417,3.474860999999919,7.0411170326666666,5.663443724,-28.10884093333333,-0.9903009883333334,0.14263134700000002,9.886047998,-96.96920523,44.72224680666667,-8.797182719
418,3.483193999999912,6.2213470143333325,6.013168653,-28.142415366666658,-1.7723380923333334,-0.6975973423333333,10.843096098333334,-98.60226694666666,40.725320180000004,-9.446919283333335
419,3.491526999999905,5.415621280666667,6.389995892999999,-28.172403966666675,-0.31992000600000003,-0.11419362800000003,9.188668569333332,-96.95813241333333,44.17589187666667,-8.597157478333335
420,3.4998599999998987,4.5845340089999995,6.766563892666667,-28.2129059,-1.5540414949999999,0.01892500133333334,8.731692790333334,-99.78185015666668,44.15428542666667,-9.464333533333333
421,3.508192999999892,3.7540625333333337,7.1216427483333336,-28.254959100000008,-0.3335382070000001,-0.25495966266666664,11.256250379666668,-99.69032285666667,41.71671676333334,-8.617823442
422,3.516525999999999,2.9260287283333333,7.514643987,-28.30005136666667,-1.7428446013333332,0.4110234576666667,12.366293906666668,-99.27820079333333,46.361202240000004,-8.775765736666665
423,3.524858999999992,2.1016728083333334,7.854842821666666,-28.359792066666667,-0.2720612486666667,-0.20836969333333336,7.845419882666666,-98.59888203999999,40.07352447666667,-9.562039693666668
424,3.533191999999985,1.234893193,8.202753385,-28.425526933333327,-0.7348908286666666,-0.9013033859999999,10.234315236,-103.49912769999999,41.141582486666664,-9.683159192333333
425,3.5415249999999787,0.35992042233333343,8.518075782666669,-28.497886633333337,-0.45687892066666663,-0.7445881166666667,10.421345709333332,-104.36815897999999,37.34408887,-9.921361286333335
426,3.549857999999972,-0.5165576933333332,8.863392035333334,-28.586359666666656,-1.842628658,0.5438635546666667,11.218614896,-104.14801278666665,41.119602203333336,-11.173642159666665
427,3.558190999999965,-1.4146688776666665,9.168894451,-28.67663573333333,0.2532184966666667,-1.064809044,7.789437533333333,-106.70267486,36.48590469333333,-10.944677988333332
428,3.5665239999999585,-2.367717763,9.431552567666666,-28.776138300000003,-1.0732906636666668,-0.8818335533333332,10.591405233,-113.02449292,31.562715530000002,-11.323670705333333
429,3.574856999999952,-3.3336031040000003,9.692472139333333,-28.874781266666663,0.08792879166666667,-0.7195211549999999,12.301487286666665,-114.60331726666668,31.47702026666667,-11.057443300333334
430,3.583189999999945,-4.297329107666666,9.958017030999999,-28.9865621,-2.261078298,0.19092198199999996,9.270276387666668,-113.97361247333333,32.30935605,-11.689422926666666
431,3.5915229999999383,-5.309128523,10.196818986333334,-29.096204100000005,0.6347645896666666,-0.7794798813333333,7.903645832,-119.7802429,29.24386851,-11.47751458
432,3.599855999999932,-6.3412391343333345,10.363297143999999,-29.206077566666668,-0.566081782,-0.25071503733333333,13.296615919999999,-122.12691753333333,20.813392003333334,-11.503490130000001
433,3.608188999999925,-7.395892381666667,10.579815547666668,-29.31810249999999,-0.5371948483333333,-1.3233876426666666,8.886562506666667,-124.80970000000002,26.965932846666664,-10.905165992999999
434,3.616521999999918,-8.428812503333333,10.727701504666667,-29.436088533333322,-1.8137453000000001,1.1455918353333334,10.985781669333335,-121.94670106666666,19.098692576666668,-12.095918656666667
435,3.6248549999999113,-9.499456564333334,10.922629039999999,-29.556208300000005,-0.06691612800000006,-0.20634805899999997,7.562269687,-126.45937856666666,24.915571850000003,-11.227008823333334
436,3.6331879999999046,-10.571095306,10.994396530000001,-29.6662903,-0.3202321329999999,-0.601080035,14.139742213333333,-126.72033946666669,10.391833305333334,-11.919325193333334
437,3.641520999999898,-11.640527726,11.122656823333335,-29.781504300000005,-0.5900957186666668,0.0385295153333333,7.6278762816666665,-126.38819373333332,17.285578409,-11.180417060000002
438,3.649853999999891,-12.701023739666667,11.18898551,-29.901532500000002,-1.2574532330000001,1.052971542,11.564319292,-125.1421585,10.369586628,-12.71746667
439,3.658186999999998,-13.747186343333333,11.284882226666667,-30.01261646666666,-0.7796183626666666,-0.26786571733333336,9.899767081333332,-123.6450602,13.807131608333334,-10.781401313333333
440,3.6665199999999913,-14.77687613,11.33023135,-30.12033083333333,-0.28248421333333334,1.371228178,13.57798036,-121.70056913333333,7.994843841333332,-11.405504226666666
441,3.6748529999999846,-15.794571560000001,11.363022483333333,-30.2224528,-0.6273771523333332,0.00599380599999999,8.9250528,-120.42785136666667,6.503515202666667,-11.175415674333335
442,3.683185999999978,-16.77597491,11.389293989999999,-30.325711566666666,-0.9520730873333333,0.6801223556666667,10.537140845333333,-116.00732676666667,5.984812922333333,-11.277529397
443,3.691518999999971,-17.73301856,11.389071783333334,-30.413190233333324,-0.6187116903333334,1.468185067,9.535662967999999,-113.46719613333335,2.5514746716666665,-10.492674508666665
444,3.699851999999965,-18.648452123333332,11.40093867,-30.506467200000003,-0.4734014273333333,0.9502410490000001,11.643013794666667,-108.32530466666667,4.334863841333333,-10.378267606000001
445,3.7081849999999577,-19.510307949999998,11.351158143333334,-30.56806946666667,-0.37962755066666665,1.1037405826666666,12.108579953333333,-102.67129261666666,-3.7935069403333332,-9.403203965333333
446,3.716517999999951,-20.332016626666668,11.34491698,-30.656379700000002,-1.7313412823333332,1.7301437856666666,9.097136655333333,-97.19764710666668,2.404187719333333,-10.404162405333333
447,3.724850999999944,-21.090159733333333,11.290586154666668,-30.708340966666665,-0.9325052303333333,1.3937292896666669,12.460207305333332,-90.41670988333333,-4.435505072666666,-8.639770826666668
448,3.7331839999999374,-21.793832143333333,11.257067360999999,-30.767061866666666,-1.204801162,1.948889017,10.001742043333332,-83.75277709,-1.6258961623333335,-8.314414182999998
449,3.7415169999999303,-22.431987763333336,11.225829441666667,-30.820922866666674,-1.0301888853333334,2.075186570666667,12.128356296666666,-75.99923832,-1.5863462290000003,-7.734273434666666
450,3.749849999999924,-22.992350896666665,11.142793020333334,-30.85336813333333,-1.1877862213333332,2.185128847666667,10.284269017,-67.16527303333334,-8.125639756666667,-7.834247748
451,3.758182999999917,-23.510649360000002,11.139036498333335,-30.908327733333337,-1.121817847,1.8526316483333334,9.960877738,-61.59370168,1.6628273329999999,-6.434739987
452,3.7665159999999114,-23.943672180000004,11.046470640333332,-30.926630666666668,-0.9588470856666668,1.850023071,13.062288603333334,-52.24343236000001,-9.711685181666668,-6.844319025666667
453,3.774848999999904,-24.329821269999997,11.015288669999999,-30.97142283333333,-1.539639771,1.7378511033333333,9.840347844999998,-46.002182006666665,-1.7088195483333333,-6.645259221333333
454,3.783181999999897,-24.633987426666668,10.962504388999998,-31.000925699999996,-1.171381096,1.9118474326666668,11.449649811999999,-36.49117469666667,-4.703040441,-6.226219972
455,3.7915149999998894,-24.903352736666665,10.882348697,-31.016408266666673,-0.13036292799999996,1.4417201676666664,10.479336103333333,-32.680802666666665,-8.404200713,-5.976667245333334
456,3.799847999999997,-25.125699363333336,10.849834761333334,-31.047531133333333,-2.4364036123333332,1.2087455790000001,12.425469399999999,-26.652992886666667,-2.3392790956666665,-5.463158130666667
457,3.8081809999999914,-25.27577019,10.776915231666665,-31.06600953333333,-0.49953775100000003,1.3898006083333332,10.780121168333332,-18.306805927666666,-7.421112975,-5.981179952666667
458,3.816513999999984,-25.417338049999998,10.724939663333332,-31.081682833333332,-1.697471105,1.0540839833333333,10.607243063333334,-17.296134152333334,-5.229752857666667,-4.750567913
459,3.824846999999977,-25.514916103333334,10.692395529,-31.107129433333338,-0.803989907,0.7346111886666667,11.232114950666665,-11.868707974666668,-2.6512042673333336,-4.712410529666667
460,3.8331799999999694,-25.582015990000002,10.605664254333334,-31.09867603333333,-0.9847084683333334,0.6155367396666667,12.830540973333333,-8.921121002,-10.201251983,-3.9949127436666667
461,3.841512999999964,-25.623194373333334,10.593354862,-31.1363017,-2.0592258173333335,1.0077607833333333,7.855830987333333,-4.818080980333334,0.17396734166666672,-4.9731110733333335
462,3.849845999999957,-25.64897092,10.513277373,-31.119562766666665,-0.21286286900000007,0.128951567,13.805373193333333,-4.130215718666666,-9.879630246666666,-2.8102963763333335
463,3.85817899999995,-25.67425855,10.498531658,-31.14634703333333,-2.525882721,-0.17531209699999997,10.134748458666667,-3.153193434,-0.6299099126666666,-3.962056716333333
464,3.8665119999999433,-25.673564913333333,10.463081359666667,-31.141255700000002,-0.32986764099999993,0.5452427096666667,12.977623303333333,-0.7207588146666666,-4.463174104666667,-1.720495403
465,3.8748449999999366,-25.689139683333334,10.445043563333334,-31.163991299999996,-2.7637494803333333,-0.6315315513333334,8.225669224333332,-2.0823647976666666,-1.1854824216666664,-3.7271744410000003
466,3.88317799999993,-25.70505205666667,10.44013659,-31.16589606666666,-1.0704043886666668,0.22280416866666672,13.053012529999998,-2.554571708333333,-0.8061098903333334,-0.8601431549999999
467,3.891510999999923,-25.72150993,10.440489131333335,-31.187708533333335,-1.9320426386666665,-0.03105530766666666,11.105952899999998,-2.2129416466666663,0.7443617193333338,-2.6560300193333335
468,3.899843999999917,-25.729401266666667,10.454083442333333,-31.194485999999994,-1.071720372,-0.8022451003333333,10.675924303333332,-1.5025565823333336,1.448297183,-0.4263062276666667
469,3.9081769999999096,-25.756799696666665,10.481552758999998,-31.224530533333333,-2.407453179333333,0.389163258,9.83905951,-3.348199446666667,4.098222097666667,-2.1136398713333335
470,3.916509999999903,-25.805939356666666,10.504240035333334,-31.233601866666664,-0.7400501373333334,-0.532261729,12.493523917333334,-6.3965625663333325,2.5505462886666668,-0.2004355836666666
471,3.924842999999896,-25.850227356666664,10.550580023,-31.26484683333334,-2.490164081333333,-0.3834286433333334,11.000998656666667,-5.334046205333333,6.198693274666667,-1.2328004936666668
472,3.9331759999998894,-25.888954163333334,10.589937210666667,-31.282648733333332,0.152802199,-0.050334018,9.097151439333333,-4.965341011666666,4.792987107999999,-0.24051334966666663
473,3.941508999999997,-25.946831386666663,10.638441406333333,-31.32003783333333,-3.226861477,-0.5390962363333334,10.320558866666667,-6.830604514333334,6.749005655666667,-1.754186829
474,3.9498419999999896,-26.017307916666667,10.701584181,-31.349652600000002,0.33014440533333334,-0.198664449,12.037518341999998,-8.507449865,7.971083005333334,-0.240466416
475,3.958174999999983,-26.08177566333333,10.750165303000001,-31.378540033333334,-2.756801367,0.131244724,11.866884228666668,-7.7899517026666665,6.317517776666667,-0.818836113
476,3.966507999999976,-26.138242723333335,10.84856796266667,-31.424957299999992,0.029215971666666674,-0.9844648836666666,7.586816311,-6.45451959,12.640790619999999,-0.13821868066666668
477,3.9748409999999694,-26.201597213333333,10.879745801666667,-31.44098406666667,-2.5089043380000002,-0.0008604973333333302,10.817904470666667,-7.947862784000001,3.7762516329999998,-0.36789305999999994
478,3.9831739999999622,-26.280700046666666,11.016276042666666,-31.514394133333337,-1.3978708683333334,-0.12506768233333335,11.314781664333333,-8.538777190666666,18.145727793333332,-0.926603695
479,3.991506999999956,-26.32928911666666,11.050442698,-31.523778266666664,-1.2853814363333333,-0.3168264133333333,13.441843033,-6.322400528666667,3.7423597676666667,0.5189529456666667
480,3.999839999999949,-26.380937579999998,11.225554146666667,-31.606157933333332,-1.9957300426666666,0.25282557800000005,5.804468859,-4.9907688299999995,22.769861856666665,0.21303396933333332
481,4.008172999999943,-26.43687502666667,11.247977256666665,-31.614710466666665,0.279401203,-0.621577402,12.055033681666666,-7.249080737,2.4438457093333334,-0.036534567666666705
482,4.016505999999936,-26.487295149999998,11.413397153333335,-31.689315799999992,-3.301144123,0.21890466899999997,9.558747608333332,-4.986876011,21.313496269999998,0.5734134513333334
483,4.024838999999929,-26.533236820000003,11.477965036666667,-31.713282300000007,1.253882408,-0.52059106,12.512539704,-5.6780060930000005,7.784773033666667,0.5902118386666667
484,4.033171999999922,-26.56131299333333,11.5907046,-31.75736236666667,-3.422510147,-0.22649320433333334,8.701464493666666,-2.984046300333333,14.055507660000002,0.993730093
485,4.041504999999916,-26.59441376,11.71189785,-31.8090464,0.8783814706666666,-0.594075461,10.771297136333333,-3.461538116333333,15.323802946666667,0.7099113763333333
486,4.049837999999909,-26.62712987333333,11.742546396666668,-31.818496699999994,-1.8654100496666668,-0.03918519733333333,10.991230011333334,-4.387108166666667,3.4252890943333334,0.2321973243333333
487,4.058170999999902,-26.657022476666665,11.89906311,-31.893241899999996,-2.092561404,-0.18670859633333334,11.01657136,-2.4796594776666665,20.31329917666667,0.24426604333333335
488,4.066503999999895,-26.680947623333335,11.938475926666667,-31.908587133333338,0.19784644733333334,-0.635678912,10.918783981333334,-3.2124306829999996,4.658998767333333,0.10373340533333335
489,4.074837000000002,-26.71416981666667,12.036140763333334,-31.947118133333333,-2.13572069,-0.5963649153333334,9.248828887,-3.745694160333333,12.092946211,0.9054038523333334
490,4.083169999999996,-26.744110743333334,12.110016823333334,-31.987599666666668,-0.9160767396666666,-0.25843714166666665,12.537357171666665,-3.278054987333333,9.698429905,-0.6990680296666666
491,4.091502999999989,-26.765832900000003,12.169935863333334,-32.0061213,-0.3818828863333333,-0.8319890596666667,8.413139026333333,-2.8633855386666665,6.988839942666666,0.9670099616666666
492,4.099835999999982,-26.812969843333335,12.223711333333332,-32.03362276666666,-1.343868067,-0.7964803973333333,11.438341460000002,-5.667064944666667,6.858498614333333,-0.3935755490000001
493,4.108168999999975,-26.862778343333332,12.290315943333333,-32.057139066666664,-0.8631095686666667,-0.695565944,11.41763083,-6.106776197666666,7.967066127999999,0.8050171283333333
494,4.116501999999969,-26.919893263333336,12.325326916666668,-32.079622900000004,-1.1567811123333334,-0.6707333623333334,10.510200820333333,-6.995636523000001,4.587872903333333,-0.8953371740000001
495,4.124834999999962,-26.979528426666665,12.371745426666669,-32.09773763333333,-1.2471341539999998,-0.7955697776666667,9.829683303666668,-7.407227436666666,5.523526668333333,0.291020453
496,4.133167999999955,-27.030991869999998,12.40160815,-32.11477153333333,-1.6713478563333333,0.117482136,12.352639520000002,-6.4509538016666665,3.7310252986666668,-0.5624161263333333
497,4.141500999999948,-27.089766816666668,12.456135113333332,-32.14046223333333,-1.3593756506666665,-0.9310109613333334,9.381951330666666,-7.107669433000001,6.789638201333332,-0.040286908333333316
498,4.149833999999942,-27.142730076666666,12.47779115,-32.15606943333333,-0.256591839,-0.7019650386666667,11.007332800666667,-6.675752560333334,2.770824184,-0.8398779233333332
499,4.158166999999935,-27.207525256666667,12.483297986666665,-32.1648229,-1.1986940576666667,-0.5374997506666667,10.484841346666668,-8.269795417,0.6467638063333333,-0.9426380396666666
500,4.166499999999928,-27.270523706666665,12.530703863333335,-32.19199116666667,-1.5956869916666667,-0.36632164833333336,9.711665469666666,-7.581062793666667,6.169116497,-0.6846301156666668
501,4.174832999999921,-27.33309873,12.516968409999999,-32.1887665,-0.22776125366666666,-1.0687393743333333,11.611258505999999,-8.294513226666666,-2.0354485513333334,-0.7692552806666667
502,4.183165999999915,-27.38247108666667,12.53504149,-32.20143633333334,-2.0744633676666666,-0.074138835,10.968633650000001,-6.315924168,2.264610091666667,-0.7822075163333334
503,4.191498999999908,-27.43294843,12.535065966666666,-32.2080434,-0.6079818006666666,-0.6952752866666666,11.86668237,-6.593198140666668,-0.035876999,-1.0425719916666667
504,4.199831999999901,-27.49332809666667,12.550999643333334,-32.230087266666665,-1.8905911843333332,-0.5658801693333334,9.523873965333335,-7.387734890000001,2.5440017183333334,-1.8646652303333333
505,4.208164999999895,-27.53538577,12.51853275,-32.221043900000005,-0.114334911,-0.4542107756666667,11.422578176666667,-5.993594646333334,-4.338398948333333,-1.217914298
506,4.216498000000001,-27.58040364333333,12.505765276666665,-32.217020700000006,-2.0317996343333333,-0.623300612,9.305894055333333,-6.222841898666668,-1.9134901166666667,-0.7616008966666666
507,4.224830999999995,-27.63474655,12.521944996666667,-32.22782646666667,-0.8293100396666667,-1.150781691,10.221545696333333,-6.9554173153333325,1.9214005466666668,-0.5932726066666667
508,4.233163999999988,-27.692718503333328,12.473939896666666,-32.20958456666666,-0.9027358146666667,-0.5168076953333334,13.48815473,-8.155487538000001,-6.4425523280000005,-1.2257777846666666
509,4.241496999999981,-27.734082543333333,12.450595536666667,-32.199378966666664,-0.887500758,-0.12128814066666667,9.894992509,-5.937465588333333,-3.4411619103333333,-0.5770418246666668
510,4.249829999999975,-27.764352159999998,12.401444433333333,-32.17668913333333,-1.5226268766666669,-0.7875981503333334,9.779548010666666,-4.9309539,-6.776340484666666,-0.8930958733333333
511,4.258162999999968,-27.812599816666665,12.395633063333335,-32.17839813333334,-1.2774136063333332,-1.01253436,9.282236733666666,-6.449007829,-0.9208873510000001,-0.8476648726666668
512,4.266495999999961,-27.856860479999998,12.32570553,-32.14185076666667,-0.5819329383333334,-0.8819808463333333,13.723525522666668,-6.972537437999999,-9.746406395000001,-0.6157066306666666
513,4.274828999999954,-27.897060393333334,12.289824166666667,-32.11900836666666,-2.1770709553333334,-0.670618127,10.334608713333333,-6.119881789000001,-5.456225474666667,0.008017241666666619
514,4.283161999999948,-27.928958893333334,12.277705509999999,-32.1084798,-1.556682984,-0.1718096246666667,9.112200897,-4.824526787,-2.18810453,-0.07962183166666666
515,4.291494999999941,-27.9758358,12.226086296666667,-32.08376823333334,-0.7975278733333333,-1.3159935476666667,10.190318109666668,-6.966611226666667,-7.2339299519999996,-0.6763994096666667
516,4.299827999999934,-28.016693113333332,12.184963863333332,-32.06006113333333,-0.9308540623333332,-0.20459993866666668,12.916922569,-6.2343766689999995,-6.004514376,-0.3142909106666667
517,4.308160999999927,-28.05575752,12.113020263333333,-32.03318023333333,-1.5409317613333335,-0.9949294923333335,11.550815263333334,-6.086327731333334,-9.506750582666667,-1.611605247
518,4.316493999999921,-28.095286686666668,12.106502216666668,-32.03518423333333,-1.8753681976666667,-0.7644764186666665,7.643283524666667,-5.417855421666666,-0.914684435,-1.0387384296666666
519,4.324826999999914,-28.14930216666667,12.032490726666667,-32.00834906666666,-0.15810020733333333,-1.469832738,11.561368306333334,-7.882731278333334,-9.734025953333335,-1.7229418356666664
520,4.333159999999907,-28.199178060000005,11.989668843333334,-31.98638406666667,-1.8831702473333334,-0.3051123173333333,11.648523330000002,-7.261559009666667,-6.078147093333333,-0.623856147
521,4.3414929999999,-28.242232636666667,11.945658366666668,-31.97794086666667,-1.2654569743333333,-0.4928647480000001,11.911972046666667,-6.122135242,-5.526066780333333,-1.968565047
522,4.349825999999894,-28.290173210000003,11.9169569,-31.971176099999997,-1.8563776013333335,-0.6472684313333333,8.456786631666667,-6.651568889333333,-3.762155294333333,-1.3599324223333333
523,4.358159000000001,-28.335962933333334,11.84988181,-31.95670316666666,-0.8952654299999999,-1.003569265,11.515533763333332,-6.591999053666666,-8.295149963333333,-2.664704641
524,4.366491999999994,-28.37379900666667,11.796717639999999,-31.935043333333326,-1.2498986523333333,-0.4269399446666666,11.219106991666665,-5.794448693666666,-7.163187979333333,-1.2387857036666665
525,4.374824999999987,-28.416832606666663,11.770632743333332,-31.939814233333337,-1.7698541083333332,-1.291016082,9.065599759666666,-5.788846492666667,-2.898169438,-2.3082139093333334
526,4.38315799999998,-28.469219210000002,11.712147713333332,-31.92170713333333,-0.47602609766666665,-0.9629022576666667,10.691442332,-7.442989349666667,-7.536438624,-1.8898739616666667
527,4.391490999999974,-28.519495646666666,11.65220515,-31.90050506666667,-1.319861293,-0.184814216,10.575223286,-7.291771412,-7.914624055,-1.5828104016666664
528,4.399823999999967,-28.560088476666667,11.60718441,-31.8843282,-1.4271471503333333,-1.1673457623333332,10.566966375,-5.993530829666667,-6.006440560333334,-1.3360087176666664
529,4.40815699999996,-28.61044692666667,11.5817852,-31.88492586666666,-1.7621626853333332,-0.9277616343333334,9.855935413333334,-6.771272659333334,-3.0192311603333333,-1.9160344203333333
530,4.416489999999953,-28.673973716666666,11.51492087,-31.86772663333333,-1.0757546426666666,-0.8692140976666667,12.348872503333332,-8.757657525666666,-8.355206967,-2.5052134196666667
531,4.424822999999947,-28.71447308666667,11.462983450000001,-31.84619396666666,-1.9740056893333333,-0.69055297,11.846245446666666,-6.110613346,-7.059920231666666,-1.1648287573333331
532,4.43315599999994,-28.7552948,11.443113646666667,-31.851534533333325,-1.7590630453333336,-0.39010510133333337,8.529625574666667,-5.494181553333333,-2.1253413259999996,-2.145418644
533,4.441488999999933,-28.814502716666667,11.408177693333334,-31.842063866666663,-0.9268155349999999,-1.207493822,8.867407481333334,-8.065577666,-4.607903321666666,-1.3954594136666667
534,4.4498219999999264,-28.876576106666665,11.346336363,-31.8257294,-0.36755385533333335,-1.2728116906666667,13.009763079999999,-8.559693811999999,-7.760222912666667,-2.3518354893333333
535,4.45815499999992,-28.920460383333335,11.312845863,-31.81814826666667,-2.1308797399999997,-0.0003746699999999936,9.743874868666667,-6.1894880930000005,-4.345621885,-1.5170671543333334
536,4.466487999999913,-28.969834646666666,11.280996322333332,-31.81168366666667,-0.9077715873333334,-1.1941797733333332,9.790154773333333,-6.810940742666666,-4.041922330666666,-1.64769125
537,4.474820999999906,-29.030104956666666,11.229413666,-31.794698100000005,-1.499784082,-1.2299592096666667,11.153910636,-8.364444573999998,-6.785207112666666,-1.5942087569999999
538,4.4831539999999,-29.067245483333334,11.182422955333335,-31.776504499999998,-1.4263573686666666,-0.021286269666666652,13.917134286666666,-5.621586164,-6.298126538666666,-1.3308090173333333
539,4.491486999999893,-29.1038901,11.162735939333333,-31.785156266666664,-2.53610305,-0.389349828,8.674013455666667,-4.927209854,-1.9713956513333333,-2.380728046
540,4.49982,-29.136581420000002,11.147847494333332,-31.786755866666663,-0.41931897900000004,-1.5127155780000001,8.859414894333334,-4.635216077333333,-1.830487132,-1.4373043776666667
541,4.508152999999993,-29.169977823333337,11.088269233,-31.76851653333334,-1.4679182273333333,-0.2875623703333334,11.8097655,-5.154254198333334,-7.681346099,-1.9660931426666668
542,4.516485999999986,-29.19022178666667,11.077330905333332,-31.764478033333344,-1.0430855206666667,-0.5454039276666667,9.646484372333333,-3.2823232806666667,-1.7256394229999998,-0.6613254153333333
543,4.52481899999998,-29.212687173333336,11.040404635666667,-31.76154073333333,-1.5457232396666667,-1.8955195346666667,10.383460045666666,-3.497721870666666,-4.453389167666667,-2.173534314
544,4.533151999999973,-29.235874176666666,11.003425599333333,-31.748420733333333,-0.6772510036666667,-0.047109484666666646,10.673652965,-3.8368629613333334,-4.98130703,-1.2341151436666669
545,4.541484999999966,-29.246817273333335,10.955841700666667,-31.74290466666667,-2.152105987,-0.5723948576666666,12.745403288333334,-2.184283932,-5.725708405333333,-2.526558478666667
546,4.549817999999959,-29.248729069999996,10.961707751333334,-31.7545878,-2.082809766,-1.398673415,8.275033632666666,-0.7107693949999999,0.9534516333333333,-1.3195899526666666
547,4.5581509999999525,-29.259615580000002,10.928387959333334,-31.765869166666665,-0.8826527000000001,-0.4710623413333333,10.759174189333335,-1.7822428146666667,-3.239521980333333,-3.4551339943333335
548,4.566483999999946,-29.270547866666664,10.893074355333333,-31.751592,-1.1831263703333332,-1.0175380606666666,11.465585390000001,-2.3927579323333337,-4.871379296,-1.0291245233333333
549,4.574816999999939,-29.256123860000002,10.876688005333335,-31.758646666666664,-2.2901598213333334,-0.9815701643333333,9.593212446999999,1.1495967310000001,-1.7303012413333334,-2.0005613566666667
550,4.583149999999932,-29.261217116666668,10.871989250333334,-31.7599589,-0.6125583823333333,-0.655126865,8.83646059,-1.335650007,-0.7645762813333333,-0.8361296553333334
551,4.591482999999926,-29.27518145333333,10.842645325666666,-31.7596588,-1.5658812523333332,-1.3442030546666668,11.833886782999999,-2.400519073,-3.469759663,-2.058791160333333
552,4.599815999999919,-29.275726316666667,10.805613835,-31.743504833333336,-1.14547808,-1.2836009363333332,12.284772554999998,-1.170152107666667,-5.140397310333333,-0.9655800213333333
553,4.608148999999912,-29.275897346666667,10.822565397666667,-31.765416466666668,-2.611511628,-0.0003327476666666884,9.243653614,-0.25221908099999996,2.652238607333333,-1.631122947
554,4.616481999999905,-29.286221183333335,10.798953373666665,-31.755770399999992,-0.3910914263333334,-1.89820679,10.589810053333332,-2.194533696,-3.3447452386666665,-0.8725189963333332
555,4.624814999999899,-29.289520263333333,10.784191131,-31.75413256666667,-1.940723578,-1.0316028196666667,11.668043139333333,-1.165165901,-2.0410575466666665,-1.0423670806666667
556,4.633147999999892,-29.29832585666667,10.772539454666665,-31.7524007,-1.3511659703333334,-0.20265604033333331,11.035882630000001,-1.8460350036666668,-1.6515288746666668,-0.969246924
557,4.641480999999999,-29.315723416666668,10.788274446333332,-31.771855666666667,-2.3186012603333332,-1.8160661656666666,8.008650221666667,-2.377863248,2.385244578,-1.4546964166666667
558,4.649813999999992,-29.324136733333333,10.769554774666666,-31.763669333333326,-0.24103718500000001,-1.4190549056666668,10.936285973666665,-1.9447351793333334,-2.771041790666667,-0.696779743
559,4.658146999999985,-29.339254376666663,10.770538328666667,-31.767069500000005,-2.2603427966666665,-0.327711339,11.338195801666666,-2.4719232000000004,-0.10673014333333342,-0.6367015543333333
560,4.666479999999979,-29.34989547666667,10.788538933,-31.776705399999997,-0.9329591793333334,-1.3175926206666668,11.052864391333335,-1.8162798879999997,2.1232280733333333,-0.426664884
561,4.674812999999972,-29.36037127333333,10.806638714666667,-31.79597983333333,-2.582460006333333,-1.0515910983333334,9.314654032333335,-1.5459302416666667,2.604178170666667,-1.2530569756666667
562,4.683145999999965,-29.361290613333335,10.804462115333335,-31.7909444,-0.8342700006666668,-0.507794703,10.680348713666667,-0.9844661153333334,-0.8575005936666668,-0.05948479966666672
563,4.691478999999958,-29.37321980666667,10.851195337666667,-31.812182133333327,-2.6675717829999996,-1.4452445903333333,9.800944646333333,-1.6905951896666667,5.682122070333333,0.27065291
564,4.699811999999952,-29.37817319333333,10.917419113666666,-31.837918600000005,-0.6722829123333334,-1.25022915,9.162236530333335,-0.7793643476666666,8.076323509333333,0.8023019346666668
565,4.708144999999945,-29.381383259999996,10.934711455,-31.84255473333334,-1.7367670139999998,-1.0186481473333333,11.44081084,-1.0070491596666666,1.6590637316666665,0.23594550300000003
566,4.716477999999938,-29.36128234666667,11.006763142333334,-31.85746256666667,-1.5115865666666666,0.06890591966666666,9.714331945333333,2.0050653963333334,8.065330273666666,2.2382317979999997
567,4.724810999999932,-29.337992986666666,11.079943022999998,-31.882537866666667,-2.187565903,-1.2265773613333333,9.753355026333333,2.6304114263333336,8.679973723,1.4129966696666667
568,4.733143999999925,-29.2917614,11.163672763333333,-31.888979566666666,-1.1411065903333333,-0.3434418836666666,10.226167518333334,4.939829508666667,8.809512456,3.7950310110000003
569,4.741476999999918,-29.204763413333335,11.258680026666667,-31.9057948,-2.2980439263333334,0.19407868400000008,12.740757623333332,10.093182561999999,10.515509605666667,3.4893774490000005
570,4.749809999999911,-29.081990559999998,11.37291654,-31.914871199999993,-1.0937415463333333,-0.12093645333333332,7.021402996333333,14.193992218666667,12.176083883333334,5.249162515
571,4.7581429999999045,-28.92154121333333,11.464184446666666,-31.91296386666667,-1.8662067853333333,-0.12730968033333337,10.479103723333333,18.448119005333336,9.054661749333333,5.238959789333333
572,4.766475999999898,-28.72382672666667,11.569064456666666,-31.91377513333333,-1.1612889173333334,0.411420519,11.928125065000001,23.02317364966667,10.758584976,5.510207335333334
573,4.774808999999891,-28.469337463333336,11.665306726666666,-31.915082333333334,-0.8714460736666666,-0.45311961599999995,8.437642892,29.809218406666663,9.813412347333333,5.067329247666667
574,4.783141999999998,-28.16251055666667,11.718330066666667,-31.879557300000002,-0.5644583256666666,0.5105539053333333,10.176403045333332,35.222848576666664,3.325717765666667,6.312910556666666
575,4.791474999999991,-27.821753819999998,11.802776020000001,-31.86999256666667,-1.6699846186666667,0.651858449,11.534804978666669,39.90718778,7.997681140333334,5.459614118
576,4.7998079999999845,-27.397109349999997,11.835066160000002,-31.81550853333334,-0.029728581333333354,-0.14719030266666666,10.381622791,48.87139002333333,0.1436473429999999,7.071294784666667
577,4.808140999999978,-26.914829889999996,11.859780946666666,-31.76311236666666,-1.9487991333333332,0.6896639663333333,9.729978562,55.852326076666664,-0.5796580323333332,6.7235779760000005
578,4.816473999999971,-26.385183333333334,11.868864696666668,-31.69901786666667,-0.03239051500000004,0.718736768,11.538598696333333,61.24595006333334,-2.7215286096666667,6.849076271000001
579,4.824806999999964,-25.785052616666665,11.835997263333333,-31.610613466666667,-1.3120155333333334,-0.026727475333333334,10.234533628666666,69.11026001,-8.475983462333334,7.424909750333334
580,4.833139999999958,-25.11980056666667,11.801724433333334,-31.528066000000006,-0.8895755646666665,0.8372241059999999,9.926319122,77.09451548333334,-8.174460570666668,6.869839350333334
581,4.841472999999951,-24.410153069999996,11.726252556666667,-31.418779999999998,-0.681172063,0.011356765999999999,9.391260782000002,81.75548553333334,-13.986157735333334,7.613759835333333
582,4.849805999999944,-23.659955976666666,11.637871420000002,-31.309491466666657,-1.2095873156666668,-0.17016213633333332,10.851206779999998,86.67375437666668,-15.230528672666667,7.260074932999999
583,4.858138999999937,-22.85407765333333,11.524639763333335,-31.190511033333333,-1.0831426576666667,0.102390299,12.497821488666666,93.13260902666667,-18.429461956666668,7.40502278
584,4.866471999999931,-22.01405525,11.382713951999998,-31.072054566666665,-0.9298390546666666,-0.5636469723333333,9.346659341666665,97.26395671,-21.456137656666666,6.123263756333333
585,4.874804999999924,-21.15073522,11.219026246333334,-30.943733233333333,-0.929137317,-0.891219775,10.414480050333333,99.87114967000001,-24.251273156666667,6.678673267333334
586,4.883137999999917,-20.26992607,11.037256559666666,-30.823318466666663,-1.6343176163333333,-0.5683952963333333,12.808316866666667,102.18103792333334,-25.83034134,5.322978973666667
587,4.89147099999991,-19.35366249,10.850951512999998,-30.695180233333343,-0.9648708303333334,-0.8149326343333333,10.131917319333333,106.28921763333334,-26.63944498666667,6.307997544666667
588,4.899803999999904,-18.426549276666666,10.597077372333334,-30.564394633333333,-1.04121989,-1.3490338523333332,10.639073054,107.5998103,-34.27791087,4.631010333666667
589,4.908136999999897,-17.509326616666666,10.366884232,-30.438351933333337,-1.4691607553333332,-1.2533995906666666,10.283837317666666,106.58686066666667,-31.34610938666667,5.376050631333334
590,4.91646999999989,-16.586387953333332,10.078355153333334,-30.31362916666667,-0.25586247433333337,-1.5374681553333334,11.81005001,107.34891763333333,-37.84920883,3.732446591
591,4.924802999999997,-15.651321093333332,9.804620423666668,-30.18863676666666,-1.8913932243333331,-0.6707235153333334,9.926432607333334,108.91055549999999,-36.09031486333333,4.902877330666667
592,4.93313599999999,-14.727739333333332,9.515653927,-30.076052366666662,-0.7933422426666666,-1.6702766023333335,9.160782496333333,107.79589080000001,-37.39261754333333,3.4673235413333336
593,4.941468999999984,-13.807684263333334,9.161802132333333,-29.940205866666663,-0.7341311326666666,-1.4566044409999999,11.351841291333335,107.04692586666665,-45.554604850000004,4.846796433
594,4.949801999999977,-12.89443334,8.863225936666668,-29.836695366666664,-2.6182527146666668,-1.0098124743333334,11.109089532,106.8914439,-38.11448542333333,3.3864843846666663
595,4.95813499999997,-11.966372806666667,8.525976816666667,-29.7265574,0.11886420366666668,-1.5741079249999999,10.669494948666667,108.6419576,-42.747316996666676,3.4930338066666664
596,4.966467999999964,-11.054754893666669,8.127486069999998,-29.61412303333333,-1.0528499683333334,-1.5580370426666665,9.681738535333333,106.67765553333334,-49.96463012666667,3.4653796353333335
597,4.974800999999957,-10.151377040666667,7.793221155666667,-29.518379199999995,-2.2070255476666665,-1.255343606,11.387077331333332,106.07373303333333,-41.94952647,3.2396786209999995
598,4.98313399999995,-9.22787587,7.400592327000001,-29.417050666666658,-0.6556833186666666,-1.0318198006666666,10.796356202666667,108.41550703333333,-48.93568674666667,3.6162413753333333
599,4.991466999999943,-8.324495155333333,7.014703591666667,-29.325500466666668,-2.0776052076666667,-1.5065325896666668,7.315403620333334,106.3450775,-47.828358970000004,3.478706757
600,4.9997999999999365,-7.414895058,6.630373319333333,-29.230766300000003,-0.724083036,-1.4986341,12.443403559666669,106.9836782,-47.67855962000001,4.346847931666667
601,5.00813299999993,-6.497315882666666,6.240790684666666,-29.14780426666667,-1.8153636456666666,-1.4326769510000001,9.967254001666667,108.28457386666666,-47.993634543333336,3.571756760333333
602,5.016465999999923,-5.599944909666665,5.8412222866666665,-29.067970266666666,-0.743662655,-0.828465263,10.417508127666666,105.96063996666668,-49.04120000333333,3.837677558333333
603,5.024798999999916,-4.681255102000001,5.452732801333333,-28.9918594,-2.100680828,-1.0444503423333333,11.411525724,108.59710946666667,-47.68077087333333,3.9461658796666668
604,5.03313199999991,-3.7732622626666674,5.0464761256666675,-28.918406166666667,-0.6601299643333334,-2.1637476283333332,8.027621587333334,107.40281933333334,-49.684419,4.495630820666666
605,5.041464999999903,-2.866555214,4.631359338666667,-28.86031343333333,-2.0110394360000003,-0.960127001,12.548202833333335,107.5003942,-50.536487580000006,3.5269443986666666
606,5.049797999999896,-1.9475640356666666,4.298007647333333,-28.79692583333333,-1.970696489,-1.0264248150000002,10.768698850333331,108.91895546666666,-40.727635703333334,4.869315783333334
607,5.058130999999889,-1.0555117330000001,3.863451878333333,-28.74861143333334,-0.5387669216666667,-1.16718479,7.882381598333333,105.906751,-52.74111048333333,3.896349191666667
608,5.066463999999996,-0.12235943500000006,3.5269594590000004,-28.70185593333333,-2.1154393750000002,-1.264532333,12.793826738,110.83938343333334,-40.884248096666674,4.269390106
609,5.07479699999999,0.8317732809999998,3.126509030333333,-28.668286633333327,-0.7336764883333334,-0.6974458843333333,12.216789244,113.52116396666668,-48.533181506666665,3.403941897333333
610,5.083129999999983,1.738088568,2.7273906070000002,-28.633104966666668,-1.311254541,-1.5529054006666667,7.091240644666667,107.7897949,-48.233412423333334,4.665322780666667
611,5.091462999999976,2.6807535293333333,2.4461289246666666,-28.608563766666663,-2.887353162,-0.385987957,9.791769504,112.24060566666667,-34.093517303333336,3.3100572430000006
612,5.099795999999969,3.587784979666667,2.034013291,-28.585243200000004,-0.24559127300000005,-1.7070332766666665,9.872766333666668,107.9786453,-49.75067647333333,4.642587701333333
613,5.108128999999963,4.541829924,1.7321046636666668,-28.5812607,-2.9373263516666666,-0.9939565606666667,11.846845942999998,113.7325058,-36.53161621,2.4346969923333335
614,5.116461999999956,5.536905884666667,1.4106780926666669,-28.559710166666672,-0.4831011396666666,-0.23478662966666666,14.587323821666667,118.59063470000001,-38.73823229333333,4.689522981666667
615,5.124794999999949,6.474089781666666,1.043691337,-28.56160986666667,-1.5582846403333335,-0.8538426929999999,7.869403997666666,111.72983803333334,-44.28705724333333,3.8404126963333334
616,5.133127999999942,7.434031645666667,0.854954958,-28.550053899999995,-3.0897269643333334,-1.1273044946666666,9.799196879333332,114.4520696,-22.780004503333334,3.02365605
617,5.141460999999936,8.374015332333334,0.5150261719999999,-28.544728566666674,0.8431365686666666,-1.688528677,11.310488065333333,112.0608851,-40.853304546666664,5.2858127753333335
618,5.149793999999929,9.339174427333333,0.2786996166666667,-28.556076066666662,-4.1521456243333335,-1.091827353,9.650994936999998,115.08385213333334,-28.704870223333334,2.178030888
619,5.158126999999922,10.311680952333333,0.06642659499999996,-28.54049173333333,0.07895890633333334,-1.6034437916666666,10.427049316666666,116.01607263333334,-25.292701086666668,5.045377731333333
620,5.166459999999916,11.238197646666665,-0.24024023366666666,-28.572888666666667,-1.9255584476666667,-0.5662902096666667,10.286235651,110.3928401,-37.33244387333334,2.712904771
621,5.174792999999909,12.156893728999998,-0.3101733846666667,-28.54752093333333,-3.1714344420000002,-1.8426991700000002,11.151582081666668,109.59972123333334,-8.099988778666665,3.7170587776666664
622,5.183125999999902,13.041228294,-0.6067859633333333,-28.58645373333334,1.4491783580000002,-2.043323755,10.898270291333333,105.30888621999999,-36.23907725,2.7363784313333332
623,5.191458999999895,13.942169823333336,-0.6653436613333333,-28.566485099999998,-5.318337440333334,-0.6497783063333333,10.067414600666666,107.4687856,-6.7692668430000005,3.0136007866666668
624,5.199792000000002,14.775832813333333,-0.9000009993333334,-28.59635673333334,2.6999951203333334,-3.088755766666667,12.698677461333332,99.21548207333332,-28.684979123333335,3.208622694
625,5.208124999999996,15.632975576666666,-0.9741307396666667,-28.597554533333334,-6.704802513,-1.034921328,11.055659135666668,102.20250447666666,-9.076258581,1.1449623953333334
626,5.216457999999989,16.426248866666665,-1.1088432270000002,-28.604281100000005,3.848168770333333,-1.649417917,10.442114097333333,94.40239461,-16.300006863333333,3.5065077939999996
627,5.224790999999982,17.187403043333337,-1.1881417036666668,-28.62833406666667,-5.797562639,-2.9120535056666665,11.452519576333332,90.60382335000001,-10.438621045,-1.2287656466666668
628,5.233123999999975,17.90816561666667,-1.268597603,-28.628921533333337,2.110777577,-1.4117332100000002,9.792708357,85.72920483,-9.765280685,2.737720648333333
629,5.2414569999999685,18.587191583333333,-1.341165443333333,-28.660738633333338,-4.234006891666666,-1.7998992203333335,12.350186667666668,80.73769887333333,-9.964082221,-2.108003298666667
630,5.249789999999962,19.23404312,-1.3933497466666667,-28.654991166666672,0.6828444003333333,-2.9388913313333336,7.473032157333333,76.86220422999999,-6.234114647000001,2.704351425
631,5.258122999999955,19.82471148,-1.437883834,-28.68504843333334,-2.595990737333333,-1.1210141383333334,12.25802962,70.15052414,-6.701810358333333,-2.746225436333333
632,5.266455999999948,20.354106903333335,-1.4532899656666667,-28.669377666666662,-0.6428329153333333,-2.770028591333334,8.994997820666667,62.81851069333334,-1.575460750666667,2.324313640333333
633,5.2747889999999416,20.850176493333333,-1.489025414,-28.700330100000002,-1.1203704076666667,-2.441319783666667,11.927138965,58.75746917666667,-5.767353057333334,-2.9212828676666667
634,5.283121999999935,21.284151713333333,-1.4579990903333335,-28.665466300000002,-1.9935532213333331,-1.706816077,11.636619565666665,51.441216786666665,4.514213641333334,2.3175900376666667
635,5.291454999999928,21.65295537333333,-1.4708803296666666,-28.697626733333333,-1.0191690820000001,-2.6356094283333333,9.931341966,43.46997706,-3.287044127666667,-3.7526293173333336
636,5.299787999999921,21.990591049999995,-1.410177886666667,-28.634503699999993,-0.7486109786666666,-1.9103934366666664,11.042321203999999,39.97919146333333,9.144424437,3.984464963
637,5.308120999999915,22.26105118,-1.4148996673333334,-28.665756233333337,-2.2382762433333334,-1.8925239243333334,7.272273380333334,31.66584269,-2.4159231186666665,-3.847011248333333
638,5.316453999999908,22.501229603333332,-1.3615879813333336,-28.614374766666668,1.2815558886666667,-1.9988067943333334,11.425461771000002,28.27560711,7.858161530333333,2.8564677240000003
639,5.324786999999901,22.710154846666665,-1.325852195333333,-28.62195076666666,-3.4044395286666664,-1.199164331,11.235041617666667,24.33551661,3.115529617,-3.0059305826666667
640,5.333119999999894,22.884555180000003,-1.3095106383333333,-28.590026866666673,2.2690143586666665,-1.8611672123333332,11.778279306666667,20.308325131333334,2.883559862666667,2.373655160333333
641,5.341453000000001,23.03719584,-1.2237404683333333,-28.569323199999996,-4.653729518333333,-1.0744674803333334,10.488795598666666,17.670702933666664,9.945611161666667,-2.198904951333333
642,5.349785999999995,23.13914171666667,-1.2308728793333332,-28.558194466666674,2.861037294333333,-1.6185892023333333,8.340413889333334,11.547507842,-0.6664314370000001,1.242508153
643,5.358118999999988,23.255622226666663,-1.148602416,-28.522580499999993,-3.7192677656666664,-0.04622604933333333,10.770768482,13.375485580000001,10.251050314333334,-0.48638852433333324
644,5.366451999999981,23.333952586666665,-1.1478386916666665,-28.5128428,0.9762387476666667,-1.7331208786666668,7.857103824666667,8.717634361666667,0.1384026209999997,0.7324603396666666
645,5.374784999999974,23.427326836666666,-1.083302021,-28.495867400000005,-1.9364298383333336,-0.8914339046666667,10.149653115666666,10.564054487666667,7.425119479,-1.7470021616666667
646,5.383117999999968,23.510281246666665,-1.0890903073333333,-28.485295633333333,1.1589864989999998,0.009038140333333333,10.478566803666668,9.278416473333332,-0.541527748333334,1.149793267
647,5.391450999999961,23.57162984333333,-1.0702450373333334,-28.4886322,-1.0258098643333333,-1.4855778613333335,8.431850910333333,6.6647992149999995,1.4125528336666668,-1.8236738443333331
648,5.399783999999954,23.682050066666665,-1.0650827090000001,-28.476371766666663,-1.7704568903333335,-0.314533636,12.302029291333332,12.587627093333333,0.7455592170000003,0.8293548450000001
649,5.408116999999947,23.740845359999998,-1.048094511,-28.479939800000007,0.37965393066666664,-0.39403073233333324,7.546359539,6.357171535666667,1.2041039466666665,-1.716247847
