time,Euler_X,Euler_Y,Euler_Z,Acc_X,Acc_Y,Acc_Z,Gyr_X,Gyr_Y,Gyr_Z
0,-3.403893709,20.33135223,-149.2203674,2.802359343,0.0603026,18.97445488,-18.76777649,98.21212769,1.757536054
0.008333,-3.548190355,20.66388321,-149.2811279,-1.815771937,-1.383457422,-10.16727257,-15.53591633,39.77963638,-4.785886765
0.016666,-3.617001772,21.39725113,-149.275528,-0.911328733,0.185235977,18.58076096,-9.235442162,87.32160187,5.577435017
0.024999,-3.744349003,21.69421196,-149.3634949,0.976522386,-0.63229382,1.8601017,-12.1785984,35.7256813,-7.900477409
0.033332,-3.891998053,22.29111099,-149.3152924,-0.314798385,-0.495611906,22.76433945,-20.61899757,70.64665222,9.575403214
0.041665,-4.050452232,22.57531166,-149.4152222,1.856137276,0.812671602,-17.7708683,-15.21199226,34.32590866,-9.082422256
0.049998,-4.085677624,23.02455521,-149.3684692,-3.887581825,-1.496479869,20.2319355,-7.128932953,52.94431686,8.422340393
0.058331,-4.179894924,23.17420006,-149.448822,4.563886642,0.284216523,1.6838274,-8.295059204,18.08478546,-7.94127512
0.066664,-4.252984047,23.44745636,-149.4032288,-3.748681307,0.240224347,20.36482811,-11.66003418,31.87992287,6.858243942
0.074997,-4.369381905,23.63327789,-149.480957,3.278907061,-0.117677145,-7.292954922,-11.01562691,22.41257286,-7.239189625
0.08333,-4.387732506,23.6814785,-149.4172821,-3.600830793,-0.259454012,18.78182602,-5.98938942,4.784252644,6.850987911
0.091663,-4.477639198,23.84640121,-149.4844208,3.266458511,0.258796662,-0.571584046,-8.316931725,19.83602905,-6.207906723
0.099996,-4.462491989,23.70348549,-149.4258881,-2.089153767,-1.026359081,10.25161362,-1.731778979,-18.04021263,4.498975277
0.108329,-4.514212132,23.84161186,-149.4759979,-1.064830899,0.442044884,13.14886379,-4.5545578,16.49013901,-4.578301907
0.116662,-4.52869606,23.6193943,-149.4161377,1.873568296,-0.824156642,-3.46853137,-5.350215435,-27.53884315,3.880815029
0.124995,-4.528286934,23.64263344,-149.4532928,-3.763203621,1.324850917,20.1237545,1.064322829,2.63701129,-4.240296364
0.133328,-4.495220661,23.46821594,-149.4107819,0.543858469,-1.24822998,1.314315915,1.210490823,-21.66529846,2.436977863
0.141661,-4.485036373,23.31705284,-149.4175415,-0.802534759,0.431529671,12.10444832,0.77019465,-18.4902401,-2.547349215
0.149994,-4.437891006,23.15667343,-149.3976746,-1.657348752,-0.226976052,7.456901073,4.002149105,-19.78481483,0.097308509
0.158327,-4.388730526,23.00277138,-149.3903809,-0.522947073,1.089383602,8.606653214,4.78387022,-18.94077301,-1.006857634
0.16666,-4.337164402,22.85021782,-149.3545532,-3.093261242,-2.334789515,6.217661858,3.798029184,-18.9800148,1.955545068
0.174993,-4.282063961,22.61331558,-149.3425598,1.299331665,1.251367688,9.466533661,5.283797741,-28.91183281,-1.196979761
0.183326,-4.203754425,22.47268867,-149.3174438,-4.702046871,-1.117200136,9.601939201,7.530241966,-17.45541382,0.917540491
0.191659,-4.127694607,22.34230042,-149.2846832,0.246618569,0.787133038,7.6188097,6.857982159,-16.33342171,2.100495815
0.199992,-4.064991951,22.16864777,-149.2973022,-3.529970646,-0.509064555,10.36245155,7.390325546,-21.10394859,-3.513314009
0.208325,-3.968836308,22.00460815,-149.2476196,-0.427756608,-0.636167705,6.04116869,8.52559948,-20.48856735,3.744367361
0.216658,-3.892956018,21.88653564,-149.2661438,-2.30363059,-0.272557288,7.544998169,9.225504875,-14.41153049,-3.64755702
0.224991,-3.798574209,21.79437828,-149.2462006,-2.410735607,0.43340537,13.69592476,9.663996696,-11.64821625,1.086197376
0.233324,-3.747839689,21.71518135,-149.2471161,-2.179754734,-1.334755063,8.894946098,5.413849831,-9.890847206,-1.340354443
0.241657,-3.680916548,21.62179756,-149.2278595,-1.551343799,-0.675927818,2.113230467,6.406454563,-11.78663635,1.028463006
0.24999,-3.575841904,21.53922081,-149.2464905,-2.671816349,-0.283267468,8.118057251,12.72582245,-10.17212105,-3.33703661
0.258323,-3.486670256,21.49204063,-149.2112427,-0.925333083,0.116005741,15.65789509,8.377034187,-6.358824253,3.190791368
0.266656,-3.460719109,21.4954586,-149.2441101,-2.368530512,-0.118790053,10.31629086,3.849051237,0.220769092,-4.26798439
0.274989,-3.383722305,21.46631432,-149.2173309,-2.313806534,-0.731097937,3.441656351,7.29165554,-4.135020733,2.387579441
0.283322,-3.296174288,21.37783623,-149.2297974,0.101956606,-1.009159207,6.768555164,10.34766579,-10.92925072,-2.654262543
0.291655,-3.220088243,21.37882042,-149.2131195,-4.047037601,-0.617614031,15.16771412,7.629303455,-0.452206612,1.480323672
0.299988,-3.184341908,21.39585876,-149.2303925,-0.004549752,0.40470323,11.07026863,4.331866741,1.738886356,-2.437041044
0.308321,-3.145959616,21.37594604,-149.2243042,-2.872552156,-1.188298583,5.042984009,3.569125891,-2.886775494,0.1572586
0.316654,-3.121757984,21.36706161,-149.2322998,-0.490199298,-0.886810839,4.685425758,2.546080351,-1.422729969,-1.588556409
0.324987,-3.072757006,21.36126709,-149.2509613,-3.934635639,-0.94853133,12.25948715,5.924880028,-1.045944571,-2.508850336
0.33332,-3.022136211,21.38045502,-149.2494507,-1.393340468,-0.311923504,13.1398201,5.305067062,1.884849191,-0.35612756
0.341653,-3.009136677,21.41977692,-149.2607727,-0.216243133,0.651145518,4.167653561,1.284681916,4.314128876,-1.403621793
0.349986,-2.988212585,21.41178894,-149.279892,-1.776477575,-1.03152442,7.410062313,2.643260717,-1.247118592,-2.82930994
0.358319,-2.95391798,21.42136574,-149.2655334,-3.265066862,-1.566489458,13.03331184,2.714545488,0.59896332,1.272797108
0.366652,-2.94910121,21.47507477,-149.286911,-1.026008725,0.191151157,6.819094181,0.813815475,6.16065836,-2.698933363
0.374985,-2.92965889,21.49104309,-149.2907867,-1.517279863,-1.794130206,2.204884052,1.732393265,1.471358538,-0.722334206
0.383318,-2.902275324,21.47620583,-149.2862701,-0.791923583,1.054083109,13.65260124,2.395264149,-2.201761246,-0.257359058
0.391651,-2.924329758,21.55510139,-149.3036957,-4.623196602,-0.763254404,14.3740015,-2.651931524,9.08872509,-1.849821687
0.399984,-2.947901011,21.64324188,-149.2967834,-0.05216838,-1.350600123,-0.015716868,-3.830980539,10.12943172,0.649961293
0.408317,-2.948699236,21.63077927,-149.318573,-0.866069913,-0.570524633,5.885624409,0.096002162,-1.833684683,-2.892116308
0.41665,-2.933705091,21.67809677,-149.3291626,-3.856670141,0.303226948,17.50632286,1.588146687,5.340529442,-1.58278048
0.424983,-2.940325737,21.74464607,-149.3403473,-0.103066601,-0.304707497,4.815634251,-1.07094419,7.572389126,-1.226396918
0.433316,-2.960432768,21.76100731,-149.3545074,-0.997227967,-1.129626632,3.75667572,-2.467201471,1.654756427,-2.163749456
0.441649,-2.968914509,21.77127457,-149.3673859,-2.123617172,-0.137142107,12.61807156,-1.21633029,0.839634597,-1.759403229
0.449982,-2.949192047,21.80388451,-149.3722992,-1.956307054,-0.647383869,9.096430779,1.906428933,3.551477432,-1.042678714
0.458315,-2.914855719,21.81611824,-149.3667603,-1.600762486,0.003903827,7.272139072,3.102421522,0.970421016,0.302657813
0.466648,-2.927494526,21.78764534,-149.3653564,0.701044083,-0.039006494,9.787905693,-2.257036924,-3.804418325,-0.721591532
0.474981,-2.950265884,21.80469704,-149.372818,-3.027974606,-1.555464506,9.593344688,-3.172642708,1.620843053,-1.115717649
0.483314,-2.922152042,21.76581573,-149.3557129,-1.939652324,-0.339467198,9.270833015,1.945452452,-5.135334492,0.937993288
0.491647,-2.92245698,21.71165848,-149.359024,-0.265006423,-0.113632008,8.630188942,-0.662089527,-6.936475754,-1.088899612
0.49998,-2.940494299,21.6461525,-149.3618164,-2.173377991,-0.936235726,7.254957676,-2.714481592,-8.210810661,-1.424855947
0.508313,-2.925006628,21.55725288,-149.3505859,-2.177319288,-0.634699225,11.68094349,0.589895844,-11.18234348,0.31712985
0.516646,-2.923882246,21.52972221,-149.3562622,-0.608553827,0.149943233,10.1358633,-0.278926194,-3.639693022,-1.540350318
0.524979,-2.925988674,21.45178223,-149.3622589,-3.209566116,-0.580702245,8.887804985,-0.76124233,-9.77184391,-1.53638041
0.533312,-2.908906221,21.33489609,-149.350769,-0.252654195,-0.52839303,7.809736252,0.881488323,-14.44275475,-0.170347482
0.541645,-2.904134512,21.26685905,-149.3630371,-2.063371897,-0.494179487,9.479747772,0.335546464,-8.548891068,-2.173406124
0.549978,-2.900701761,21.1532917,-149.3630066,-1.960501075,0.227778584,12.14535046,-0.247984275,-13.97629642,-1.447089434
0.558311,-2.898570538,21.10103035,-149.3658142,-4.617807865,-1.18511951,10.83355331,-0.394830614,-6.712299824,-1.019382477
0.566644,-2.86781621,21.02528572,-149.3505096,0.332419395,-0.502628863,8.397227287,2.362708569,-9.529635429,0.516357422
0.574977,-2.878549814,20.93650818,-149.3733063,-2.518219233,-0.036943927,9.154840469,-1.081676364,-10.97689056,-3.472790718
0.58331,-2.883242846,20.87874222,-149.3563843,-0.606608927,-1.827469587,2.277092695,-1.951971412,-7.380191803,0.794707358
0.591643,-2.860168934,20.78871727,-149.377243,-2.621006489,0.680865407,13.24893093,2.887390614,-11.13626289,-3.265623331
0.599976,-2.835819721,20.75715637,-149.3735504,-2.800641298,0.011763227,14.81913853,2.107718706,-4.161609173,-0.546671867
0.608309,-2.818359375,20.77308846,-149.3819275,-3.729137182,-0.834046066,9.338585854,1.680396199,1.490389943,-1.235899687
0.616642,-2.775640726,20.7119751,-149.3721619,-0.310321301,-0.194481969,6.422057152,4.050071239,-7.736100197,-0.023219304
0.624975,-2.744119883,20.67360306,-149.3786774,-1.991815805,-1.01382947,9.180419922,3.286281347,-5.029214859,-1.340610862
0.633308,-2.737785578,20.67486763,-149.3704987,-0.859235287,-0.768701732,8.669116974,-0.244347006,-0.248112276,0.153249964
0.641641,-2.726997137,20.65420532,-149.3662262,-3.978597879,-0.05965836,13.12523174,0.342449486,-2.962900639,-0.027356002
0.649974,-2.734320164,20.67493248,-149.3636932,-1.059774637,-2.323763371,7.412637711,-1.653475761,2.115556479,-0.346150786
0.658307,-2.729996681,20.64979935,-149.3684845,-0.857871473,-0.376714379,5.319503307,-0.050575309,-3.451454401,-1.068894863
0.66664,-2.734746695,20.59969711,-149.3631134,-1.654705763,0.121457592,11.44110394,-1.450316429,-6.384617329,-0.461094648
0.674973,-2.764799833,20.62189484,-149.3645935,-3.702432632,-1.007475495,11.43916988,-4.314974308,2.20288825,-0.431010783
0.683306,-2.763771296,20.6297226,-149.3797913,-2.591022491,-0.383890927,12.41847706,0.107554182,0.671630919,-2.427832603
0.691639,-2.743827581,20.59142303,-149.3622589,-1.551126122,-0.011838951,8.208436966,0.881411493,-5.149294376,1.355249405
0.699972,-2.794175386,20.6027813,-149.3690491,0.380212635,-1.841874838,5.485023975,-6.40912962,1.05169487,-1.476365924
0.708305,-2.839994669,20.55391693,-149.3805389,-3.183143377,-0.650534093,10.68104458,-5.786550045,-6.257647514,-1.966673613
0.716638,-2.879284143,20.5579319,-149.381012,-2.011923313,-1.08223772,15.635849,-5.34252739,0.141544268,-0.819898903
0.724971,-2.931740046,20.54549599,-149.3799744,-1.303230166,-0.69367069,7.809625626,-7.11026907,-1.961115479,-0.351619452
0.733304,-3.003925562,20.48117256,-149.3985443,-0.23342143,-0.451132059,7.557602882,-8.654729843,-8.064962387,-2.872828722
0.741637,-3.0826056,20.39441681,-149.3831329,-3.377282858,-0.624736905,10.54015732,-10.73066235,-10.82561493,0.370177001
0.74997,-3.145558596,20.37614822,-149.3960571,-1.721593261,-0.190608352,9.83194828,-7.663945198,-2.444507122,-2.359928846
0.758303,-3.182858467,20.32718658,-149.406723,-4.236555099,-0.089183837,12.84408474,-4.802119255,-6.264974117,-1.91375494
0.766636,-3.265431404,20.28796768,-149.4012451,1.234754324,0.117233746,5.89621067,-10.78739643,-5.064664364,-0.440808207
0.774969,-3.374673843,20.22982597,-149.4320068,-1.790110111,-1.687252283,4.872591019,-12.60426712,-7.230989933,-4.251028538
0.783302,-3.407464027,20.20623016,-149.4417114,-4.256697655,-0.109845959,13.49228287,-4.165143967,-3.086861372,-2.095077991
0.791635,-3.418443203,20.16704941,-149.4438019,-2.230430841,1.512892842,13.97787762,-2.002764225,-5.144683361,-0.906910419
0.799968,-3.490324497,20.15547371,-149.4507294,-0.899788082,-0.523277044,6.084747791,-8.98293972,-1.663849711,-1.680831909
0.808301,-3.568665504,20.14146042,-149.4580536,-1.543340325,-1.815882444,2.11849165,-9.87015152,-2.092362881,-1.317814112
0.816634,-3.590369225,20.1020298,-149.4520874,-1.779447198,0.271959096,12.75503635,-3.484471321,-5.087128162,-0.467190862
0.824967,-3.612625837,20.10938835,-149.4690094,-4.024315834,0.303307325,15.94903374,-2.744501352,0.536797523,-2.239157915
0.8333,-3.640259027,20.09788704,-149.4428406,0.120202407,0.482031465,6.657930851,-5.034106255,-1.883017659,2.024779558
0.841633,-3.6985147,20.07421684,-149.4640808,-1.778331041,-1.377388954,3.998479128,-6.88719511,-3.146055937,-2.961761951
0.849966,-3.704307079,20.07082939,-149.4466248,-3.469788313,-1.1008569,10.76809502,-2.046270132,-0.848574042,1.087285876
0.858299,-3.705700397,20.0798645,-149.4479218,-0.618749499,0.798006952,14.2474184,-0.884677231,0.627574384,-0.468164176
0.866632,-3.731822014,20.04421234,-149.4371033,-1.559170723,0.119919449,6.290239811,-4.21404171,-4.661036015,0.092493013
0.874965,-3.748040676,20.0495472,-149.4313507,-1.806974173,-0.062052242,6.401426315,-2.955370426,0.13213104,0.299520075
0.883298,-3.730084181,20.02520752,-149.4207916,-3.248235703,-0.861228287,12.13517094,1.094893456,-3.303365707,0.123832025
0.891631,-3.692347765,20.05691719,-149.4186859,-1.865743518,0.652696073,10.37357235,3.671288729,3.318170786,0.09185265
0.899964,-3.645566463,19.97707176,-149.3942261,1.08362937,0.718909323,6.121723652,3.982322693,-10.04683876,1.271260381
0.908297,-3.621500492,19.9562149,-149.3908844,-2.642634869,-0.65222609,10.66036034,1.978161931,-2.986786366,-0.171269581
0.91663,-3.57919383,19.94574547,-149.3741302,-3.497695446,-1.074036121,11.76216698,3.757352352,-1.678385735,0.952823997
0.924963,-3.532260895,19.91871262,-149.3656464,-1.65768075,-0.580010355,7.683418751,4.512831688,-3.762654305,0.362915337
0.933296,-3.493609428,19.83042145,-149.3648376,0.617129683,0.104064405,5.482957363,3.975444555,-10.88633251,-1.425560236
0.941629,-3.461141348,19.79284286,-149.3505249,-2.89692235,-0.291577429,12.05949116,2.54387784,-5.063024998,0.947265685
0.949962,-3.415989637,19.75728416,-149.3424225,-3.465890646,-0.543183446,13.42848682,4.453649044,-4.618207932,-0.197421715
0.958295,-3.374486923,19.75335884,-149.3309479,-2.915019035,-0.184071898,7.348899841,3.744519234,-1.011544466,0.872804999
0.966628,-3.344671726,19.64392853,-149.3245087,2.238450766,-0.903912842,5.597085953,2.676175833,-13.45714569,-0.889185607
0.974961,-3.331350327,19.60935974,-149.3397827,-3.824369669,-0.086500943,12.24140549,1.443771958,-4.503814697,-2.356496811
0.983294,-3.293321133,19.59624481,-149.3330231,-2.197369814,0.31004864,12.87262917,3.656919241,-1.917315006,-0.19493714
0.991627,-3.250263214,19.53555679,-149.333725,-2.712709665,-0.925742686,6.48324585,4.424935341,-7.730643749,-0.888237596
0.99996,-3.25006628,19.47771645,-149.3207397,0.15898791,-0.009581104,5.722703457,-1.139334083,-7.31436348,0.226865292
1.008293,-3.238012314,19.43552589,-149.3186951,-2.520032406,-1.025118232,11.33419991,0.593571484,-5.531240463,-0.447045267
1.016626,-3.179879189,19.43379021,-149.2984772,-3.471511602,-0.261414438,12.05840683,5.530869007,-0.634925723,1.413636923
1.024959,-3.119249344,19.41030884,-149.2987976,-1.321637154,1.690817118,8.148759842,6.517542362,-3.276662827,-0.584888279
1.033292,-3.088268757,19.33816528,-149.2816772,-1.041187763,-1.589513063,7.430102825,2.390013456,-9.047678947,0.623245597
1.041625,-3.084543705,19.35377312,-149.2950592,-3.284198999,-1.395309091,10.60834789,0.208448648,1.488596916,-1.804433107
1.049958,-3.023468971,19.35375595,-149.2944641,-1.79175663,0.012417343,8.55928421,6.665233612,-0.303080469,-0.787548125
1.058291,-2.956063986,19.3149395,-149.2994843,-2.358167648,-0.588719189,7.960932255,7.51718998,-5.086565018,-1.202908754
1.066624,-2.906621933,19.27349663,-149.2948761,-0.148812667,0.797974706,12.95225811,5.109169483,-5.29099226,-0.587398529
1.074957,-2.89317584,19.29900169,-149.3026276,-4.602450848,-0.548782885,11.508955,1.147940278,2.637074709,-1.110658765
1.08329,-2.866833687,19.3289547,-149.2907562,0.300813973,-1.260336995,-0.451712072,2.051303148,3.226638079,0.659707367
1.091623,-2.792709112,19.25713158,-149.3111115,-1.598492503,-1.43300581,4.533971786,8.931071281,-8.958926201,-3.121031046
1.099956,-2.693137407,19.24890709,-149.2775269,-5.219704628,0.349388689,19.09568787,9.976271629,-1.465723515,2.908458233
1.108289,-2.66405344,19.28303528,-149.289093,0.335084409,0.379113168,12.61856937,3.176561832,3.688616276,-1.508473396
1.116622,-2.67975378,19.24967194,-149.2582092,-1.303154469,-1.887172461,3.736818314,-3.755495071,-4.455531597,2.468827963
1.124955,-2.689114332,19.2586174,-149.2584839,-2.229015827,0.14085412,6.02407217,-1.883324981,0.609337032,-0.373186558
1.133288,-2.614552021,19.26526451,-149.2554016,-4.625849247,-1.405658484,12.39839172,8.183337212,0.486030072,-0.468036115
1.141621,-2.537251234,19.24666405,-149.2350006,-0.608014941,0.055395469,10.46201229,7.698230267,-2.797420025,1.816125989
1.149954,-2.55052948,19.18800545,-149.2415161,1.217380524,0.349076182,7.610091686,-1.980428696,-7.291898727,-1.899385333
1.158287,-2.565581799,19.23324585,-149.2429657,-4.722430706,-1.255292654,11.93117237,-2.520351171,4.966472626,-0.314376324
1.16662,-2.526416063,19.222229,-149.2202301,-2.308040142,-1.474207282,5.47927475,3.159733057,-1.726450443,1.663682818
1.174953,-2.499100208,19.14655685,-149.2295074,-0.464327097,0.36748293,6.814581394,2.87263608,-9.489394188,-1.841471314
1.183286,-2.467732668,19.10858154,-149.2019043,-3.436104298,-0.729437351,14.18540668,2.034385204,-4.97796011,2.084486485
1.191619,-2.463763714,19.15435028,-149.197937,-0.370485753,0.083452724,8.298568726,-0.451309979,5.002998352,0.292360902
1.199952,-2.441856146,19.13526154,-149.2030792,-3.19319725,-0.683191299,5.536708832,2.187608957,-2.551805019,-1.529233575
1.208285,-2.411910772,19.05872536,-149.1730957,-0.134622738,-1.421587944,10.33568954,1.644997478,-9.783626556,2.617442131
1.216618,-2.417448997,19.03743362,-149.203949,-4.233994007,0.095207967,11.71106625,-0.103852913,-2.693861961,-4.440855026
1.224951,-2.379909039,19.05675125,-149.1737366,-1.876390338,-2.056040525,6.302700996,2.550588608,1.709417343,3.130162001
1.233284,-2.382190466,18.99082565,-149.190979,0.353584826,-0.313034922,7.083878994,-0.237251878,-8.109889984,-3.146772861
1.241617,-2.380634785,18.94109154,-149.1843262,-2.907059669,0.21908471,13.77084637,-0.843848109,-6.458667278,0.112805083
1.24995,-2.378797531,18.95617294,-149.1720123,-4.722633362,-0.530430913,11.43697643,-0.902645588,1.465966582,0.619236887
1.258283,-2.380686045,18.94037056,-149.1770325,0.170751482,-1.691784024,1.329763412,-0.802519679,-2.334865808,-1.039989233
1.266616,-2.367609262,18.89539719,-149.18367,-2.444069862,-1.220139503,8.003551483,1.187821746,-5.64647913,-1.833415747
1.274949,-2.346258402,18.87765694,-149.1826477,-1.249036193,1.161329627,17.78885651,1.749862075,-2.59491396,-0.36099419
1.283282,-2.369312525,18.88427734,-149.194931,-3.561972141,-0.224620536,9.294382095,-2.936428547,0.568789721,-2.20024991
1.291615,-2.40513134,18.86482239,-149.1705017,0.169817269,-2.004538774,4.27132988,-6.017923355,-2.910891056,2.282843113
1.299948,-2.440973043,18.83206367,-149.1770935,-3.421376705,-1.09467566,10.06877804,-4.684753895,-4.17700243,-1.77507925
1.308281,-2.44659853,18.85576248,-149.1595306,-3.371450901,-0.959524453,10.25328732,-2.127211094,2.292614937,1.722134829
1.316614,-2.448672056,18.80240822,-149.1553802,1.442814589,0.715357423,5.932146549,-1.056228638,-6.698993683,-0.640458345
1.324947,-2.495295525,18.77762413,-149.1574402,-3.742627144,-0.714130163,10.22247887,-6.286976337,-3.423611641,-0.753430009
1.33328,-2.541806698,18.7857914,-149.1571045,-2.03060174,-0.275106668,14.62107372,-6.240485668,0.698679507,-0.757451415
1.341613,-2.594385386,18.77614212,-149.1693115,-5.054450989,-0.586520314,11.54832268,-6.609048843,-1.558382869,-1.831763506
1.349946,-2.660551548,18.80601501,-149.1633301,0.195067525,-1.781796694,2.760088205,-8.815307617,3.274012089,-0.001857032
1.358279,-2.71714592,18.77637482,-149.2007599,-0.710493028,-0.608902097,5.279778957,-6.116398335,-3.816700459,-4.807305336
1.366612,-2.745249987,18.74869919,-149.1863403,-2.628047705,0.879754364,17.09343529,-4.570681095,-3.669803143,0.630212665
1.374945,-2.823564291,18.78454399,-149.2151947,-3.498623133,-0.696569502,14.28109646,-9.056900024,3.99159503,-3.457269192
1.383278,-2.854469776,18.78898048,-149.2113495,-2.409289122,-0.729974329,6.976430416,-4.494875908,0.240696996,-0.399697334
1.391611,-2.87346983,18.73084068,-149.2220612,-0.658718467,0.020775154,9.618185043,-2.637331486,-7.370125771,-1.957120061
1.399944,-2.941160202,18.6902771,-149.2176361,-0.310569584,-0.825716078,6.6410532,-8.937332153,-5.15557003,-0.593494713
1.408277,-3.011298418,18.63579369,-149.2526245,-2.004255056,-0.882453322,10.40330696,-7.844847202,-6.786261559,-4.704617977
1.41661,-3.025956631,18.5534687,-149.2294617,-2.43567729,0.29662478,15.40716934,-3.281209707,-10.26813412,1.243225574
1.424943,-3.096412182,18.48771095,-149.2593231,-1.798209667,-1.15166235,12.07606792,-8.088834763,-8.160503387,-4.206485271
1.433276,-3.116136789,18.35592461,-149.2473602,-1.32953918,0.333676606,12.17711353,-3.47248435,-16.12814713,-0.327260345
1.441609,-3.165277243,18.2132988,-149.2747345,-2.386660337,-0.539268017,13.56364059,-5.638219833,-17.38273239,-4.445210934
1.449942,-3.19133234,18.03235817,-149.2523193,-1.774494767,-0.188321277,12.84440422,-4.615008831,-22.07780266,0.512489915
1.458275,-3.220745325,17.83970261,-149.2906494,-1.680386543,-0.115771346,9.357099533,-2.885329485,-23.30095863,-6.054964066
1.466608,-3.218700409,17.61063004,-149.2725067,-2.605937958,0.205518454,16.76892662,-1.081318498,-27.81798553,-0.285304338
1.474941,-3.238217831,17.38779259,-149.3244781,-2.63696003,-0.719723463,15.05799484,-1.238205791,-26.82641029,-7.838410378
1.483274,-3.217567921,17.11243439,-149.2994995,-1.888237,0.359066248,15.46306515,0.919577599,-33.40497971,0.189596772
1.491607,-3.190103292,16.8807869,-149.3622437,-0.443484545,0.650363743,10.14542294,4.725599766,-27.81361008,-9.134645462
1.49994,-3.109418154,16.59421158,-149.325058,-3.248331785,-0.075723201,13.896492,7.718166828,-34.82390594,1.579913497
1.508273,-3.020312548,16.36282158,-149.3656616,-4.166339397,0.111990221,21.02738762,11.30492783,-27.93935013,-6.544044971
1.516606,-2.914708614,16.05831718,-149.3115234,-3.050837517,-0.625448287,10.25867939,10.16370296,-37.06609726,3.582321882
1.524939,-2.787312269,15.8062067,-149.3203888,-1.874294877,-0.093660586,13.71742344,14.80905056,-30.62797165,-2.917643547
1.533272,-2.618259668,15.57966137,-149.2595825,-0.515538812,-2.317932606,8.07585907,17.61457825,-27.7384491,4.976017475
1.541605,-2.520977497,15.30865192,-149.2467041,-5.629284859,0.159643292,24.78877449,10.49093533,-33.01942825,-0.363043725
1.549938,-2.416828632,15.14320087,-149.1747742,-2.396941423,-1.193818331,19.16390228,9.547760963,-20.44307518,6.642158031
1.558271,-2.366347313,14.84085846,-149.1554413,-3.009715796,-1.432919025,10.15934753,4.685963154,-36.80603409,0.333331257
1.566604,-2.28178978,14.64339638,-149.1029358,-5.164666653,0.644299567,17.46316338,7.840113163,-24.17392349,4.3699193
1.574937,-2.23676753,14.47508812,-149.0930939,-0.252058417,-1.166448593,7.251048565,4.333776474,-20.68955994,-0.044427902
1.58327,-2.177585602,14.30321217,-149.0682068,-4.781232834,-0.918582439,19.49498367,5.64942646,-20.97331619,1.355531573
1.591603,-2.164539576,14.2613287,-149.1044312,-5.976576805,0.836417496,16.1288414,1.867226481,-5.326595783,-4.795049191
1.599936,-2.141961098,14.12673283,-149.1186676,-5.474124908,-0.96667856,13.60908794,2.400617599,-16.33416176,-2.948570251
1.608269,-2.134892464,14.19708443,-149.1772766,-2.542986631,-2.099014282,8.219696045,1.797760844,8.227498055,-6.893009186
1.616602,-2.143332005,14.09844589,-149.2359772,-1.864149332,-2.608115196,8.530147552,0.002484581,-11.82800198,-8.028743744
1.624935,-2.139365673,14.25350761,-149.3107758,-5.242025852,-0.286897749,12.96776104,1.902190208,18.45587921,-8.396028519
1.633268,-2.163571835,14.24629021,-149.3758087,-5.017589569,-2.251628399,9.737565994,-1.703487396,-0.840953708,-8.294081688
1.641601,-2.170744419,14.46753597,-149.4639435,-2.153563499,0.946864486,23.41178894,0.990234196,26.45515251,-9.627371788
1.649934,-2.259895325,14.51653576,-149.5519409,-2.672611237,-0.405077219,11.94809437,-8.764231682,6.011841297,-10.73903942
1.658267,-2.304821968,14.71236229,-149.6439056,-4.121199131,0.573264778,19.22777557,-3.378583908,23.44367409,-10.12706757
1.6666,-2.393204927,14.85221958,-149.7285919,-4.314878941,-1.444928169,11.29427052,-8.71355629,16.9168129,-9.905797958
1.674933,-2.468975782,14.95636749,-149.8105164,-0.787212849,0.325854719,15.94960308,-7.336391449,12.42664623,-9.354922295
1.683266,-2.550734282,15.16584396,-149.9314117,-2.546189785,-0.939522803,8.52083683,-6.741121292,25.47345352,-13.66898251
1.691599,-2.590099812,15.22528076,-150.0206451,0.455372751,-0.64131844,8.281671524,-2.68958497,7.125778198,-10.39529514
1.699932,-2.645065784,15.32310295,-150.1439514,-7.2208395,-1.123957634,23.93117714,-3.388674498,12.12847137,-14.5225687
1.708265,-2.645740032,15.44578838,-150.2291107,-1.437512398,1.325261712,10.45742035,1.859081507,14.69804001,-9.557888985
1.716598,-2.66149497,15.3864975,-150.3468933,-1.730983257,-1.90053308,7.574565887,1.173849463,-6.725594997,-14.73903656
1.724931,-2.645689487,15.49357224,-150.4134521,-0.991066694,0.70117408,17.82924461,3.253008366,12.7296114,-7.491307259
1.733264,-2.629584551,15.5171566,-150.5166168,-2.044450283,-1.775175214,10.10660839,4.5447855,3.128497839,-12.56307983
1.741597,-2.664129734,15.4642601,-150.5684662,-3.563319921,0.285753518,17.7303791,-3.255223513,-6.527109146,-6.675338745
1.74993,-2.69593668,15.53174114,-150.6703186,-5.342088699,-1.625409245,23.53697968,-1.239293814,8.394875526,-12.19942284
1.758263,-2.750137568,15.47960091,-150.742981,2.183595896,-0.94479692,7.034964561,-4.944290161,-6.31362772,-9.085522652
1.766596,-2.804087877,15.38107586,-150.835968,-6.653110981,-0.779751658,11.64519691,-4.196470261,-11.52877712,-12.12246513
1.774929,-2.830614567,15.38741875,-150.9102478,-1.109071255,0.49284485,19.73833656,-1.590836287,0.720502913,-8.937742233
1.783262,-2.891849041,15.31307983,-151.0215607,-2.937356472,-0.263850868,14.95563793,-4.496721268,-8.505556107,-14.14486504
1.791595,-2.933930397,15.24332809,-151.0989838,-1.015581727,-0.932275891,11.5157423,-3.373356581,-8.36644268,-9.769128799
1.799928,-2.961771965,15.18845272,-151.2093048,-5.08763504,-0.074690863,14.07378101,-0.566215515,-6.157240391,-13.88062572
1.808261,-2.928888083,15.1296854,-151.2728119,-2.009548903,-0.270966768,13.84754562,5.167237282,-7.127559185,-8.101104736
1.816594,-2.861593485,15.01523018,-151.3757019,-3.475791693,-1.434760094,14.68119621,10.59576702,-13.35046387,-13.42159462
1.824927,-2.776434183,14.90197754,-151.4435272,-1.291709781,1.555212975,14.60904503,11.5498991,-13.65076542,-8.919327736
1.83326,-2.708081007,14.80582142,-151.5246887,-5.316325665,0.720895827,21.16023064,9.994267464,-11.31341362,-10.73968029
1.841593,-2.673544407,14.69867516,-151.6091614,-0.865366459,-0.884579599,16.79028702,5.954901218,-12.84465885,-10.78965378
1.849926,-2.646834373,14.65339375,-151.7081604,-2.923559427,-1.040534019,8.693814278,5.506574631,-5.131620884,-12.52002144
1.858259,-2.54605794,14.52117729,-151.7872467,-3.661425352,-2.310999393,7.817625523,13.71302032,-15.89572716,-10.28730869
1.866592,-2.452540874,14.35711288,-151.8985901,-2.913552761,-2.253197432,17.62615013,13.85654354,-19.34389687,-14.6119194
1.874925,-2.349953413,14.25363255,-151.9775085,-2.851971388,1.43271482,19.88952637,13.87966824,-12.48403645,-10.08162594
1.883258,-2.295572042,14.17490196,-152.0888672,-4.344417095,0.098729104,20.3399334,9.100611687,-9.152288437,-14.1287508
1.891591,-2.312345505,14.01320744,-152.1782227,-0.319581956,-2.506365299,11.4414196,-0.173472494,-19.4325428,-11.5675087
1.899924,-2.302030087,13.91845036,-152.2709961,-6.467753887,-0.818423867,9.378732681,3.208337069,-11.16372299,-12.02177429
1.908257,-2.243263006,13.86479282,-152.3608246,-3.16215086,-1.678009748,13.16285419,8.869111061,-6.481056213,-11.10465813
1.91659,-2.145186186,13.76358986,-152.4541321,-2.880498171,-0.513600349,15.07933426,13.73254013,-11.95976543,-12.12433624
1.924923,-2.065821648,13.66638947,-152.5528717,-1.632472038,0.304582417,17.09731102,11.5623455,-11.69565582,-12.32661152
1.933256,-2.028467655,13.60669994,-152.6296997,-4.931797504,-0.501570523,17.74927902,5.94611454,-7.077661991,-10.01984119
1.941589,-2.009102345,13.50593472,-152.7260132,-4.235500813,-1.470463157,17.21018028,4.260762215,-12.15121555,-12.04740047
1.949922,-1.994557381,13.4823761,-152.7982941,-0.731872916,-0.696950853,11.19810486,3.044111252,-2.77353549,-9.276067734
1.958255,-1.969798446,13.46696377,-152.9131927,-5.205789089,-1.948283315,9.550708771,5.412570953,-1.8466717,-13.85885525
1.966588,-1.926347136,13.38029575,-152.9670715,-1.86716485,-2.295925379,8.33644104,6.003362656,-10.42324066,-7.443716049
1.974921,-1.864388704,13.33460426,-153.085434,-6.18846941,-0.875631034,19.16012383,9.945138931,-5.485096931,-14.386096
1.983254,-1.821522713,13.34025002,-153.1259918,-1.225439072,-0.818457544,21.69300842,5.555215359,0.584055781,-5.517857075
1.991587,-1.850835681,13.31578064,-153.2461548,-2.151187181,0.868118823,12.99221802,-0.964978099,-2.947751045,-14.51457882
1.99992,-1.8822155,13.33372879,-153.2953186,-4.181024551,-1.926635385,12.43886662,-3.123028755,2.098395109,-6.457643986
2.008253,-1.95316565,13.33446026,-153.414917,-2.172446489,-1.745066762,10.02999496,-5.975225925,0.093261436,-14.34892941
2.016586,-2.011780262,13.33156395,-153.4340057,-3.445884228,-2.845243454,11.27976322,-7.217515469,-0.513219655,-3.044213533
2.024919,-2.076291561,13.40103912,-153.5596313,-3.864315033,-1.291205168,13.40606117,-5.028933525,8.392147064,-14.75394344
2.033252,-2.072718143,13.44659233,-153.5727539,-3.676516056,-0.454441577,15.6135664,0.086089455,5.274483681,-2.136957169
2.041585,-2.137377739,13.46135426,-153.6759491,-0.084163375,0.922222674,15.82785416,-5.64905405,1.751911521,-12.364851
2.049918,-2.249357939,13.52554321,-153.684082,-6.508472919,-1.302319765,20.03000259,-13.92324734,7.491551399,-1.44598794
2.058251,-2.392532349,13.63824463,-153.7715302,-3.857065916,-1.000332475,15.78076935,-15.48974037,13.46430779,-10.03856945
2.066584,-2.513880491,13.68137836,-153.7921143,0.161200255,-1.486322045,5.198898315,-14.68721867,5.032865524,-2.977847576
2.074917,-2.632522821,13.7892561,-153.8831787,-2.61414814,-0.742851257,9.540817261,-12.41487789,12.94700241,-10.41714764
2.08325,-2.728660583,13.84849262,-153.9043121,-5.539348125,-2.242918015,16.77136803,-11.70290279,6.753476143,-2.52345109
2.091583,-2.833350897,13.9190073,-153.9944611,-1.285588026,-0.545413911,13.8885355,-10.67296505,8.720302582,-10.8807745
2.099916,-2.915757418,13.93222713,-154.0044403,-3.218301535,1.091702104,12.94603729,-10.31676197,1.397769094,-1.830073237
2.108249,-3.044794321,14.07085514,-154.1033173,-3.179039955,0.572110474,20.23809242,-13.38604355,16.74943733,-11.02781677
2.116582,-3.150605679,14.18368053,-154.1162872,-4.138186455,-1.61813271,13.76591969,-13.02283287,13.35734081,-1.575519204
2.124915,-3.276245117,14.32481289,-154.205658,0.00507025,0.296224058,6.669735432,-13.20705223,17.03058052,-9.826535225
2.133248,-3.300798655,14.36311913,-154.2163239,-5.824928284,-3.598432779,8.182775497,-3.328416348,4.415728092,-1.787796736
2.141581,-3.299428463,14.42738628,-154.2910919,1.445752978,1.909291267,13.72877979,1.623378873,7.737676144,-8.625939369
2.149914,-3.331410885,14.49849701,-154.3001709,-7.075469971,-0.636870742,21.75359154,-4.266756058,8.331518173,-1.354263186
2.158247,-3.404574871,14.58546066,-154.3600159,-0.676766217,0.070027404,18.16316605,-7.74805069,10.36509514,-6.721175671
2.16658,-3.482958317,14.64895439,-154.3791962,-2.49854207,-1.200595021,8.442147255,-9.523576736,7.489230633,-2.576382399
2.174913,-3.536154747,14.70380974,-154.4218597,-1.523391843,-1.703600049,9.141228676,-5.857322216,6.412292957,-4.936131477
2.183246,-3.534825563,14.69545078,-154.4435883,-2.51888299,-2.468045473,12.15920162,0.127341196,-1.098901987,-3.391222477
2.191579,-3.544571638,14.72980213,-154.4829865,-2.175220728,2.308183193,16.73326874,-0.73991847,3.934948921,-4.706871986
2.199912,-3.593648672,14.71795654,-154.5081635,-5.168945789,-2.608623028,15.88118744,-5.816544533,-1.4932971,-3.812179089
2.208245,-3.675371408,14.73205566,-154.5525208,1.566682339,0.706809103,9.076375008,-9.226312637,1.55286324,-5.425236702
2.216578,-3.750810385,14.71367073,-154.5855408,-7.044803619,-2.055634975,12.14775944,-8.746583939,-2.215055227,-4.746920586
2.224911,-3.779281616,14.72895432,-154.6356964,-0.301063716,-2.495671749,9.850305557,-2.658078671,1.750476718,-6.085980415
2.233244,-3.75417161,14.6956768,-154.6735229,-5.984275818,1.376657486,15.88170433,3.470549822,-3.963636398,-5.432510376
2.241577,-3.779988527,14.72843361,-154.7123566,-0.473014235,0.819562793,20.82331276,-2.686920166,3.756762981,-4.633627892
2.24991,-3.848455667,14.68800259,-154.7674561,-4.222741604,-2.573903561,10.36520863,-7.232756138,-4.684984684,-7.506700516
2.258243,-3.89094615,14.71725464,-154.7802429,0.725733221,2.002883196,6.029686928,-5.480177879,3.140715122,-1.640169144
2.266576,-3.926944256,14.68912315,-154.8551636,-6.550291061,-4.6468997,12.53207111,-2.730413675,-3.049874306,-9.720153809
2.274909,-3.881416082,14.72781944,-154.8409271,-1.040758848,0.694442868,14.75034714,4.259365559,4.058601379,1.569051504
2.283242,-3.910527945,14.692729,-154.9159698,-5.241991043,-0.180558771,17.78777122,-1.897951007,-3.892249823,-9.78006649
2.291575,-3.94979763,14.72375393,-154.9019165,-1.07181716,-0.679906845,12.94065475,-5.912367344,3.141201735,1.488187194
2.299908,-4.004725456,14.66380119,-154.9784698,-2.790863752,-2.255172014,9.99786377,-4.950911999,-6.847056866,-10.17631912
2.308241,-4.034381866,14.68002701,-154.973999,-1.669449329,-0.232976347,9.750951767,-4.466623306,1.443823218,0.258703798
2.316574,-4.014595509,14.59488487,-155.0502319,-3.925336599,-1.829181075,13.72340202,3.996257544,-9.863647461,-10.35218811
2.324907,-3.999417305,14.5763464,-155.045929,-1.272263885,1.674394965,18.14476395,0.92098552,-2.714481354,-0.05167672
2.33324,-4.049572468,14.46447754,-155.1170044,-5.086220741,-1.287899375,16.77067947,-4.570720196,-13.10904789,-9.988926888
2.341573,-4.071606159,14.42626667,-155.1198883,1.184149861,-0.373076499,4.312161922,-3.328147411,-5.011899471,-1.058674812
2.349906,-4.09060812,14.30977535,-155.1766205,-3.720297337,-1.450461745,10.10159969,-1.284489989,-13.77586365,-8.370617867
2.358239,-4.06200552,14.24179173,-155.1826172,-2.930286407,-2.672552586,13.52685356,2.839799643,-8.548815727,-1.672392011
2.366572,-4.04886961,14.09863949,-155.2225647,-2.59467411,2.185809374,14.82831001,2.062535286,-17.11434555,-6.669371605
2.374905,-4.049149513,14.0495863,-155.2369385,-5.701951981,-2.270441055,15.12631893,-0.385558248,-6.215408802,-2.481084108
2.383238,-4.064554214,13.93252182,-155.2668457,-1.348787785,0.047656339,12.52837467,-1.671316385,-14.08016014,-5.280362606
2.391571,-4.067472458,13.91725636,-155.2911682,-3.235629082,-1.169256926,9.706359863,-0.417704105,-2.087649584,-3.354094267
2.399904,-4.027231693,13.80112839,-155.3206482,-3.094218016,-0.837603331,11.78303337,4.984172344,-13.97839451,-5.217223644
2.408237,-3.984054565,13.73481464,-155.3462372,-0.960618854,0.148049608,12.82810116,5.141084671,-8.191344261,-3.928212166
2.41657,-3.969717026,13.62448215,-155.3708344,-5.061841488,-1.047898054,17.33525276,1.722813725,-13.33460617,-4.574075222
2.424903,-3.97573185,13.58682632,-155.4007721,-1.847205281,-1.49571979,8.446708679,-0.647591889,-4.727043152,-4.191936493
2.433236,-3.965682268,13.50862408,-155.4087982,-2.558508396,0.597227275,10.65221977,0.737741232,-9.62853241,-2.388796329
2.441569,-3.969059229,13.45683765,-155.4581451,-4.75135231,-3.822965145,15.92652607,0.203761265,-6.263744354,-6.5719347
2.449902,-3.929482222,13.35529041,-155.4431305,-1.29536891,1.821481586,11.31673431,3.633456707,-12.61518002,0.130683854
2.458235,-3.933500767,13.31253719,-155.5170441,-6.496068954,-2.006104708,16.93730736,0.792197168,-4.987360954,-9.358251572
2.466568,-3.930706024,13.2747879,-155.4976196,-0.639586926,-0.161230326,11.10103512,-0.901147187,-5.018558502,1.17735827
2.474901,-3.967363596,13.27538586,-155.5913239,-3.415863991,-0.732016742,12.53369331,-2.588228941,0.363158613,-11.31079865
2.483234,-3.982477665,13.26062298,-155.568222,-3.506776571,-1.616039872,9.235653877,-3.139754772,-2.298378229,1.751731992
2.491567,-3.990779638,13.22903442,-155.653244,-0.728084266,-1.113746405,10.61785698,0.570044816,-3.552937746,-10.56890774
2.4999,-4.005310535,13.2439394,-155.6212463,-6.098352432,-0.890967548,14.1572752,-3.319259167,1.171953797,3.060901403
2.508233,-4.072482586,13.29146194,-155.6828918,-1.069206238,-1.55858779,14.12306976,-7.133372784,5.734822273,-7.178658485
2.516566,-4.126515388,13.32114887,-155.6494598,-4.367334366,-0.419857442,10.46760559,-8.10351181,2.919357061,3.36435318
2.524899,-4.227510929,13.41077614,-155.7147217,-1.172738552,-1.108810544,11.77292538,-11.08103943,10.81940269,-7.212778091
2.533232,-4.263501644,13.46064281,-155.6885529,-5.906134605,-1.368348241,10.32178497,-5.742288589,5.383292198,2.700534344
2.541565,-4.314527512,13.52068615,-155.7683716,-0.072240964,0.459708154,11.61827278,-4.660344601,7.420624256,-9.144040108
2.549898,-4.358864784,13.56293869,-155.7570648,-3.75423193,-0.880969346,9.670273781,-6.330572128,4.593990326,0.911482692
2.558231,-4.436081886,13.62571335,-155.8450623,-1.790195584,0.546566427,14.39368725,-7.555958271,7.836088181,-10.05288601
2.566564,-4.515172482,13.70495701,-155.8510895,-5.770529747,-0.713533819,13.71638012,-10.01241398,9.170921326,-0.739803195
2.574897,-4.592731476,13.81450558,-155.9330292,1.921620488,-0.139979184,4.650164604,-7.741020679,13.39973259,-8.872402191
2.58323,-4.610887527,13.88110638,-155.9390259,-4.566716194,-3.239893913,4.012002945,-2.69329834,7.656888962,-0.854682982
2.591563,-4.610373497,13.89781189,-156.000473,-0.771661162,0.108311728,11.40748119,1.060506344,2.111560822,-7.371380806
2.599896,-4.565798759,13.95154476,-156.0116425,-7.429915428,-0.61558044,14.20946121,4.990908623,6.16227293,-1.592859864
2.608229,-4.53678751,14.01562691,-156.0671997,2.425478935,1.610946178,13.82613468,4.321787834,7.717262745,-6.23636198
2.616562,-4.531303883,14.06038666,-156.0893555,-4.541872025,-1.013262272,9.343352318,0.619633853,5.185678482,-2.952078581
2.624895,-4.537725925,14.08906078,-156.1341858,2.074797153,-0.448086381,8.812148094,-0.234152541,3.38118124,-5.324419022
2.633228,-4.519910812,14.12392712,-156.1598816,-10.10532475,-1.129879594,12.82534313,2.207025051,4.03139925,-3.452350855
2.641561,-4.498363018,14.15694237,-156.1824799,2.966366768,-0.822618425,8.837197304,2.477050304,3.694366932,-2.706002951
2.649894,-4.454247952,14.17337608,-156.2084198,-4.965511322,-2.721805573,4.039741039,5.372674942,1.822158098,-3.647236586
2.658227,-4.394515038,14.18905067,-156.2197266,2.054129601,-0.185165629,6.74522543,6.729321003,1.515133381,-1.563070416
2.66656,-4.330387592,14.20474243,-156.2502747,-8.074440002,-1.717568994,13.30256081,7.914876938,1.764616251,-4.203539848
2.674893,-4.270736217,14.19033241,-156.2484131,0.265212148,0.59405756,14.54480743,6.333733559,-2.201556206,-0.312096626
2.683226,-4.224006653,14.20014572,-156.2941589,-4.952613831,-0.782477736,11.86061859,6.27284956,1.182301879,-6.016156673
2.691559,-4.182185173,14.21943474,-156.2899628,1.315266848,0.05978515,9.413643837,4.125198364,1.811054587,0.257371843
2.699892,-4.146606922,14.2203989,-156.3339081,-3.776608944,-2.372326851,6.45607996,4.87889719,0.096744977,-5.866159916
2.708225,-4.099229813,14.21466637,-156.3195953,-2.026746988,1.147843003,11.6924572,4.493684769,-1.266816139,1.214729428
2.716558,-4.059576988,14.28784466,-156.38591,-6.843631744,-2.121503592,12.50664616,6.034407139,8.9159832,-7.859818935
2.724891,-4.011641026,14.30437851,-156.3793182,0.115359642,0.345859498,9.490310669,4.787095547,1.463981628,0.507725358
2.733224,-4.005729198,14.30276585,-156.4548187,-3.45032835,-2.916965246,5.586175442,2.269216299,0.026100906,-9.573127747
2.741557,-3.957026482,14.33830166,-156.4512177,-1.313709617,-1.356121063,7.718523026,4.967932224,3.764319658,0.315593004
2.74989,-3.935459375,14.3814249,-156.5332336,-2.257752657,-2.821992159,7.635756016,4.352806568,5.4203825,-9.959468842
2.758223,-3.909080029,14.40882874,-156.5414581,-2.249083281,-0.093978554,6.921293736,2.640596867,2.884802818,-1.126936555
2.766556,-3.903354645,14.45516109,-156.6338043,-3.665601254,-0.385492712,10.12879944,2.774893045,5.878160477,-11.12975883
2.774889,-3.882472515,14.49394131,-156.6390839,-3.378625154,-1.688269138,12.25100613,1.893814206,4.223711014,-0.692544937
2.783222,-3.881680965,14.59623718,-156.7419586,-2.398011208,1.095797181,12.41828632,2.518110037,12.65161419,-11.88481426
2.791555,-3.907810926,14.6001873,-156.741684,-2.09292388,-2.839216232,7.603601456,-3.913944721,0.010066394,-0.333971202
2.799888,-3.942865849,14.63884258,-156.8385162,-2.314100981,-0.549618006,12.53172779,-1.94684875,4.995314598,-11.69931793
2.808221,-3.951038599,14.76724148,-156.8487854,-3.766078949,0.290132463,8.750506401,-1.439328074,14.99098969,-0.527153909
2.816554,-4.008947372,14.74839497,-156.9442291,1.473370075,-2.561395168,3.472925425,-4.704580307,-1.893468738,-12.00284481
2.824887,-4.018399239,14.81326675,-156.9601746,-5.944858074,0.032318577,11.45777416,-1.417171597,7.434813976,-1.696751118
2.83322,-4.040812492,14.88543797,-157.0478668,0.569655359,-0.688073099,7.223212719,-0.665163398,8.946951866,-10.33466721
2.841553,-4.066277504,14.90902901,-157.0792236,-2.998251438,-2.25262785,6.29845047,-2.85915041,2.620566368,-3.824141026
2.849886,-4.112974167,14.95625877,-157.1616364,-1.193746805,0.443144232,9.246439934,-3.729893446,5.925891399,-9.908175468
2.858219,-4.136128426,15.00285912,-157.2091522,-4.519249916,-1.849973917,8.439857483,-2.075688362,5.512311935,-5.491859436
2.866552,-4.153668404,15.05122566,-157.3014679,-0.482823104,0.313000619,7.077044487,0.100279741,6.154230595,-11.05949783
2.874885,-4.155016899,15.05156517,-157.3470459,-4.592288017,-1.738152862,8.522453308,0.486926645,-0.037947491,-5.659939289
2.883218,-4.165039063,15.10334969,-157.4245453,-0.825084567,-0.494600803,12.31933022,0.545455217,6.43939352,-9.293908119
2.891551,-4.171811104,15.14914322,-157.4858246,-4.086280346,-0.649663925,8.376871109,0.334982991,5.535261631,-7.077251434
2.899884,-4.211479664,15.10094261,-157.5647125,1.119718075,-0.148182258,5.240440369,-2.96078825,-5.510659695,-10.327878
2.908217,-4.187807083,15.20758724,-157.6365356,-7.579856396,-1.311557412,12.21718693,4.32352972,12.91044807,-7.757208347
2.91655,-4.188940048,15.18115234,-157.6965485,2.948732853,-0.664502025,3.225497246,1.082483292,-3.067958117,-7.957434177
2.924883,-4.197577,15.19146442,-157.7584076,-7.381049156,-2.404252291,13.82107258,0.138137579,1.296669483,-7.45421648
2.933216,-4.192027569,15.28863907,-157.8222656,1.984378815,0.819413364,6.400891781,2.008912086,11.75515652,-7.302108288
2.941549,-4.226632118,15.20849037,-157.8929443,-3.173507214,-2.056938648,3.094291449,-2.692018032,-9.451666832,-9.265861511
2.949882,-4.231489658,15.25898075,-157.9507446,-2.911701441,-0.347836405,16.88206482,0.571812212,6.122673988,-7.019466877
2.958215,-4.264821053,15.26375675,-158.0310822,-1.45486927,-1.877552271,0.791755319,-2.232805729,0.799138546,-9.630530357
2.966548,-4.280646324,15.22103405,-158.0696259,-2.802905798,-0.706694186,10.15068722,-1.353392243,-5.193017483,-5.615268707
2.974881,-4.308549881,15.28471565,-158.1504364,-1.983871698,-1.324536681,8.600461006,-1.568141818,7.859983921,-9.155948639
2.983214,-4.358038902,15.2424984,-158.2029724,-1.975274324,-0.402632058,3.849411964,-4.950937271,-5.008364201,-7.223330021
2.991547,-4.401503086,15.28215027,-158.2867126,-3.631311893,-1.556015849,10.03084278,-3.341979265,5.024566174,-9.699176788
2.99988,-4.447869301,15.35769463,-158.3490143,-2.130770206,-1.311182141,4.827723503,-4.256228447,9.179374695,-7.278811455
3.008213,-4.49522686,15.34828186,-158.4225464,-1.64285171,-0.392088175,6.45841074,-4.11829567,-0.9246611,-8.970015526
3.016546,-4.533009052,15.50299263,-158.5024261,-4.091169357,-0.910066366,6.785279751,-2.652342319,18.81899071,-8.531298637
3.024879,-4.585500717,15.49101639,-158.5705872,0.097519279,-1.696544528,4.173121929,-4.884929657,-1.267379642,-8.37069416
3.033212,-4.629551411,15.68300915,-158.6659851,-6.06348753,0.265574247,12.46952152,-2.982254267,23.4044323,-9.536607742
3.041545,-4.674932003,15.71693516,-158.7373047,-0.298504919,-1.323316336,4.452372551,-3.901111603,4.265180111,-8.279686928
3.049878,-4.689903736,15.90380859,-158.8291016,-6.053066254,0.15283227,5.662913799,0.432342887,22.76776123,-9.130543709
3.058211,-4.721957684,16.00611115,-158.9103851,1.960711718,-1.356576562,0.007414289,-1.935040474,12.5442667,-8.738874435
3.066544,-4.771272182,16.13399124,-159.0160675,-3.798959494,-0.960243702,4.073954582,-3.180469036,15.8526144,-11.27105999
3.074877,-4.797250748,16.29901886,-159.1109161,-1.307762504,-0.42832008,7.672101021,-0.710090876,20.18435669,-9.637525558
3.08321,-4.807860374,16.48971558,-159.219696,-4.506056309,-0.306410432,8.782194138,1.744637728,23.4315815,-11.32227898
3.091543,-4.833148003,16.69145584,-159.3251953,-0.85965836,-0.931916475,-0.490040809,-0.191095129,24.68194389,-10.45390606
3.099876,-4.873211861,16.87007141,-159.4351349,-2.167444944,-2.124655485,3.482783079,-1.770930886,21.97477341,-11.17028522
3.108209,-4.891557217,17.09953308,-159.551239,-1.902044892,0.360233903,10.36060905,1.097877979,28.10869598,-11.33111763
3.116542,-4.926300526,17.30869293,-159.6560059,-2.423738956,-1.423653841,-1.509030819,-1.123044014,25.61130524,-10.54424667
3.124875,-4.985120296,17.54078293,-159.7570648,-0.57446909,-0.592917383,6.583636761,-4.199790478,28.28419876,-9.518565178
3.133208,-5.013551712,17.80020332,-159.8942413,-3.735040188,-0.861393869,3.851812601,0.813739479,31.92786598,-13.3094635
3.141541,-5.032271862,17.95282555,-159.9694977,0.158262029,-0.618326128,-0.132925585,-0.243911639,18.53648949,-7.357575417
3.149874,-5.070549488,18.29685783,-160.1107178,-3.586747169,-1.278352857,11.85461521,-0.093274392,42.08817291,-12.80558681
3.158207,-5.10750103,18.37429047,-160.1965637,1.338202238,-0.7194556,-4.307526588,-1.963933229,9.662150383,-9.314399719
3.16654,-5.164787292,18.74071503,-160.314621,-5.607313156,-0.716954887,16.17829895,-3.13550806,44.54423523,-9.838508606
3.174873,-5.209136486,18.78986168,-160.4151001,3.864801168,-0.977804363,-14.97923851,-2.215285778,6.444209576,-11.23359871
3.183206,-5.289306164,19.17185974,-160.5222778,-7.42743063,-2.598806858,20.70791245,-6.208300114,46.30785751,-8.314511299
3.191539,-5.331853867,19.17636681,-160.6066284,4.916056156,0.292404771,-17.0473175,-2.552061796,0.962839186,-9.868871689
3.199872,-5.393063068,19.5741272,-160.7349701,-8.600318909,-2.078253269,18.94374847,-3.008154869,48.42388916,-10.40156555
3.208205,-5.456121445,19.57064438,-160.805542,4.052132607,-0.569865942,-0.384717554,-5.500747204,-0.121449903,-8.38186264
3.216538,-5.596345901,19.86070061,-160.9266357,-4.331157684,-0.461960167,4.551840782,-12.69613457,35.50928879,-10.65949345
3.224871,-5.656643867,19.98338127,-160.9938354,0.822650909,-1.34828794,-2.765729904,-5.259845734,14.93277073,-6.499883175
3.233204,-5.724464417,20.10960388,-161.1060638,-3.222818613,-1.8536973,3.110053539,-4.291423798,15.87265968,-11.48518562
3.241537,-5.812242031,20.2848053,-161.1641693,1.839860678,0.248801485,4.414688587,-8.896608353,21.11489677,-4.79681778
3.24987,-5.915870667,20.41960716,-161.2848206,-4.995531082,-2.026753664,1.023764253,-8.171032906,17.02358437,-12.24651623
3.258203,-5.977434635,20.53139496,-161.3370667,1.691013813,-0.679304957,2.984130383,-5.964442253,13.49081516,-4.850376129
3.266536,-6.101994991,20.61662483,-161.4403992,-2.02981782,-0.136611894,3.406730175,-11.36151695,10.9364357,-10.86442184
3.274869,-6.222506046,20.78650856,-161.4987183,-0.703239799,-0.885658562,0.800309062,-12.75889301,20.50969887,-4.719323158
3.283202,-6.339093685,20.84867859,-161.5941315,-2.593692541,-2.653185129,0.849083543,-10.69160175,8.130753517,-10.21822357
3.291535,-6.40159893,20.93610382,-161.6332855,0.521430612,0.500111401,1.980900168,-6.596217155,10.45237637,-3.597020626
3.299868,-6.492799759,20.99836159,-161.7404938,-2.168063641,-0.418107361,4.180345535,-7.110602856,8.317378998,-11.4941721
3.308201,-6.630747795,21.12619209,-161.7756042,-0.138000458,0.264454514,4.923354149,-15.81289005,15.22679901,-2.549859762
3.316534,-6.754415035,21.18706322,-161.8848572,-3.50642848,-2.678221941,-2.350910425,-10.87850952,8.223528862,-11.68935299
3.324867,-6.789095402,21.23725128,-161.8982849,1.857678294,-0.231535986,0.499315649,-4.348515987,5.697835922,-1.179804683
3.3332,-6.859421253,21.25307274,-161.9847565,-3.018741131,1.160641313,7.332999706,-5.448544979,2.577509165,-9.772843361
3.341533,-6.961475849,21.37001991,-161.9964752,-0.168932512,-2.10931778,3.710584402,-12.50685787,13.62841511,-0.009310776
3.349866,-7.043374062,21.33893204,-162.0908051,-2.363831997,-1.235012293,0.03126996,-6.476124287,-2.873046398,-11.31352615
3.358199,-7.0920434,21.41422272,-162.0559998,0.298940331,-0.297241449,2.500419617,-8.133159637,8.026130676,4.572435379
3.366532,-7.169781208,21.4210453,-162.1738434,-2.488144636,-0.723304629,4.734093189,-4.934082985,1.990610361,-13.35934925
3.374865,-7.158829212,21.43041229,-162.1186676,-1.026746631,-0.873158574,1.925551772,-1.87582016,-0.115456171,5.858308792
3.383198,-7.246664524,21.42490768,-162.2363281,0.095837489,1.052238226,5.955012798,-6.151119232,0.536976933,-13.51946449
3.391531,-7.245785713,21.44493294,-162.1899414,-4.943324089,-3.086121321,4.268779755,-2.699036121,1.268544912,5.043519497
3.399864,-7.313845158,21.40567589,-162.2862396,3.918691158,1.49937439,0.276769698,-4.714915276,-3.766113043,-11.6637001
3.408197,-7.32895422,21.460783,-162.2602844,-7.152247429,-2.755955935,6.624392986,-3.722786188,5.728342056,3.320936918
3.41653,-7.327112198,21.39922714,-162.3048248,3.474447489,1.180255175,-2.597939968,1.405863166,-7.148844242,-6.274836063
3.424863,-7.325839043,21.47933006,-162.3303986,-6.016341686,-2.611801386,5.739753246,0.504728496,9.437462807,-2.00663209
3.433196,-7.30898571,21.46193886,-162.323761,1.73688364,0.685314059,5.657010078,0.962249994,-2.622065306,0.073333561
3.441529,-7.303001404,21.48412704,-162.3715668,-4.235066414,-1.127656937,2.305112362,2.046782017,2.85816431,-5.353157043
3.449862,-7.26856184,21.56187248,-162.344986,-0.438375592,-0.330719024,4.113921165,2.195089102,8.421550751,3.730304003
3.458195,-7.242127419,21.53195,-162.4152069,-2.262463808,-0.773965836,4.09621191,5.49584198,-3.032815218,-8.624993324
3.466528,-7.227696896,21.65432549,-162.3719482,-1.943535447,-1.026356816,6.203279495,-0.94771415,13.50067711,6.241012096
3.474861,-7.204172611,21.63625336,-162.4499664,-0.626580536,-0.718882799,-1.191180587,5.507035255,-1.51855278,-9.305151939
3.483194,-7.14106226,21.75145149,-162.4067383,-3.620588303,-1.303085685,5.707284927,4.88653183,12.6555624,6.113095284
3.491527,-7.158574104,21.77303123,-162.4740601,1.722810745,-1.082105398,2.650379181,0.122640982,3.042408228,-7.520558357
3.49986,-7.076019764,21.89061165,-162.4329071,-6.761663914,-1.086665273,4.468536854,7.302927017,12.97584057,5.899445534
3.508193,-7.073507309,21.92809486,-162.4819794,4.207740784,0.296900272,1.515451431,1.728115678,4.675750732,-5.26542902
3.516526,-7.040252209,22.08633995,-162.4721832,-7.586587429,-3.670798779,6.282997608,2.783320189,18.25509071,3.018228531
3.524859,-7.03890276,22.1169796,-162.4763336,3.801776886,1.558766246,7.355726719,-0.421648711,3.243889093,-0.406792462
3.533192,-7.05096674,22.27197075,-162.5019226,-6.511978149,-2.878319979,-2.495470047,-1.057138324,18.35073662,-0.936315954
3.541525,-7.045037746,22.3746376,-162.4810028,1.80133009,-0.508306205,12.91859245,-1.011800885,11.47963524,3.415838242
3.549858,-7.091575623,22.43884468,-162.5170898,-4.984733105,-1.751722574,-4.106437683,-4.702492237,7.681671143,-3.419014215
3.558191,-7.103256226,22.63288307,-162.5011139,1.614882469,-0.474276423,9.970563889,-2.907499075,22.42572212,4.235764027
3.566524,-7.12946701,22.65236282,-162.5480347,-5.899103642,-3.021954298,1.83375144,-1.746852517,2.50604558,-5.263942719
3.574857,-7.196686745,22.87854767,-162.5410767,4.479216576,1.570693851,7.602078438,-9.161207199,26.37353706,3.752257586
3.58319,-7.21972084,22.8555584,-162.5889587,-8.219416618,-1.78723526,0.568524837,-1.298526406,-2.530494452,-5.996433735
3.591523,-7.254353523,23.06580925,-162.5597382,5.968377113,-0.507991493,4.92771244,-6.295418262,24.16165161,5.983526707
3.599856,-7.332847595,23.07542992,-162.6348267,-8.829509735,-2.071030855,13.53191662,-6.656461239,1.740666866,-8.472409248
3.608189,-7.386340618,23.25396347,-162.5788422,5.374040604,-0.317206651,-6.745630741,-9.832553864,19.99445724,8.469402313
3.616522,-7.384441853,23.26324463,-162.6734924,-8.034367561,-0.048008788,7.38408041,3.944643497,1.989534616,-10.5989275
3.624855,-7.396080494,23.40485764,-162.5969849,3.021755219,-1.02767837,8.17926693,-5.803994656,15.30607128,10.14782429
3.633188,-7.511278629,23.40923309,-162.691864,-3.063672304,-2.484843254,11.42504597,-10.07035255,1.417722344,-10.68947506
3.641521,-7.525906563,23.53908348,-162.6256256,-1.904197216,-0.20911476,-6.553880215,-5.692264557,14.03329945,8.869750023
3.649854,-7.513627529,23.52024841,-162.6988831,-0.84062922,0.793732524,6.528058052,4.214361668,-1.645496964,-8.681881905
3.658187,-7.535939693,23.60418892,-162.6631622,-2.12073493,-3.000302553,12.00486755,-5.161230087,9.010755539,4.815450668
3.66652,-7.589765072,23.63541603,-162.7111664,-0.197643057,0.976268828,6.097747803,-4.920021534,3.949971914,-5.134771347
3.674853,-7.602600098,23.66684341,-162.6942139,-3.697579861,-2.473301411,-3.770061493,-3.127229214,3.031265497,1.948039532
3.683186,-7.564813614,23.72879219,-162.7456055,-0.986281037,0.083202757,8.760392189,6.247171402,7.655467987,-5.017239571
3.691519,-7.54393816,23.6680584,-162.7453156,-1.836723208,-0.862912774,6.949454784,1.718932986,-7.69093132,-1.322616696
3.699852,-7.578147888,23.8244381,-162.7944183,-2.226274014,-1.010617852,10.79992867,-2.500013828,18.85325813,-3.276894093
3.708185,-7.553811073,23.69449806,-162.7830505,0.225716993,-1.478104472,-8.140443802,1.601043582,-16.08191109,-1.214742422
3.716518,-7.542485714,23.93959808,-162.8183289,-5.869578362,-1.098085761,17.29508018,2.299365997,29.20713997,-0.371009678
3.724851,-7.505081177,23.74980927,-162.8072662,3.24694705,-0.997331142,-6.915199757,3.181699276,-23.19801521,-2.174201488
3.733184,-7.533318043,24.02269745,-162.8345184,-7.775707722,-1.461315274,22.96237564,-2.832463264,32.397686,0.923163474
3.741517,-7.547152519,23.85435486,-162.8195343,4.620504379,-0.135285199,-11.97953987,-3.160170317,-20.70336723,-1.419554353
3.74985,-7.583794594,24.14831924,-162.8703461,-8.516936302,-3.124035835,15.77920914,-2.686487913,35.2434845,-1.273810148
3.758183,-7.56781292,24.07482338,-162.855072,3.257107496,-0.270866364,-5.13394165,0.399300367,-9.423798561,0.096155852
3.766516,-7.63578701,24.24821281,-162.8945618,-5.498087406,-2.181404114,14.37677479,-6.985991001,20.73698616,-1.931378126
3.774849,-7.62323761,24.3167305,-162.8729553,0.248959988,-0.061242722,-1.666941881,-0.3309744,7.37597847,3.037387609
3.783182,-7.704751492,24.37345886,-162.9164276,-3.138621569,-0.897732675,11.43014336,-8.400150299,6.921863079,-4.200004101
3.791515,-7.793057919,24.5841217,-162.9049988,0.271139115,-2.321650505,0.969972253,-11.93553734,24.42021751,4.24586916
3.799848,-7.867671013,24.57564545,-162.9371338,-4.586741924,-0.674269557,3.870356083,-8.119853973,-0.988338113,-4.007820606
3.808181,-7.91466856,24.81561279,-162.9374084,0.7659446,-1.364874959,0.497808307,-6.396430016,28.06528091,3.522958994
3.816514,-7.999993324,24.86317062,-162.9685974,-5.422870159,-1.790381551,19.23723793,-9.435914993,5.664178848,-2.967883587
3.824847,-8.090744019,25.03183365,-162.9741516,3.675704956,0.837907374,-8.601086617,-11.38065243,19.66336441,1.835926652
3.83318,-8.110975266,25.11992073,-162.9877625,-6.545677185,-0.310390472,10.64922905,-2.503061771,10.21677685,-0.372648716
3.841513,-8.190195084,25.22537994,-162.9908752,3.146268845,-1.997694969,5.810569286,-10.11873817,12.11353683,1.060250282
3.849846,-8.302001953,25.30907249,-163.0165863,-4.425424099,-2.247338295,14.00376606,-12.86958122,9.882461548,-1.71537292
3.858179,-8.337278366,25.34049988,-163.0003967,1.191403747,-0.031138886,-10.24075794,-5.834295273,3.016024828,1.883363485
3.866512,-8.347878456,25.33742905,-163.0180664,-3.10597086,0.300038457,16.06274223,-1.133135438,-0.54487884,-2.344842434
3.874845,-8.431962013,25.37587738,-163.0265656,0.866946995,-2.82096839,5.944938183,-10.42503357,4.238797665,-0.634784877
3.883178,-8.475982666,25.31404495,-163.0008087,-3.539252281,0.654805124,13.18896198,-7.374453545,-8.209272385,1.274385095
3.891511,-8.514855385,25.266819,-163.0140991,1.783406854,-1.688570976,-6.430342674,-4.753529072,-5.852687359,-2.662049532
3.899844,-8.485508919,25.13456726,-162.9819641,-3.489895344,-0.509577096,12.94575691,1.110748649,-16.66931152,0.711192131
3.908177,-8.502319336,25.10442543,-162.9817505,-1.680354953,-0.760710537,13.74547482,-2.798534632,-4.04144001,-0.909177363
3.91651,-8.470046043,24.87232018,-162.9369507,0.976024151,-0.730031908,-4.316257,0.833013952,-28.72341537,0.311943203
3.924843,-8.424755096,24.76478577,-162.9391022,-4.51418972,-1.004209995,14.60769081,4.77372551,-13.1896553,-2.526626825
3.933176,-8.388970375,24.63828468,-162.8931427,-0.515933454,-0.821386635,11.16699791,1.219494104,-16.20701218,2.344010592
3.941509,-8.377235413,24.45376968,-162.8912201,-2.646286011,-1.881338239,5.341646194,0.542970836,-22.39647293,-3.420129776
3.949842,-8.303794861,24.24580383,-162.8400421,-0.800898552,0.023211339,4.89749527,5.512980938,-25.95885277,1.519053102
3.958175,-8.249670029,24.10581207,-162.8492432,-3.63943696,-0.524068952,11.49742699,6.176310539,-16.939785,-3.811846972
3.966508,-8.171433449,23.9455471,-162.7975159,-2.878730059,-1.348994851,10.30408382,6.092655659,-20.29989243,2.467292309
3.974841,-8.10429287,23.80255318,-162.8024445,-1.308713317,-1.035534263,1.815259933,7.525925159,-17.37051582,-3.361036539
3.983174,-8.019509315,23.62592125,-162.768158,-0.213596195,-1.343171358,7.522265434,7.751998425,-21.97073555,0.357984692
3.991507,-7.961218357,23.48596001,-162.7743683,-4.463376522,-1.191458821,14.80050087,6.521846294,-16.99841499,-3.408730268
3.99984,-7.891357422,23.43416595,-162.7414246,-4.728919506,-0.359583348,11.59689236,6.041143417,-7.111114025,2.335711002
4.008173,-7.837017059,23.29387283,-162.7660522,-0.116300657,-1.930542231,4.176970959,6.922557354,-16.76740646,-5.388634682
4.016506,-7.733762741,23.2361412,-162.7317047,-4.30337286,-0.897417963,7.53895998,9.994086266,-7.834127903,2.418189049
4.024839,-7.685599804,23.1204052,-162.7332001,0.584449768,-0.47224623,7.912250042,5.080712795,-14.20065022,-2.42468214
4.033172,-7.631382465,23.09336853,-162.7256317,-5.862852097,-2.461944818,11.96652412,5.380616188,-3.782914877,-0.00302248
4.041505,-7.556123257,23.07083702,-162.7316284,-2.271743774,-0.457973659,9.514209747,8.541938782,-3.053153276,-1.40807879
4.049838,-7.491538525,23.02695084,-162.7158661,-1.366607308,-1.848145723,8.607702255,6.24303484,-5.904530048,0.635463595
4.058171,-7.473803043,23.01058006,-162.7314606,-0.814756513,-2.677342176,5.03062439,2.088507652,-2.1848557,-2.359596014
4.066504,-7.457920551,22.97367477,-162.7133026,-3.323607445,-0.292859882,10.34659958,0.287033111,-5.106850624,1.014810324
4.074837,-7.427039146,23.04496384,-162.7406006,-4.201665878,-1.386356115,11.4930563,4.214821815,8.410894394,-2.279141665
4.08317,-7.390535355,23.02002525,-162.7190857,-1.936589241,-3.129431009,7.851633072,2.601573944,-3.729637623,1.575006485
4.091503,-7.427666664,23.04908752,-162.73349,-0.153082013,0.16675292,8.253965378,-4.550177097,3.202343225,-1.528311849
4.099836,-7.45675993,23.03581238,-162.741806,-4.091068745,-1.302782655,10.41561127,-3.870118856,-1.916495442,-1.513096929
4.108169,-7.483325958,23.10092545,-162.7446289,-4.112494946,-2.413754702,11.46076965,-3.826420546,7.327412605,0.310393304
4.116502,-7.499927521,23.0917511,-162.7542419,0.377811104,-0.400515944,5.323503971,-2.309443712,-1.410486221,-1.591604471
4.124835,-7.558167934,23.05225563,-162.7635956,-0.722594261,-1.599650502,3.655713797,-7.319716454,-5.024066448,-2.043465614
4.133168,-7.621438503,23.06482124,-162.7762299,-2.664307356,-2.40473938,13.97336769,-7.768965244,1.223207951,-1.57943809
4.141501,-7.672622204,23.03574562,-162.7773743,-3.048500299,-0.565064192,11.68483639,-6.859762192,-3.902700663,-0.98772347
4.149834,-7.713720322,23.02152443,-162.7826843,-1.406392813,-1.900610089,9.809094429,-5.452310562,-2.068439245,-1.207647204
4.158167,-7.773797035,22.91619682,-162.7780762,0.331647992,-1.643093109,2.119249582,-8.195391655,-13.0531826,-1.598162055
4.1665,-7.81956625,22.80315399,-162.7984161,-1.711818814,0.294179171,9.347354889,-5.314250469,-13.59008312,-4.464932919
4.174833,-7.851813793,22.65403748,-162.796051,-3.637517214,-2.089267254,13.18460941,-4.750135899,-18.22358513,-2.578867435
4.183166,-7.898333549,22.59698486,-162.828125,-3.582642794,-0.495476484,15.42452621,-4.872533321,-6.750466347,-4.852630615
4.191499,-7.941428661,22.42461395,-162.8520966,-2.605618238,-1.993624091,5.894014835,-4.84074688,-20.58062553,-5.879558563
4.199832,-7.945151806,22.36127472,-162.8734131,-2.564744234,0.078135706,10.94502163,-0.241683096,-7.657772541,-3.791738987
4.208165,-7.965716839,22.17364502,-162.8763123,-0.558241546,-1.457363486,6.701376438,-3.107379675,-22.71554756,-3.833082676
4.216498,-7.993625641,22.08534241,-162.90065,-2.306458712,-1.696248651,6.22249651,-3.017779827,-10.57188034,-4.548025608
4.224831,-7.980434895,21.93421936,-162.9076843,-4.200573444,-0.586243093,10.67819023,1.127769351,-18.31150436,-3.690051556
4.233164,-7.975277424,21.86474228,-162.9075928,-2.165338278,-1.846443534,17.5243721,-0.155030161,-8.712593079,-1.545293927
4.241497,-7.99795866,21.77487564,-162.9156799,-4.528933048,-1.551830769,8.691703796,-3.131276608,-11.0143404,-2.789121628
4.24983,-8.021489143,21.68257332,-162.9128571,-0.55685544,-1.104279399,2.139773846,-3.719634771,-11.46789074,-1.631204128
4.258163,-8.026790619,21.59835243,-162.9300995,-1.744326353,-2.692641973,6.036941528,-0.644236565,-10.2003212,-3.712515116
4.266496,-8.037808418,21.48566818,-162.9104004,-3.104163408,0.646169066,15.80314064,-2.958969355,-14.15210915,-0.111024916
4.274829,-8.088931084,21.511446,-162.9345093,-4.141248703,-2.197109938,10.81576824,-5.845898151,2.980216026,-2.628058672
4.283162,-8.078276634,21.47705269,-162.9233246,-2.502421618,-0.544175029,6.846553802,0.016162584,-4.717899323,0.26170066
4.291495,-8.089001656,21.43235207,-162.9346771,-1.733339429,-1.604332924,11.41781235,-1.558639169,-5.593880653,-2.409646511
4.299828,-8.14615345,21.42406654,-162.9345856,-0.658593118,-2.4081738,3.905408144,-7.632133007,-1.439814568,-0.526667118
4.308161,-8.185440063,21.34614182,-162.9640656,-2.814853191,-0.52815634,9.587703705,-4.19577837,-9.250004768,-4.987001896
4.316494,-8.18721962,21.3916626,-162.9676971,-5.109631538,-0.541647494,14.33038902,-0.825559556,5.009324551,-0.022553332
4.324827,-8.199011803,21.36401367,-162.9866333,-0.657638609,-1.521164894,10.0339222,-1.357503295,-3.44250226,-2.96407938
4.33316,-8.237644196,21.3263855,-162.9914246,-1.444517374,-0.677224576,5.989283562,-5.197372437,-4.847686768,-1.571830392
4.341493,-8.270697594,21.27619743,-163.00737,-2.338546991,-2.03172946,5.452911377,-4.042477608,-6.165539265,-3.027205944
4.349826,-8.255800247,21.23293114,-162.9927521,-2.98584342,-0.062740408,16.03681374,0.383086473,-5.827942848,0.47055912
4.358159,-8.281455994,21.23769569,-163.0260925,-3.463092804,-0.654723287,11.96031189,-2.40132165,0.640355885,-4.005490303
4.366492,-8.273979187,21.19961929,-163.0136719,-3.244372368,-1.887916446,7.852623463,-0.412606865,-5.175240993,0.318999678
4.374825,-8.262428284,21.13655663,-163.0255432,0.438741773,-0.205292925,6.424152851,1.130279303,-7.758948326,-2.800852537
4.383158,-8.255568504,21.06160545,-163.0209808,-2.944232702,-2.127704144,11.1454401,-0.143900782,-9.429369926,-1.184556127
4.391491,-8.245744705,20.94927025,-163.0206146,-0.443972081,-1.014499068,9.701398849,0.392922521,-13.80883026,-2.294792891
4.399824,-8.223202705,20.91446304,-163.0085144,-4.851122379,0.130356744,14.70783806,1.416979551,-4.782421112,0.346688688
4.408157,-8.216797829,20.73241997,-162.9944458,-0.059337165,-2.745187998,9.695578575,-0.60294646,-22.30781746,-1.959041238
4.41649,-8.178266525,20.71491814,-162.9723358,-6.152284145,0.102786019,14.77715778,2.914772034,-2.886788368,1.759262443
4.424823,-8.167509079,20.50553322,-162.9469452,1.720801353,-2.611153364,2.528918505,-0.551743686,-25.73774529,-1.149247169
4.433156,-8.098153114,20.44068718,-162.9193573,-5.527990818,0.299338758,15.34693146,6.39679718,-8.598021507,1.571151733
4.441489,-8.068271637,20.22653961,-162.8802643,0.472311616,-1.717885017,8.428933144,1.184710145,-26.52254105,0.343871295
4.449822,-8.001689911,20.06874847,-162.8413086,-6.560783386,-0.188145682,15.8005476,5.608853817,-19.81772804,1.303636909
4.458155,-7.934543133,19.93074799,-162.8040009,0.672476172,-1.645467639,0.156820238,5.758747578,-17.4432621,1.470001459
4.466488,-7.862789154,19.70043182,-162.7667999,-3.882652283,-1.703293681,19.8409996,6.327348232,-28.40897369,-0.036910139
4.474821,-7.83476162,19.61417961,-162.7466736,-2.62565732,-0.978322566,14.32538986,1.780368805,-11.02500916,0.441538274
4.483154,-7.801514626,19.3650074,-162.7114258,-2.043345213,-1.113192677,6.113538742,1.808289886,-30.62019348,-0.513553083
4.491487,-7.732012272,19.32787132,-162.690033,-4.632022858,-0.795144618,11.66748905,6.720074177,-5.203467369,1.399664283
4.49982,-7.679599285,19.10424232,-162.6678619,0.928610504,-1.069835782,7.430818558,4.643659115,-27.38525963,-1.505131841
4.508153,-7.673178673,19.04198456,-162.6708069,-7.383878708,-1.076816201,21.63623619,0.116467945,-7.820039749,-1.728640914
4.516486,-7.629844666,18.86860275,-162.6378632,-1.686467171,-2.653580189,-0.022248082,3.144405127,-21.57289505,0.537719905
4.524819,-7.604854584,18.81139374,-162.6386871,-4.548226833,0.02482743,21.1746521,2.260661364,-7.253504753,-1.401854515
4.533152,-7.6262784,18.69223785,-162.6270447,-0.530186415,-2.285639524,4.228489876,-3.789460182,-14.80291748,-0.983189762
4.541485,-7.5937047,18.61396217,-162.6334381,-4.021152973,-0.64293009,12.41255188,3.383692026,-9.674638748,-2.361773252
4.549818,-7.561470509,18.55402374,-162.5892029,-1.661724448,-0.55144465,8.555691719,1.40427494,-8.249640465,3.643522739
4.558151,-7.561801434,18.48953056,-162.6076813,-4.048154354,-1.780913353,10.32893944,-0.105082393,-7.855232239,-3.501273632
4.566484,-7.525259972,18.47677803,-162.5751953,-4.237607479,-1.548863053,12.80351257,2.379485607,-2.458031654,3.066408157
4.574817,-7.529841423,18.49027443,-162.5774994,-2.93997407,-0.331189811,11.25272179,-1.232697725,1.178869486,-0.447109252
4.58315,-7.512829304,18.54930496,-162.5669098,-4.889036655,-0.65304482,11.73963737,0.866811335,6.408219814,1.724888086
4.591483,-7.507867813,18.56623077,-162.573349,-1.709929466,-1.376818061,11.71318817,0.071553372,1.648954988,-0.860023618
4.599816,-7.490577221,18.64583015,-162.56073,-2.634363413,0.201381311,5.183185101,0.820308805,8.826089859,2.270868778
4.608149,-7.473808289,18.67652702,-162.5695343,-1.881136894,-1.273958564,8.737372398,1.580526233,3.322806597,-0.909113228
4.616482,-7.459253788,18.71569443,-162.5550995,-1.073266745,-1.960806608,8.598579407,0.420765072,3.990416288,1.838359356
4.624815,-7.445869446,18.7876606,-162.5873718,-3.451671839,-0.410258204,11.54494858,2.080004454,8.577260971,-2.912915468
4.633148,-7.401569366,18.78925896,-162.5727692,-2.681153774,-0.611055851,11.65128899,3.98088789,-0.478486776,1.273770452
4.641481,-7.355284691,18.88049316,-162.5986481,-3.566849947,-0.944497645,12.85883045,5.787293434,10.77279758,-1.909182787
4.649814,-7.300608158,18.83421326,-162.5854492,-0.87343663,-0.732095063,11.06302834,5.278440952,-6.155076504,0.380281806
4.658147,-7.229620457,18.87806892,-162.6046448,-3.845875263,-0.79557097,14.52691555,8.49339962,5.035374641,-1.895517588
4.66648,-7.15923214,18.78103638,-162.5952454,-0.567791224,-1.545191169,8.20536232,7.311814785,-12.14313507,-0.797204792
4.674813,-7.047698975,18.72614861,-162.5835876,-4.735687256,0.487027436,18.02762222,12.16553497,-7.160346985,0.10140679
4.683146,-6.94244194,18.63176537,-162.5883026,2.506270409,-0.936482012,5.885199547,12.16532993,-11.58804893,-2.680747986
4.691479,-6.808417797,18.47071075,-162.5580292,-4.784006596,-1.777683139,16.17112732,14.15737915,-20.06117058,0.708387613
4.699812,-6.690237522,18.34275818,-162.5525818,-1.075330377,1.590249062,20.07652664,13.32038021,-15.73614979,-1.94249475
4.708145,-6.571288109,18.17706299,-162.5463867,-5.8401618,-2.422388792,12.9847908,13.27230358,-20.29256821,-1.994030595
4.716478,-6.433228493,17.97273064,-162.5239716,-0.829214692,-1.162989736,8.082819939,14.96310425,-25.1062336,-0.634733975
4.724811,-6.294301033,17.69503784,-162.5041199,-3.871078968,-3.631445885,14.95725632,15.17168808,-33.83020782,-1.837067723
4.733144,-6.147864342,17.52430916,-162.4946899,-2.58519578,-0.429465532,13.48373413,16.46020317,-20.93940353,-1.54724133
4.741477,-5.968248844,17.30588341,-162.4874878,-1.235085726,-1.626834989,3.760867834,20.5263958,-26.61230659,-2.344562769
4.74981,-5.800352573,17.02409363,-162.4775391,-1.327366471,-0.959240973,16.95435333,19.02553749,-34.20953369,-2.727701902
4.758143,-5.655171394,16.86130905,-162.4712067,-8.334810257,-0.808776796,26.60335541,16.43146324,-19.97029114,-1.6259799
4.766476,-5.527982235,16.6060791,-162.471344,1.079684258,-0.477090567,15.21433449,14.49785233,-30.93474388,-3.400152206
4.774809,-5.421302319,16.3594265,-162.4683075,-4.881202698,-2.906929731,8.319106102,11.92794609,-29.95798874,-2.872779846
4.783142,-5.313574791,16.09400558,-162.4782867,-1.485040426,-2.156176805,14.55811405,12.49074554,-32.05803299,-4.522032261
4.791475,-5.19863224,15.85313892,-162.4880676,-5.202142715,-0.973298848,12.7019043,13.34759045,-29.13925362,-4.169322968
4.799808,-5.059936523,15.62468815,-162.5010681,-3.497434616,-0.514962137,20.85294342,16.40106583,-27.59235764,-4.721745014
4.808141,-4.932496071,15.41131115,-162.534729,-2.817126751,-0.725098372,11.14241791,15.60347557,-25.63083076,-6.506559372
4.816474,-4.838532448,15.08362389,-162.5280151,0.744809508,-3.276951313,9.082982063,10.29381084,-39.69952011,-2.972958803
4.824807,-4.738510132,14.90425873,-162.5463257,-7.945147991,-3.279582024,19.00095749,11.80112457,-21.73319054,-4.309892178
4.83314,-4.598381996,14.62483215,-162.5363007,-0.054821543,-0.010867474,10.39813614,15.73856926,-33.96981812,-1.968020678
4.841473,-4.45787096,14.37057972,-162.5440979,-5.448688507,-0.86859107,23.01461792,16.32614899,-30.80375099,-3.70952177
4.849806,-4.374250412,14.1157198,-162.5250092,-0.208981365,-0.866595387,19.29328346,8.793861389,-31.09052277,-0.915645778
4.858139,-4.329935074,13.7708683,-162.4980316,-5.177931309,-2.339295626,12.65204716,3.767654419,-41.96208572,-0.405128151
4.866472,-4.284529686,13.61439705,-162.4839783,-4.188619137,-1.499937415,18.5446167,4.279140949,-19.3017025,-0.174932465
4.874805,-4.258106232,13.30819988,-162.478302,-1.145828247,-2.683830023,8.538092613,2.241940022,-37.15176773,-2.475170612
4.883138,-4.242164612,13.09394169,-162.45784,-6.060561657,-0.940134764,18.16353035,0.582109451,-26.27178001,0.081120327
4.891471,-4.243098259,12.81536388,-162.4446869,-0.354473323,-3.250947237,8.990478516,-1.23643887,-33.91296387,-1.338460565
4.899804,-4.230125427,12.62200928,-162.427475,-6.77729845,-0.635457754,15.82050514,0.331563652,-23.74256516,-0.103609636
4.908137,-4.188849926,12.46090126,-162.4250946,-3.254681587,-2.101398706,12.49314213,4.121126652,-19.76160622,-1.539018989
4.91647,-4.20066309,12.19073868,-162.4117432,-4.205391407,-1.996390581,23.78832436,-2.53162384,-32.9036293,-1.207930207
4.924803,-4.223031521,12.09334469,-162.410965,-4.965765476,1.371498942,22.4805851,-3.474481583,-12.1229248,-1.165307045
4.933136,-4.279378891,11.93417835,-162.4079437,-0.7174927,-0.542932034,5.572634697,-7.543331146,-19.50789642,-1.779869676
4.941469,-4.326895714,11.80379009,-162.4109497,-6.744045734,-2.269693851,19.93319321,-6.398322105,-16.03647423,-1.923667908
4.949802,-4.402012348,11.64928436,-162.4125671,-0.366512656,-2.490349054,12.51968002,-9.681352615,-18.90588951,-2.319562197
4.958135,-4.41178751,11.60956764,-162.4116974,-6.885637283,0.235336006,11.51013374,-1.965623617,-5.221423626,-0.661039412
4.966468,-4.397904396,11.56125641,-162.4152527,-0.686533928,-3.262107611,4.18261528,1.041961312,-6.180983067,-1.563915372
4.974801,-4.426236153,11.44500446,-162.3972626,-8.992881775,-1.392697453,29.69224167,-4.600458145,-14.53209877,0.637179792
4.983134,-4.418950558,11.4891777,-162.4159241,-1.192881584,-0.015389163,14.47254944,0.610669076,5.021670818,-2.491740227
4.991467,-4.43110466,11.43711472,-162.4168091,-1.204617977,0.381758213,6.445084095,-2.208779573,-6.682202816,-0.981832027
4.9998,-4.4482584,11.49567604,-162.4385071,-7.201838493,-1.554516315,27.82221985,-2.252810478,6.769715786,-2.697217941
5.008133,-4.568825245,11.47934723,-162.4481506,-2.50391984,-2.134159565,13.92463589,-15.00893307,-2.324837923,-1.683508515
5.016466,-4.618651867,11.6135931,-162.4740448,-5.635613441,-2.331537247,8.430134773,-6.065106392,15.86976337,-2.464538336
5.024799,-4.592383385,11.65541077,-162.4780273,-1.062046289,-1.036246061,-1.875933766,2.478394985,4.578583241,-0.462849259
5.033132,-4.578522205,11.7203064,-162.4964905,-6.248774052,-1.996705174,29.80024147,1.39793551,7.500501633,-2.220498323
5.041465,-4.537371635,11.87780476,-162.5092468,-4.520901203,0.977466702,19.95998573,4.480750561,18.49822044,-0.391705811
5.049798,-4.515389919,11.9181509,-162.5201416,1.637734175,-0.093102261,4.798086643,2.205513716,4.496143341,-1.626260519
5.058131,-4.515498638,12.07307053,-162.5334473,-7.688443184,-1.617479563,23.33338737,-0.451386988,18.19489861,-0.492984504
5.066464,-4.594883442,12.13299751,-162.5488586,0.149750635,-2.719707727,13.10874176,-9.842795372,6.879240036,-1.955659747
5.074797,-4.605013371,12.26253796,-162.5641632,-6.163994789,-0.483739644,10.32993317,-1.597675443,15.17817783,-0.939645588
5.08313,-4.580859184,12.42760563,-162.6066284,-1.128458142,-1.034294963,6.768967628,3.291237593,19.71234894,-4.116848946
5.091463,-4.578396797,12.46683884,-162.6148376,-4.270579338,-4.393346786,16.59588051,-0.262405038,4.309006214,-0.982344389
5.099796,-4.581675529,12.61822033,-162.6580963,-5.391992092,-1.619359732,18.96170425,0.037678551,18.08116913,-4.344470024
5.108129,-4.546597004,12.67793179,-162.6742554,-1.089499831,0.819907844,9.912586212,3.863754272,6.831778049,-1.714399457
5.116462,-4.56647253,12.80786991,-162.712265,-2.79060936,-0.872099876,21.44734192,-2.071871758,15.4665947,-3.946475744
5.124795,-4.637042999,12.95716953,-162.7428894,-4.041362286,-1.331372738,17.7539711,-8.420593262,17.68430519,-2.533082247
5.133128,-4.720242977,13.0226593,-162.7758789,-2.94585681,-2.609673023,7.791730404,-9.773663521,7.72177124,-4.011637688
5.141461,-4.771312237,13.13150883,-162.8154144,-4.244328976,-3.37198782,10.49293995,-5.826073647,12.93831444,-3.922756195
5.149794,-4.783614635,13.3066988,-162.8522644,-1.923851013,-1.731163025,10.93410492,-1.233927846,20.85127449,-2.938786268
5.158127,-4.81951046,13.41856003,-162.9125366,-3.393327951,-1.044532776,10.71130466,-3.406732321,13.50387859,-6.287335396
5.16646,-4.858372211,13.53366184,-162.9640198,-4.525930882,-2.094170332,17.67457962,-3.904762745,13.84402275,-5.600502014
5.174793,-4.896224499,13.64891911,-163.0116119,-3.805229664,-0.343228042,16.86658096,-3.971103668,13.79118061,-4.755770206
5.183126,-4.958630562,13.73670197,-163.0412292,0.292445213,-1.323264003,11.7614069,-7.319513321,10.36787605,-3.346154928
5.191459,-5.032269955,13.91906548,-163.0901947,-5.60826683,0.999997556,17.92220879,-8.203719139,21.83581543,-4.176774979
5.199792,-5.103930473,14.04981232,-163.1120605,-1.920570731,-3.674143314,10.05767822,-8.641028404,15.42955971,-1.939395308
5.208125,-5.214914322,14.10317421,-163.1567078,-1.235471725,-1.596631408,10.31764221,-12.78787136,6.383478642,-4.997478485
5.216458,-5.293588638,14.15788937,-163.1828003,-4.605174541,-2.392870665,8.615909576,-9.447414398,6.358350277,-2.819320679
5.224791,-5.329445362,14.26384258,-163.2068329,-0.216621563,-0.85371387,9.641150475,-4.364704609,12.45850849,-2.006273508
5.233124,-5.359533787,14.32109165,-163.2466431,-5.096148014,-1.787170887,18.27234077,-3.103177547,6.848248005,-4.766719818
5.241457,-5.451813698,14.35561466,-163.2620087,-0.111766703,-1.225529313,16.96699715,-11.38830662,3.83242774,-1.787246227
5.24979,-5.548668861,14.35665989,-163.3076782,-6.65829134,-1.822953939,12.47428131,-10.9412117,0.210420996,-6.04487133
5.258123,-5.625225544,14.38826656,-163.2985992,0.396990478,-0.741690278,9.163749695,-10.22967339,3.209540606,1.021188378
5.266456,-5.718173504,14.40956497,-163.3441162,-4.922953129,-1.453443885,17.06047821,-10.46301842,2.648076534,-5.822564125
5.274789,-5.830570698,14.45586014,-163.3439026,-1.635153294,-0.283316314,17.90383339,-14.26568413,5.063986778,0.184550598
5.283122,-5.962040901,14.45402431,-163.3994141,-3.673377275,-2.71302557,4.299610138,-14.79326057,0.022796674,-7.200226784
5.291455,-6.031770229,14.42596912,-163.3726959,-1.34833312,-2.455471992,7.832633018,-9.938209534,-4.133254528,2.337171316
5.299788,-6.133192539,14.41716862,-163.4406891,-4.185534477,-0.502777219,16.00283623,-10.8068409,-0.629149795,-8.774581909
5.308121,-6.171126366,14.45901203,-163.4258728,-4.840254307,-0.652497888,15.66367817,-5.765777588,4.346812725,1.849757671
5.316454,-6.195965767,14.46722221,-163.4976807,-1.531982422,0.579877853,13.98640633,-1.50359416,1.461369038,-8.964074135
5.324787,-6.253970623,14.43599415,-163.4738464,-0.983833969,-0.604849696,14.5712595,-8.445948601,-4.48660183,1.947911263
5.33312,-6.363135338,14.38177109,-163.5227661,-4.895449638,-1.534436345,13.94948101,-12.30286503,-6.254036427,-7.19203043
5.341453,-6.410950661,14.40046215,-163.4944611,-3.242039442,-1.226116657,12.01230907,-7.353553295,1.401559949,3.119686365
5.349786,-6.466121197,14.39588356,-163.5576324,-2.554107666,-1.48368597,11.48548603,-5.505409718,-0.179594219,-7.758027554
5.358119,-6.509760857,14.40171528,-163.517868,-1.179343104,-1.892618895,8.346795082,-7.194743633,-0.288608402,4.271634579
5.366452,-6.544093609,14.36112309,-163.5583038,-4.693968296,-1.933373451,11.04230118,-3.580422163,-4.715620041,-6.034983158
5.374785,-6.501224518,14.38662052,-163.5101471,-5.028835297,0.254622042,14.45844555,2.93918252,1.94230175,5.510057449
5.383118,-6.505633354,14.42899036,-163.5475464,-0.853547156,0.841409981,18.40738869,-0.182027578,5.086346149,-4.141963005
5.391451,-6.518233299,14.50349045,-163.4906769,-5.344831467,-0.702135563,16.99615288,-3.986484289,7.673179626,7.179158211
5.399784,-6.611711979,14.51625252,-163.5120239,0.37663129,-1.726247549,6.606324673,-11.23941135,1.39395225,-3.120287895
5.408117,-6.628686905,14.60427284,-163.4384766,-7.132536411,-2.121254444,7.295798779,-5.026091099,9.04613018,9.302682877
5.41645,-6.640799999,14.70379734,-163.4400787,-1.339181781,-1.529004812,11.61256409,-2.175378799,11.42671585,0.796807706
5.424783,-6.620621681,14.80627918,-163.3839264,-4.287819862,-1.860416293,11.26682758,-0.063536122,11.00305653,7.490756512
5.433116,-6.610132694,14.89986801,-163.3859558,-2.052751303,0.075645953,16.18491554,0.550296307,10.72386265,0.661334038
5.441449,-6.65127039,15.03844643,-163.3718414,-4.172359943,0.071040101,14.63415813,-6.144997597,15.86884117,3.145915508
5.449782,-6.704182148,15.17548656,-163.3768311,-1.301898718,-0.232452899,10.75074291,-6.964986324,15.94125175,0.940298736
5.458115,-6.750883579,15.36825752,-163.3986053,-6.053492069,-1.670042038,9.903614044,-5.685786247,22.80881882,-0.193707734
5.466448,-6.771605492,15.49218369,-163.4022217,-0.862944663,-1.005543709,5.315346241,-3.141983271,14.35905933,0.934663594
5.474781,-6.766630173,15.66701794,-163.4252319,-4.949231148,-2.271680117,12.68431282,0.567611635,20.68639565,-0.566010714
5.483114,-6.741430283,15.85049248,-163.426239,0.171059608,0.470103383,6.947412491,2.287428617,21.4206028,2.073447466
5.491447,-6.749239445,16.02444267,-163.4634705,-3.288259983,-1.91693747,7.856247902,-0.480715334,20.77335739,-2.214056969
5.49978,-6.740436554,16.16365814,-163.4450378,-0.939709842,0.610078275,8.734930992,-0.327644557,15.88218594,3.673286915
5.508113,-6.724656582,16.41868019,-163.5080109,-4.402314663,-0.98519671,8.492294312,3.242892742,30.78075027,-4.016712189
5.516446,-6.673316479,16.54063797,-163.4760895,0.153944239,-0.842724383,4.929813385,4.304114819,13.64780521,4.95702076
5.524779,-6.629319668,16.69231987,-163.5210114,-3.84831953,-0.719056964,12.61836815,6.051544666,18.21633911,-3.424022675
5.533112,-6.532062531,16.88769913,-163.4927521,-0.44907558,-0.891744316,5.922384262,9.921563148,22.4611969,5.513940334
5.541445,-6.486332417,16.86188889,-163.5255737,0.265660554,-1.76563549,6.443613529,5.861549854,-3.11072135,-4.496604919
5.549778,-6.396248341,17.01156998,-163.481369,-3.870104074,-0.676638067,13.83656788,8.495707512,16.82174492,6.657065868
5.558111,-6.316132069,17.05207634,-163.5132446,-0.222333416,-1.281701207,2.826417446,9.96493721,4.775287628,-3.496202469
5.566444,-6.238535404,17.02609825,-163.4327393,-3.041528463,-2.036233664,14.1662302,5.711000919,-4.566031933,8.441426277
5.574777,-6.196169376,17.12276459,-163.4629059,-3.222124338,-0.629208863,12.51620388,5.376095295,11.44523525,-2.582824469
5.58311,-6.131422997,17.08592415,-163.399704,1.409877539,-2.645798206,-1.328845739,4.873186588,-5.595418453,5.983076572
5.591443,-6.097441196,17.04384232,-163.4119568,-4.654831409,0.609728754,13.64881897,3.739294291,-5.331154823,-2.332445145
5.599776,-6.024744987,17.08158493,-163.3641205,-3.196911335,-2.621020555,12.05987549,6.269981384,3.466605663,5.533239365
5.608109,-5.979204178,17.01121521,-163.3622131,-0.041929971,-0.17912665,4.584968567,4.627864838,-8.881147385,-1.063989758
5.616442,-5.925871372,16.95228386,-163.3095856,-5.211402893,-0.945505381,11.55680943,3.785348892,-8.116318703,4.876540661
5.624775,-5.848154545,16.92406464,-163.3005829,-0.90831691,-1.323852658,11.5018034,8.240995407,-3.935870886,0.281500459
5.633108,-5.794471264,16.82447052,-163.2770081,-1.879400849,0.311117738,6.587291241,4.971006393,-12.58067608,0.681518018
5.641441,-5.741553307,16.73781204,-163.2500763,-2.04345274,-1.799930692,12.47201061,4.647497654,-11.11863995,1.63295877
5.649774,-5.685483456,16.62387848,-163.2230072,-3.138539791,-1.719273448,11.29302025,5.140214443,-14.33263969,0.94378233
5.658107,-5.631473064,16.55593872,-163.194519,-1.279650331,0.473787367,9.080188751,4.736097813,-8.896195412,2.056976557
5.66644,-5.575126648,16.42276382,-163.1711578,-3.826424837,-2.935997725,8.763252258,5.306271553,-16.58753967,0.339388698
5.674773,-5.526755333,16.30036926,-163.1182098,-1.554878831,-0.21975489,13.69218349,3.245529413,-15.66837215,4.245791435
5.683106,-5.486357689,16.2361412,-163.1113739,-5.50498867,-0.402171463,11.11575031,3.846950769,-8.204047203,-0.352336586
5.691439,-5.452424526,16.09860229,-163.0482025,0.844937503,-2.13315773,6.843374729,1.191702485,-17.58523941,5.273946762
5.699772,-5.464397907,15.98629189,-163.0467987,-5.409646988,-2.152836561,14.89468193,-2.252452135,-13.88830948,-1.521268249
5.708105,-5.448962212,15.96966934,-162.9955292,-1.042570114,-0.138262987,9.318906784,-0.611808836,-3.008379459,5.299482822
5.716438,-5.471878529,15.81298447,-162.9988556,-2.754098892,-2.957429409,3.334789276,-3.305684566,-19.10193825,-2.951132298
5.724771,-5.438492298,15.79721642,-162.9368744,-3.216812372,-0.630764961,12.57072449,1.211220384,-3.025412798,6.543131351
5.733104,-5.445054054,15.73893642,-162.9473267,-2.638712406,-1.576479435,7.900306225,-1.216356277,-7.302965641,-2.265976429
5.741437,-5.44079113,15.70235729,-162.8954468,-1.249199867,-0.371162504,8.464529991,-1.945516706,-5.399468899,5.150331497
5.74977,-5.46513176,15.65295792,-162.9028625,-4.248216629,-1.370058894,10.61577511,-3.451735735,-6.276294231,-1.815395951
5.758103,-5.450962067,15.70014286,-162.8599091,-2.367571592,-0.188670814,10.45976448,-0.462067962,4.70443821,5.079866409
5.766436,-5.436141968,15.65031147,-162.8600464,-3.364304543,-0.56164968,3.608389139,1.12066102,-6.37223196,-1.376995444
5.774769,-5.403544903,15.66833115,-162.8060608,-1.871294141,-1.362079859,16.78100967,1.39306879,1.103550911,6.014799118
5.783102,-5.391817093,15.73766232,-162.8276062,-2.915596962,-0.880794883,9.124429703,1.337370634,8.060108185,-2.096640587
5.791435,-5.396565437,15.63300228,-162.7636261,1.033574104,-0.611049354,4.216208458,-3.415851116,-13.65962601,5.780416012
5.799768,-5.372490883,15.71644783,-162.7945557,-8.416158676,-1.357050061,16.19127083,3.231004715,9.884122849,-3.414518356
5.808101,-5.347371101,15.70734882,-162.7209473,3.302181721,-1.63286531,2.463785887,-0.147422731,-2.342434645,7.963183403
5.816434,-5.368625164,15.69756985,-162.7477722,-8.65491581,-1.000524879,15.20283794,-2.450065613,-1.335129261,-3.592870712
5.824767,-5.339684963,15.76963806,-162.6863556,0.630631804,-0.565104008,7.958936691,0.70467335,7.488912106,7.469778538
5.8331,-5.352649212,15.76755333,-162.7205505,-4.505594254,-1.318979502,5.8282094,-1.10590744,-0.304899067,-4.73360014
5.841433,-5.343449116,15.79541206,-162.655014,-1.599723816,-1.836363196,13.37899113,-1.805304408,2.162251711,7.445726871
5.849766,-5.381953239,15.88191509,-162.7058563,-5.054174423,-0.428888291,10.79318237,-3.724476576,10.42599392,-5.275033951
5.858099,-5.379189968,15.92871857,-162.6448669,-0.856372952,-1.542750716,4.201235771,-2.445198774,4.470580578,7.135408401
5.866432,-5.419930458,15.9795723,-162.6930695,-3.99756813,-1.610371828,13.1179142,-3.962202549,6.176438332,-5.747258663
5.874765,-5.406990051,16.10855865,-162.6356964,-0.692220747,-0.307547241,6.576878071,-1.121045589,14.32253551,7.648283482
5.883098,-5.467585087,16.08535957,-162.6755066,-1.475254059,-2.340889454,4.841461182,-6.600315571,-2.755311012,-5.647235394
5.891431,-5.456463337,16.20286179,-162.6199951,-4.103689671,-0.967603624,17.83013725,-1.287307858,12.96659565,7.310407162
5.899764,-5.512013912,16.2351799,-162.6597137,1.308772922,0.645118296,2.486453056,-6.104473591,3.841418028,-4.585139751
5.908097,-5.512480736,16.2120018,-162.6025543,-6.160251141,-2.340476274,8.982156754,-2.743015528,-3.862588167,5.8873806
5.91643,-5.524467468,16.29250717,-162.6186981,0.724487543,-0.259290636,11.95739651,-1.55369544,9.374682426,-1.715013981
5.924763,-5.555270672,16.25606537,-162.5661011,-3.643429995,-2.505787134,5.2749753,-6.235490799,-5.39821291,5.208014011
5.933096,-5.591592789,16.2452507,-162.5600739,-0.654785275,-0.035715017,10.0432806,-5.222882748,-1.78015089,-0.212995142
5.941429,-5.621014118,16.21478462,-162.5221558,-5.242841244,-2.179408073,11.03410149,-5.573056698,-4.526023388,3.590962648
5.949762,-5.664598942,16.22397804,-162.5123749,-0.111589305,1.018132925,9.224743843,-6.219533443,0.565972209,0.451886386
5.958095,-5.699692249,16.12684059,-162.4659424,-5.203144073,-2.390411377,5.934360981,-6.534307003,-12.59069157,3.770108223
5.966428,-5.734183311,16.14402771,-162.4425507,-0.424503684,-0.611394227,17.49172211,-5.571160793,1.368338227,2.075265408
5.974761,-5.796861649,16.11176109,-162.4203491,-3.424460411,-0.864943266,7.032790661,-9.032412529,-4.571026802,1.756214499
5.983094,-5.863412857,16.00783348,-162.3967438,1.390376568,-1.16783309,1.610590935,-9.423669815,-13.09875011,0.628445327
5.991427,-5.887526989,15.99121666,-162.383667,-6.182768822,-1.361883759,12.15199184,-4.097215176,-2.599268675,0.89590919
5.99976,-5.922060013,15.95894527,-162.352417,1.677277565,-0.566118717,7.580138683,-5.826996326,-4.635959148,2.367242098
6.008093,-5.967947483,15.86650944,-162.348175,-4.824796677,-2.299022198,4.821715832,-6.416353703,-11.54388905,-1.062696218
6.016426,-5.988167286,15.8442955,-162.2984619,-2.250669003,0.636936843,12.12366676,-4.715747833,-3.665896654,4.635100842
6.024759,-6.011510849,15.82076931,-162.2998352,-3.735330582,-0.876440287,10.17980003,-3.527220964,-3.251714468,-0.853556037
6.033092,-6.053394318,15.76606083,-162.2561188,-1.035774708,-0.511310399,9.747494698,-7.116493225,-7.476271152,3.544908285
6.041425,-6.096389771,15.70851326,-162.2491608,-4.468099117,-1.77492094,14.07216549,-6.155882835,-7.412440777,-0.333894402
6.049758,-6.116545677,15.65975952,-162.20047,-1.678281784,0.212364301,13.16826725,-4.652788162,-6.82846117,4.152349949
6.058091,-6.149452686,15.62351704,-162.187439,-3.591552019,-1.132069468,6.855064392,-5.14076376,-4.945992947,0.632261693
6.066424,-6.167232513,15.54187679,-162.1412659,-1.04603672,-0.375945091,6.834541798,-4.281713963,-10.72756195,3.450288773
6.074757,-6.176820278,15.51412106,-162.1223297,-4.462394714,-0.656793773,9.502931595,-2.529034376,-4.007231712,1.418823838
6.08309,-6.181185722,15.51516438,-162.0926208,-0.642651737,0.29062742,12.27214813,-2.138699055,-0.661628485,2.62932682
6.091423,-6.201659203,15.46641731,-162.0776825,-4.175741196,-1.895747781,9.184726715,-3.705598831,-6.461920738,0.684642911
6.099756,-6.201905727,15.42461777,-162.0401154,-1.789742112,0.256716579,13.63737106,-1.894262314,-5.870794773,2.984186411
6.108089,-6.201525211,15.45191288,-162.046463,-5.304646492,-1.000651121,8.862438202,-0.521390617,2.874941587,-0.776354611
6.116422,-6.173063755,15.42803669,-162.0112152,-0.12367712,-0.527925313,3.487026453,1.631421924,-3.700399399,2.929039478
6.124755,-6.141788483,15.41042805,-162.0151062,-4.83884573,-0.54312253,7.513940811,3.107237339,-2.513307095,-1.075964332
6.133088,-6.080178261,15.4716301,-161.9890442,-2.501943111,-0.487520903,15.37133694,5.888944149,6.562060833,3.017766953
6.141421,-6.015861511,15.48479843,-162.0029602,-2.641546249,-1.283354044,10.36894512,7.394804955,1.280302167,-1.837168455
6.149754,-5.966384411,15.43058395,-161.9634705,-0.518916786,-0.397972286,11.29679966,4.009882927,-7.363619328,3.077012539
6.158087,-5.908000469,15.45582676,-161.9828491,-5.99548769,-1.019111633,11.86796665,6.855267048,2.782013893,-2.317127943
6.16642,-5.837611675,15.49971104,-161.9468994,-0.301739693,0.258204341,7.075242996,6.625647545,4.394186974,3.907592773
6.174753,-5.800392628,15.46170807,-161.969223,-3.230622292,-0.985037267,4.179891586,4.411796093,-4.736443996,-3.432423115
6.183086,-5.722199917,15.52811623,-161.9328766,-3.319473743,-0.495126665,16.32144547,7.541164875,7.083387375,4.234674454
6.191419,-5.644495487,15.58096981,-161.9785767,-2.731206417,-0.368251234,8.012422562,10.02615547,6.373667717,-5.031571388
6.199752,-5.577656269,15.55462551,-161.9333649,-0.049758572,-0.663773239,7.422773361,5.891401768,-4.078721046,4.133675575
6.208085,-5.495972633,15.64157009,-161.9931488,-7.30582571,-1.413513899,13.61115742,10.9618969,10.59103012,-6.271813393
6.216418,-5.376585007,15.68880463,-161.9381561,1.535631895,0.461408824,2.070623636,11.77517414,4.58343792,6.461883545
6.224751,-5.308843136,15.68550873,-162.002121,-6.588317871,-1.144487262,13.96918297,9.435797691,-0.165762514,-7.796089649
6.233084,-5.174713135,15.86171436,-161.9331512,-0.17259337,-0.815409958,5.090956211,13.07609844,19.8724823,9.464515686
6.241417,-5.100182056,15.8302393,-162.0010223,-2.896254063,-1.665159106,3.109385014,10.39751339,-3.521586895,-8.542337418
6.24975,-4.982438087,16.00905609,-161.9296875,-3.22141242,-0.755836785,14.85383224,11.01197529,20.19375992,9.684593201
6.258083,-4.937153339,16.03198624,-162.0075226,-1.203799725,-1.196202755,2.029098988,7.242400646,3.056316853,-9.107513428
6.266416,-4.852179527,16.20282364,-161.9343567,-3.809632301,-2.016855717,2.597623348,6.989948273,19.24795341,9.751343727
6.274749,-4.810384274,16.24342346,-162.0365753,0.923285127,-0.318092018,4.320935726,7.672554016,5.386508942,-11.72568798
6.283082,-4.752295494,16.43375969,-161.9854431,-7.807219982,-1.923143506,16.16722298,4.476064205,21.81427002,7.371549129
6.291415,-4.747196674,16.62380219,-162.0673981,-1.528170943,-0.073628917,3.242951632,2.640316486,23.04687881,-7.910870552
6.299748,-4.721734047,16.7780304,-162.0407257,-1.718890905,-2.633104086,-3.748030424,1.366007447,17.73389053,4.183240891
6.308081,-4.712322235,16.97138023,-162.0959167,-2.017628908,0.485131592,10.22546768,2.281486511,23.18360901,-4.809677124
6.316414,-4.676976204,17.24551773,-162.0727997,-4.168767929,-1.742924452,7.794940472,2.657274008,32.11192703,4.933971882
6.324747,-4.673134327,17.42295647,-162.1107025,0.935436964,0.528992772,-1.490000486,1.046726227,21.11333656,-2.994728327
6.33308,-4.679430008,17.74747276,-162.0778656,-5.848699093,-2.392555475,14.07629108,-2.715919256,38.04779434,6.519497395
6.341413,-4.719018936,17.96644783,-162.1178131,2.503945112,0.054007318,-7.210464954,-4.051496029,26.10169029,-2.795142651
6.349746,-4.7318964,18.23919106,-162.0680389,-7.533239841,-2.207802296,14.1439476,-4.169859886,31.69185257,7.953328609
6.358079,-4.764145374,18.59836578,-162.0924072,2.767601967,-0.440183163,-9.070627213,-3.716259956,42.72151184,0.400530428
6.366412,-4.765280724,18.81358337,-162.0590057,-7.195596218,-1.877037168,16.1346817,-2.191926241,24.96279907,5.529245377
6.374745,-4.839464188,19.20516205,-162.0726929,3.634972572,1.072218418,-7.78681612,-9.136397362,46.49405289,1.984364152
6.383078,-4.885580063,19.4640789,-162.0503082,-6.956629753,-2.79552865,11.95389843,-7.192932129,30.28348541,4.756132603
6.391411,-4.94251585,19.7788868,-162.0528412,2.009958744,0.561058164,0.426897168,-7.501125336,37.20221329,2.551360369
6.399744,-5.115550518,20.08966255,-162.0633545,-3.656429768,-2.299576998,8.042711258,-21.10429192,36.79471588,1.68609798
6.408077,-5.193562508,20.37931061,-162.0751801,-1.206103206,-0.837503135,-6.775929928,-9.641067505,34.27620697,1.393953681
6.41641,-5.263989449,20.62893295,-162.0929871,-1.329338551,-0.883626878,3.505310059,-8.471467018,29.55278015,0.335265011
6.424743,-5.421170235,20.91472244,-162.1139069,-1.349813938,0.689233303,12.22573662,-18.74320221,33.90243149,0.454627633
6.433076,-5.597097397,21.19641685,-162.1360474,-0.9844203,-2.133824587,-5.708869934,-20.92699814,33.42741394,0.377784878
6.441409,-5.692205429,21.39161682,-162.1643372,-1.29434526,-0.998823762,-0.10357286,-10.95148754,23.16043282,-1.245095968
6.449742,-5.767090321,21.58167267,-162.1542664,0.040781401,-0.830755353,5.152884007,-10.19791508,22.12043762,2.996277809
6.458075,-5.891176224,21.72461891,-162.1968079,-0.964726627,2.517577648,7.334917545,-13.77827454,17.08664894,-3.377686501
6.466408,-6.041574955,21.90658951,-162.1767578,-0.936512589,-2.266478777,1.032016635,-19.71153641,21.02668762,4.090749264
6.474741,-6.130355835,21.91527367,-162.2205811,-0.360384524,-0.034907609,1.442976475,-9.46145153,1.092267871,-5.142941952
6.483074,-6.151128769,21.93735886,-162.1821136,-0.468800545,-1.574890733,-0.459092975,-4.984466553,1.720072746,4.140413284
6.491407,-6.242465973,21.93245316,-162.206604,1.176780701,1.469489932,9.263607979,-10.63389111,-0.751662552,-3.172719955
6.49974,-6.283932686,21.81952858,-162.1804657,-3.407145977,-1.339604855,4.837094307,-6.912911892,-14.24708652,1.0141958
6.508073,-6.322384357,21.70202065,-162.1474915,3.01672101,0.526008964,-1.479048729,-6.851796627,-14.88040066,1.704704523
6.516406,-6.359787464,21.53991318,-162.1357117,-4.484058857,-1.434673071,12.41855812,-5.779277325,-19.93860054,-1.241355896
6.524739,-6.343495846,21.26614761,-162.0646057,2.087048054,0.705896258,-6.065308571,-1.927575707,-33.98879242,3.858468294
6.533072,-6.318624973,21.1163044,-162.0395813,-3.826212406,-0.665534258,12.39403057,1.129600883,-18.63856316,0.403206646
6.541405,-6.282020569,20.73833847,-161.9704742,1.273589969,0.315390646,0.300751448,0.661975563,-46.39331818,2.317785263
6.549738,-6.273674965,20.57264328,-161.9387054,-4.763859272,-2.082879543,11.16406441,-1.112029552,-20.61112976,0.976312578
6.558071,-6.237185001,20.16132164,-161.8506927,1.653156757,1.237818718,-5.114206791,-0.066558741,-50.60315323,4.063246727
6.566404,-6.159164906,19.99679565,-161.8358765,-6.99625349,-1.37526679,9.643550873,7.985420227,-20.26561928,-0.871639967
6.574737,-6.069974899,19.63162994,-161.7404175,1.81826365,-0.211726636,1.407479167,6.050426483,-45.18027496,5.645259857
6.58307,-6.020237446,19.48313141,-161.7447052,-5.8313241,-0.449939698,12.26233959,5.372791767,-18.12731361,-2.759204388
6.591403,-5.932499409,19.19377136,-161.615036,0.793824971,0.524795413,-5.109793186,4.60721302,-36.52370453,10.58607006
6.599736,-5.851183414,19.07746696,-161.634491,-6.459346294,-0.757519364,11.91067505,9.756258965,-14.11412525,-4.0255723
6.608069,-5.765852928,18.88468742,-161.5068054,-0.300860822,-1.256929398,1.553367257,4.48649025,-24.94347763,11.6719017
6.616402,-5.732882023,18.83760643,-161.5404968,-4.284644604,-0.698441386,9.906468391,4.495554447,-5.697720528,-4.770740986
6.624735,-5.627286911,18.69129753,-161.4102173,-2.254085541,-1.213950753,-7.509768486,6.874120712,-19.39463234,12.59119511
6.633068,-5.585011005,18.76937866,-161.4599915,-4.262604713,0.044925235,15.96578121,6.224412918,9.41638279,-5.116431236
6.641401,-5.494229794,18.66601563,-161.3412628,-0.233531341,-2.205446959,-8.80578804,5.552617073,-14.10827351,11.8325882
6.649734,-5.486425877,18.87023544,-161.3850708,-5.322040558,-0.186742917,18.685812,1.859927297,24.40899467,-3.007304907
6.658067,-5.418054581,18.77768135,-161.27005,-1.739048719,-2.206847191,-9.885151863,2.982240438,-12.75867176,11.54720879
6.6664,-5.423415661,19.10115433,-161.2920685,-5.575368881,-0.133508474,21.45653725,-0.554587305,38.41786575,0.780492306
6.674733,-5.347489834,19.04088402,-161.2071533,0.584830403,-1.194581747,-12.49959946,5.013013363,-8.565516472,8.506385803
6.683066,-5.374700069,19.44462967,-161.2044373,-5.387400627,-0.982776701,22.4944191,-4.139640331,47.74713516,4.433603287
6.691399,-5.319566727,19.42141151,-161.1553802,1.341175318,0.319115043,-16.2292099,3.888240576,-3.752165318,4.865552425
6.699732,-5.295471668,19.82565498,-161.1267853,-6.118603706,-1.275188684,21.48731232,0.972676873,47.54024506,7.303683758
6.708065,-5.28537941,19.84710503,-161.1028442,1.827507019,-1.031779885,1.175184608,-0.534812391,1.852856755,2.527868748
6.716398,-5.322806835,20.14335632,-161.0432281,-5.113965988,-1.180009484,14.92182827,-7.705346584,34.31522369,9.579836845
6.724731,-5.336078167,20.25461388,-161.0342865,1.47437489,-0.183309674,-8.958436966,-2.73361516,12.73829174,1.842995286
6.733064,-5.314389229,20.4417572,-160.9821472,-4.219406128,-1.873430967,9.867886543,-0.340605438,21.35439301,7.524390221
6.741397,-5.341618538,20.614151,-160.9637146,-1.437427521,-1.256345391,13.06938076,-4.81272459,19.94576073,3.583817005
6.74973,-5.381403923,20.64810181,-160.9196472,1.099365473,0.397613645,-2.5072577,-7.404345989,3.131058931,4.905126572
6.758063,-5.38926363,20.82749748,-160.8909912,-6.649833202,-1.56679213,13.38988018,-2.931307316,20.66923904,4.820626736
6.766396,-5.429961205,20.83398628,-160.8427124,5.792358875,0.174340755,-3.966029406,-7.710411072,-0.197114363,5.063371181
6.774729,-5.496998787,20.95046425,-160.8283386,-9.99530983,-3.182765484,23.62565041,-9.430484772,13.29942703,2.535144091
6.783062,-5.523058891,20.99137306,-160.7526245,5.600210667,0.925165296,-15.79115391,-7.145770073,3.611094475,8.514889717
6.791395,-5.511928558,20.94223022,-160.7460632,-8.14240551,0.271129608,22.98316383,0.284138709,-6.400702477,-0.233717069
6.799728,-5.57146883,21.10464287,-160.6661987,2.847762823,-0.787023485,-0.537988961,-11.35142899,18.07277489,10.38675785
6.808061,-5.5958004,20.90177155,-160.6416321,-3.411190987,-1.242644787,5.685499191,-4.747664928,-24.95789528,-0.029571651
6.816394,-5.59240818,21.11601067,-160.5577087,-3.431251526,-1.426837802,4.33914423,-3.969068766,24.20987129,11.45953369
6.824727,-5.606332779,20.86473656,-160.5025024,1.855964899,-0.001456739,8.404321671,-4.814263344,-31.07233429,2.814724922
6.83306,-5.615267754,21.03402138,-160.4389801,-7.697484016,-0.938055456,15.32479,-4.564573765,19.06081581,8.67103672
6.841393,-5.640903473,20.86025047,-160.3615265,4.466495514,0.521723986,-6.185475349,-7.168518543,-22.06376839,6.191706657
6.849726,-5.690920353,20.94574928,-160.321228,-7.763125896,-2.139439821,17.64488983,-8.494999886,9.304961205,5.109656334
6.858059,-5.708715916,20.79673004,-160.2274323,1.913085222,-1.865979314,-8.654831886,-6.916627407,-19.29906464,8.289486885
6.866392,-5.716919422,20.80953026,-160.1788025,-7.093785286,0.280303568,19.93022156,-3.823270082,0.524707615,5.179864407
6.874725,-5.719343185,20.80905342,-160.113266,0.734070659,-0.931460023,1.676617026,-3.854776621,-1.251140356,6.907725334
6.883058,-5.749859333,20.65313911,-160.0169525,-2.749817848,0.081819087,15.51635551,-8.380430222,-20.11813545,8.109804153
6.891391,-5.822150707,20.76315117,-159.9762726,-3.875550985,-0.332128942,7.223128319,-11.17268944,12.21187305,5.472995281
6.899724,-5.843032837,20.63938141,-159.8626709,-0.533161759,-2.304991961,-6.574182987,-7.948574066,-16.49189758,10.38834381
6.908057,-5.847907066,20.6188755,-159.8108978,-3.552926302,0.360785484,17.2308712,-3.543614388,-3.500736237,5.132658005
6.91639,-5.826817989,20.65010643,-159.7218475,-6.054600239,-1.483752131,8.098987579,-2.001407146,2.251415014,9.930691719
6.924723,-5.807734966,20.58189392,-159.6454468,3.476249218,1.404380202,0.876177967,-1.708354354,-9.474539757,7.306537628
6.933056,-5.826629162,20.56045723,-159.5971222,-6.63049078,-0.660525262,16.09797668,-5.071811199,-3.5694592,4.738864899
6.941389,-5.828936577,20.61482239,-159.4934082,-1.121708512,-0.551729262,8.400708199,-5.422497272,4.848110676,11.85268402
6.949722,-5.837839603,20.54498863,-159.4508972,-3.103798389,-2.030905247,-5.677033901,-3.631445885,-9.282664299,3.501902103
6.958055,-5.773421764,20.58307838,-159.3610077,-3.07141757,-0.333986312,11.54846859,3.172297716,3.065051079,10.10832596
6.966388,-5.729187965,20.60461044,-159.3181,-2.590500593,-0.197758257,12.58158779,2.731348276,1.628040791,4.652109146
6.974721,-5.695344448,20.58168983,-159.241684,-1.929171562,1.043162227,4.749505043,0.066289641,-4.051057816,7.867258549
6.983054,-5.695435524,20.6345787,-159.1720276,-3.615298748,-1.276649117,11.71272087,-3.572916985,5.117929459,7.6128335
6.991387,-5.714581966,20.75781631,-159.1206512,-2.201503515,-1.926040888,8.873222351,-5.247064114,13.68084621,6.807700634
6.99972,-5.732712746,20.75925636,-159.0343018,-2.700747252,-1.72817564,0.888783813,-6.616809845,-1.253855228,9.259058952
7.008053,-5.694046021,20.82840919,-158.9774017,-3.634376526,0.480543941,10.88988686,1.445987701,7.159806252,6.776130199
7.016386,-5.634033203,20.97894287,-158.9069824,-4.837479115,-0.729129493,6.117364407,3.419821501,16.73774338,9.238711357
7.024719,-5.6144104,20.98140526,-158.8362885,3.582671165,0.690549612,4.646779537,-1.452942133,-0.943141878,7.510748386
7.033052,-5.635874271,21.08503342,-158.7903442,-7.858673096,-1.492676497,18.73770523,-5.322831154,11.41283512,5.941172123
7.041385,-5.641683102,21.23761559,-158.6954803,-0.563136101,-0.262440324,4.364448071,-5.575951576,16.71611214,11.96011162
7.049718,-5.668515205,21.27359772,-158.6543579,-2.41873312,-2.107256413,-4.687608719,-5.777458191,3.3844347,4.603186131
7.058051,-5.61865139,21.40045738,-158.5694275,-3.244546413,-0.930963039,14.51564884,1.505630851,13.75428677,10.54289913
7.066384,-5.580226898,21.49768257,-158.5145874,-2.544714928,0.764134526,10.52757359,1.595075488,10.59263992,6.421105385
7.074717,-5.551393986,21.51405525,-158.4338684,-0.418943077,-0.077418648,4.877979279,-0.860984027,0.619787574,8.758300781
7.08305,-5.570662022,21.63562202,-158.3622742,-3.76171279,-0.724239349,14.12419605,-6.239513397,13.28684902,8.964830399
7.091383,-5.59883213,21.74757195,-158.3000336,-1.348817468,-2.587311029,4.709718227,-6.910094261,12.23456478,7.81247139
7.099716,-5.587765217,21.74285507,-158.2126617,-2.575449944,-1.207935929,1.710971117,-3.166765213,-1.933900595,8.830111504
7.108049,-5.529503822,21.76341248,-158.1320038,-2.945931911,0.673207104,13.06725693,2.636422634,1.123952746,8.782635689
7.116382,-5.513236046,21.85864067,-158.0626068,-3.180482388,0.101572901,12.96916771,-1.910783648,10.17253971,8.397499084
7.124715,-5.544020653,21.85856628,-157.9769287,0.9092713,-1.465734363,3.106342554,-8.291467667,-1.389533877,9.092745781
7.133048,-5.555349827,21.86296463,-157.9061584,-3.365550995,-1.180433154,6.590869427,-5.290736198,-0.695285678,7.496006966
7.141381,-5.484997749,21.88082123,-157.8384094,-5.234722614,0.200702369,14.46356297,4.644244194,0.945293307,7.31409359
7.149714,-5.450469017,21.87815094,-157.7292786,0.081637003,0.383350968,7.514695168,-1.345503092,-1.898514271,11.26288605
7.158047,-5.493077278,21.835886,-157.676178,-1.427312136,-1.761375785,2.900703907,-8.255635262,-6.073148727,5.002281189
7.16638,-5.460559368,21.84791183,-157.578949,-3.964666605,-1.311192274,8.6730299,-1.040360808,-0.015996091,10.09431553
7.174713,-5.397536755,21.8212471,-157.5112457,-2.326686859,0.521900356,14.09152794,3.772080421,-4.360861778,6.801706791
7.183046,-5.360198021,21.81543922,-157.4225922,-2.905027628,0.16734159,9.595682144,-0.062562771,-2.034782171,8.914112091
7.191379,-5.329182625,21.76158714,-157.353241,-1.822665334,-1.536945343,1.667414784,-0.136780038,-7.61598444,6.691195011
7.199712,-5.248425484,21.70295334,-157.2498169,-2.333474874,-0.460256636,10.995718,4.501369476,-8.486240387,9.986249924
7.208045,-5.209469318,21.65882111,-157.1885071,-3.201793194,-0.229915679,16.55152702,1.186169624,-6.357927322,5.925366879
7.216378,-5.17445755,21.65894318,-157.0801697,-3.187194824,-1.822980165,5.371165276,-1.201525331,-1.498957992,11.21478367
7.224711,-5.127321243,21.58156013,-157.0084839,-0.002447345,-0.363538802,5.140684128,1.718075156,-10.4272356,6.728834152
7.233044,-5.083321095,21.50471115,-156.9155273,-2.730192423,-1.007917643,9.791641235,0.573886991,-10.53094769,8.703845978
7.241377,-5.06721735,21.44364548,-156.8241119,-2.583265781,-0.131942511,9.430356026,-2.852824211,-8.661724091,9.11887455
7.24971,-5.006937027,21.41636276,-156.7410889,-4.945448875,-0.619982421,12.67603207,2.998530388,-4.49428606,8.095711708
7.258043,-4.933012486,21.37015343,-156.6539307,-3.066721678,0.126790076,15.67360592,4.287593365,-6.828359127,8.819494247
7.266376,-4.893270493,21.32534409,-156.5492096,-2.575826406,-0.830125213,3.934216976,-0.410404086,-6.780536652,10.3697443
7.274709,-4.848155499,21.27114868,-156.4760742,-0.888965905,-1.180307746,3.709493399,1.45721972,-7.634771824,7.193734646
7.283042,-4.76570797,21.19290352,-156.3813629,-3.053710461,-1.152213097,9.356021881,5.178123951,-10.66521931,8.927998543
7.291375,-4.727264404,21.17023087,-156.2899017,-2.777988434,0.955041766,15.25209332,-0.12139868,-4.019450188,9.569966316
7.299708,-4.706838608,21.16487885,-156.2161713,-4.423569679,-1.961364746,8.068948746,-1.343325853,-1.739936709,7.319422722
7.308041,-4.649965763,21.13032722,-156.1356201,-1.578193545,-1.540346622,8.745932579,2.568570137,-5.327646255,8.243890762
7.316374,-4.632853985,21.07284737,-156.0472107,-1.115442753,-0.155456066,7.302885056,-2.358904839,-8.095673561,8.436254501
7.324707,-4.663728237,21.04446411,-155.9710541,-1.783907175,-1.126763105,5.092458248,-7.758360863,-4.547154903,7.823049545
7.33304,-4.651804447,21.01364326,-155.8999786,-5.711051464,-2.228517056,12.81886864,-2.228092432,-4.753630638,6.779754639
7.341373,-4.63261652,21.00182533,-155.8055267,-2.399505138,1.638556719,15.53752327,-2.530264139,-2.730438948,10.03056049
7.349706,-4.656292915,21.03401947,-155.7370911,-4.24429512,-1.054407477,11.66543388,-6.381825924,2.809343815,7.088356018
7.358039,-4.667273998,21.05502129,-155.6552429,-2.521630764,-0.665213525,5.084862709,-5.615089417,1.30614686,8.94065094
7.366372,-4.65363121,20.97734261,-155.570694,-0.388563186,0.214209482,7.065398693,-2.589689255,-10.47841358,7.802352905
7.374705,-4.689822197,20.98741531,-155.4998169,-2.12156868,-0.983778715,8.403839111,-8.158454895,0.097897604,7.611244678
7.383038,-4.695443153,20.94461441,-155.4285278,-4.246039867,-2.141657591,10.23633575,-4.324796677,-6.190307617,6.661186695
7.391371,-4.662741661,20.90185356,-155.3405304,-0.869438112,1.299332619,14.29880428,-0.614344656,-6.378982544,9.00688839
7.399704,-4.693471909,20.85996819,-155.2911072,-3.883265018,-0.622506976,11.70716,-6.392775059,-5.880669594,4.230818272
7.408037,-4.679834366,20.801054,-155.2140045,-2.051860332,-1.157509208,9.201530457,-2.42406702,-8.213397026,7.64080286
7.41637,-4.673798561,20.6701622,-155.1564636,-1.905115724,-0.20815751,11.2280302,-2.30952096,-16.59929848,4.266897202
7.424703,-4.687078953,20.59338188,-155.0812225,-2.304250956,-0.948291838,6.153019428,-5.545341015,-10.33338547,7.26632309
7.433036,-4.671381474,20.41826248,-155.0408325,-1.934193492,-0.80844444,9.411786079,-0.412274063,-21.73267555,1.933926702
7.441369,-4.653848648,20.31148911,-154.9312744,-3.62104702,-0.883936465,11.66935444,-3.239945412,-14.23370647,10.83908939
7.449702,-4.645781517,20.13866234,-154.8929749,-0.931691587,-0.295570016,8.380717278,-1.221889138,-21.43813896,1.745892644
7.458035,-4.612170696,20.00329971,-154.8041229,-5.136550426,-0.15629454,13.23192883,-0.394395292,-17.4587841,8.268994331
7.466368,-4.610046387,19.86494446,-154.7583466,-1.610640407,-1.461620092,8.756468773,-2.213762045,-17.38177299,2.916808844
7.474701,-4.553240776,19.73008728,-154.6728363,-4.483017921,0.477678001,13.24908543,2.572207928,-17.3631649,7.928222656
7.483034,-4.539852619,19.5936985,-154.6381683,-0.18553713,-0.999830186,7.926537514,-0.386659771,-17.04308701,1.699453712
7.491367,-4.472274303,19.47399902,-154.570755,-6.781563282,-0.169340178,16.242033,4.636433125,-15.37806034,6.069140434
7.4997,-4.434700012,19.34775925,-154.5307922,-2.913909674,-0.537207901,9.63180542,2.315361023,-15.87265778,2.436208725
7.508033,-4.349194527,19.24106979,-154.4764557,-5.739896774,0.110946216,18.31002617,7.33725071,-13.6968174,4.752286434
7.516366,-4.310091019,19.13326645,-154.4601746,-2.87782383,-0.150853977,11.86286354,3.448470831,-13.4578886,-0.031057265
7.524699,-4.245988369,19.01722527,-154.4355316,-4.372253895,-0.848849475,18.77461052,5.955822945,-14.55530357,1.345925808
7.533032,-4.206463337,18.93875122,-154.4319458,-0.822719395,0.15600206,10.03426456,3.977993965,-9.845254898,-1.124631524
7.541365,-4.167108059,18.80857468,-154.4176178,-4.049870014,-1.585038066,12.43963337,3.398036718,-16.15829849,0.078200288
7.549698,-4.116909027,18.75887299,-154.4190979,-2.253255844,1.423535585,11.66557217,5.451784611,-6.362280846,-1.422448039
7.558031,-4.066993713,18.69153023,-154.4217987,-6.162676334,-0.781715095,12.43268776,5.324303627,-8.499227524,-1.283926487
7.566364,-4.045281887,18.60067749,-154.402832,-2.118573666,-2.006079197,17.62614822,1.237142086,-11.4560318,0.582032204
7.574697,-3.992420673,18.58696175,-154.4132233,-3.976382256,-2.221385479,6.084109783,5.971932411,-2.019105911,-1.695393324
7.58303,-3.917295933,18.41332817,-154.3833008,-1.129243255,-0.142313883,7.780226707,7.220182896,-21.45303345,1.207775831
7.591363,-3.860955238,18.4426899,-154.4162445,-7.034386635,-0.421855062,15.27131271,7.24151516,3.308424473,-3.906888247
7.599696,-3.763673306,18.34285164,-154.413559,-0.655136287,-1.468111157,4.174016476,10.9130497,-12.40675735,-1.233722806
7.608029,-3.727034569,18.33216286,-154.4383087,-5.695577145,-0.436473668,26.78538513,4.562586308,-1.556666732,-3.302250862
7.616362,-3.687286139,18.31719208,-154.4471283,-2.789731503,0.544013798,7.368441105,4.430916786,-2.163173199,-1.824860454
7.624695,-3.653155804,18.3026886,-154.4704285,-4.499826431,-0.053032979,17.92459679,4.204820156,-2.027597427,-3.163870573
7.633028,-3.609221458,18.33707047,-154.4765472,-2.425008297,-0.165266916,6.450291157,4.822418213,3.723925829,-1.114795685
7.641361,-3.579293966,18.33198929,-154.4924164,-5.349128723,-0.907497525,13.92720795,3.421344995,-0.955987334,-2.24586916
7.649694,-3.537727356,18.37116623,-154.4788208,-2.194370031,-1.251078129,12.93386745,3.796029568,4.156524181,1.150693893
7.658027,-3.509688377,18.34206772,-154.468338,-3.54335022,-0.350943178,12.58581924,2.199878693,-4.018450737,0.574450433
7.66636,-3.464760303,18.41474724,-154.4456482,-0.275815994,-2.80611515,1.903093696,3.848513603,8.108879089,2.442804337
7.674693,-3.439623117,18.35630798,-154.4116821,-3.828125954,-0.353849977,19.26178741,0.961250961,-7.693811417,3.035978317
7.683026,-3.436204195,18.48271751,-154.4067078,-4.659930706,-1.282259583,16.43318367,-0.46305418,14.66712093,0.810921133
7.691359,-3.498611927,18.32090378,-154.3889771,-2.944822788,-0.730426252,8.904309273,-8.931495667,-19.96457672,0.439130634
7.699692,-3.514729261,18.43853378,-154.4057465,-6.676352501,-0.393309474,22.24655914,-1.991596937,13.7652216,-1.685404181
7.708025,-3.56881094,18.33995819,-154.4267731,1.738470674,-1.288567424,4.829212189,-6.463407516,-12.11851883,-3.523354053
7.716358,-3.653265476,18.29545403,-154.4740448,-6.956597805,-0.971566796,14.948946,-9.042580605,-5.430871487,-6.36256361
7.724691,-3.68136096,18.31133652,-154.4968719,-1.290033937,0.230775759,12.05522346,-3.280850887,1.607485414,-2.876427412
7.733024,-3.686080217,18.22881508,-154.5572357,-4.019834042,-1.620191455,9.936283112,1.006780505,-9.88115406,-8.128628731
7.741357,-3.628772736,18.10945129,-154.5474091,-3.329268456,0.767986178,15.21825027,5.740432739,-14.8267374,-0.199931934
7.74969,-3.584317684,18.01974297,-154.5726471,-2.248754263,0.636182725,17.76647377,5.573889256,-11.00473499,-4.172085762
7.758023,-3.535634279,17.94858932,-154.5372314,-2.626283169,0.070522286,17.16729736,3.761092424,-9.232485771,3.103677273
7.766356,-3.558130026,17.79265976,-154.5641174,-2.48030138,-0.691993713,12.59008694,-2.411772966,-18.92745018,-4.845612049
7.774689,-3.574535608,17.66662216,-154.5258026,-4.208281994,-2.222041368,11.14935589,-4.13919735,-15.82920647,3.026809692
7.783022,-3.560876369,17.56369019,-154.5549622,-3.392856121,-1.224131584,10.80952549,1.994888067,-12.56182384,-4.715620041
7.791355,-3.507150412,17.39274979,-154.5343628,-4.103443623,-1.933580279,8.299603462,4.936351299,-21.07871628,0.686487377
7.799688,-3.454422951,17.18067551,-154.5616302,-1.080250859,-1.090833783,16.15969276,6.591751099,-25.6540451,-5.272758007
7.808021,-3.418408155,17.05539322,-154.545578,-8.452972412,1.091220856,24.7907238,2.985660076,-15.57817268,0.532123089
7.816354,-3.465389013,16.92903137,-154.5660858,0.460288256,1.414687634,15.53563118,-5.630214691,-15.43821335,-3.860706329
7.824687,-3.544769526,16.75699806,-154.5730133,-5.446838379,-3.096129656,9.158874512,-10.05552483,-21.01737022,-2.461106539
7.83302,-3.578153372,16.63885689,-154.5865784,-3.399462461,-0.552437663,9.270693779,-4.253154755,-14.49534225,-3.032354593
7.841353,-3.529406071,16.54928017,-154.5989685,-5.123020172,-1.215616941,9.018971443,5.505601883,-11.10019875,-2.491023302
7.849686,-3.43536067,16.3822422,-154.6063538,-1.019860387,-0.926847994,15.53713322,10.81975269,-20.39941788,-2.653559208
7.858019,-3.395403624,16.2095356,-154.6156921,-4.131072044,1.419603825,19.4773674,4.340499878,-21.08482552,-2.712497234
7.866352,-3.38271904,16.09883499,-154.6024017,-4.602252483,0.645393133,21.89021873,0.362505525,-13.79552269,0.142863408
7.874685,-3.37751317,15.96767426,-154.6099548,-3.495685816,-1.793688655,8.924962997,0.105889261,-16.12030792,-2.201428413
7.883018,-3.382022619,15.78455544,-154.5952911,0.550984442,-1.03984797,4.963802814,-1.739860415,-22.4787674,-0.203799739
7.891351,-3.354003906,15.69773865,-154.5981445,-10.12404728,-2.941757202,19.13581657,2.685908794,-10.84152031,-1.34488833
7.899684,-3.301763773,15.58221626,-154.5756836,-0.728301585,0.086966589,11.15541744,4.823981285,-14.43366146,1.192163587
7.908017,-3.265616655,15.36825752,-154.5903473,-4.308338165,-0.367752939,12.97703648,4.038599014,-25.99627495,-3.569000244
7.91635,-3.276998043,15.2549696,-154.5692749,-3.922843695,-0.260931343,20.70429039,-2.755618095,-14.15656567,1.072493672
7.924683,-3.295824528,15.18665409,-154.5781708,-6.215370178,0.196022391,18.26802826,-2.749470711,-8.585623741,-1.900358677
7.933016,-3.339869261,15.06173706,-154.5731812,-0.16676946,-1.619526029,8.134163857,-6.160315037,-15.44163513,-0.894590199
7.941349,-3.413186789,14.98621178,-154.6038818,-6.042946339,-2.62270236,10.22991467,-8.613184929,-9.29826355,-4.490086079
7.949682,-3.388717651,14.93766117,-154.5907135,-6.441119671,-1.246411443,13.6305275,1.80890286,-6.351356506,0.57852304
7.958015,-3.34963274,14.82678699,-154.6277466,-0.75127089,-0.069916353,8.839684486,5.062500954,-13.48959923,-5.472239017
7.966348,-3.314981222,14.72688484,-154.6030884,-4.282318115,1.438053727,19.57982445,2.681247234,-12.57911491,1.570716381
7.974681,-3.363826275,14.69919777,-154.6235809,-6.764510155,-0.298119873,28.99343491,-6.006679535,-3.639488459,-2.974466085
7.983014,-3.454928398,14.65150261,-154.618866,-0.429363698,-1.102384448,3.92261529,-11.79836559,-6.190384388,-0.387274414
7.991347,-3.523185253,14.58742619,-154.6374817,-4.362679005,-1.80976665,4.111079693,-8.39779377,-8.00330925,-3.027231216
7.99968,-3.536680937,14.57942677,-154.6273956,-5.504345417,-1.567726612,17.17909241,-2.65414691,-1.477096081,0.53848809
8.008013,-3.505600214,14.56263924,-154.6448517,-2.907860279,0.295550674,12.81789494,3.487929106,-2.346212864,-2.551843882
8.016346,-3.493093729,14.49328041,-154.6306152,-2.779862165,0.235697418,12.594944,0.356191546,-8.85190773,0.524451435
8.024679,-3.532052994,14.51153946,-154.6307526,-7.994947433,1.084214926,26.00211334,-5.440834999,1.727654457,-0.286533624
8.033012,-3.59423852,14.5418005,-154.6259918,-2.603205681,-1.844850779,11.98010254,-8.319133759,3.148655891,0.141416207
8.041345,-3.673333406,14.53319836,-154.6319427,-0.057193805,-1.766305804,0.055444416,-10.08228874,-1.446474433,-1.158647299
8.049678,-3.699325323,14.60713196,-154.6137238,-10.71744251,-0.74039638,17.17165756,-4.388935089,8.272783279,2.074087381
8.058011,-3.710758209,14.70830345,-154.6087341,-0.769183278,-1.715621233,12.7183075,-2.293076277,11.61698055,0.956538141
8.066344,-3.74205184,14.69555187,-154.5745392,-4.776420593,-1.099860191,11.7795248,-5.507380962,-2.226402044,3.223141432
8.074677,-3.816046,14.87750149,-154.5582733,-5.738957405,2.12286973,23.75626183,-10.14822388,21.20150375,2.919870615
8.08301,-3.91169548,15.02520084,-154.5481262,-2.225477457,-1.458433509,2.481853247,-12.49295044,17.16556549,1.692896605
8.091343,-4.008477688,15.13977051,-154.5280457,-4.593087673,-1.133601069,17.20512009,-13.01161289,13.09384632,2.866592407
8.099676,-4.117641926,15.45545101,-154.5318756,-3.599030495,-0.415280789,13.56412506,-13.6805191,37.37752533,1.577634215
8.108009,-4.197753906,15.52895927,-154.5231781,-1.890489221,-1.682818174,-4.118014336,-10.66228485,8.264010429,1.238563657
8.116342,-4.172499657,15.78955364,-154.524826,-10.69180679,-0.01515642,22.6378727,2.377835751,30.76078796,1.454236746
8.124675,-4.167706966,15.98023224,-154.5195618,2.648406506,0.722365916,9.261620522,-0.366860002,22.31599998,1.865869641
8.133008,-4.227602482,16.06184196,-154.5230713,-4.122540951,-0.514945447,13.68269825,-7.76563406,9.358698845,-0.367397785
8.141341,-4.246366024,16.38692093,-154.5389404,-3.830809116,0.38327685,11.95728302,-2.488823175,38.57772446,0.653829873
8.149674,-4.306136131,16.46077347,-154.5453186,-2.754746437,0.428263962,6.134716511,-7.645644665,8.456193924,-0.762791991
8.158007,-4.376601219,16.76563454,-154.5767517,-7.124019146,-0.504495203,23.10073471,-8.147219658,36.29157639,-1.239077449
8.16634,-4.414273262,16.92858315,-154.599411,-0.218596473,-2.343686104,-4.836202621,-4.40981245,19.26065636,-1.822875857
8.174673,-4.442399025,17.04869843,-154.6195068,-4.805912018,-0.72131139,19.48080444,-3.439979076,14.08808708,-1.590810657
8.183006,-4.452591419,17.34350014,-154.6501312,-2.535594463,-1.493143916,5.37684679,-0.815186799,35.10657883,-1.47088635
8.191339,-4.437467575,17.36660194,-154.6525269,-2.782156467,-0.291545659,1.305715919,1.131764889,2.325644493,-0.461811841
8.199672,-4.395096779,17.66591835,-154.6777649,-3.578763247,1.019815326,17.05845261,5.308389664,35.59528351,-0.787177622
8.208005,-4.367217541,17.71215248,-154.6694946,-0.825669289,-1.413775206,5.684707165,2.274083138,4.998464584,0.962070584
8.216338,-4.36324358,17.87129211,-154.676178,-1.359779119,1.37598443,18.39871407,0.034937833,18.6610527,0.022540534
8.224671,-4.316821575,18.01554871,-154.672287,-6.146636009,-2.059435606,3.069072008,4.657565594,16.76621056,1.348692179
