time,Euler_X,Euler_Y,Euler_Z,Acc_X,Acc_Y,Acc_Z,Gyr_X,Gyr_Y,Gyr_Z
0.0,-2.78883791,22.07163048,-118.656929,5.009095669,0.041692805,17.0911274,-9.831113815,52.6846199,-4.44422245
0.008333000000220636,-2.928799868,22.71735382,-118.663063,-6.215751648,0.000975445,-10.1622982,-15.1029129,76.24904633,2.892016172
0.016666000000441272,-3.102770805,23.23010826,-118.7112045,4.414573669,-1.027786016,22.14361954,-17.20899391,60.51857758,-2.364752531
0.02499900000020716,-3.191511631,23.72371292,-118.7340851,-4.180437565,0.133122563,1.749976993,-8.140241623,58.07435989,0.444946259
0.0333320000004278,-3.268522978,24.21919441,-118.7433853,3.583966017,-1.27842474,5.666909218,-7.376627445,58.24835968,2.040641069
0.041665000000193686,-3.44067049,24.52622986,-118.7886963,-3.088415146,1.736129761,-5.664669514,-17.00015068,35.86202621,-3.079693317
0.04999800000041432,-3.586201906,24.99405098,-118.7823181,3.181740522,-1.265768051,20.34522629,-16.37273026,54.8200531,3.844733238
0.05833100000018021,-3.663841486,25.15341759,-118.828064,-2.564069986,-0.009627163,5.539584637,-5.579205036,18.23418999,-4.043169975
0.06666400000040085,-3.712044716,25.50103378,-118.8100891,1.179782152,0.507614672,5.579506874,-5.293355465,40.29432297,4.338314056
0.07499700000016674,-3.822745085,25.53237343,-118.8541183,0.330936015,-0.181410313,3.234193563,-9.59300518,2.856960535,-4.804065228
0.08333000000038737,-3.861909866,25.84867287,-118.8266602,-1.670605898,-0.269045085,8.707038879,-4.718878269,36.50868225,5.216448307
0.09166300000015326,-3.928126812,25.70931816,-118.8622437,2.06051445,1.219559073,9.546311378,-4.674612522,-17.63237,-5.262946129
0.0999960000003739,-3.974275351,25.92417145,-118.8302231,-2.726854324,-1.226812124,2.09290576,-5.801383972,24.32205963,4.938401222
0.10832900000013979,-3.99057436,25.72798157,-118.8639832,2.308750629,-0.066841222,15.46605206,1.219007611,-24.39118004,-5.56155777
0.11666200000036042,-3.999238014,25.772892,-118.8131943,-4.176007271,1.000601888,-1.899591446,-2.273557901,3.785527706,5.561208248
0.12499500000012631,-4.02524519,25.69957542,-118.8635864,2.554920912,0.126339823,15.51799774,0.919269383,-9.604148865,-6.340254307
0.13332800000034695,-3.967758417,25.48325539,-118.7965927,-2.715578794,-0.345554918,5.060601234,4.835612774,-27.55723763,5.134428501
0.14166100000011284,-3.972522497,25.44765282,-118.8441162,-1.585202336,-0.0135528,8.251694679,3.294963837,-5.114329815,-5.725741863
0.14999400000033347,-3.923555613,25.24973869,-118.7971802,0.182556942,-0.072554559,7.064492226,4.871779442,-25.191679,3.1559062
0.15832700000009936,-3.872054338,25.06695175,-118.8070145,-1.952289462,-0.132084891,7.798921585,8.090055466,-22.95616722,-2.846370459
0.16666000000032,-3.819105864,24.88788605,-118.7552185,-1.58581388,0.67852664,10.41829777,5.14336586,-23.0268364,3.890855312
0.17499300000008589,-3.772464275,24.77584648,-118.7784653,-2.924834251,-0.822178304,4.646100998,8.183903694,-14.45666409,-3.70900631
0.18332600000030652,-3.666466951,24.56494904,-118.7182388,-0.086308412,0.476380229,8.293815613,11.10892773,-26.82248878,4.623373032
0.1916590000000724,-3.613474846,24.3842411,-118.7223511,-2.433119297,-0.588606656,10.17422676,7.97894001,-22.82143402,-2.117286205
0.19999200000029305,-3.539264917,24.24873161,-118.7049026,-1.680472732,-0.048911955,9.336488724,9.449682236,-17.48739433,0.598092496
0.20832500000005894,-3.448353529,24.1118927,-118.6826248,-3.741833925,-0.594613671,5.594541073,11.22090626,-17.67558098,1.144034386
0.21665800000027957,-3.384819031,23.98809624,-118.6899872,-0.416282833,0.357650429,9.157378197,9.398582458,-15.98962498,-1.982682943
0.22499100000004546,-3.287629366,23.86743736,-118.6738281,-2.410442829,-0.616223514,11.96097755,12.29132843,-15.76763058,0.636744559
0.2333240000002661,-3.184746742,23.7510128,-118.6622849,-1.660669088,-0.067795061,5.956147671,13.19282246,-15.152915,0.184934855
0.24165700000003199,-3.152800798,23.69189262,-118.6682968,-4.304982185,-0.424943656,4.955328941,5.538412094,-8.256197929,-1.341532826
0.24999000000025262,-3.094208956,23.67246819,-118.6681824,-0.568005025,-0.386631191,10.4564352,8.429800034,-3.459215403,-0.405255646
0.2583230000000185,-2.967363596,23.58977318,-118.6540985,-2.980162859,-0.363088489,11.64971924,15.95055485,-11.12259007,0.729032755
0.26665600000023915,-2.882859707,23.51877403,-118.6678162,-0.270496607,0.289140552,6.687954903,12.21338272,-9.640648842,-2.232370615
0.27498900000000503,-2.845509052,23.51869774,-118.6529388,-3.060319424,-0.741174221,5.697982311,5.18332243,-1.299192548,1.343287349
0.28332200000022567,-2.79603672,23.49632835,-118.6693497,-2.352674961,-0.768927634,10.16268921,8.12680912,-3.719968319,-2.227401018
0.2916550000004463,-2.70388341,23.48786736,-118.6515503,-2.085620165,-0.546895623,11.84856319,11.62235832,-2.316743851,1.617257595
0.2999880000002122,-2.645648479,23.43462753,-118.665741,0.198592126,-0.572248578,8.019816399,9.071743965,-7.43557024,-2.15055871
0.30832100000043283,-2.578592777,23.411623,-118.646904,-3.689353704,-0.110912874,4.089889526,8.552082062,-3.972679377,1.656370521
0.3166540000001987,-2.570542336,23.43612289,-118.6773529,-2.809672832,-0.367928773,8.181591034,3.833503008,1.877984405,-3.507523537
0.32498700000041936,-2.552380562,23.48584747,-118.6800537,-0.94194001,-0.247184634,10.38836193,3.722850084,4.767193794,-0.321881324
0.33332000000018525,-2.498521566,23.46313667,-118.6914368,-2.196543932,-1.309173465,9.699754715,8.413304329,-3.791483641,-1.664963961
0.3416530000004059,-2.450274229,23.42966843,-118.6955872,-1.243473411,-0.078297824,6.492731094,7.401721478,-5.20080471,-0.920255601
0.34998600000017177,-2.434302807,23.4867363,-118.7123795,-2.070612192,1.008307457,8.271461487,4.125582218,5.801855087,-1.848592162
0.3583190000003924,-2.411025524,23.53818703,-118.7037201,-2.234229088,-1.610877633,9.248635292,3.782914877,5.010989189,0.923008859
0.3666520000001583,-2.405439615,23.51131821,-118.7328644,-1.626337409,-1.073378563,6.573122025,3.480615854,-4.295724392,-3.630907774
0.37498500000037893,-2.402005434,23.5193119,-118.7126236,-1.346797824,0.453049451,7.664377689,0.857410908,-0.343243539,1.973602414
0.3833180000001448,-2.378435135,23.60547256,-118.7382202,-3.710730076,-1.540104747,8.919445038,5.462082386,9.33459568,-2.6709373
0.39165100000036546,-2.351568222,23.62101746,-118.7419128,-1.635796785,-0.031212732,8.423359871,4.815297127,0.671938241,-0.618980825
0.39998400000013135,-2.372493505,23.62960815,-118.7424698,-0.805181205,0.640851796,5.419229984,-1.078551292,-0.079954825,-0.309022933
0.408317000000352,-2.411895752,23.72038269,-118.7593155,-2.47824192,-1.108115196,7.597546577,-2.510976553,9.847675323,-1.685865045
0.41665000000011787,-2.40209198,23.7764492,-118.7686615,-2.090212822,-0.973812819,11.50159168,3.042586565,5.557648182,-1.033675194
0.4249830000003385,-2.394343853,23.75100708,-118.7789612,-1.284686446,-0.138098672,7.293318272,2.842488766,-4.212171555,-1.550314546
0.4333160000001044,-2.420024872,23.817976,-118.7988358,-2.037585974,-0.124566719,5.190320015,-0.712805748,7.012051105,-2.134421587
0.44164900000032503,-2.403586626,23.87182236,-118.8057327,-1.069744587,0.385659426,7.464244366,3.720467806,5.278709412,-0.773229659
0.4499820000000909,-2.408743382,23.84602547,-118.8152542,-2.278562546,-1.49480176,10.4298687,1.249257565,-4.154795647,-1.463943243
0.45831500000031156,-2.421892643,23.87444496,-118.8162766,-1.902483463,-1.129056334,10.09950733,-0.120963238,2.307304621,-0.261098713
0.46664800000007745,-2.381721973,23.89667511,-118.8285828,-1.60883069,1.251904011,4.974085331,6.833468437,1.513340354,-1.52879858
0.4749810000002981,-2.365991831,23.84530449,-118.8071823,0.796254456,-0.193099186,8.940960884,2.262019157,-7.464053154,1.8019104
0.48331400000006397,-2.40758419,23.81845856,-118.8066635,-3.662140369,-1.964142799,11.05196762,-3.611824989,-4.322722435,-0.36601463
0.4916470000002846,-2.386775732,23.77993584,-118.8127823,-1.855537057,0.389872849,6.604587078,4.208957195,-5.79920435,-1.157827497
0.4999800000000505,-2.383934975,23.73520851,-118.8164444,-2.110399485,-0.020401696,6.682650566,1.925037861,-6.445296764,-0.913185835
0.5083130000002711,-2.388085127,23.70561409,-118.8088989,-1.339926124,-1.131373286,9.409806252,0.544123232,-4.678478718,0.387338459
0.516646000000037,-2.374558926,23.57307053,-118.8238297,-1.298084736,0.067700051,11.01035023,3.755815983,-17.03196907,-2.590816021
0.5249790000002577,-2.377954006,23.50964165,-118.8186722,-1.873827577,0.037623249,8.985965729,0.760717213,-8.838794708,-0.039817329
0.5333120000000235,-2.366448641,23.42578888,-118.8164978,-2.816144943,-0.687119484,8.271384239,2.683321714,-11.15521812,-0.467984945
0.5416450000002442,-2.365412474,23.34614372,-118.8314972,-1.819390893,-0.323779166,10.16318417,2.252823353,-10.68880939,-2.336364508
0.5499780000000101,-2.362683296,23.29254341,-118.8360977,-2.241276503,-0.718288064,8.677335739,1.952342987,-7.497147083,-1.060570359
0.5583110000002307,-2.351939678,23.1909523,-118.8276062,-1.880769491,-0.001610984,10.84623814,2.293447733,-13.30830002,0.14472045
0.5666440000004513,-2.370353699,23.10225487,-118.8375626,-2.194728613,-1.104552627,11.05472851,-0.324878216,-11.79698372,-1.827460647
0.5749770000002172,-2.336307287,23.03512383,-118.8484879,-2.644950151,0.374160022,5.203532219,6.012865543,-9.207639694,-1.826179981
0.5833100000004379,-2.315414667,22.94556236,-118.8311234,-1.149426341,0.302893102,6.363272667,3.100705624,-11.90077019,1.191010833
0.5916430000002038,-2.31962204,22.91960144,-118.8565369,-2.663620234,-0.652853668,11.12534714,2.096806765,-4.207228184,-3.220951557
0.5999760000004244,-2.264921188,22.84257126,-118.8507156,-2.244280577,-0.095141746,10.53484058,7.698461533,-10.34619331,-0.015842408
0.6083090000001903,-2.246761084,22.79056549,-118.8589935,-2.276682377,-0.669827402,8.840482712,3.971282005,-7.281063557,-1.45034194
0.6166420000004109,-2.252169371,22.78381348,-118.8652344,-3.232696056,-1.272526979,8.954506874,1.055511355,-1.99164772,-1.014746428
0.6249750000001768,-2.20293355,22.78011513,-118.8695145,-3.311749935,-0.349670231,8.049851418,7.520545483,-1.632357121,-0.779069901
0.6333080000003974,-2.184393167,22.76341248,-118.860672,0.637197137,-0.56273371,8.566087723,3.222783327,-3.121542692,0.609618843
0.6416410000001633,-2.181981325,22.76099396,-118.8663025,-3.815107584,-0.447804302,10.29432964,1.965124011,-1.473446012,-0.925327063
0.649974000000384,-2.183764935,22.71531296,-118.8553162,0.155821651,-0.80419153,9.743419647,0.683592677,-6.60226059,0.718530476
0.6583070000001499,-2.214810133,22.6965065,-118.8701706,-3.687739849,-0.703134239,7.444834232,-1.629590511,-3.26687789,-2.018824339
0.6666400000003705,-2.176936388,22.70829582,-118.8515625,-1.232487082,0.095402434,7.202504158,5.097156048,0.127558887,1.82186377
0.6749730000001364,-2.184462547,22.70021057,-118.8666,-3.689489841,-0.013686849,9.775401115,1.20768559,-2.113033533,-1.992723465
0.683306000000357,-2.229780674,22.69602776,-118.8710175,-0.18561849,-1.684289694,12.34665394,-3.826011181,-1.556513071,-0.795590997
0.6916390000001229,-2.224422216,22.68542862,-118.8725967,-5.696699619,-1.082493305,8.155665398,2.130489588,-2.472298622,-0.515448034
0.6999720000003435,-2.239628792,22.67521286,-118.8824768,0.56568563,0.294951707,6.387150288,0.040393647,-2.251708984,-1.429312825
0.7083050000001094,-2.288824081,22.69363785,-118.8858337,-2.321453333,0.167401552,9.900488853,-4.339474201,1.152205229,-0.571850657
0.7166380000003301,-2.312127113,22.64278412,-118.879509,-0.084988222,-1.15203321,12.30050278,-1.674722672,-7.331497669,0.16467391
0.724971000000096,-2.378118277,22.5668335,-118.890274,-3.0602386,-0.755083442,10.55314732,-6.007679462,-10.26584244,-1.857967496
0.7333040000003166,-2.431158066,22.54961777,-118.9022827,-0.911170661,-0.71890682,4.563486099,-4.404073238,-3.074924946,-1.701335788
0.7416370000000825,-2.472485304,22.51083565,-118.8942413,-4.499703407,-0.043891195,6.812679768,-3.914713144,-5.895461559,0.39988938
0.7499700000003031,-2.57232523,22.45760918,-118.9173279,-0.03963716,-0.529699862,10.85169983,-9.515061378,-7.331524372,-3.120441437
0.758303000000069,-2.646971703,22.40725517,-118.927063,-3.52887392,-2.088469267,11.75472069,-7.101713657,-7.049255848,-1.643755317
0.7666360000002896,-2.676200151,22.33338928,-118.9316711,-1.223879576,1.202251554,6.884111404,-1.883837461,-10.0382843,-1.212155342
0.7749690000000555,-2.761338949,22.30228233,-118.9547424,-2.343983889,1.889333725,5.492849827,-7.750599861,-4.815182209,-3.028819799
0.7833020000002762,-2.853079557,22.2923851,-118.9527588,-0.593507767,-2.332825422,13.90851974,-9.691516876,-2.257241488,-0.121654809
0.791635000000042,-2.9007442,22.23426247,-118.9757614,-4.81609869,-1.267359495,12.0650444,-3.258963585,-8.045548439,-3.19495368
0.7999680000002627,-2.927978754,22.19314575,-118.9865112,-2.350873709,0.830050051,6.20067215,-1.37237227,-5.923484802,-1.730177641
0.8083010000000286,-2.982204676,22.20214653,-118.9893417,-1.007599711,1.298854351,4.528206348,-4.972018242,0.037960298,-0.542855322
0.8166340000002492,-3.030618429,22.19797325,-118.9917984,-1.798434138,-0.940826952,10.70928478,-4.282431126,-1.693626165,-0.591752887
0.8249670000000151,-3.055090189,22.17422104,-118.9989548,-2.346786499,-1.100402474,12.30757618,-1.199271441,-4.01207304,-1.23408103
0.8333000000002357,-3.06241107,22.11044312,-118.9873352,-3.070548296,-0.04413078,7.342357635,0.003278622,-8.765972137,0.597042143
0.8416330000000016,-3.121454,22.15301323,-119.0148697,-1.968188763,0.878610015,6.201084137,-4.426307201,4.058754921,-3.073670149
0.8499660000002223,-3.167831421,22.16047096,-118.9900284,-1.062894225,-0.686343431,12.44325256,-5.282512665,-0.311302572,2.52064538
0.8582990000004429,-3.181587219,22.10873795,-118.9995041,-1.939563751,-0.539880216,11.70445442,0.183884591,-7.191517353,-1.67961514
0.8666320000002088,-3.166265011,22.09332275,-118.9831543,-3.428539991,0.278023183,4.280348301,2.515189886,-3.154354811,1.419822693
0.8749650000004294,-3.175228119,22.1187439,-118.9875412,-1.485943794,0.271843821,7.06207037,0.537002385,1.864895463,-0.608632624
0.8832980000001953,-3.185373306,22.11847687,-118.9818726,-2.269382477,0.760504544,11.15018749,-0.067327015,-1.117331386,0.342769653
0.891631000000416,-3.163274288,22.10057259,-118.974968,-0.170511276,-1.220043063,10.28752899,3.754791021,-3.394898176,0.353937536
0.8999640000001818,-3.096418619,22.01818657,-118.955452,-3.492089748,0.105378196,6.112915039,8.549547195,-11.03836823,1.341520309
0.9082970000004025,-3.046603203,22.04327393,-118.9534302,-1.657548428,0.99666363,9.989728928,7.292244911,1.949422717,0.099255167
0.9166300000001684,-3.02478075,22.00126648,-118.9344254,-1.057270527,-1.026380062,10.72452831,3.178803444,-6.35444355,1.552555561
0.924963000000389,-3.011515141,21.95794487,-118.935997,-2.119742155,-1.069602728,9.216060638,3.075116873,-6.389202118,-0.736037791
0.9332960000001549,-2.949655056,21.89998436,-118.9295883,-2.458297253,1.034723282,6.052624702,8.54106617,-8.024670601,0.061551005
0.9416290000003755,-2.886893749,21.86517334,-118.914238,-1.874748588,0.201454327,9.804447174,8.260719299,-5.46678257,1.202460408
0.9499620000001414,-2.863896608,21.82304192,-118.9181442,-2.852558613,-1.694922686,11.03000546,4.338026524,-6.069382668,-0.974608779
0.958295000000362,-2.848648787,21.80377769,-118.9074326,-1.306014419,-0.050080601,8.268745422,2.755221128,-3.405118227,0.790660262
0.9666280000001279,-2.793422699,21.72360039,-118.9077225,-2.053073406,0.014249431,6.903598785,8.054293633,-10.81590652,-0.795437336
0.9749610000003486,-2.747629642,21.70083237,-118.9056015,-1.175949097,1.032649159,8.732582092,6.816615105,-3.947372437,-0.188636079
0.9832940000001145,-2.732609749,21.61717796,-118.9059067,-1.421013474,-1.641698599,12.0169363,3.219632864,-11.0630827,-0.799612463
0.9916270000003351,-2.726170063,21.58815765,-118.9153976,-4.409819126,-1.278954506,8.845919609,2.607708454,-4.636624813,-1.5159657
0.999960000000101,-2.688300371,21.56753922,-118.9141541,-2.091210604,0.704556346,4.423532963,5.893041611,-3.510290623,-0.264864028
1.0082930000003216,-2.64332962,21.52448845,-118.8987732,-0.709999442,0.875662327,9.146878242,6.122032642,-6.275321484,1.189217687
1.0166260000000875,-2.629396677,21.47074699,-118.8842545,-2.792711973,-1.72333014,12.206563,2.44825983,-7.724472046,1.031203389
1.0249590000003082,-2.599224329,21.44932747,-118.8894806,-2.44562006,-0.985760331,10.41848087,5.264313698,-3.746580839,-0.991949558
1.033292000000074,-2.538637877,21.44394684,-118.8818893,-2.863966465,1.429563284,6.478942394,8.342172623,-1.716089845,0.530726969
1.0416250000002947,-2.496137142,21.43878555,-118.8856049,-0.661560833,0.43793118,7.798041821,6.676785469,-1.807122707,-0.732426226
1.0499580000000606,-2.479587555,21.35959625,-118.8792114,-1.090732574,-1.24898994,12.53736687,3.110132217,-10.55622864,0.012653434
1.0582910000002812,-2.447016239,21.38209152,-118.8903732,-4.733127117,-0.673007071,7.571940899,5.79862833,1.72409451,-1.416608334
1.066624000000047,-2.352837563,21.39227867,-118.8996887,-1.315863252,-0.213634521,6.058925629,13.1252985,0.056735534,-1.281518579
1.0749570000002677,-2.286391735,21.35372353,-118.9018097,-1.537879109,-0.341499567,6.166300774,9.480956078,-5.819925785,-0.713958442
1.0832900000000336,-2.271414518,21.29977798,-118.8978195,-1.900079966,1.206670523,7.728743553,3.025682211,-7.513386726,-0.10067676
1.0916230000002543,-2.267829657,21.33815956,-118.9080887,-2.737338781,-1.297946095,10.7437191,2.292294979,3.441144705,-1.253624797
1.0999560000000201,-2.21767807,21.37482834,-118.8874054,-3.444581985,-2.581161022,15.33131599,6.517773628,3.27949357,2.190478563
1.1082890000002408,-2.152719975,21.32650185,-118.9077759,-0.699938893,0.374924541,8.708649635,10.0890379,-6.732356548,-2.783511877
1.1166220000000067,-2.070717573,21.29481316,-118.8641052,-2.697882175,0.291969389,0.893730402,9.351091385,-5.187279701,4.447169304
1.1249550000002273,-2.072683811,21.33704376,-118.8748093,-1.86862874,1.080546498,4.344591141,1.644971848,3.901534796,-1.302445531
1.133288000000448,-2.086277246,21.31775093,-118.8615799,-2.097643614,-1.977558494,16.60708237,-0.805452347,-3.391413927,1.105279684
1.1416210000002138,-2.04040432,21.3212986,-118.861618,-3.406226873,-2.310671806,10.87344456,6.920888901,-0.7811957,-0.278951824
1.1499540000004345,-1.973043442,21.30611801,-118.8701248,-1.386266232,1.083186865,2.237451553,9.859176636,-2.808229923,-1.305263281
1.1582870000002004,-1.934745908,21.26014519,-118.845932,0.44990772,1.277989507,9.99033165,4.947236061,-6.627619743,2.22697854
1.166620000000421,-1.97854805,21.24474335,-118.8480225,-4.251162529,-2.442592621,10.8713541,-3.751345634,-3.046570301,-0.58757782
1.1749530000001869,-1.973614812,21.26429749,-118.8563309,-2.387409449,-0.782604337,6.897648335,2.367549658,1.169161677,-1.138104558
1.1832860000004075,-1.906384349,21.25881958,-118.8343887,-2.627007246,-0.037016962,7.416092873,8.517347336,-1.75720036,2.141861916
1.1916190000001734,-1.883404374,21.16998291,-118.8344727,0.317403734,-0.170859307,8.993746758,4.176350594,-11.86163425,-0.65317595
1.199952000000394,-1.871455789,21.14945602,-118.8254318,-3.282245636,-0.425139546,9.95091629,2.447056055,-3.51410675,0.642456293
1.20828500000016,-1.843238831,21.17542458,-118.8104019,-2.508388042,-0.57489717,6.960204124,4.138978958,2.047320366,1.494001508
1.2166180000003806,-1.84222579,21.15467453,-118.8412094,-2.708635569,-0.552560389,7.96049881,2.872226477,-3.586902142,-3.817609549
1.2249510000001465,-1.836679459,21.07307625,-118.8040237,0.081254892,-1.166061163,12.6353693,0.471967936,-11.12604237,3.556690454
1.233284000000367,-1.838841081,21.05542374,-118.837059,-4.204815388,0.245693579,7.326391697,2.570952177,-3.014193535,-4.053926945
1.241617000000133,-1.787939072,21.05877876,-118.8130264,-0.819938004,-0.502743781,5.709287167,6.486984253,-0.889646411,2.413347483
1.2499500000003536,-1.792401314,21.01246643,-118.8246689,-3.860312223,-1.679669142,9.793738365,1.372487426,-6.528389454,-1.766575336
1.2582830000001195,-1.820743799,20.97226524,-118.8293533,-1.459816813,0.614749014,8.846696854,-1.793163061,-5.818721771,-0.965182781
1.2666160000003401,-1.821019411,21.00841522,-118.8273315,-1.573614478,-0.370794147,8.411088943,1.294902205,3.123630524,0.075100943
1.274949000000106,-1.792930484,20.95854568,-118.8275757,-1.583390117,-1.611602902,11.44270802,4.795061588,-7.186650753,-0.507353961
1.2832820000003267,-1.781591058,20.90947342,-118.8364258,-3.768753052,-0.409697801,6.838936329,3.147554636,-6.867497921,-1.462304235
1.2916150000000926,-1.789593339,20.9131794,-118.8233795,-1.97053659,0.591847479,6.64939785,-0.104442038,-0.806605041,1.183121443
1.2999480000003132,-1.83257544,20.94048309,-118.8360596,-2.507159472,-0.985359848,5.966898918,-3.207273722,2.309891939,-1.604872823
1.308281000000079,-1.881451607,20.92488289,-118.8156052,-0.508657694,-1.831782579,10.57613182,-5.334458828,-2.956894398,1.943044543
1.3166140000002997,-1.891959429,20.83193779,-118.8180847,-3.244823933,-0.470889866,10.3548851,0.259779543,-12.34484482,-0.935316503
1.3249470000000656,-1.912576556,20.85752678,-118.8068085,-2.688897371,0.299230039,9.56797123,-1.541298151,1.819532514,1.075208664
1.3332800000002862,-1.959208608,20.86098671,-118.8173676,-1.155737877,-1.101508975,11.00240612,-3.735822916,-0.55223006,-1.455644011
1.3416130000000521,-2.017874718,20.85341454,-118.8261414,-3.983500719,-0.307076156,9.18529129,-5.251238823,-2.079376459,-1.306671858
1.3499460000002728,-2.084319592,20.83645058,-118.8353195,-1.264670491,0.030586049,7.371419907,-6.171865463,-3.002744198,-1.386127234
1.3582790000000386,-2.154591799,20.83681107,-118.8547287,-1.45346725,0.241297841,7.80516243,-6.195916653,-0.881398618,-2.459952831
1.3666120000002593,-2.15985322,20.86335945,-118.8509521,-3.137833834,-0.786121905,10.0104866,0.62152946,1.961153984,0.253785849
1.3749450000000252,-2.195494413,20.83131981,-118.8787079,-1.661228776,-0.149062246,9.509643555,-1.676387787,-4.930727959,-3.550350904
1.3832780000002458,-2.272161484,20.80761719,-118.8771896,-2.720082998,-0.877327025,10.58691502,-7.856719017,-3.851445913,-0.225802287
1.3916110000000117,-2.324003696,20.81365204,-118.8989944,-2.597120762,-1.44953692,10.3882103,-3.877137184,-0.386044979,-2.705183744
1.3999440000002323,-2.343909025,20.78002739,-118.905838,-2.289541721,0.897001088,5.539936543,-0.689445555,-5.001729965,-1.216253519
1.4082769999999982,-2.40682292,20.73509789,-118.9189606,0.921894908,0.702989221,10.871068,-5.583429337,-6.325730324,-1.979890823
1.4166100000002189,-2.449520588,20.67835045,-118.916153,-3.611939669,-1.870167136,13.03674984,-3.829596519,-8.023184776,-0.26284045
1.4249430000004395,-2.495867014,20.55289078,-118.9333878,0.390182585,0.800685287,11.45336914,-3.417925358,-16.16462135,-2.877081156
1.4332760000002054,-2.564282179,20.46174049,-118.9418564,-3.136639595,-1.204627156,13.26304245,-6.44575882,-11.88266182,-1.716602087
1.441609000000426,-2.560522795,20.27028465,-118.9473343,-0.98335731,1.16989243,10.86966801,2.094016075,-24.1325798,-1.93299222
1.449942000000192,-2.61533618,20.13978004,-118.9529343,-2.647008896,-1.708568692,11.77069569,-4.937209606,-16.6085186,-1.621752977
1.4582750000004125,-2.630945206,19.90392685,-118.9800491,-2.207507372,0.947162688,10.34244633,0.648322344,-29.12182999,-4.632171154
1.4666080000001784,-2.668479443,19.74767494,-118.9851074,-2.471262693,-1.119711876,15.09150124,-2.884253502,-19.9101181,-1.727872729
1.474941000000399,-2.632217646,19.46407318,-119.0103073,-1.883767605,0.524609983,15.0125742,6.781069279,-35.07206345,-4.709630489
1.483274000000165,-2.612327814,19.28481674,-119.0151215,-4.074637413,-0.312464625,9.426886559,3.985141039,-22.45074654,-1.812194943
1.4916070000003856,-2.575496912,18.9712944,-119.0608521,-0.078147516,2.538645744,15.26921558,7.6335392,-38.5572052,-7.173545361
1.4999400000001515,-2.498080969,18.75814056,-119.0564804,-4.297943592,0.921649575,13.52711487,10.52697086,-26.56117249,-0.921639264
1.5082730000003721,-2.425425768,18.46893501,-119.0994873,-3.622350931,-1.211396933,20.72003937,11.76793766,-35.44524002,-6.658979416
1.516606000000138,-2.282747984,18.2253418,-119.0366898,-3.455625772,-0.00785022,7.681553364,16.16416168,-30.70713043,5.655321598
1.5249390000003586,-2.212086678,17.9703846,-119.0646896,-2.705069542,-0.0684973,17.27762413,10.93874741,-31.65198898,-4.685475826
1.5332720000001245,-2.082626104,17.66934586,-118.9973221,-0.962570906,-1.629037261,18.0562706,14.46420097,-37.36903,6.052805901
1.5416050000003452,-1.947346687,17.49295044,-119.0065155,-7.62542057,-1.307047725,13.38517666,17.98177147,-22.32462883,-2.086063385
1.549938000000111,-1.832337618,17.2191124,-118.9256134,0.7267766,-0.960735619,19.40270805,12.30908775,-34.12236023,7.893548012
1.5582710000003317,-1.748514891,16.99660873,-118.9156876,-5.528518677,-1.540468097,7.397367954,11.11287117,-27.69732094,0.016674878
1.5666040000000976,-1.689846277,16.81335258,-118.8628845,-2.433901787,-0.070432976,17.42584038,6.611805916,-23.36883926,5.109017849
1.5749370000003182,-1.622591257,16.57625961,-118.8513031,-3.718558788,0.803826571,13.05441856,9.086350441,-29.6854229,0.218361557
1.583270000000084,-1.55300355,16.46936226,-118.8354568,-4.616508007,-1.541753411,12.14571953,9.215390205,-13.84591961,1.177947879
1.5916030000003047,-1.488446474,16.29558182,-118.8607025,-3.493224859,0.477724522,12.95290756,10.01688957,-21.97609329,-3.750758648
1.5999360000000706,-1.455877423,16.27202034,-118.8647842,-5.717495441,-1.225683331,9.449859619,5.45040226,-3.788639784,-0.830118954
1.6082690000002913,-1.465078115,16.17707443,-118.9278564,-1.83474052,0.269577712,17.56397438,2.41565299,-12.18096542,-7.84314394
1.6166020000000572,-1.492135048,16.25946426,-118.979332,-3.865145683,-0.676327288,9.421861649,-0.107131548,8.829894066,-5.965209961
1.6249350000002778,-1.520069361,16.27578545,-119.0581055,-2.073337078,-0.717811108,17.80457306,0.70964247,0.990784287,-9.310659409
1.6332680000000437,-1.565071344,16.42404175,-119.1185303,-7.677204132,-2.825569153,4.789494514,-1.955224514,16.99714851,-6.763042927
1.6416010000002643,-1.608196735,16.46867561,-119.2179108,-1.493542314,-1.025514245,25.76411438,-0.384738624,4.465175629,-11.57564926
1.6499340000000302,-1.625905395,16.59507179,-119.2910004,-5.244329929,-0.039215308,4.429003716,1.77673161,14.4192276,-8.266213417
1.6582670000002508,-1.71044004,16.77111626,-119.3900528,-0.591332078,-1.3431952,17.74253654,-5.327110291,20.47088051,-11.05279064
1.6666000000000167,-1.730165362,16.87364197,-119.4507446,-3.445571899,0.522228479,11.04000378,1.155996084,11.30107784,-6.891369343
1.6749330000002374,-1.814356565,17.10753441,-119.5752182,-5.092871666,-0.880120993,8.306943893,-4.324928761,27.29070663,-13.70197392
1.6832660000000033,-1.872422934,17.14105988,-119.6488342,1.272989035,2.352710485,16.08016968,-2.962785482,3.3183496,-8.594920158
1.691599000000224,-1.943763256,17.31355095,-119.7712173,-5.754342079,-1.722516775,10.65795898,-2.797140121,19.94883728,-13.62220764
1.6999320000004445,-2.018251896,17.4537487,-119.8752975,-0.545901895,0.807613194,17.39521408,-3.806237698,16.25392532,-11.61573982
1.7082650000002104,-2.023863554,17.44600677,-119.9757156,-3.118803978,-0.970896184,14.89960861,4.355317116,-1.728384733,-11.81393909
1.716598000000431,-2.065123796,17.57878113,-120.0797958,-4.470200539,-0.148528218,6.542406082,0.33477819,15.39144707,-12.03025532
1.724931000000197,-2.06736207,17.59355354,-120.1620865,0.751279891,0.31050393,19.2488327,4.130270481,0.904208183,-9.635499954
1.7332640000004176,-2.055095196,17.54610634,-120.2509079,-3.338812828,-1.271209717,14.24465942,6.091424942,-6.297120094,-10.6487751
1.7415970000001835,-2.074616432,17.64375877,-120.3236084,-5.445722103,-2.099888802,7.564727306,1.70898211,10.80513668,-8.179383278
1.749930000000404,-2.102475643,17.60375214,-120.4141998,-0.863611937,-0.412418038,22.30432129,1.347385526,-5.386301994,-10.81441975
1.75826300000017,-2.143045187,17.5335331,-120.4900742,-1.484449267,0.196442828,10.17559052,-0.720182776,-9.06473732,-9.272545815
1.7665960000003906,-2.202644348,17.59285927,-120.5802689,-4.595792294,-1.576069236,7.316435814,-2.470633745,6.300767899,-10.33317947
1.7749290000001565,-2.240620852,17.49853134,-120.6707687,-2.566174507,0.714640558,21.23949814,0.131759658,-12.11608601,-11.08027172
1.7832620000003772,-2.284724474,17.42480659,-120.7698212,-3.628479481,0.090596132,14.0313921,-0.326338202,-9.356945992,-11.96245193
1.791595000000143,-2.303128004,17.35516167,-120.8489151,-1.079735637,-0.782443941,9.754313469,2.042248964,-9.193911552,-9.674946785
1.7999280000003637,-2.334325314,17.31064415,-120.9682388,-4.812523842,1.346165538,13.79265022,1.920581341,-5.748155594,-14.16212559
1.8082610000001296,-2.3626647,17.24749565,-121.0424042,-1.569520712,-0.556723535,18.85362434,0.63910073,-8.185988426,-9.087225914
1.8165940000003502,-2.338372707,17.17301178,-121.1418381,-4.28582716,-1.513363838,15.46385574,7.860984325,-9.668697357,-12.04623604
1.824927000000116,-2.248038292,17.05495262,-121.1989594,-1.961063027,1.6849792,15.58387375,14.27253723,-15.09863663,-7.404911995
1.8332600000003367,-2.154968977,16.96093178,-121.2990112,-5.533573151,-2.963466883,13.23599434,16.07606316,-11.79270744,-12.19147205
1.8415930000001026,-2.061840057,16.84193802,-121.3784866,-1.472324014,1.990534186,14.05131721,15.36339951,-15.13992882,-9.935498238
1.8499260000003233,-1.99951458,16.73780251,-121.4671402,0.021472728,1.049655795,11.03964901,11.94807148,-13.08576679,-10.90960693
1.8582590000000891,-1.975464225,16.61754036,-121.5671921,-7.495288849,-3.080295801,14.55972385,7.722285271,-14.97848034,-12.28194141
1.8665920000003098,-1.942053795,16.58896446,-121.6774979,-3.263323069,-1.02733469,16.46000481,9.206526756,-4.198571205,-13.08668804
1.8749250000000757,-1.85030508,16.43248177,-121.7605972,-1.393736243,-2.327939272,17.97241783,15.26010132,-19.65815735,-10.46965981
1.8832580000002963,-1.736514091,16.27671242,-121.8720474,-4.080821991,0.157741219,15.28059864,18.81364441,-19.2360363,-13.70053959
1.8915910000000622,-1.665831447,16.14920044,-121.9446564,-3.461647034,0.409550458,6.96974802,12.3298521,-16.25273705,-9.107721329
1.8999240000002828,-1.653391004,16.11419868,-122.0543747,-3.393545628,0.004266675,8.910770416,6.545155525,-4.785008907,-13.05597496
1.9082570000000487,-1.674119473,15.96631718,-122.1486206,-3.466437817,-1.000595212,21.39959335,2.030390024,-18.38002777,-11.66701984
1.9165900000002694,-1.657505751,15.90789986,-122.2562332,-4.17289114,-3.824748516,18.27687836,6.95311451,-7.850598812,-12.90738964
1.9249230000000352,-1.554943562,15.81420708,-122.3348083,-2.441822529,1.161851525,14.69942856,16.30103302,-12.18993473,-9.673513412
1.9332560000002559,-1.465006232,15.76714325,-122.4325256,-4.760812283,-1.214471579,10.18713951,15.37822723,-6.302806854,-11.71819496
1.9415890000000218,-1.405201316,15.70732117,-122.5243454,-5.505677223,-0.431741685,12.11757088,11.57945633,-8.115296364,-11.07330608
1.9499220000002424,-1.368872285,15.63447094,-122.601593,0.459265739,0.191444993,14.11585522,8.257237434,-9.477641106,-9.426412582
1.9582550000000083,-1.351641893,15.54099083,-122.7033768,-4.115755081,-1.08521831,12.17627239,6.741438389,-11.88901806,-12.31746769
1.966588000000229,-1.358360529,15.53552341,-122.7718887,-5.347499371,-2.32259655,10.14159107,2.811444283,-1.674364209,-8.225717545
1.9749210000004496,-1.367977738,15.56081676,-122.8858795,-3.788208961,-3.076738119,21.18175697,3.927021503,2.143348217,-13.39671993
1.9832540000002155,-1.289628267,15.47793579,-122.9414673,-2.527397633,0.837216616,19.01311302,12.58074188,-10.75033474,-6.945083141
1.991587000000436,-1.279990077,15.48328304,-123.0577164,-3.879155397,-1.693848729,5.996925831,6.295057774,-0.263199091,-13.71715546
1.999920000000202,-1.269864678,15.43912411,-123.106514,-3.71039772,0.844188452,10.37920189,4.169537067,-6.124018669,-6.051965714
2.0082530000004226,-1.311982274,15.48091793,-123.2257004,-2.823942423,-1.008762479,13.65662479,0.152430326,4.367534637,-13.95861912
2.0165860000001885,-1.397593498,15.5143652,-123.2668839,-4.708812237,-1.668642044,10.69505405,-7.537642956,2.920381784,-4.959441185
2.024919000000409,-1.530607462,15.57093239,-123.3821335,-1.554616451,-0.86844945,16.20454025,-10.84257126,5.920859337,-13.43693352
2.033252000000175,-1.579421163,15.54278183,-123.3896637,-4.11336422,-3.926620722,18.33312035,-4.219599724,-4.313373566,-1.250832796
2.0415850000003957,-1.620222449,15.65011978,-123.4991684,-3.144371986,1.302467108,12.93814945,0.051459014,12.02493858,-12.58559608
2.0499180000001616,-1.652103901,15.72257996,-123.5081711,-4.378839016,-1.925851107,8.964876175,-2.136573553,7.763676167,-1.078167319
2.058251000000382,-1.741300344,15.77131367,-123.6088181,-3.963794708,0.005965566,11.05917835,-6.029400349,5.228481293,-11.73553467
2.066584000000148,-1.892612815,15.81795883,-123.6297073,-1.539907336,-0.022745173,12.00864887,-16.06098747,4.464945793,-2.525756121
2.0749170000003687,-2.052308083,15.89317226,-123.7159119,-0.823428094,-0.37880078,14.92286873,-14.92417526,8.159083366,-9.926094055
2.0832500000001346,-2.177862644,15.9544611,-123.7310638,-5.807063103,-1.925992608,16.43417168,-13.16998291,6.446283817,-1.76273334
2.0915830000003552,-2.305989742,16.05533981,-123.8343506,-2.804349661,-2.683733225,12.5785408,-10.54421902,11.35886669,-11.72365284
2.099916000000121,-2.394379377,16.14212036,-123.8496246,-6.779922009,1.109063745,10.42076111,-8.701322556,9.505879402,-1.617756844
2.1082490000003418,-2.497851849,16.22362137,-123.9495773,-0.043583423,-0.747579753,16.79166794,-7.67547369,9.286392212,-11.37680912
2.1165820000001077,-2.530139923,16.26384544,-123.9475555,-3.336521626,1.246448517,10.29642868,-2.528189182,3.607201815,0.153557345
2.1249150000003283,-2.653986692,16.37980461,-124.0490799,-0.672250688,1.883264184,9.879016876,-10.0239172,13.22558308,-11.34115696
2.133248000000094,-2.768547535,16.49479485,-124.0469589,-5.938058376,-3.427713633,12.98206711,-12.42266369,12.79080391,0.609849453
2.141581000000315,-2.830272436,16.61568451,-124.143837,-1.702696919,0.330205172,19.27614784,-2.680466413,13.82887173,-10.71257973
2.1499140000000807,-2.829627752,16.66256142,-124.1301804,-3.92643261,-2.884995699,13.29046345,1.004564762,4.55521059,1.561699986
2.1582470000003013,-2.832737684,16.7135582,-124.2196808,-3.026117325,0.332819194,10.07708168,4.109368801,5.630905151,-10.25815582
2.1665800000000672,-2.877755642,16.75302315,-124.2119217,-0.80989939,1.222192883,10.7325983,-4.255920887,3.481333256,0.833461583
2.174913000000288,-2.986746788,16.82706642,-124.288269,-3.54751277,-2.316363096,13.67431927,-9.018223763,8.117818832,-8.596561432
2.1832460000000538,-3.044904709,16.85733795,-124.278862,-1.568232298,0.189703017,17.03983688,-5.909499168,2.575793266,0.985712528
2.1915790000002744,-3.072505474,16.87609291,-124.3504944,-3.792604923,-2.344681501,12.62901592,0.59635061,1.481552839,-8.383398056
2.1999120000000403,-3.068681955,16.85524368,-124.3481445,-4.17369318,-0.728211403,11.16887665,1.776654482,-3.51331234,-0.15103434
2.208245000000261,-3.10238409,16.86552048,-124.4219208,-2.415477037,0.400679231,9.642848969,-0.076701835,0.681005657,-8.680703163
2.216578000000027,-3.173337221,16.88473511,-124.4317169,-3.062035799,0.510139287,9.490306854,-6.758430958,1.159223318,-1.287537813
2.2249110000002474,-3.277757168,16.89997101,-124.5158768,-3.002337217,-2.011909008,15.69723606,-8.182328224,1.164730668,-9.838135719
2.2332440000000133,-3.286942244,16.88885117,-124.5198288,-2.043484688,-0.516817391,16.52793121,0.433444142,-2.321354151,-0.809371531
2.241577000000234,-3.279932976,16.85929108,-124.5996475,-4.331405163,-0.059697226,15.22838116,5.036962986,-4.222237587,-9.64648819
2.24991,-3.268538713,16.83421707,-124.6055984,-1.388577461,-0.591729045,6.2899189,2.971968412,-3.983333588,-1.13859117
2.2582430000002205,-3.318083048,16.8482933,-124.66539,-3.690176249,0.891386867,9.979023933,-2.464793682,1.05394876,-7.04602766
2.266576000000441,-3.394514084,16.85863113,-124.6910324,-2.987129688,-1.169656515,15.51163101,-6.86659956,0.206706867,-3.156121969
2.274909000000207,-3.408024788,16.88816452,-124.7289276,-3.886073589,-3.915834427,13.75966454,1.113194585,2.591238499,-4.424539089
2.2832420000004277,-3.396484375,16.87784195,-124.7677612,-3.716039896,1.729904413,12.90024662,4.138082504,-2.005223513,-4.810008049
2.2915750000001935,-3.404999733,16.87765694,-124.7906342,-2.255704641,-1.790153027,10.19337463,1.189473867,-1.070764661,-2.914016247
2.299908000000414,-3.429065466,16.84309578,-124.8449326,-3.495657444,1.333639979,8.826211929,0.403705925,-4.810750961,-6.757944107
2.30824100000018,-3.502601385,16.8302021,-124.8575134,-0.262289613,-1.015562534,13.30258083,-6.989037037,-2.504572868,-1.822209716
2.3165740000004007,-3.545141697,16.76968193,-124.9244461,-4.225437164,-2.47231698,16.22709656,-1.368760824,-7.980948925,-8.411855698
2.3249070000001666,-3.512651682,16.71451187,-124.9270859,0.027635446,1.532248378,17.3652916,5.40516758,-7.79304266,-1.003937125
2.3332400000003872,-3.509271383,16.62806129,-124.9987183,-6.470653534,-2.45001483,8.53006649,4.272583961,-10.90414906,-9.136330605
2.341573000000153,-3.512052298,16.53760719,-124.994606,0.497560263,2.076173067,8.484221458,0.940452278,-12.06795597,-0.483225375
2.3499060000003738,-3.570964813,16.46202087,-125.0675278,-6.331099033,-2.448286772,12.33392143,-3.182505131,-9.594364166,-9.220576286
2.3582390000001396,-3.570926189,16.39490128,-125.0594406,-0.507846832,-1.490255237,14.45136452,1.131252885,-9.162481308,0.142082185
2.3665720000003603,-3.562592506,16.33107185,-125.125351,-6.111277103,0.301027298,10.95013237,4.642503738,-8.375766754,-8.343416214
2.374905000000126,-3.536962986,16.22130585,-125.1201324,-1.400079131,-1.509402633,13.45519733,4.314718723,-14.38981056,-0.504843831
2.383238000000347,-3.519593,16.14076424,-125.177742,-6.083859444,1.080481887,10.71030617,5.414543152,-10.31100178,-7.509980679
2.3915710000001127,-3.52999711,16.03959274,-125.1836777,0.824162006,-1.531173587,11.70827198,0.364003927,-13.27956009,-1.722672462
2.3999040000003333,-3.539068222,15.98692226,-125.2396622,-6.627689362,-0.201494113,12.93847179,2.166529179,-6.989959717,-7.118004322
2.408237000000099,-3.502868652,15.90355396,-125.2413025,1.583420396,-0.545656204,15.67023087,5.801625252,-11.0582943,-1.091999173
2.41657000000032,-3.460129738,15.83626842,-125.2956696,-8.073204041,-1.582682729,10.45146942,8.327959061,-8.882929802,-7.046286106
2.4249030000000857,-3.426017046,15.71564865,-125.2833099,1.705761671,1.346533775,9.842925072,5.104073524,-15.73860836,0.266644239
2.4332360000003064,-3.432606936,15.66529179,-125.3410492,-7.711954117,-2.623827696,10.83408165,2.48611784,-6.722135544,-7.306984901
2.4415690000000723,-3.425592422,15.61791897,-125.3457489,0.410709321,0.192485899,14.03323364,2.408967733,-6.845981121,-1.174784064
2.449902000000293,-3.427188873,15.58823395,-125.3849564,-6.441340446,-2.175065517,10.49649048,2.476691484,-4.382403374,-5.022349358
2.458235000000059,-3.419595718,15.51743031,-125.4152222,-0.79492873,0.06919308,15.17122269,3.289611101,-9.372722626,-4.290577412
2.4665680000002794,-3.407547235,15.43861294,-125.4358139,-5.481308937,-0.87006259,11.95304298,3.520907164,-10.50382233,-3.232836485
2.4749010000000453,-3.420075178,15.39330006,-125.4963684,0.152473167,-0.324503958,11.99555969,1.842150092,-6.215716362,-7.60615921
2.483234000000266,-3.456417799,15.3987999,-125.5018692,-6.724284649,-0.566250384,9.77904892,-2.780873299,-0.409277022,-0.884113729
2.491567000000032,-3.492008686,15.40710926,-125.5708313,-0.591626465,-2.288090467,13.15218163,-0.659476936,0.273816168,-8.192905426
2.4999000000002525,-3.50673914,15.42001247,-125.5546188,-7.721997261,-0.113521434,11.77059078,-0.880886316,0.319870532,1.678372741
2.5082330000000184,-3.543703556,15.41185951,-125.6047211,-0.664473295,-2.274530649,11.03791332,-1.432437658,-1.736529827,-6.132521152
2.516566000000239,-3.579021454,15.47556591,-125.5847626,-5.686729908,0.581538081,8.887142181,-3.461238861,6.282224178,2.486860514
2.524899000000005,-3.676405191,15.53209305,-125.639061,0.498262823,-0.191879287,11.7801199,-8.530168533,5.963429928,-6.129602432
2.5332320000002255,-3.759084702,15.61644077,-125.6187363,-5.274912357,-2.064559698,12.61096764,-9.169653893,8.825411797,2.71551919
2.541565000000446,-3.82394886,15.6592741,-125.6900406,-1.071048737,1.083925843,13.70847702,-4.062635899,4.469223499,-8.173516273
2.549898000000212,-3.875255108,15.71802425,-125.6867523,-5.379284859,-2.710272074,7.315351009,-4.85613966,5.88241291,0.562872887
2.5582310000004327,-3.920593023,15.78992558,-125.7733459,-1.568270445,-0.140702784,10.3797636,-1.212924004,8.159057617,-9.678559303
2.5665640000001986,-3.947574854,15.84891796,-125.7722626,-3.402071238,1.132952213,8.951798439,-1.859247565,5.850880623,0.31956321
2.574897000000419,-4.018929005,15.89223194,-125.8597031,0.715270936,1.536470532,9.465934753,-4.278768539,4.681821346,-9.998557091
2.583230000000185,-4.087403297,15.95432186,-125.8575897,-4.753505707,-2.071173191,9.649800301,-6.879894257,6.281097412,0.480062038
2.5915630000004057,-4.152582645,16.0746212,-125.9459,-3.132804394,-1.670966625,11.55996037,-3.484138966,13.92666912,-9.412734985
2.5998960000001716,-4.141843796,16.15459442,-125.94133,-3.874853849,-1.854247451,12.49833965,2.544313431,8.396961212,0.929719925
2.6082290000003923,-4.103702545,16.17442513,-126.0230408,-1.879662514,0.11567051,12.15617847,8.716474533,1.909669638,-9.51116848
2.616562000000158,-4.044266701,16.20860863,-126.0149002,-2.206898928,1.143748283,6.647361755,8.274832726,2.821202993,0.935688019
2.624895000000379,-4.017252445,16.22469902,-126.0878067,-2.07879591,-1.624764681,5.746179104,7.100138187,1.312294245,-8.53452301
2.6332280000001447,-3.973945856,16.27818298,-126.0779343,-3.18423605,1.274474382,10.5200243,6.272721291,5.180991173,1.292519808
2.6415610000003653,-3.96954298,16.27601624,-126.1452332,-2.5995121,-1.379427552,10.33200932,4.206857204,-0.926070035,-8.043755531
2.649894000000131,-3.953823566,16.31531906,-126.1324234,-1.49731648,-0.680108607,8.1521101,2.862519026,3.455872774,1.50734663
2.658227000000352,-3.944916248,16.31098557,-126.1832962,-2.6280725,-1.294072866,11.27141953,4.192512512,-1.262615204,-6.169021606
2.6665600000001177,-3.894776344,16.35048294,-126.1798477,-3.154781103,-1.911569238,11.76772881,7.314658165,3.497291565,0.429653257
2.6748930000003384,-3.849922895,16.36814499,-126.230545,-5.337638378,-2.054191589,11.21989632,8.512047768,1.303662181,-5.972305298
2.6832260000001042,-3.785604239,16.40111923,-126.2289734,0.43109867,0.574660718,8.978539467,9.073563576,2.784293413,0.155094236
2.691559000000325,-3.705924034,16.35399628,-126.2549973,-3.517741442,0.650505304,9.75532341,11.85739613,-6.650469303,-3.649325371
2.6998920000000908,-3.640215874,16.38106155,-126.2636032,-1.311325312,-0.401105732,5.341196537,9.5867939,2.150750637,-1.071123242
2.7082250000003114,-3.59809804,16.42266464,-126.298584,-5.826816082,-1.284082174,6.747675896,7.649359226,4.079912663,-3.992197037
2.7165580000000773,-3.560548782,16.42352676,-126.3257141,-0.051761121,-1.280514717,13.68966103,6.841639519,-0.906013906,-3.401608944
2.724891000000298,-3.515210152,16.41264343,-126.3555908,-5.944021225,-1.196942329,9.264445305,7.868155956,-2.295484066,-3.803215027
2.733224000000064,-3.496405602,16.4794445,-126.3892517,-0.245408654,-0.009346571,4.995756149,4.809072971,7.080749035,-3.666127205
2.7415570000002845,-3.470635891,16.500597,-126.4188232,-3.872597694,-1.020627022,10.57131481,5.515282631,1.535675764,-3.535238028
2.7498900000000503,-3.463377953,16.54688835,-126.4740295,0.686985135,-0.817476928,10.67015648,4.16459322,4.768166542,-6.292123795
2.758223000000271,-3.439842701,16.5755825,-126.500267,-4.953902721,-1.915283799,5.996018887,5.13209343,2.456276655,-3.09523654
2.766556000000037,-3.446904182,16.63652802,-126.5876694,-2.387114048,-0.448242605,8.613321304,3.564144373,6.701094151,-9.885596275
2.7748890000002575,-3.455559969,16.69225121,-126.6121216,-4.916228294,-3.696825504,9.385163307,1.217956901,5.638922691,-2.695808649
2.7832220000000234,-3.45242691,16.69517517,-126.6948624,0.283514649,0.819541574,13.52620888,4.639276505,-0.24170877,-9.761060715
2.791555000000244,-3.453082323,16.74830437,-126.7014999,-5.189980507,-1.370966077,5.140859604,1.56502986,5.205914497,-0.669184685
2.79988800000001,-3.491960287,16.85116959,-126.8022156,-1.290941,-2.208656788,8.427166939,0.238980845,11.85683155,-11.09192562
2.8082210000002306,-3.492545128,16.83723831,-126.800209,-1.588053584,2.120203733,12.20222473,1.27295053,-2.851209879,-0.159384593
2.816554000000451,-3.534656048,16.92894173,-126.9054794,-2.468937874,-2.37285161,2.340373516,0.030865161,10.52156162,-11.68407726
2.824887000000217,-3.541829109,17.01761055,-126.9161987,-2.206093073,0.600591004,7.782747269,0.929976046,9.490765572,-0.863443136
2.8332200000004377,-3.594618082,17.03077888,-127.0179443,-1.722134471,-1.07879746,12.60087013,-1.349268436,1.13253355,-11.84032249
2.8415530000002036,-3.605159521,17.0953064,-127.0364761,-3.258562803,-1.537855268,4.513131142,0.801674306,6.657626152,-1.927278996
2.8498860000004242,-3.635807514,17.15831566,-127.1478806,-3.540720701,-0.226897776,5.234165192,1.671533823,7.183153629,-12.56259251
2.85821900000019,-3.667872667,17.18699265,-127.1752167,-1.995606184,-0.962370276,8.126803398,-1.467862248,2.460119247,-3.197258472
2.8665520000004108,-3.687670946,17.2047863,-127.2775269,-2.016820431,-0.689121485,8.913108826,2.669105768,1.678014278,-11.86160755
2.8748850000001767,-3.691405773,17.24487114,-127.3059158,-3.944413662,-0.778050125,6.499251842,1.974781036,3.805634975,-3.228046894
2.8832180000003973,-3.725674868,17.28012848,-127.4113922,-0.942704439,-1.770333052,11.56119156,1.054000378,3.829457045,-12.07628059
2.891551000000163,-3.702471495,17.24680901,-127.4451981,-2.541902304,0.597891212,9.384217262,5.404322147,-4.943380833,-4.417546272
2.899884000000384,-3.744940758,17.31997299,-127.5560074,-3.753238201,-1.213148475,-0.176048025,0.26690039,8.410717964,-12.38885212
2.9082170000001497,-3.744421959,17.3241291,-127.5944214,-0.090330951,-0.084416248,16.0109787,2.847970247,-0.394010991,-4.648509979
2.9165500000003703,-3.737060785,17.31232643,-127.6783905,-3.498250723,-0.544194698,5.389121056,5.296921253,-1.989624262,-9.98162365
2.9248830000001362,-3.748997927,17.42686462,-127.7258759,-2.302487373,-1.370053291,7.00575161,1.684623122,12.86685276,-4.823328495
2.933216000000357,-3.750277996,17.33413887,-127.811203,-1.314243317,-0.546356678,11.82434273,4.316717148,-11.64281273,-10.76575565
2.9415490000001228,-3.776882172,17.42655563,-127.8612213,-3.078588009,-0.8436445,0.410669893,0.015214857,10.23877907,-5.280003548
2.9498820000003434,-3.788933039,17.43070412,-127.9454269,-1.22046268,-1.351434827,14.49525261,2.994048357,-0.0487567,-9.876657486
2.9582150000001093,-3.807559967,17.38477707,-127.9927979,-1.70015049,-0.145842046,3.45981288,0.878286481,-6.320837498,-6.069561958
2.96654800000033,-3.839714289,17.45533752,-128.0698853,-5.013950825,-1.099092245,6.27981472,0.325454503,7.832654476,-8.532294273
2.974881000000096,-3.876003504,17.41482353,-128.1319733,1.094244123,-1.798345208,11.99860764,-0.707580507,-5.576488495,-7.710769653
2.9832140000003164,-3.901976109,17.4291153,-128.1982117,-5.830931664,-0.058093473,1.038886666,0.677496612,1.041654229,-7.738509655
2.9915470000000823,-3.969402075,17.49287033,-128.2749634,-0.674178302,-1.313877702,8.990011215,-3.913893938,7.032388687,-8.530679703
2.999880000000303,-4.000580788,17.48008919,-128.3366547,-3.677633286,-0.129975036,7.582381248,-0.102469757,-2.222483397,-7.440692902
3.008213000000069,-4.054686069,17.5999279,-128.4211426,-2.701436043,-1.793282628,1.458177209,-2.023870945,13.83986092,-8.925756454
3.0165460000002895,-4.103478909,17.6029892,-128.4879913,-1.411528707,0.529313087,12.57026672,-2.015213251,-0.294013053,-7.889889717
3.0248790000000554,-4.149989605,17.72616386,-128.5671692,-4.097333908,-2.826266289,-0.410004735,-1.283055902,14.19103336,-8.25855732
3.033212000000276,-4.191046715,17.7935009,-128.641922,-0.994402647,1.415098906,13.07432556,-0.779607773,7.494341373,-8.222311974
3.041545000000042,-4.25036478,17.91265297,-128.7306976,-4.100836277,-3.657282114,0.180271298,-2.43748951,13.80225849,-9.352361679
3.0498780000002625,-4.315284252,18.01973915,-128.8122253,-2.035685062,1.020698071,10.5572691,-3.358756781,12.32462502,-8.608754158
3.0582110000000284,-4.373464108,18.13737297,-128.9121246,-2.440225363,-2.090179682,3.15630722,-1.847030044,13.75103092,-10.58538055
3.066544000000249,-4.369837284,18.31243706,-128.999588,-2.925431252,0.988416612,2.061711073,5.131916523,20.50282097,-8.627813339
3.074877000000015,-4.411178112,18.46808052,-129.0949707,-0.895750582,0.05327972,5.714701176,0.064829648,18.25004578,-9.692263603
3.0832100000002356,-4.443509579,18.64713669,-129.207901,-4.090197563,-2.700737715,6.568966389,1.846454144,21.22693634,-11.43726063
3.0915430000000015,-4.463171005,18.81133461,-129.3085785,-1.630230308,0.184563547,3.580859423,2.934880018,19.32925034,-10.16966248
3.099876000000222,-4.506024361,19.05793381,-129.4186096,-1.720690608,0.541865468,1.902621508,0.557033241,29.28880501,-10.42685986
3.1082090000004428,-4.542884827,19.23125648,-129.5317535,-2.155323505,-3.280674458,7.171670437,1.44497633,20.55732727,-11.43439102
3.1165420000002086,-4.564050674,19.4573307,-129.6287842,-3.111284733,0.292542338,0.501090109,2.731580496,26.71077156,-9.090843201
3.1248750000004293,-4.617874622,19.69943047,-129.7507324,-0.941341102,-0.964555383,3.305083752,-0.140609473,28.85860825,-11.70975018
3.133208000000195,-4.678305149,19.89284134,-129.8605194,-2.0686481,-0.92705524,6.202883244,-1.375318766,22.94834518,-10.76383781
3.141541000000416,-4.711297512,20.19067192,-129.9598694,-3.214254618,-0.449849337,0.115065478,1.540928364,35.33300781,-8.528435707
3.1498740000001817,-4.750812531,20.33957481,-130.0755463,1.501475811,-0.736529291,12.40445614,1.481450915,17.6919117,-11.79306602
3.1582070000004023,-4.789354324,20.6186142,-130.1772003,-5.599094391,-1.18640101,-5.860521793,1.058355689,33.12712479,-8.895102501
3.166540000000168,-4.822465897,20.8228817,-130.2859344,3.131443501,-1.154181004,6.853126526,2.058284283,24.24539948,-10.39878368
3.174873000000389,-4.895106792,21.00075722,-130.3947449,-6.737728119,-0.482222795,-3.777456522,-2.641994476,21.09853363,-10.63763428
3.1832060000001547,-4.951259613,21.25143242,-130.483551,4.432757378,-1.490874052,10.45693207,-1.483334303,29.63110924,-7.610827923
3.1915390000003754,-5.0531497,21.40401077,-130.5960388,-7.984723091,-0.941603899,-6.853509426,-5.903302193,18.13401413,-11.22161388
3.1998720000001413,-5.127583027,21.62770271,-130.6890259,4.913140774,-1.675541997,14.45172691,-3.425714493,26.46597862,-8.247674942
3.208205000000362,-5.171085835,21.83045959,-130.7957306,-6.967758179,-0.734441876,-2.541823864,0.936328769,24.10869217,-9.95327282
3.216538000000128,-5.257742882,21.95543098,-130.8800354,2.685708284,0.037135102,-1.435775757,-5.212535858,14.58428669,-8.277100563
3.2248710000003484,-5.356198788,22.13864517,-130.9776001,-3.356457949,-1.182976007,0.449014515,-6.005681992,21.69173241,-9.062562943
3.2332040000001143,-5.473310471,22.32971954,-131.07164,-1.419292092,-0.899521768,7.527854443,-8.367470741,22.61840439,-8.524485588
3.241537000000335,-5.52897644,22.37891769,-131.1338348,-0.368412137,-1.015090585,0.248520926,-2.426680088,5.333960056,-6.595140457
3.249870000000101,-5.64319706,22.60693932,-131.2508545,-2.170415163,-1.282679081,-1.311876297,-6.919344902,27.30236244,-10.54022694
3.2582030000003215,-5.736555576,22.69839287,-131.3073578,-0.33808589,-1.084062696,7.475965023,-7.176327705,10.34492397,-5.427567005
3.2665360000000874,-5.832582951,22.79849243,-131.4072876,-2.990886211,-0.734354675,-2.329681873,-5.472418308,11.8608532,-10.08269978
3.274869000000308,-5.929327011,22.89625168,-131.4658966,1.392843127,-0.388449699,0.596633613,-7.463130951,11.12902737,-5.539091587
3.283202000000074,-6.066939354,23.02980232,-131.5573273,-3.339903831,-0.778799355,2.766350508,-10.81890488,15.79899311,-8.660058975
3.2915350000002945,-6.191060543,23.13434219,-131.6174774,-0.829604685,-1.161976576,3.187971115,-10.65043831,11.97816658,-5.553410053
3.2998680000000604,-6.280184269,23.17723274,-131.7037048,-1.725236058,-1.792609334,2.577465534,-5.210614681,4.95456171,-9.186993599
3.308201000000281,-6.323713779,23.24706078,-131.7450562,0.337111294,1.360864878,-1.420840621,-1.849514246,7.634271622,-3.90595293
3.316534000000047,-6.473005772,23.36734009,-131.8523712,-3.317639351,-1.114387393,0.0545194,-11.40672779,14.45675659,-10.4334631
3.3248670000002676,-6.593304634,23.43223763,-131.8819427,-0.038289722,-1.178090572,5.254879951,-11.61261368,6.903754711,-2.64176321
3.3332000000000335,-6.645973682,23.45087814,-131.9582977,-3.168139458,-0.805031598,2.526098251,-1.258337736,1.993530273,-8.383296967
3.341533000000254,-6.685996532,23.5097599,-131.9836884,1.05631721,0.123707771,0.428042144,-2.175762653,6.138579369,-2.244229317
3.34986600000002,-6.794528961,23.56463814,-132.0613251,-3.418748617,-1.137135267,2.064672232,-7.884562016,6.345440388,-8.001772881
3.3581990000002406,-6.864659786,23.55885887,-132.0482178,-0.557250261,-0.637976289,3.263199806,-7.628752708,-2.057604551,1.06212008
3.3665320000000065,-6.936346531,23.60302353,-132.1480103,-1.321537733,-0.346487015,4.141060829,-2.396430016,5.375916958,-10.55254173
3.374865000000227,-6.970693588,23.63100243,-132.1039429,-1.283116102,-1.284304023,4.409203053,-4.826477051,1.541823268,4.926411152
3.383198000000448,-7.017327309,23.57310295,-132.2135315,-1.686175704,0.416618317,1.846096873,1.085582614,-6.626416206,-13.09692955
3.3915310000002137,-7.021558762,23.66040611,-132.1689148,-1.09482944,-1.36718905,2.587548256,-1.238358855,8.595241547,5.860153198
3.3998640000004343,-7.090769768,23.58580399,-132.2818451,-2.906091452,-0.333194822,2.38657856,-1.458922982,-8.559447289,-13.70972729
3.4081970000002,-7.073591709,23.62773323,-132.2151794,1.301030636,0.040338058,3.210453033,0.274200439,2.889747143,7.605892181
3.416530000000421,-7.143601894,23.63462448,-132.3300629,-6.402394772,-1.437201142,1.282791615,-1.459845304,1.179330945,-12.72258186
3.4248630000001867,-7.108792782,23.60913658,-132.2736816,3.006440401,-0.489437371,6.222654343,2.880551577,-5.008006096,5.481113911
3.4331960000004074,-7.130335331,23.68600464,-132.351181,-5.652004242,-0.99073559,3.63711834,2.560885906,9.007964134,-7.599244595
3.4415290000001733,-7.085517406,23.64217949,-132.3209991,0.491951883,0.10997808,1.996107221,5.339441299,-6.833634377,2.350336552
3.449862000000394,-7.079566479,23.72197533,-132.3579254,-3.339118481,-1.697101951,3.474889994,3.911601543,8.803972244,-3.136758327
3.45819500000016,-7.056643963,23.75079727,-132.3798523,-0.798144341,0.356652737,5.281508923,5.229428768,2.528586388,-2.256831884
3.4665280000003804,-6.997713089,23.772089,-132.358078,-2.060571909,-1.243662834,1.142088413,7.43409729,1.038990378,2.394675255
3.4748610000001463,-7.013416767,23.86846161,-132.4360657,-2.048472643,-0.374048978,1.539571166,3.309488297,11.31821728,-7.37635088
3.483194000000367,-6.952616215,23.89226913,-132.3813629,-1.44334507,-1.084280014,7.106222153,6.055435658,0.906718373,6.016066551
3.491527000000133,-6.954030514,23.96183968,-132.4681396,-2.202292442,-0.313548803,0.907948077,5.468869686,8.234721184,-8.729831696
3.4998600000003535,-6.897289753,24.06137657,-132.4004669,-1.8330369,-2.404781818,3.594703197,4.921930313,9.763303757,8.513098717
3.5081930000001194,-6.896470547,24.10763741,-132.4850464,-2.42984128,0.180151418,3.305886269,5.655521393,5.42220068,-8.820223808
3.51652600000034,-6.863543987,24.22147369,-132.4177551,-0.014138462,-1.704160571,7.476110935,2.060563087,11.47551155,8.66017437
3.524859000000106,-6.843614578,24.31787872,-132.4861755,-4.448877811,-0.937588096,-0.910163641,7.182513237,11.17554188,-6.343788624
3.5331920000003265,-6.852586746,24.41327095,-132.447525,0.479958504,-0.74646163,3.415678978,-1.57421279,9.66266346,5.269694328
3.5415250000000924,-6.863425255,24.53111458,-132.4865875,-2.992549896,-2.32013464,7.426594734,2.055901289,13.34458256,-2.837225199
3.549858000000313,-6.881590366,24.65186691,-132.4679565,-2.449025631,0.862003505,-1.339328289,-1.69229424,12.94274616,3.461046934
3.558191000000079,-6.920880318,24.71937752,-132.491745,-0.519405484,-2.533884287,8.193136215,-2.104529858,7.150317669,-1.89129138
3.5665240000002996,-6.956865788,24.93011665,-132.506958,-2.940767527,-0.596826911,2.414319515,-2.136958122,24.09949684,1.11819005
3.5748570000000655,-6.98606205,24.89540482,-132.513916,1.692932129,-1.503379107,4.498274326,-1.737375021,-5.246883869,-1.5486238
3.583190000000286,-7.039371014,25.18457222,-132.5553131,-5.341214657,0.431600302,-1.305593729,-2.877544403,33.79089737,-0.520135999
3.591523000000052,-7.071626663,25.08632469,-132.5422668,0.288032472,-2.019333601,13.21397686,-3.121185064,-13.07979488,-0.331358612
3.5998560000002726,-7.104453087,25.37517166,-132.59198,-2.613809109,1.29740262,0.667134345,0.018928939,33.86279297,-1.366738558
3.6081890000000385,-7.174174786,25.26102448,-132.5538177,-0.582117915,-2.99993968,-1.708785772,-8.909721375,-15.30644417,2.117145061
3.616522000000259,-7.258296013,25.54036522,-132.6409302,-2.150108814,-0.579042435,8.939489365,-4.195987225,33.23780823,-5.447064877
3.624855000000025,-7.220882893,25.46551132,-132.5621033,-1.20718956,0.522242367,12.6713829,1.832621694,-11.19007874,7.045836449
3.6331880000002457,-7.289596081,25.68099594,-132.6763916,-1.9419384,-1.373749614,-2.813642979,-0.911060393,26.0117588,-9.298369408
3.6415210000000116,-7.306188583,25.60988235,-132.5728607,-0.770755112,-1.629244089,-1.022948861,-5.952736378,-11.09218216,9.734179497
3.649854000000232,-7.412938595,25.76829338,-132.6909637,-3.497335672,-0.401435882,10.80030346,-5.250651836,19.28763008,-10.52157688
3.658186999999998,-7.343221664,25.73002243,-132.6092377,-0.144623667,-0.598043799,10.11425686,5.521968842,-6.890653133,7.884395599
3.6665200000002187,-7.380143166,25.81744766,-132.6920319,-2.04525423,-0.576351464,-1.869771838,1.303534269,10.34607792,-7.82032156
3.6748530000004394,-7.406050205,25.82229424,-132.6475677,-2.058834553,0.253347933,1.039232373,-4.018297195,-1.243686438,4.544734478
3.6831860000002052,-7.455417156,25.87784386,-132.7187958,-1.338409185,-2.807021856,13.14046764,-0.780760407,6.403329372,-7.053611279
3.691519000000426,-7.388976574,25.91690254,-132.7036133,-2.767248869,0.870444536,3.878744364,8.590426445,3.230903149,1.941175222
3.6998520000001918,-7.385362625,25.913517,-132.7589417,0.146686479,-1.726652265,5.1562953,4.752440453,-0.83411485,-6.26569128
3.7081850000004124,-7.378031731,25.97300911,-132.745575,-5.126111031,-0.015608881,-3.80605197,1.595459461,5.694479942,2.057616949
3.7165180000001783,-7.394272327,25.98295784,-132.7783966,1.711251736,-2.56812501,15.42506886,1.190805554,0.434750348,-3.649349213
3.724851000000399,-7.38069725,26.04704285,-132.7757874,-6.251564026,-0.807193935,-3.051175356,2.907113075,6.386473656,0.975774288
3.733184000000165,-7.352732182,26.0854702,-132.7861786,2.959084272,-1.266693711,13.69614792,5.319461346,3.516296387,-0.806476891
3.7415170000003855,-7.362565994,26.14336205,-132.7978363,-7.716282845,0.037981056,-7.537740231,0.850648701,5.846653938,-0.648385882
3.7498500000001513,-7.393086433,26.22322273,-132.8221893,3.358509541,-2.349191427,12.74965382,-0.955808043,8.640912056,-1.659661651
3.758183000000372,-7.434565544,26.2863121,-132.8180389,-6.232851028,-0.654378593,1.81430757,-3.778753042,6.249181747,1.130663633
3.766516000000138,-7.457121372,26.39406967,-132.8487854,1.225442529,-1.380107284,4.733850479,0.345792174,12.04555511,-1.895389199
3.7748490000003585,-7.487399578,26.43681908,-132.8291168,-3.359306097,-2.506141186,4.003202438,-3.269260168,3.608405113,2.473105669
3.7831820000001244,-7.531642914,26.63117599,-132.8860931,-2.523862839,0.519968688,5.034784794,-0.838546455,22.71899223,-3.304224968
3.791515000000345,-7.581033707,26.59909439,-132.8392639,0.904788256,-1.733214498,3.432656765,-7.030633926,-5.68232584,4.183240414
3.799848000000111,-7.694220066,26.88083458,-132.9202423,-6.864767075,-0.455967665,-2.255984306,-7.792895794,33.46357727,-4.398135185
3.8081810000003316,-7.761650562,26.80824089,-132.8618927,3.066817999,-0.982290566,15.45131683,-9.835521698,-10.67546558,4.731231689
3.8165140000000974,-7.839059353,27.14169884,-132.9529724,-5.796975136,-1.477805495,2.077161074,-2.91665864,39.76436234,-4.50978899
3.824847000000318,-7.90391016,27.07924843,-132.903656,2.463322639,-1.219967723,-2.830588341,-9.064533234,-9.349697113,3.899947643
3.833180000000084,-7.99338007,27.34470177,-132.9689941,-5.044045448,-0.250623703,10.13719845,-5.733765125,31.30987167,-2.789380312
3.8415130000003046,-8.014986038,27.32291985,-132.927124,1.196810484,0.327158064,11.66269207,-3.484880924,-4.414498329,3.764473438
3.8498460000000705,-8.101774216,27.49806404,-132.9848938,-2.35073185,-1.425291181,-0.488056093,-5.807044506,20.47164917,-3.436266661
3.858179000000291,-8.181119919,27.45514107,-132.9325104,0.022908993,-2.348457336,-1.647468209,-11.00232887,-7.091930866,4.502163887
3.866512000000057,-8.263273239,27.57002068,-133.0053864,-4.368850708,-0.391112596,15.28040409,-4.405943871,13.54970169,-5.995281219
3.8748450000002777,-8.241286278,27.47057915,-132.9490662,3.098916531,0.470488608,7.606545925,0.930078506,-13.87375927,3.92794323
3.8831780000000435,-8.309034348,27.55478859,-132.9812622,-4.452419281,-2.214000225,0.739145398,-4.927756786,9.29374218,-2.228041649
3.891511000000264,-8.359211922,27.3885498,-132.9542084,0.56345284,0.348054111,5.089076519,-6.104092598,-21.35942459,-0.332716227
3.89984400000003,-8.366270065,27.40471268,-132.9571533,-3.460509539,-1.191742301,9.621081352,0.729954481,0.761690557,-0.319191813
3.9081770000002507,-8.332665443,27.19878578,-132.9171448,1.113958001,-0.328238964,10.72778893,3.249987841,-26.26930046,0.343563974
3.9165100000000166,-8.342453957,27.12507248,-132.9187622,-5.185064316,-1.268520832,-0.69152981,0.328374505,-9.930830956,-1.744342208
3.9248430000002372,-8.317640305,27.00906754,-132.8921967,1.783707857,-0.058692936,15.92747402,2.941078186,-15.39009857,0.501347542
3.933176000000003,-8.21869278,26.76968575,-132.8449097,-3.39576292,-0.297315657,8.163078308,10.72645664,-30.35897827,0.588180184
3.9415090000002238,-8.203520775,26.64891434,-132.8398895,-1.463674426,-1.914871812,2.6889081,2.965181112,-15.62577438,-1.827768087
3.9498420000004444,-8.134364128,26.48156548,-132.8046875,-4.485183239,-0.421217263,3.286895514,7.824282169,-21.61321259,0.597606003
3.9581750000002103,-8.075805664,26.32422638,-132.7987213,0.059191555,-0.247156814,11.42498589,8.125786781,-19.98332405,-2.316001415
3.966508000000431,-8.012294769,26.14558411,-132.766449,-4.16372633,-2.390688896,8.8648386,7.3259058,-22.91800117,0.147153854
3.974841000000197,-7.95075798,25.9707737,-132.753952,-1.109373808,-0.145963609,7.386442184,8.140617371,-22.16530037,-1.86957109
3.9831740000004174,-7.882628441,25.84865379,-132.7338562,-2.885838985,-0.802091956,9.039904594,8.536817551,-16.01347351,-0.157719702
3.9915070000001833,-7.764667511,25.71410942,-132.7176208,-2.213507891,-0.838441014,8.683995247,14.72342777,-17.4375782,-0.753558278
3.999840000000404,-7.712605953,25.60076332,-132.689209,-2.655738592,-0.707832515,11.08393955,6.189117432,-15.09143639,0.923495829
4.00817300000017,-7.690928936,25.48367119,-132.7185364,-3.652956009,-2.64521265,5.716226101,5.534442902,-14.69761753,-5.318425655
4.0165060000003905,-7.583798409,25.41097641,-132.6743164,-3.756500244,-0.535879612,9.816178322,11.99002457,-10.48835278,3.29947257
4.024839000000156,-7.517610073,25.37107849,-132.7013092,-2.273729086,-1.076916337,3.970122814,10.74781036,-5.566063404,-3.822937489
4.033172000000377,-7.434193134,25.30989456,-132.6805878,-2.335460663,-0.580612183,10.56688595,10.36070251,-8.771327019,0.984560013
4.041505000000143,-7.40379858,25.27591896,-132.6886749,-1.707381845,-1.533238888,10.97414875,5.477502823,-5.132594585,-1.688196063
4.0498380000003635,-7.31435585,25.20554543,-132.6728363,-4.091964722,-1.161811709,7.863924026,11.33801651,-9.796154976,0.335572183
4.058171000000129,-7.272171497,25.20213318,-132.6841583,-0.645487905,-1.090272903,6.405808449,7.058412075,-1.449650407,-1.562352896
4.06650400000035,-7.228318214,25.21055984,-132.66745,-3.09634757,-0.901558459,4.624927044,5.822679043,-0.430024594,1.638824344
4.074837000000116,-7.232142448,25.16461945,-132.669342,-0.747155726,-0.874499023,16.43505859,1.053052425,-6.647290707,-1.190050125
4.083170000000337,-7.224671841,25.19659805,-132.6609497,-5.718028545,-4.199380875,6.652407169,1.884080648,2.492956638,1.096468568
4.0915030000001025,-7.19378233,25.19947052,-132.6809235,-1.934433937,0.273474693,4.3988657,6.141551018,-0.590907633,-2.399554491
4.099836000000323,-7.226955891,25.26963043,-132.6862793,-1.699596643,-1.428179979,4.828399658,-2.292102575,7.227645874,0.190313771
4.108169000000089,-7.260509968,25.24812889,-132.6873016,-3.264186382,-2.226402044,12.7189579,-2.558798313,-3.745531559,-0.724024832
4.11650200000031,-7.330674648,25.25913048,-132.7085266,-1.65939486,-1.872753978,9.264105797,-5.918591022,0.397865891,-2.410619736
4.1248350000000755,-7.356113911,25.26682091,-132.717865,-3.709915161,-0.162326619,3.28681016,-1.159056902,-0.158718601,-1.178241849
4.133168000000296,-7.414203644,25.29126167,-132.725174,1.173487067,-1.256996751,12.5317812,-5.181593418,1.811515331,-0.699050903
4.141501000000062,-7.454582214,25.23021698,-132.7236023,-3.380417824,-1.490931511,8.947826385,-3.511238098,-8.48887825,-1.070098877
4.149834000000283,-7.533790112,25.17868423,-132.7239838,-0.017847579,-1.14037466,12.36909771,-8.070391655,-7.325248241,-1.136593223
4.158167000000049,-7.56882143,25.09877014,-132.7284088,-3.600742102,-1.315232515,2.004559994,-2.562409878,-10.64272785,-2.028020144
4.166500000000269,-7.617021084,25.00798035,-132.7354889,-0.402184278,0.769063711,10.98031235,-4.009051323,-11.90292454,-2.494942427
4.174833000000035,-7.635378838,24.91638947,-132.7399445,-4.177556038,-1.61209476,8.618298531,-0.563423514,-12.03283787,-2.229706287
4.183166000000256,-7.679872513,24.77620506,-132.7676086,-0.468469381,-1.66331768,12.66764736,-2.529009581,-17.47010231,-5.519677162
4.191499000000022,-7.744029522,24.66278839,-132.8036957,-5.138056755,-2.319574118,6.636609077,-4.47423172,-14.16435432,-6.01464653
4.199832000000242,-7.76388979,24.50882149,-132.8085632,-0.854132473,0.092843883,15.70427513,-0.725997329,-19.43287277,-3.308066607
4.208165000000008,-7.771342278,24.42675972,-132.8392792,-4.731107235,-1.880451798,1.782796979,2.046346903,-10.50051785,-4.944097996
4.216498000000229,-7.775921345,24.28324509,-132.8515778,-0.954115868,-0.141479462,8.302893639,1.474381208,-18.08551025,-3.952750921
4.224831000000449,-7.812093735,24.22313118,-132.8639374,-3.936320066,-1.761385679,10.03094578,-2.316564083,-8.168725014,-2.61018014
4.233164000000215,-7.769906521,24.06427574,-132.8635254,-1.654185057,-1.12353456,14.95876122,6.457504749,-20.09164619,-2.827697277
4.241497000000436,-7.795933723,23.97229195,-132.8666992,-3.487312794,-2.350536108,6.162499428,-1.552542925,-12.09420967,-2.131296635
4.249830000000202,-7.824875832,23.86677551,-132.8714142,-2.930825472,-0.659561813,4.200127125,-1.82638514,-13.67217827,-2.525064945
4.2581630000004225,-7.84549284,23.78645897,-132.8768768,-2.056509972,-1.162539124,11.92633438,-0.793311298,-10.66508961,-2.197253466
4.266496000000188,-7.820352554,23.77501106,-132.8782349,-4.339459896,-1.016492963,6.169929504,4.497142315,-2.544018507,-0.625922143
4.274829000000409,-7.831204891,23.68694496,-132.884079,-0.459733963,-0.022481237,9.756066322,0.393562764,-11.5866394,-2.364386082
4.283162000000175,-7.885840893,23.65147209,-132.8810425,-3.667584896,-2.226056099,10.91225433,-5.286739826,-5.461737156,-0.543290734
4.2914950000003955,-7.868050098,23.61069298,-132.8833771,-2.756072044,-0.733739138,10.38454533,3.661990643,-6.016310215,-1.217431784
4.299828000000161,-7.894929409,23.58396912,-132.8946991,-2.29289484,0.247611359,4.554977894,-1.268019915,-4.203923702,-1.962806225
4.308161000000382,-7.94485569,23.60257912,-132.9139709,-1.499231577,-1.722123981,7.958309174,-3.650272131,1.303687692,-2.079786539
4.316494000000148,-7.95792675,23.53536415,-132.9011841,-2.849451542,-1.042982459,14.55275249,-0.766621351,-9.387476921,-0.013178525
4.324827000000369,-8.007424355,23.52087593,-132.9331055,-2.53249383,-2.158233404,11.69083309,-2.99593091,-2.437873602,-4.012201309
4.3331600000001345,-7.983306885,23.47306252,-132.9317169,-3.264293194,-0.254290611,1.450762033,4.240795135,-6.901998997,-0.934804261
4.341493000000355,-8.016411781,23.45938301,-132.9428406,-2.023886204,-0.171531275,8.031526566,-2.025688887,-2.658078432,-1.733404756
4.349826000000121,-8.019415855,23.44340324,-132.9422913,-2.496740103,-2.22213912,11.32526112,1.028872609,-3.10806942,-0.495289624
4.358159000000342,-8.013480186,23.3500061,-132.9578857,-2.920421839,-0.169989824,11.17209625,2.868180037,-12.05814648,-3.555602312
4.3664920000001075,-8.050332069,23.36371422,-132.9537201,-2.635676146,-2.466703653,8.932319641,-3.205506325,0.360750943,0.394408017
4.374825000000328,-8.028788567,23.27761841,-132.9644623,-3.356968164,0.478709817,8.773405075,4.510769844,-11.26863956,-2.907203197
4.383158000000094,-8.026489258,23.28196526,-132.9680176,-1.25971961,-1.385108709,8.949270248,1.860566854,-0.626332045,-0.607838631
4.391491000000315,-7.999447823,23.16681099,-132.9698792,-3.144664764,-1.622985601,7.651429176,4.74754858,-14.8590374,-2.420814514
4.399824000000081,-7.98291111,23.10263443,-132.9436951,0.784753978,0.36613059,13.56987286,2.163763046,-9.226902962,1.501224995
4.408157000000301,-7.969323158,22.94826698,-132.9468384,-5.866704464,-2.669996023,8.219187737,3.192738771,-19.49660301,-3.199590445
4.416490000000067,-7.945180893,22.85640526,-132.9071045,0.484335244,-0.4045614,15.26249695,2.456994295,-12.72959614,2.531301022
4.424823000000288,-7.933805943,22.70238876,-132.8990479,-5.392278194,-1.371140242,3.43088913,2.404998064,-19.63271523,-1.958785176
4.433156000000054,-7.909774303,22.61490059,-132.8636627,0.178657368,-0.525606096,18.52536774,2.659782648,-12.13429737,2.141350269
4.441489000000274,-7.819273949,22.40977669,-132.8289948,-4.458749294,-1.128458977,5.860239506,10.68360233,-26.11474037,0.14725633
4.44982200000004,-7.789802551,22.33622169,-132.8030548,-2.144066095,-2.414818048,9.972681046,3.765472651,-10.3327713,1.36142242
4.458155000000261,-7.734614849,22.06692696,-132.7541962,-3.751808643,0.004906346,10.71686935,5.822889805,-33.95307159,0.725728869
4.466488000000027,-7.686803341,21.99821663,-132.7365265,-3.744154215,-1.600473642,15.60109711,6.3564291,-9.639879227,0.550193787
4.474821000000247,-7.586304188,21.74531364,-132.6850128,-1.866382122,-0.067364052,13.05712414,11.17265797,-32.04504013,1.361474752
4.483154000000013,-7.54853487,21.65880585,-132.6653748,-3.982183695,-1.703342319,0.713856578,5.07356596,-11.77659416,0.513027549
4.491487000000234,-7.51414156,21.4791069,-132.6417084,-0.920794904,-0.986714244,17.93319893,4.497451305,-22.92816734,-0.498184234
4.49982,-7.440412045,21.3296051,-132.6265564,-4.783043861,-1.101726174,8.882177353,9.599656105,-19.2064724,-0.94556278
4.50815300000022,-7.408788204,21.25481987,-132.624649,-1.788797259,-0.018581826,12.17074966,5.126689911,-10.12611389,-1.240382195
4.516486000000441,-7.357986927,21.0724659,-132.5848236,-5.404928684,-3.475897551,4.638783932,5.786796093,-23.47844124,1.316802859
4.524819000000207,-7.36093235,21.0355072,-132.5997467,-2.580332041,0.672738016,19.02922821,1.704678535,-5.388376713,-2.515945196
4.5331520000004275,-7.313683033,20.8576622,-132.5708466,-3.426136732,-1.063233376,4.054356575,5.846784592,-22.7790184,0.193720534
4.541485000000193,-7.322446346,20.87010002,-132.5818024,-1.317031503,-0.438333362,11.97725677,0.831002653,0.433136731,-1.318300724
4.549818000000414,-7.258761406,20.73692513,-132.542511,-4.166659832,-0.186907068,8.883470535,7.381639957,-17.60908699,2.054825544
4.55815100000018,-7.262124538,20.73665237,-132.5584259,-2.548398733,-0.558541596,10.30894756,1.68828547,-1.007190108,-2.067798853
4.566484000000401,-7.253635406,20.71493912,-132.5309143,-3.647875547,-3.56237793,11.11543179,1.264933467,-4.179000854,2.444366455
4.5748170000001664,-7.227315426,20.68560791,-132.5231476,-2.56383419,0.137258679,10.60802174,4.244253159,-4.80539608,0.131580308
4.583150000000387,-7.255611897,20.72265053,-132.5205688,-4.601699829,-1.862486601,13.42429638,-2.089596272,3.173987865,0.556289971
4.591483000000153,-7.23456049,20.76117706,-132.5218353,-2.211144209,-1.05454874,7.843941212,3.995589733,3.40141654,0.150304332
4.599816000000374,-7.213715553,20.78831291,-132.5125885,-3.331975937,0.206831902,7.734262466,3.522443771,1.900320053,1.147517681
4.6081490000001395,-7.205024719,20.8592453,-132.5145569,-2.725505114,-0.853063405,9.346798897,2.541931629,7.275007725,0.557263374
4.61648200000036,-7.166364193,20.92347527,-132.5124817,-3.501961708,-0.64424628,8.291208267,5.965605736,6.413624763,0.90313226
4.624815000000126,-7.152895927,20.98083878,-132.5204315,-0.176815659,-0.165383622,9.742225647,3.371858358,5.737870216,-0.316118091
4.633148000000347,-7.113196373,21.05591011,-132.526413,-4.504007339,-1.210438848,9.878848076,6.435244083,7.824354649,0.163546905
4.6414810000001125,-7.091985226,21.05376816,-132.5312042,-1.38722229,-1.44732368,14.73066711,4.166488647,-1.393401742,-0.855323434
4.649814000000333,-7.050411224,21.13239288,-132.5499268,-3.709864855,-0.988945544,7.160347462,7.212584972,8.422447205,-1.208543658
4.658147000000099,-6.979072094,21.07614708,-132.5382385,-0.924309552,0.178991258,17.39407921,9.469993591,-8.056201935,0.186343566
4.66648000000032,-6.895183563,21.06071663,-132.5467834,-3.974177122,-2.023726702,5.563336849,11.85127163,-2.925952435,-1.468502522
4.674813000000086,-6.814344406,21.02466202,-132.5349426,-2.934333086,-0.82064116,15.32309246,10.60537148,-5.658889771,0.511260211
4.683146000000306,-6.708227634,20.84525681,-132.5347748,-0.182331428,0.442900687,12.56104946,14.1418848,-22.57892418,-2.806591749
4.691479000000072,-6.564682484,20.78082275,-132.5145111,-4.262294292,-1.179885626,12.8857069,17.77725792,-9.146859169,1.072289109
4.699812000000293,-6.423352242,20.59965324,-132.5290833,-2.311847925,-0.852290511,14.03785133,18.99207115,-22.61399078,-4.377642632
4.708145000000059,-6.264280319,20.41964722,-132.4935303,-2.347635269,-1.310809016,10.00054455,19.00759315,-23.10742569,1.293442845
4.716478000000279,-6.118446827,20.19946098,-132.473053,-2.308026314,0.702382386,11.71808052,18.06289291,-27.72106934,-0.849099815
4.724811000000045,-6.008036613,20.06973648,-132.4671021,-3.496056318,-1.79194355,15.35497379,14.41894913,-16.75559616,-1.269710898
4.733144000000266,-5.87630558,19.8217659,-132.4578857,-1.276969075,-1.851087451,14.67610168,16.84493637,-30.90246391,-2.334547758
4.741477000000032,-5.750379562,19.55814743,-132.4429474,-4.523566246,-1.450145006,12.84069538,15.92198181,-32.8479538,-1.815423727
4.749810000000252,-5.604226112,19.36798477,-132.4463654,-3.803841591,-3.047399759,13.58205509,19.09092331,-23.86679268,-2.933665514
4.758143000000018,-5.404569149,19.14253044,-132.4302826,-3.235868931,-0.345707029,16.94671059,24.73477554,-28.30216217,-1.071944237
4.766476000000239,-5.236744881,18.89091301,-132.4289856,-1.068675876,-1.172765493,12.02791595,21.50506973,-31.28286362,-2.945038557
4.774809000000005,-5.104557037,18.68374443,-132.411972,-2.668678999,-0.840845823,10.98700905,16.62016678,-26.13846016,-0.605687439
4.783142000000225,-4.978215218,18.43194962,-132.4447937,-5.548330307,-0.568084598,13.3562336,17.82983208,-30.96629906,-6.667098045
4.791475000000446,-4.891475201,18.21680069,-132.4441528,-3.610632181,-2.736729383,11.80003548,11.80035877,-26.93375969,-2.440513372
4.799808000000212,-4.773442268,17.94524574,-132.4762878,-2.476453781,-1.857725978,19.42180443,16.77488518,-33.36098099,-6.686693668
4.8081410000004325,-4.601745605,17.65517426,-132.4689026,-1.088684797,1.925645828,15.93565464,21.74695206,-35.958992,-2.294641733
4.816474000000198,-4.507354259,17.47982407,-132.5110474,-6.145035744,-3.032593489,8.249534607,14.26923943,-21.79766464,-6.767400742
4.824807000000419,-4.402525902,17.24034309,-132.5097046,-2.90385294,-2.113958597,14.28348637,13.94701576,-29.86772728,-2.370305061
4.833140000000185,-4.351248264,16.97414398,-132.5286713,-4.668532372,-2.461542368,15.30263233,8.236930847,-32.88147354,-4.899943829
4.841473000000406,-4.214267254,16.714077,-132.5036774,-0.629115999,-2.067114592,21.63712311,16.98363876,-32.54014587,0.241440073
4.8498060000001715,-4.035491467,16.41613197,-132.4999542,-3.899882317,0.734773576,15.60382652,22.74194527,-36.89154053,-2.436468363
4.858139000000392,-3.93930769,16.26283455,-132.4832306,-4.641806602,-2.901681185,2.293623447,12.39099503,-19.68074608,0.351606786
4.866472000000158,-3.896291733,15.910429,-132.4802399,-3.369030714,-0.590432644,21.67290688,6.477593899,-43.41872025,-2.83646059
4.874805000000379,-3.870667934,15.62731075,-132.457489,-3.807133436,-3.105175495,11.86681652,3.74823761,-35.27874374,0.028841661
4.8831380000001445,-3.833440304,15.41623402,-132.4410553,-3.350694418,-0.179893866,14.43827629,5.355760574,-26.59726334,-0.093965881
4.891471000000365,-3.843657732,15.17773914,-132.4361877,-3.910582304,-1.045896173,13.70171356,0.0336059,-29.79753304,-1.645267487
4.899804000000131,-3.867938757,15.00511265,-132.4243164,-3.350455761,-3.429543018,13.43692017,-1.872491002,-21.95723724,-0.309330434
4.908137000000352,-3.876817465,14.67981625,-132.4024506,-4.842012882,-0.100619897,23.67182922,-0.322880715,-40.31651306,-0.394344509
4.916470000000118,-3.874255896,14.61327744,-132.4046783,-4.055263042,-5.06495285,11.20748043,1.789436102,-9.152979851,-1.088413119
4.924803000000338,-3.841088772,14.39754391,-132.4052277,-3.871601582,1.24082756,17.99555969,5.411522865,-27.02983665,-2.096590519
4.933136000000104,-3.875195742,14.24904919,-132.397995,-1.738499999,-0.595580757,9.069343567,-2.892910957,-19.03388023,-0.649820566
4.941469000000325,-3.882849932,14.10291195,-132.4139862,-8.29103756,0.261970669,16.03328705,0.966912091,-18.57520676,-3.333834887
4.949802000000091,-3.932966471,14.00089645,-132.4112091,-0.926510751,-1.534879208,9.929787636,-4.683909893,-13.43314457,-0.803300977
4.958135000000311,-3.989260435,13.89971352,-132.4150391,-4.045126915,-1.671955705,14.4076643,-5.229517937,-13.28125,-1.573264718
4.966468000000077,-4.027291775,13.77720928,-132.3976898,-2.875222683,0.798615098,20.46038246,-3.645687819,-16.0096817,0.695939004
4.974801000000298,-4.058705807,13.85067177,-132.4116364,-9.55302906,-6.091328621,13.68177223,-1.955916047,7.704609871,-1.289305568
4.983134000000064,-4.054267883,13.7452774,-132.4192657,0.27679956,2.100121975,18.30071259,2.164941311,-13.75214672,-2.070412159
4.991467000000284,-4.089969635,13.74350166,-132.4217682,-4.445248604,-2.533951044,10.26410294,-2.798214436,-1.394759059,-0.59764415
4.99980000000005,-4.034956455,13.7335701,-132.4389496,-5.625150204,-0.365406364,19.0747261,8.505002022,-2.244204283,-2.372582674
5.008133000000271,-4.061405659,13.79330444,-132.4514923,-4.049582958,0.497587204,6.564209461,-1.401495695,6.054846764,-1.241278529
5.016466000000037,-4.135433197,13.82637024,-132.4694977,-0.298780739,-0.523218989,10.54142952,-6.952792645,2.902579546,-2.102787971
5.024799000000257,-4.213623524,13.86192799,-132.4736786,-6.966333866,-0.050586339,18.84711647,-7.84849596,3.087411404,-0.466089398
5.033132000000023,-4.244391441,14.06812477,-132.5043945,-3.839130402,-4.532915115,18.79237366,-1.389150381,23.74292374,-2.035500288
5.041465000000244,-4.188581944,14.09820271,-132.5093536,-3.130470514,-0.575925589,15.52399158,8.257159233,2.43832159,-0.601383924
5.04979800000001,-4.187924385,14.21288872,-132.524765,-1.651733518,-1.407388568,11.16746235,1.944709897,12.6601963,-1.071097851
5.05813100000023,-4.117797375,14.30340576,-132.5369568,-7.04885006,-0.442105561,17.06666756,10.19129086,9.736536026,-0.917079508
5.066464000000451,-4.126128674,14.39679623,-132.5530396,-3.120234728,-0.489246726,6.01671505,0.89306587,10.10801697,-1.350805163
5.074797000000217,-4.167989254,14.53953171,-132.5733948,-2.10272193,-2.860835791,9.171153069,-2.997852087,16.05149651,-1.413124681
5.083130000000438,-4.18804884,14.54914665,-132.5854034,-1.040043116,3.026694298,23.28451157,-0.631378055,0.053431295,-1.597854495
5.0914630000002035,-4.210749149,14.76617622,-132.614975,-7.438949108,-5.455827236,11.15446663,-0.411428809,25.02232742,-1.806662321
5.099796000000424,-4.209632397,14.85479069,-132.6469269,-2.448227644,-1.537620664,12.42993069,2.525384665,9.680465698,-3.204379559
5.10812900000019,-4.247753143,14.9699564,-132.6882324,-4.23175478,-2.062106848,15.74053764,-1.884477973,12.9382391,-4.049213886
5.116462000000411,-4.228767872,15.059659,-132.7108002,-0.59125483,-1.848538637,16.72067451,4.394788742,9.724496841,-2.102993011
5.1247950000001765,-4.194147587,15.13475132,-132.7429047,-5.400500298,2.253516674,13.49020863,6.572947025,8.056728363,-3.340544939
5.133128000000397,-4.251792431,15.28638172,-132.7701263,-3.376053095,-3.158303022,2.519547701,-4.646487713,17.17975426,-2.093669891
5.141461000000163,-4.3486619,15.44892979,-132.8271332,-4.060214996,0.610446632,15.28234863,-8.397104263,18.74245453,-5.406052589
5.149794000000384,-4.400030613,15.52304649,-132.8508759,-0.522069395,-3.958634138,14.4814024,-3.988405704,7.878197193,-2.350836515
5.15812700000015,-4.477263451,15.65004349,-132.9102783,-5.564074039,-1.3376019,11.38038731,-5.936702251,14.52619362,-5.957296371
5.16646000000037,-4.523871422,15.78437424,-132.9482269,-1.82969892,-2.280916452,17.19937515,-2.944702625,15.20955563,-3.397408724
5.174793000000136,-4.553898335,15.9294529,-133.0153198,-6.04869318,-1.924687266,13.68990135,0.010348153,16.76467514,-6.633179665
5.183126000000357,-4.603542328,16.07527351,-133.0423126,-0.674388528,-0.236891866,9.768553734,-3.649657726,16.49254799,-1.996719599
5.191459000000123,-4.652026653,16.16250992,-133.099884,-4.208734512,-1.222936034,12.63282013,-2.484721661,9.766861916,-6.063363552
5.199792000000343,-4.687428474,16.21330261,-133.1035767,-2.431676626,0.393955648,12.92270374,-2.710562468,4.908481598,-0.217528909
5.208125000000109,-4.797044754,16.36424637,-133.1684418,-3.570782423,-3.262589931,8.090193748,-9.555919647,17.47209167,-6.242230415
5.21645800000033,-4.894684792,16.45902061,-133.1783447,-2.534186602,0.353530616,10.04559422,-9.966537476,10.22520351,-0.465602785
5.224791000000096,-4.99876833,16.51176453,-133.2252197,-2.542714119,-2.862998009,14.43430424,-9.479687691,5.565921783,-5.118710518
5.233124000000316,-5.053934574,16.54590034,-133.2386169,-2.884034634,-2.592096329,18.68548393,-4.746842861,3.016153097,-1.463763833
5.241457000000082,-5.107067585,16.59248734,-133.269577,-2.547563314,-1.042177081,11.77222443,-3.901573181,4.680540562,-3.344873428
5.249790000000303,-5.176519871,16.65114784,-133.2945709,-2.626734972,-2.300523043,7.925188065,-6.061877728,6.068499088,-2.522553921
5.258123000000069,-5.273709297,16.65882874,-133.329071,-5.447076321,0.152588293,12.39541435,-9.062508583,0.080300637,-4.153002739
5.266456000000289,-5.366161346,16.71884918,-133.3589325,-2.03835988,-2.036667824,14.47575188,-8.649812698,6.284760475,-3.043215036
5.274789000000055,-5.436781883,16.6916256,-133.3743286,-3.075824261,0.029845282,13.31682968,-6.529644489,-4.289449215,-2.361593962
5.283122000000276,-5.539520264,16.6756382,-133.3867493,-0.306509137,0.037362497,7.49433279,-10.48466301,-2.971469641,-1.893929482
5.291455000000042,-5.671711445,16.70282173,-133.4116364,-7.355479717,-2.72136116,13.48254585,-13.59164524,2.32088089,-2.818988323
5.299788000000262,-5.786696911,16.75368881,-133.4539795,-1.298315883,1.215706468,13.70407963,-10.91897774,5.36275053,-4.522129536
5.308121000000028,-5.884189129,16.73371124,-133.4660034,-4.280667305,-4.765392303,13.16384983,-9.870048523,-3.444256783,-1.906531692
5.316454000000249,-5.904426575,16.69891739,-133.4967346,0.269277036,1.061067462,17.7591362,0.047232646,-4.994379044,-4.234507084
5.324787000000015,-5.913617611,16.70139694,-133.5087585,-5.182489395,-1.201392055,11.10873127,0.726368427,-0.764956355,-1.634380221
5.3331200000002354,-5.953994751,16.71730232,-133.5455322,-3.71148181,-1.098022461,3.398882389,-2.161265373,1.136042595,-4.297953606
5.341453000000001,-6.033118248,16.66662407,-133.5341034,-3.28423357,-1.010045767,16.06033897,-8.473587036,-7.389438152,0.380525112
5.349786000000222,-6.097172737,16.62150764,-133.5675049,0.048372578,-0.460609496,17.20940208,-5.124320507,-6.176066875,-4.679427147
5.358119000000443,-6.146767139,16.61831856,-133.5522156,-6.085542679,-0.492991954,9.045435905,-5.061923981,-1.766447425,1.413214326
5.3664520000002085,-6.228436947,16.66541672,-133.5906219,-3.785152912,-3.300070524,9.346014977,-7.06705761,4.890731335,-4.070242882
5.374785000000429,-6.243865967,16.71110725,-133.5612183,-5.233825684,0.109782264,16.81872559,-1.449957967,3.879737139,3.663142681
5.383118000000195,-6.228304386,16.69592857,-133.586319,-0.491923541,-0.281200737,17.48283577,4.14917326,-2.697857618,-3.353198051
5.391451000000416,-6.172547817,16.73523712,-133.537735,-6.491575718,-1.974875331,7.614122391,6.429839611,2.882908106,5.76758337
5.3997840000001815,-6.184816837,16.76607132,-133.5434418,-1.03347528,2.346229553,5.359483242,0.139571965,2.550716877,-0.541933179
5.408117000000402,-6.225436687,16.87636375,-133.4792786,-4.175120831,-1.775549412,10.22006893,-5.688141346,11.16248131,8.465812683
5.416450000000168,-6.304432392,16.92894936,-133.4888763,-3.697658777,-0.711091816,18.39779472,-7.729672909,5.188292027,-0.697514117
5.424783000000389,-6.359547615,17.05345917,-133.4247894,-3.312880278,-4.086402416,13.72429276,-7.447174072,12.83545017,8.665964127
5.433116000000155,-6.362148285,17.14566612,-133.4233246,-3.597892284,-2.058297396,13.61612034,1.051156998,9.780156136,1.103179455
5.441449000000375,-6.331161976,17.29100418,-133.3970947,-3.023231268,1.541847944,7.921643734,4.201042175,15.79722404,4.624061108
5.449782000000141,-6.349419594,17.43436813,-133.4272308,-3.080996037,-0.350221157,7.623302937,0.304783821,16.28171539,-1.819776535
5.458115000000362,-6.371767998,17.57978439,-133.4167023,-2.608174562,-0.921819568,9.987300873,-1.648980737,16.01097679,2.840824366
5.466448000000128,-6.404036045,17.72233391,-133.4317169,-5.250088692,0.222902432,8.137353897,-1.910271645,15.98802376,-0.096399188
5.474781000000348,-6.446160793,17.9370575,-133.4431915,-1.481159449,-2.020456553,12.32721043,-3.218699455,24.54777527,1.290522814
5.483114000000114,-6.466350555,18.07776451,-133.454071,-1.44126749,-0.9004336,12.37173176,-0.604585707,15.71899796,0.375556022
5.491447000000335,-6.451686382,18.27108383,-133.4767761,-2.8703444,-0.450257242,6.621107578,4.023869991,22.13939095,-0.254515916
5.499780000000101,-6.452753067,18.50555038,-133.4994812,-5.278346539,-1.673193336,1.943692207,2.146192312,27.04998016,0.303016573
5.508113000000321,-6.417429924,18.64069557,-133.5108032,1.252554059,1.071136832,13.20411205,6.086378574,15.06025124,0.248663038
5.516446000000087,-6.367331505,18.80919075,-133.5095062,-5.724678993,-1.111420751,4.618555069,7.377029419,18.87452126,2.104748011
5.524779000000308,-6.348617077,19.02486801,-133.5444641,-0.360671699,-0.615361392,8.008034706,5.020316601,24.9587307,-1.368326068
5.533112000000074,-6.265436649,19.04888916,-133.5122986,-1.190500021,-0.750025153,13.91511345,10.1368084,1.265676379,3.656406403
5.541445000000294,-6.211743832,19.22261047,-133.5579071,-3.539761305,-0.970489979,2.887948036,9.652804375,20.08197594,-3.167009115
5.54977800000006,-6.127585411,19.29168892,-133.5114288,0.488615304,-0.720446944,10.69874954,9.675190926,6.476868153,5.830031872
5.558111000000281,-6.041913033,19.26799202,-133.519577,-2.657058001,-0.992682099,8.416363716,12.01676559,-3.927392483,-1.506718993
5.566444000000047,-5.961019039,19.40675735,-133.4676666,-3.120458841,-1.596811056,7.352639198,9.059807777,14.74291611,7.295396805
5.574777000000267,-5.896936417,19.38238335,-133.4803009,0.383627564,-0.481778145,11.5424366,9.60959053,-3.966838598,-2.016365528
5.583110000000033,-5.840294838,19.3643074,-133.4254913,-3.753118038,-1.802797914,3.370423317,6.028849602,-3.991146803,5.660311222
5.591443000000254,-5.820126534,19.43470573,-133.445755,-2.556107998,-0.600164533,8.784680367,4.64255476,7.43286705,-1.714015126
5.59977600000002,-5.750036716,19.36592674,-133.3837738,-0.951768219,-1.464137435,14.01156616,7.356282234,-10.1164341,5.856696129
5.6081090000002405,-5.699825287,19.35461617,-133.3887939,-3.462046623,-1.390756011,4.043895721,7.640676498,-2.493328571,-0.989337206
5.616442000000006,-5.65047884,19.3277626,-133.3372192,-3.574690104,-0.476974607,7.685812473,5.286726475,-4.988769054,5.198869705
5.624775000000227,-5.603833199,19.24266434,-133.3435822,-2.304885149,-2.478001356,13.85530853,7.26437664,-11.29594326,-2.008655787
5.633108000000448,-5.537769318,19.14311218,-133.2973633,-1.383363962,0.465456605,7.428081512,7.517420769,-13.59833145,3.763269424
5.6414410000002135,-5.473762035,19.06026268,-133.2904205,-3.482190609,-1.261800528,10.00421906,8.823773384,-11.17599201,-0.460966647
5.649774000000434,-5.410324574,18.96008682,-133.2492218,-1.960373163,-2.358183384,8.412955284,7.417551517,-13.61021614,3.221272707
5.6581070000002,-5.361525059,18.83681679,-133.2295685,-0.852211058,1.079519629,10.77915955,6.505274296,-16.13665199,0.545480907
5.666440000000421,-5.300352097,18.7244072,-133.1944122,-3.611788034,-2.231770515,8.484666824,7.397238255,-15.00591087,2.431559801
5.674773000000187,-5.252089977,18.67273521,-133.1749115,-2.441213369,-2.521927834,7.970619202,6.456657887,-7.582287788,1.346771002
5.683106000000407,-5.206234455,18.50331688,-133.1373749,-1.672469139,0.491711944,12.34993267,5.481755733,-21.83469582,2.108257532
5.691439000000173,-5.167909145,18.43008232,-133.0947266,-3.833616972,-2.417150021,7.322349072,4.393712997,-10.39524364,3.74738884
5.699772000000394,-5.146413326,18.36524582,-133.081131,-3.94256568,-1.242709875,8.07571888,3.478131294,-9.085355759,0.553830981
5.70810500000016,-5.119655609,18.22119331,-133.032135,-0.278174639,-0.182018414,10.95104313,2.780759335,-18.9156456,3.724362612
5.71643800000038,-5.126115322,18.17237091,-133.0197296,-4.008635521,-1.270670056,3.89278841,0.174202383,-7.165979385,0.594685614
5.724771000000146,-5.116727352,18.13695335,-132.9834747,-2.065962076,-0.262031555,13.24395657,1.186272025,-5.806836605,3.445729256
5.733104000000367,-5.132898808,18.06699181,-132.9773254,-2.857038736,-2.041470289,10.59890079,-0.755555809,-9.623126984,-0.341296852
5.741437000000133,-5.117278099,18.04990959,-132.9458771,-3.4981215,-0.502112687,7.618978024,2.119910717,-3.566999674,3.098118305
5.749770000000353,-5.136620045,18.05651474,-132.9531708,-5.422949314,-1.231140137,5.035050869,-0.634836078,-0.33607161,-1.048557162
5.758103000000119,-5.117372513,18.01375389,-132.9028168,-0.40831998,-0.618768632,13.14418316,1.854778051,-6.824285984,4.974284649
5.76643600000034,-5.110477448,18.00479126,-132.8983002,-5.42299366,-0.587063015,5.135891438,2.074496984,-2.321892023,0.128045559
5.774769000000106,-5.106588364,18.05098343,-132.8631287,-1.305308819,-1.129256248,14.09416962,0.575910449,3.959704876,4.196482658
5.783102000000326,-5.05299902,17.94769478,-132.857132,-2.266353846,-0.553920567,12.06756878,7.622362137,-13.60724449,-0.704327643
5.791435000000092,-5.052153111,18.02640533,-132.8202209,-2.720098972,-1.091175079,-1.568037629,0.147819772,7.833678722,4.739095211
5.799768000000313,-5.04794836,18.02000999,-132.8325958,-1.469029903,-0.532857955,18.39873314,2.378256321,-1.839653015,-1.765089869
5.808101000000079,-5.007238388,17.96602821,-132.7655945,-2.341851234,-1.972119689,5.57953167,3.815804005,-8.323181152,6.761492252
5.816434000000299,-5.013661861,18.07842445,-132.7960815,-5.395645618,-0.762608647,5.413958549,1.776449919,12.53676128,-2.580519199
5.824767000000065,-5.01696825,18.02859688,-132.7418518,0.889180601,-2.199625731,13.57468128,-0.999403536,-7.701368809,5.34955883
5.833100000000286,-5.023992062,18.07465744,-132.7678223,-6.364699841,-0.32731998,5.547214031,1.538544655,4.566889763,-2.759844065
5.841433000000052,-5.017813206,18.13087654,-132.7133026,-1.843530536,-2.247568846,9.395689011,0.122615345,4.9718256,6.49579525
5.8497660000002725,-5.038168907,18.16058922,-132.7476807,-2.770864487,-0.053511184,10.21403694,0.257141322,2.695590973,-3.883336067
5.858099000000038,-5.023105145,18.1978035,-132.6863403,-3.079201698,-0.697813511,4.831251621,0.928515971,2.633655548,7.064073086
5.866432000000259,-5.078433037,18.33155823,-132.7419586,-2.172727346,-2.104126215,9.843776703,-3.133633614,15.3427,-5.191404819
5.874765000000025,-5.058991909,18.29625702,-132.6705322,-1.029334664,0.908438623,12.32057095,1.055050254,-6.143510342,7.440242767
5.8830980000002455,-5.119565964,18.43841362,-132.7239532,-3.651266098,-2.314906359,1.185353041,-3.835463285,16.33279037,-4.834572792
5.891431000000011,-5.118806362,18.48443604,-132.6656189,-1.215973377,-1.113844275,16.15688324,-0.711166561,3.704459429,6.814693928
5.899764000000232,-5.144547462,18.4799099,-132.7016449,-0.693794549,0.44175756,2.677212954,-0.303669572,-1.375471592,-4.423898697
5.908096999999998,-5.154260635,18.5843811,-132.6405182,-4.173798561,-1.536079288,5.682238579,-2.082680702,10.66284847,7.761753559
5.916430000000219,-5.192986965,18.55929375,-132.6782684,0.087352015,-1.152299762,16.3398037,-1.788987517,-3.81430459,-4.840821266
5.924763000000439,-5.204930782,18.55835724,-132.6055756,-4.031667709,-0.177126467,4.961310387,-2.795678616,-2.06475091,7.935956955
5.933096000000205,-5.253582954,18.58314514,-132.6424713,-2.616817474,-2.472848415,6.702840328,-3.013450861,2.144705772,-4.197571278
5.941429000000426,-5.298447132,18.57526398,-132.5780792,-3.011560917,-1.301827073,10.29966068,-6.430799961,-2.819986582,6.91515255
5.949762000000192,-5.319310188,18.51414299,-132.5786133,-1.670313358,-0.229418859,8.750810623,-1.067998409,-8.498022079,-1.029884458
5.958095000000412,-5.366979122,18.51636696,-132.5139618,-4.250662327,-1.290808558,5.87743187,-6.767677784,-1.620574117,7.058488846
5.966428000000178,-5.415288448,18.49478722,-132.5261993,-1.235261202,-1.637699604,15.60995579,-3.916378021,-3.650758743,-1.920568347
5.974761000000399,-5.422943592,18.38164139,-132.4595795,-2.097790003,1.536091805,6.790739536,-2.032451868,-15.4373064,5.976827621
5.983094000000165,-5.511650562,18.38913536,-132.4785461,-3.112214804,-2.123112202,1.797369838,-8.512392044,-0.099933945,-2.353576899
5.991427000000385,-5.542457104,18.33923149,-132.4301147,-0.905764699,0.055632513,13.85450935,-4.112992764,-7.695629597,4.619809151
5.999760000000151,-5.578154087,18.26159859,-132.4297943,-2.141577959,-0.605398595,9.393363953,-2.879308939,-10.47797775,-1.155445457
6.008093000000372,-5.609595776,18.24575996,-132.3961487,-2.977203131,-1.782651901,3.006308317,-3.619816303,-3.467360735,3.339123011
6.016426000000138,-5.654182434,18.20094109,-132.3949127,-4.954325199,-2.074696064,9.72508049,-3.983590126,-6.569270611,-0.677535057
6.024759000000358,-5.686954498,18.11817741,-132.362381,-1.123955846,-0.695645511,12.8416853,-3.734491825,-11.4530592,2.41834259
6.033092000000124,-5.72287035,18.05501175,-132.3406982,-4.015612602,-0.456954926,8.752316475,-3.70275569,-8.990225792,1.417927265
6.041425000000345,-5.743668556,18.01244926,-132.3096619,-1.57223177,0.194223881,10.86333561,-2.234496593,-6.639863491,2.723203182
6.049758000000111,-5.778338432,17.96748352,-132.2895508,-2.647161722,-1.45443213,12.14209175,-3.490541697,-6.799440384,1.451661348
6.058091000000331,-5.782697678,17.90994835,-132.2407379,-0.76030767,0.985886693,7.453677654,-0.91200763,-8.631472588,4.557976723
6.066424000000097,-5.807166576,17.90070915,-132.2413788,-5.901096344,-1.505317926,4.924207211,-1.497984648,-2.298224688,-0.475310564
6.074757000000318,-5.837780476,17.88554001,-132.2062836,-2.528916121,-1.363117099,9.630535126,-3.553501606,-3.421767473,3.513530493
6.083090000000084,-5.838778973,17.80014992,-132.1937561,-3.688335896,0.17087841,13.76305676,0.836304724,-11.54217148,0.090034038
6.0914230000003045,-5.829844475,17.76733589,-132.1490021,-2.091242075,-0.370728493,7.009783268,0.845935822,-5.640497684,4.396325111
6.09975600000007,-5.846461773,17.77123833,-132.1495667,-4.439376354,-1.113711953,10.69566059,-0.558223784,-0.729941607,-0.307972789
6.108089000000291,-5.827205181,17.73927498,-132.1117249,1.134136558,1.618625283,11.29816532,2.341576576,-5.458021641,3.623158932
6.116422000000057,-5.813798904,17.72091484,-132.1157532,-6.076825142,-1.56775558,6.442045689,3.171221733,-3.348151922,-0.973276913
6.1247550000002775,-5.792493343,17.76605988,-132.0982971,-2.988894701,-0.975836217,5.270487785,3.33315444,3.983448744,2.243140936
6.133088000000043,-5.767311573,17.74966812,-132.0976257,-3.011111259,-0.593927383,17.09681511,4.413434982,-3.166444778,-0.415706247
6.141421000000264,-5.683593273,17.70771217,-132.0660706,-0.120923534,0.536964059,12.60723305,10.30914211,-6.573676586,2.796460152
6.14975400000003,-5.638809681,17.77104187,-132.0760345,-5.538203239,-1.07750082,6.367619991,7.151980877,6.47458744,-0.674922287
6.1580870000002506,-5.579761982,17.81468773,-132.0665283,0.213425219,-0.790914416,10.03010464,8.153395653,3.905351639,1.302253366
6.166420000000016,-5.501739502,17.781147,-132.0646057,-5.714905739,-0.984748781,9.332627296,10.7071352,-5.231926441,-0.461299628
6.174753000000237,-5.442410469,17.83543587,-132.0556335,-2.995891571,-0.0932668,1.234518647,8.204982758,5.18270731,1.351022959
6.183086000000003,-5.39177084,17.87353706,-132.0562592,-3.822477579,-1.609961033,14.99440956,7.516676426,3.357232094,0.071284413
6.191419000000224,-5.299110413,17.80739975,-132.0456238,0.467012703,0.697715461,12.43228722,12.1425581,-9.218501091,0.17994003
6.199752000000444,-5.237095833,17.8950634,-132.0506287,-5.539975166,0.479624987,4.525804043,9.041902542,9.326708794,0.100484662
6.20808500000021,-5.155952454,17.93150139,-132.0696869,0.456913471,-1.860822082,11.73090744,11.85634422,3.34939456,-2.059525728
6.216418000000431,-5.053543568,17.93509293,-132.0506134,-4.702728748,-0.083549432,7.452593803,12.99968529,-0.968820095,1.91730237
6.224751000000197,-4.962568283,18.074646,-132.0852814,-2.854218006,-0.441654146,4.965743065,13.61806774,15.82504272,-2.770705462
6.233084000000417,-4.852333069,18.06489754,-132.0420074,-1.152513266,-1.763341665,11.18356609,13.03324318,-2.788353443,4.528342247
6.241417000000183,-4.784079075,18.19000626,-132.0907288,-4.718619347,0.086229287,3.299631119,11.42431164,14.22325611,-4.567672729
6.249750000000404,-4.675049305,18.25628853,-132.0338287,-0.290537566,-1.791887999,13.64638233,12.36143303,6.19139719,6.828679562
6.25808300000017,-4.584640026,18.33172607,-132.0946503,-5.033525944,-0.623727441,-1.560315847,14.55552387,8.379366875,-6.464407444
6.26641600000039,-4.52193737,18.4634285,-132.0230408,-0.536744416,-0.947498202,5.689084053,6.227027416,13.90512753,9.091902733
6.274749000000156,-4.498801231,18.56351089,-132.1215668,-4.38390398,-0.876847923,7.180716038,7.946536064,11.65014935,-10.52528763
6.283082000000377,-4.399114132,18.73357201,-132.0516357,-1.813091516,-1.789732933,8.824873924,10.69143867,18.52865601,9.218234062
6.291415000000143,-4.434889317,18.87223625,-132.1613464,-3.986401558,-2.263029099,3.232038736,1.365316033,16.3461895,-11.43464661
6.299748000000363,-4.420375824,19.07087326,-132.1182098,-1.750639319,0.237480432,0.769188285,1.47302413,22.18695831,6.429611683
6.308081000000129,-4.383216381,19.27368736,-132.1799622,-3.603200674,-0.733406723,7.035022736,8.309339523,23.6011982,-5.399240494
6.31641400000035,-4.372590542,19.4632473,-132.1392365,-1.072041154,-1.800439835,7.341783524,1.0678581,21.12545204,6.042452335
6.324747000000116,-4.381939888,19.73378181,-132.2033691,-5.38709259,-0.36231792,-0.153078496,2.874867916,31.7188282,-5.043101788
6.333080000000336,-4.342959404,19.98477554,-132.1432953,1.353867054,-1.419649243,7.005542278,3.642270088,28.31609726,8.763660431
6.341413000000102,-4.397150993,20.18503952,-132.2044373,-6.009045124,-0.214407414,-0.251275212,-2.568660736,23.28225136,-5.331925869
6.349746000000323,-4.398432255,20.60231781,-132.1378632,1.011180282,-0.290529937,4.27921772,-1.522065163,48.15207672,11.0150423
6.358079000000089,-4.476631641,20.66610527,-132.177948,-4.933328152,-2.643185139,4.05022192,-6.273553848,6.775734425,-4.185711861
6.3664120000003095,-4.484133244,21.22712135,-132.1259613,0.159314126,-0.237535998,3.891741753,-1.714687467,65.45793915,10.77623081
6.374745000000075,-4.548510551,21.2648201,-132.1475525,-4.252652168,-1.286026597,2.899367094,-5.372905731,3.496214867,-2.342280865
6.383078000000296,-4.58715868,21.84039688,-132.1076355,1.731656432,-0.071428441,0.657424748,-4.982386112,67.29483032,9.651252747
6.391411000000062,-4.670708179,21.95967865,-132.1327667,-5.871569633,-2.135965347,8.176635742,-7.485696793,13.28935814,-1.927509904
6.3997440000002825,-4.739504337,22.34688568,-132.1063232,3.353773594,0.577572405,-6.935750008,-8.035417557,44.86408234,6.451930523
6.408077000000048,-4.907131672,22.60179329,-132.1511841,-5.657817841,-2.112268448,1.778409362,-16.64718246,29.69732857,-2.676728725
6.416410000000269,-5.035457611,22.91545868,-132.1410217,0.442769289,-1.140340924,7.5458498,-14.45596027,36.19777298,4.091033459
6.424743000000035,-5.114573479,23.12977409,-132.179718,-3.59938693,-0.46742928,1.730101705,-6.263491154,24.79139137,-2.274711609
6.433076000000256,-5.238706112,23.41825867,-132.1753998,2.274564028,1.089983702,-5.962848663,-13.68617535,33.23273849,3.30723691
6.4414090000000215,-5.436977386,23.66892052,-132.2244415,-4.697256088,-1.447025895,6.651993752,-20.02833939,29.24876976,-2.864583492
6.449742000000242,-5.565267086,23.86994362,-132.2106934,1.190634966,-1.35874784,5.378557205,-14.64567947,22.66277313,3.526595831
6.458075000000008,-5.628707886,23.97695732,-132.2472382,-2.302173615,-0.733332157,0.130989581,-4.417649746,11.96758652,-3.033891201
6.466408000000229,-5.714787483,24.13204193,-132.2104187,3.347938776,2.691889286,-0.239163384,-10.7181654,16.91638947,5.567845345
6.474741000000449,-5.860621452,24.24596977,-132.289093,-4.880920887,-1.193469286,2.384870768,-12.21575546,13.26674652,-7.482728481
6.483074000000215,-5.93905592,24.2347641,-132.2153015,2.385000944,-1.147938013,5.522622585,-11.63430595,-3.370129108,7.603432178
6.491407000000436,-6.006742477,24.18992233,-132.2796173,-2.255412102,-0.653901875,3.420782804,-3.542538643,-5.822205544,-7.851519585
6.499740000000202,-6.00540781,24.18494606,-132.2106323,1.73709023,0.870479584,1.497969985,-1.81570375,-2.588690281,7.155875683
6.508073000000422,-6.086972237,23.98261452,-132.2266693,-3.84028697,-1.011186004,3.724848032,-7.586824894,-25.16296387,-4.593595028
6.516406000000188,-6.094289303,23.88915634,-132.1798248,2.672331572,0.099400647,5.036296368,-1.743087292,-12.90154552,3.627385855
6.524739000000409,-6.099264145,23.63746834,-132.1398315,-5.534644127,-0.258371264,-0.825068951,-1.116820097,-31.70188332,0.870270014
6.533072000000175,-6.088035583,23.40605545,-132.0891418,3.272425652,-0.477188081,10.84248447,0.33762145,-29.40929985,2.30751133
6.541405000000395,-6.043218613,23.16877174,-132.0565948,-6.059256077,0.136562198,1.121347427,5.249077797,-29.89832687,0.266644359
6.549738000000161,-6.002655506,22.85386467,-131.9800873,3.423854113,-0.937855422,6.604269981,2.697746515,-39.67111969,4.147053242
6.558071000000382,-5.963661671,22.60120392,-131.9468079,-7.403455257,0.819039702,-4.439305782,4.553497314,-31.74332237,0.212572694
6.566404000000148,-5.915976524,22.28171921,-131.874176,2.671715498,-0.892127275,13.16491604,3.809712648,-40.17066574,3.753233433
6.574737000000368,-5.835515976,22.05500984,-131.8385315,-7.604789734,-0.408768892,1.946007609,9.456962585,-28.67225075,0.865992308
6.583070000000134,-5.759104252,21.77673531,-131.7832489,2.235277176,-1.023007751,7.453388691,8.107555389,-35.04703522,2.457355738
6.591403000000355,-5.656639576,21.56738853,-131.7065582,-7.030323505,-0.012077626,-3.646594763,10.31137657,-27.0505352,5.721455574
6.599736000000121,-5.585314274,21.37821388,-131.6876678,0.037964612,-0.506770253,12.55371761,9.146388054,-24.00492096,-0.411070317
6.6080690000003415,-5.459424496,21.24782753,-131.5867615,-5.348461628,0.146113932,1.227472901,12.12235069,-17.86348915,9.429986
6.616402000000107,-5.421406746,21.1199398,-131.6031494,-1.048000813,-1.628930211,3.541438341,6.687341213,-16.30780792,-3.570202827
6.624735000000328,-5.330000877,21.06720352,-131.4790344,-5.346114159,-0.314135432,-1.654219508,7.02391243,-8.805317879,12.94881916
6.633068000000094,-5.28931284,21.01664734,-131.5316315,-1.379115939,-1.334100604,12.14730263,8.564505577,-6.700313568,-6.715247154
6.6414010000003145,-5.19705677,21.04579735,-131.40065,-4.385066032,-0.331476182,-2.331701279,6.845252037,0.937250614,14.63628483
6.64973400000008,-5.191946507,21.07452202,-131.4614716,-0.969958484,-2.122396231,11.86586189,4.652850628,2.845715761,-6.760326385
6.658067000000301,-5.123726368,21.18132973,-131.3196411,-5.96711731,0.459561348,-4.885905743,3.466529131,10.13184166,16.67489815
6.666400000000067,-5.121723652,21.28113174,-131.3718262,-0.317729264,-2.641944885,12.2321949,3.923460484,11.24598217,-5.036668301
6.674733000000288,-5.069773197,21.43273354,-131.2477112,-4.97451973,0.943567932,-3.248342752,2.224981546,15.68595982,15.14140129
6.6830660000000535,-5.067343235,21.59375572,-131.2779388,0.318624645,-2.468694925,13.62057972,3.038028479,18.34046364,-1.946644068
6.691399000000274,-5.036574841,21.78011703,-131.189743,-4.896262169,0.977832794,-6.85193491,1.195211887,20.2076416,11.47364521
6.69973200000004,-5.037310123,21.99219894,-131.1960297,-0.133536607,-1.736763358,19.0914402,1.609394431,24.20938301,1.247234464
6.708065000000261,-4.986771107,22.16724586,-131.1338501,-2.766739845,-0.269539237,0.125242084,4.675599098,19.11821747,8.431928635
6.7163980000000265,-4.984697819,22.38307953,-131.1133423,-2.192256451,-1.186686397,2.512467623,0.731363714,24.40174675,4.227273464
6.724731000000247,-5.015016556,22.5069561,-131.0673523,-0.843400657,0.151501179,-0.425216585,-4.331047535,13.15964794,6.085328579
6.733064000000013,-5.049716949,22.72395706,-131.0465088,-3.494877577,-1.386010408,13.35321426,-3.710851192,24.53278732,4.294459343
6.741397000000234,-5.036626339,22.83030319,-130.9924316,1.29063952,-1.040759325,7.952226639,0.4731462,10.98261738,6.791998863
6.74973,-5.090506554,22.96178246,-130.977478,-5.04490757,-1.382356524,-4.054056168,-5.748002052,14.36579704,2.749022722
6.75806300000022,-5.097824574,23.09533501,-130.9233093,1.574775219,-0.336592019,11.3581028,-2.005735874,14.22694302,7.090763569
6.766396000000441,-5.142529488,23.0912075,-130.9030304,-5.360355377,-0.025582584,5.672460079,-4.903448105,-1.897284627,1.89173913
6.774729000000207,-5.152915955,23.29804611,-130.855545,2.721256971,-0.685770333,5.535077572,-2.075535297,23.04626465,7.153034687
6.783062000000427,-5.236248016,23.11357498,-130.8002167,-5.085760117,-2.404844284,-1.304867983,-11.20168781,-23.8052578,3.786990404
6.791395000000193,-5.254409313,23.41643524,-130.7948608,-0.494938254,1.245399117,11.50034046,-1.018359184,34.93650055,3.619090557
6.799728000000414,-5.238553047,23.15942192,-130.7044373,-1.008906126,-0.896945775,7.696225643,-0.96902585,-32.83275604,6.813367844
6.80806100000018,-5.298071384,23.42890549,-130.7078857,-4.583863735,-0.939479709,-4.154511452,-5.56652832,31.03458977,2.301620007
6.8163940000004,-5.315145493,23.19361496,-130.5791168,2.167658806,0.113068305,18.86767197,-6.748422146,-30.6298542,11.22693443
6.824727000000166,-5.326045036,23.32423782,-130.5705872,-6.830685616,-0.983097315,-2.421122789,-0.297599018,14.31651402,2.100418568
6.833060000000387,-5.316497803,23.2289238,-130.471405,1.706897616,-1.887280941,11.70398045,-2.14300251,-13.60737324,9.536925316
6.841393000000153,-5.32037878,23.21978378,-130.4244232,-4.39331913,0.597447217,-3.238879204,-1.27414155,-2.776595831,4.766963005
6.8497260000003735,-5.35706377,23.16225815,-130.3532562,0.090290613,0.126119301,15.17684364,-6.349936962,-8.806214333,6.881828785
6.858059000000139,-5.407038212,23.11419487,-130.2794342,-5.343662739,-2.287842512,-2.428866386,-8.06375885,-7.712227821,7.278951645
6.86639200000036,-5.444541454,23.14431763,-130.2311096,-0.705353081,0.427019358,13.85306168,-5.365196705,1.891432285,5.36031723
6.874725000000126,-5.44867897,22.97528458,-130.139801,-1.956623673,-2.992316723,10.61485577,-3.372691631,-22.35412979,7.819696903
6.8830580000003465,-5.429224968,23.11163712,-130.0894012,-5.313449383,0.256476492,-0.120299779,1.384961963,14.55700779,6.80052948
6.891391000000112,-5.462762356,22.93426895,-130.0172424,1.358485818,-0.017365338,7.181722641,-5.99651289,-23.14858437,5.623684883
6.899724000000333,-5.504004478,22.91697502,-129.9125671,-5.635572433,0.113386549,1.59384799,-8.427431107,-4.376538754,11.02787685
6.908057000000099,-5.527098656,22.94704437,-129.8757172,-2.129089594,-0.242434099,14.48637295,-3.078946114,1.99762845,4.109368324
6.91639000000032,-5.532634258,22.89049911,-129.7593231,-2.084839344,-2.291208267,7.859531403,-4.688776493,-9.197626114,11.86100578
6.9247230000000854,-5.523246765,22.85955048,-129.7170715,-3.247685194,0.745427012,3.713076115,0.571171761,-5.35185051,4.000174999
6.933056000000306,-5.466979027,22.87580681,-129.6289673,-2.263295412,-0.095075093,9.460111618,4.061445236,-0.195372611,9.592353821
6.941389000000072,-5.45811224,22.81505203,-129.5493469,-2.800103426,-0.922369957,6.496906281,-1.231340289,-9.298620224,7.780913353
6.949722000000293,-5.500379562,22.8463192,-129.4993134,-4.674636841,0.305596143,0.205850646,-5.986546993,2.002239227,5.577167034
6.9580550000000585,-5.484699726,22.86891937,-129.407486,-0.007659276,-0.841760278,14.03695965,-0.983906925,0.52347815,10.07569408
6.966388000000279,-5.4522295,22.82485962,-129.3576813,-4.540734291,-1.741092324,11.52655506,2.990462065,-6.993288517,4.688583374
6.974721000000045,-5.395933151,22.89224625,-129.284668,-3.089470863,-1.267041326,1.951502919,4.767347336,6.083893299,8.509971619
6.983054000000266,-5.364443302,22.94364738,-129.2320862,-2.885184288,1.265385032,9.126725197,2.737957239,4.393584728,6.074800968
6.9913870000000315,-5.335255623,22.92510033,-129.1536713,-0.934224427,-0.013473673,9.308452606,1.250179648,-4.227617264,8.130932808
6.999720000000252,-5.34141016,23.02579308,-129.0764313,-5.618491173,-0.898027837,-1.439423084,-2.939682484,10.03133202,9.328041077
7.008053000000018,-5.356764317,23.14290237,-129.0304718,-2.017954111,-1.39930141,9.098834038,-2.592020273,12.31576347,6.072983265
7.016386000000239,-5.350633621,23.15795898,-128.9372559,-1.842835188,-2.059629202,12.26970196,-2.247226715,-0.3635813,10.11685658
7.024719000000005,-5.303690434,23.23573685,-128.8880463,-3.124577999,0.915088713,4.964785576,4.723419189,7.584658146,5.979362488
7.033052000000225,-5.250880718,23.38163185,-128.8153839,-2.84715414,-0.448027253,8.423893929,4.301988602,15.49403,9.295459747
7.041385000000446,-5.266927242,23.40187263,-128.7378998,-2.395452261,-1.430037856,6.460716248,-4.202950954,0.433188021,8.43123436
7.049718000000212,-5.313308239,23.54241753,-128.6921692,-4.308719635,1.558819652,0.74468863,-6.337026596,15.12523174,6.277434826
7.058051000000432,-5.293697834,23.64567566,-128.5938263,0.468761742,-1.898642778,14.16648865,-0.952145338,10.13424778,11.62079716
7.066384000000198,-5.289562225,23.69081879,-128.5469818,-5.130755424,-2.576195478,10.34193325,-0.346266061,3.71583128,5.33687973
7.074717000000419,-5.239233017,23.82476234,-128.4670868,-1.95155704,0.60833323,1.742694616,3.591653824,13.99697781,9.922982216
7.083050000000185,-5.203939438,23.88409615,-128.4047852,-2.086102724,-0.075454086,10.88826275,2.628481865,5.266082287,7.166582108
7.0913830000004054,-5.208209991,23.89273643,-128.3153839,-1.056488395,0.148552909,7.170796871,-3.442131281,-1.061902285,9.571247101
7.099716000000171,-5.237949848,24.01541519,-128.2438812,-4.786128521,-1.245686769,1.320087075,-5.638988018,12.74352169,8.86173439
7.108049000000392,-5.237719536,24.08536911,-128.1699219,-1.782678485,-2.357031584,11.74978733,-2.174226284,6.41526556,8.545345306
7.116382000000158,-5.197542667,24.08859444,-128.1009064,-2.311544895,0.355521381,12.87596798,2.85626936,-1.505925179,7.272625923
7.1247150000003785,-5.143405437,24.07344437,-127.9994278,-1.321787715,0.85506916,1.976638198,2.943075418,-4.01734972,10.61802292
7.133048000000144,-5.16950798,24.14483452,-127.9377365,-2.856075048,-0.357737273,4.93240118,-4.74333334,6.722737789,7.212533951
7.141381000000365,-5.172039509,24.13032532,-127.8456955,-2.102469683,-2.79000783,14.52750874,-3.405861378,-3.84663105,9.590714455
7.149714000000131,-5.128212929,24.10453415,-127.7736053,-4.766119003,-0.21511358,8.470626831,3.139767885,-4.99417448,7.296677589
7.1580470000003515,-5.096598625,24.11444473,-127.7063828,-1.696438432,1.470523,1.457432747,1.913639545,-0.674717367,7.149829388
7.166380000000117,-5.07879591,24.10973167,-127.6008682,-0.403360635,-0.40785113,8.754520416,-1.621035337,-2.791810751,11.16901016
7.174713000000338,-5.058869839,24.07004547,-127.5415344,-3.910042524,-1.540289044,12.88342857,0.899751306,-6.523241997,5.762947559
7.183046000000104,-4.986280441,24.01779747,-127.4494476,-2.988875866,-0.625792742,7.573124409,5.62639761,-8.333476067,9.212927818
7.191379000000325,-4.966251373,24.00793457,-127.3815231,-3.100600719,0.113687478,5.426154613,0.501782894,-3.028051376,7.022656441
7.1997120000000905,-4.93445158,24.01197433,-127.2928314,-2.782067299,-1.413979292,11.12320518,0.901441991,-1.557307124,9.43920517
7.208045000000311,-4.862565041,23.96910858,-127.2367935,-2.541470289,-0.269717872,11.76538849,7.306358337,-6.851846695,5.390336514
7.216378000000077,-4.791256905,23.87889481,-127.1092453,-0.816895664,-0.024711628,7.194350243,3.765165806,-13.16949844,12.74098492
7.224711000000298,-4.78709507,23.82723808,-127.060524,-3.643984556,-0.80496335,8.152687073,-0.450131774,-7.82721138,4.520169735
7.2330440000000635,-4.69135046,23.78941345,-126.9460907,-2.076734304,-0.466426909,5.370622158,7.361123085,-6.763836861,11.85468006
7.241377000000284,-4.628798485,23.71541023,-126.8617249,-3.452941418,0.316127241,6.869392872,4.843370914,-10.80824757,8.224372864
7.24971000000005,-4.611912251,23.66878319,-126.772995,-2.041365862,-1.317944884,13.36122322,-0.83667624,-7.563513279,8.976484299
7.258043000000271,-4.555449963,23.6139183,-126.6986008,-4.321259499,-2.070224047,11.0194788,4.610589027,-8.418926239,7.336815357
7.266376000000037,-4.475505829,23.5449543,-126.5895004,-3.642057419,0.256212354,5.570979595,5.770682812,-10.39936829,11.02021885
7.274709000000257,-4.463438511,23.51964569,-126.529541,-2.522234201,0.23923637,7.483893394,-0.009566919,-4.74535799,6.048751354
7.283042000000023,-4.394815922,23.51575279,-126.4255219,-2.562550783,-1.663398266,9.72919178,4.666350365,-2.549782038,11.08540535
7.291375000000244,-4.310063839,23.46269798,-126.351181,-2.864331722,0.254899323,9.567034721,8.029653549,-8.174258232,7.384430885
7.29970800000001,-4.28869009,23.4018898,-126.2591934,-1.256047726,-0.468403995,9.022803307,-0.409610122,-9.236712456,9.261597633
7.30804100000023,-4.285380363,23.38295174,-126.1919785,-2.918757677,-2.445040464,9.970775604,-1.388970494,-4.021627903,6.921864033
7.316374000000451,-4.213032246,23.31069946,-126.0939713,-3.382053137,0.418503612,6.758730412,5.436237812,-10.65084839,9.835535049
7.324707000000217,-4.209330082,23.2912159,-126.0267487,-3.028870106,1.048266411,5.064888477,-1.332183838,-4.080514908,6.925988197
7.333040000000437,-4.227608681,23.29509735,-125.9303818,-2.149929047,-2.365806341,12.74078941,-5.352593899,-1.517886996,10.34031296
7.341373000000203,-4.22178936,23.274189,-125.8660431,-4.917973995,-1.125297904,11.9186554,-0.938236713,-4.230204105,6.59664011
7.349706000000424,-4.214233398,23.2286129,-125.7864075,-3.29295969,-0.975182235,9.885460854,-1.452570319,-7.30014658,8.064488411
7.35803900000019,-4.260423183,23.2636776,-125.7138519,-2.182629347,-1.014679313,7.271173477,-7.565023899,2.403767824,7.998942375
7.3663720000004105,-4.258125782,23.26678467,-125.6405563,-3.803175449,0.30744338,8.175946236,-1.783916473,-1.431823134,7.795924187
7.374705000000176,-4.248769283,23.25899887,-125.5755692,-2.532204866,0.055207204,5.080682278,-0.543137133,-2.666634083,6.784493923
7.383038000000397,-4.273270607,23.25929832,-125.4829407,-0.865170896,0.131289184,12.22155476,-5.914262772,-1.924794674,9.896597862
7.391371000000163,-4.258608818,23.21087074,-125.4234924,-2.814830542,-1.128618121,13.13528252,0.35977757,-7.48769474,5.81363821
7.3997040000003835,-4.23313427,23.11390305,-125.3508606,-1.314427018,1.17525363,9.673319817,1.042806983,-13.39672089,6.841332912
7.408037000000149,-4.252209663,23.04738426,-125.2807541,-2.137961626,-1.494523287,9.781188011,-4.171522617,-9.734448433,6.8357234
7.41637000000037,-4.225480556,22.93168259,-125.2243347,-4.078907967,-0.69372499,8.349838257,1.977649689,-15.51025486,4.898877144
7.424703000000136,-4.220279694,22.81044388,-125.1519928,-1.160617828,0.016956078,7.958645344,-1.335411191,-16.30232239,6.615031242
7.433036000000357,-4.2356534,22.70277023,-125.112442,-3.554283619,-0.741832733,10.12049007,-2.265617847,-14.40866375,3.12124896
7.4413690000001225,-4.171277523,22.5527935,-125.0063934,-3.118528366,-0.072527066,9.391877174,4.244894981,-20.01457596,10.10384655
7.449702000000343,-4.183247089,22.40569878,-124.9795303,-2.796524048,-0.06425298,9.513724327,-1.256007075,-19.02283859,1.395848155
7.458035000000109,-4.131764412,22.29148102,-124.8832321,-3.568580389,-0.241390914,10.60381222,3.199782372,-15.64598656,9.373352051
7.46636800000033,-4.10992527,22.10944557,-124.8397141,-2.98955512,-0.544553638,10.32608604,2.062151432,-23.33945465,2.963516712
7.4747010000000955,-4.088118076,22.02883148,-124.7657852,-2.939623117,-0.530593574,12.43588448,0.698807657,-11.44196892,7.218501568
7.483034000000316,-4.049605846,21.83595848,-124.7339096,-3.522389174,0.566282511,10.73265457,4.607618809,-24.53964043,1.605321646
7.491367000000082,-4.018870354,21.7798233,-124.6635513,-2.891647816,-1.771910906,13.90083885,1.965610862,-8.473587036,7.057080746
7.499700000000303,-3.966293573,21.59832191,-124.631485,-5.481714725,0.384020209,9.696652412,6.301924706,-23.17442703,1.757265568
7.508033000000069,-3.928602695,21.53699684,-124.5856857,-2.946698666,-2.472678185,15.79987717,3.916929483,-8.895633698,4.30385828
7.516366000000289,-3.866474628,21.37270737,-124.5705795,-5.648718357,-0.340380371,12.49105358,8.207623482,-20.98842812,0.049384266
7.524699000000055,-3.798124313,21.31354141,-124.5274506,-1.827257633,-0.512352109,15.86317635,7.733296394,-8.610468864,4.045512676
7.533032000000276,-3.726008177,21.15559196,-124.5247421,-2.780118227,1.623724341,11.74682617,9.951084137,-20.13473129,-1.233799696
7.541365000000042,-3.655941725,21.12890434,-124.5133972,-3.202798128,-0.41127187,8.097863197,9.332112312,-4.480199337,0.77001524
7.549698000000262,-3.622140646,21.01904678,-124.5411911,-3.540971994,-1.52804184,10.96335888,6.66928196,-14.16033173,-4.234200478
7.558031000000028,-3.535332918,20.93716621,-124.5187225,-4.575393677,0.065602526,12.12706757,10.86602211,-11.16615772,1.609086752
7.566364000000249,-3.511420488,20.890131,-124.525032,-5.077749252,-0.389107049,13.56851292,4.55459547,-6.792984486,-1.343684316
7.574697000000015,-3.454437256,20.77375793,-124.4974899,1.18303597,1.471941948,14.7938242,7.079007626,-15.33128738,1.943582892
7.583030000000235,-3.435872316,20.7813282,-124.5164642,-7.69593668,-2.538070679,8.356949806,4.449371815,-0.163354769,-2.362720728
7.591363000000001,-3.403288841,20.71257973,-124.5216751,-0.823536515,-0.967807174,14.16143608,5.545021057,-9.404766083,-1.364636898
7.599696000000222,-3.343850374,20.61743546,-124.536232,-8.391070366,-3.189719915,10.65758133,9.165133476,-12.50127411,-2.595811367
7.6080290000004425,-3.290825367,20.64454079,-124.5481033,-0.333020419,1.329981685,18.55414963,8.27946949,2.125110626,-1.433692813
7.616362000000208,-3.196980238,20.51673508,-124.5605774,-6.129624367,-0.044203453,7.358574867,13.20309258,-16.43638992,-2.558875799
7.624695000000429,-3.174744606,20.61977386,-124.583046,0.045127131,-0.827724516,11.12037182,5.030994892,11.28273964,-2.124381065
7.633028000000195,-3.098296165,20.50656128,-124.5954895,-5.850308895,-0.477003187,10.4009161,11.11340427,-14.68982983,-2.429165125
7.6413610000004155,-3.097212553,20.65655899,-124.6131973,-2.757245064,-0.77319473,9.165328026,2.292294979,16.87796402,-1.306774378
