time,Euler_X,Euler_Y,Euler_Z,Acc_X,Acc_Y,Acc_Z,Gyr_X,Gyr_Y,Gyr_Z
0.0,-7.247298717,16.46027374,-157.6745148,-3.534260511,-0.895226896,7.798654079,-9.242589951,67.70872498,-8.506126404
0.008332999999765889,-7.330036163,16.65232658,-157.6968994,3.587525606,-0.057846848,3.132920504,-9.952302933,22.71837997,-0.051266927
0.016665999999986525,-7.454006672,17.16036224,-157.8128815,-6.984199047,-1.056918621,14.21959782,-11.75096798,61.73041534,-5.819049358
0.024998999999752414,-7.593638897,17.41675377,-157.8237152,3.040594101,-2.31282711,-2.323153019,-17.16010857,30.1975708,2.377156973
0.03333199999997305,-7.756875038,17.87668228,-157.914032,-2.643687725,0.098263979,0.689803123,-17.22025871,55.63499832,-3.320652008
0.04166499999973894,-7.851268291,18.22867966,-157.9138184,1.990296721,-1.850349665,-1.218605399,-12.12573338,41.37712097,5.336862564
0.049997999999959575,-7.982251167,18.61130524,-158.0045319,-2.832219362,-0.407372802,9.273797989,-13.19201279,46.45812225,-4.361895561
0.058330999999725464,-8.131726265,18.98279572,-157.9806366,0.276725769,0.208725289,3.26705575,-19.65124512,43.28915024,8.514829636
0.0666639999999461,-8.324443817,19.3824234,-158.085022,-1.648095012,-1.483086228,3.262802839,-19.9269371,48.71678543,-5.303684235
0.07499699999971199,-8.447309494,19.73596764,-158.0732422,-0.864706039,-0.289735436,-0.588104665,-16.00709343,41.30825424,7.083142757
0.08332999999993262,-8.593209267,20.09400368,-158.1577301,-0.427104205,-1.35395968,0.888999701,-14.96697617,43.46064758,-3.5197227
0.09166299999969851,-8.679008484,20.4166069,-158.1658325,0.050956897,-0.091908827,4.107004166,-10.74975872,37.94298172,4.488926888
0.09999599999991915,-8.813619614,20.74379349,-158.2675323,-1.226562142,1.149403811,7.897922516,-12.77308273,40.10413742,-5.782434464
0.10832899999968504,-8.932226181,21.09228706,-158.2799988,0.200251684,-1.203689337,1.586943746,-14.48911476,41.06529617,4.649888039
0.11666199999990567,-9.063236237,21.36890984,-158.3590088,0.789082468,-0.0734623,0.384632289,-13.19986343,33.73340225,-4.000193119
0.12499499999967156,-9.16285038,21.6570282,-158.3606262,-1.929709673,-1.484558463,0.815724313,-12.67195225,33.69766235,4.876776218
0.1333279999998922,-9.247771263,21.9440155,-158.4117584,1.225667,0.825592577,-2.307672977,-8.820590973,34.46995544,-0.57589823
0.1416609999996581,-9.30465126,22.16923332,-158.3989258,-1.043174624,-0.855091095,3.055141926,-8.19242382,25.97443962,5.342876911
0.14999399999987872,-9.361068726,22.40457726,-158.4239349,0.430187315,0.094789505,7.00108242,-6.53912735,27.88162804,1.378174901
0.1583269999996446,-9.396012306,22.6364193,-158.4352112,-0.775087237,1.706732273,1.359904408,-4.46480751,27.18486786,2.879400492
0.16665999999986525,-9.417199135,22.80081749,-158.4572601,1.480854392,-1.781584501,-0.756491065,-2.431291342,19.43155479,0.352221459
0.17499299999963114,-9.414823532,22.92414284,-158.4627686,-0.706210434,-0.996758938,4.154847622,-0.24777931,14.23024464,1.400842547
0.18332599999985177,-9.430792809,23.0322361,-158.4799042,0.774911821,1.77491653,1.730832577,-2.018901587,12.67848492,-0.207590595
0.19165899999961766,-9.396894455,23.11387634,-158.4893799,-1.348419189,-1.6969558,0.973509014,3.723106384,9.367690086,0.14979206
0.1999919999998383,-9.327667236,23.1331501,-158.4750519,3.314271212,1.683225513,2.447973728,6.725965023,1.597867131,1.472869635
0.2083249999996042,-9.255981445,23.11594009,-158.4782257,-1.753541827,0.328430951,5.294162273,7.9652071,-2.44878459,-1.102372527
0.21665799999982482,-9.14749527,23.04973221,-158.4322357,2.341668606,-1.75445807,3.326083899,9.9438591,-9.07449913,3.278110981
0.2249909999995907,-9.045244217,22.96628952,-158.4339294,-1.457985997,1.053607106,5.241348743,11.56198597,-10.32572842,-2.187392235
0.23332399999981135,-8.935174942,22.84060097,-158.3746185,0.271233857,-1.297135115,5.340360165,9.527806282,-16.33608437,3.655305624
0.24165699999957724,-8.810360909,22.73212051,-158.3730469,-0.325741261,0.074162416,4.821419716,14.1153965,-13.35602283,-2.256986618
0.24998999999979787,-8.671500206,22.53524208,-158.3178406,-1.901541591,-0.835625291,6.303647041,13.20396709,-24.68848801,1.991072774
0.25832299999956376,-8.507441521,22.34770584,-158.3028107,0.604512274,-0.080040663,3.640427828,18.21088982,-22.96867371,-2.134346247
0.2666559999997844,-8.298116684,22.04873466,-158.2374725,-1.489357471,-1.329190969,3.324169636,21.24681091,-36.9562645,1.479788065
0.27498900000000503,-8.137226105,21.86726761,-158.2185059,1.564837575,1.332906604,7.280136108,17.6669693,-22.32252693,-1.44455421
0.2833219999997709,-7.956775188,21.57939529,-158.1540985,-3.201600313,-2.277291775,7.782940388,17.88175774,-35.60743713,1.813618422
0.29165499999999156,-7.755022526,21.32579803,-158.1263733,2.123272419,0.631937623,4.954998493,22.20485306,-31.03709984,-1.511818051
0.29998799999975745,-7.600784779,21.04218102,-158.0599213,-4.208934784,-1.459231734,8.527365685,14.71557617,-35.11558533,2.361225367
0.3083209999999781,-7.430775642,20.81608009,-158.042923,1.538928986,-0.811846256,4.751798153,18.88403702,-27.61598015,-2.080505848
0.316653999999744,-7.271192551,20.55991554,-157.9832458,-4.991747379,-1.5376091,12.80147934,15.70674419,-31.73286057,2.256334782
0.3249869999999646,-7.188062191,20.34471893,-157.9679413,1.052573681,-0.94124186,3.846343756,8.544991493,-26.30208588,-1.9633708
0.3333199999997305,-7.096219063,20.21481323,-157.9249115,-5.339869022,-1.866930246,11.87944126,8.319915771,-16.45734406,2.413322687
0.34165299999995113,-7.020740986,19.96592331,-157.9107819,1.980596781,0.368079156,-2.768264771,7.686300755,-30.30329514,-2.510261297
0.349985999999717,-6.977018833,19.91757202,-157.8834686,-4.428370476,-2.084339857,20.38521957,3.217531919,-6.520627975,1.895171523
0.35831899999993766,-6.976130009,19.69763947,-157.8516693,2.145241499,0.428146809,-1.920059681,-1.976895213,-27.10045433,-0.061563849
0.36665199999970355,-6.971577168,19.69280243,-157.8445892,-7.657304287,-2.888911724,18.25093651,-0.651101053,-1.05296278,0.26912874
0.3749849999999242,-7.011249542,19.61033821,-157.7992859,3.362797022,-1.048016906,0.422506034,-7.380165577,-10.91354752,3.459407091
0.3833179999996901,-7.076668739,19.60372925,-157.8110657,-7.624778748,-2.497241497,18.36684608,-8.286422729,-0.999019146,-1.870825291
0.3916509999999107,-7.115558624,19.56922722,-157.7320251,4.679083824,0.052678976,-8.293120384,-8.634726524,-5.681251049,7.934574604
0.3999839999996766,-7.155821323,19.52314377,-157.7655487,-6.35351944,-0.250730246,20.51395988,-4.39398098,-5.390656471,-4.900425434
0.40831699999989723,-7.200941086,19.56661987,-157.6711884,3.37913394,-0.165710747,12.13553619,-9.992563248,3.372755051,10.82053089
0.4166499999996631,-7.290199757,19.4066124,-157.688797,-2.945281982,-0.26980263,6.148687363,-10.91834164,-19.15731812,-4.849660397
0.42498299999988376,-7.277565956,19.49300194,-157.5956116,-0.068217024,-0.161354944,12.15932178,-2.99841547,8.477723122,11.35417652
0.43331599999964965,-7.311190605,19.34923935,-157.6027069,-0.873253584,-0.503883958,13.12647247,-4.665646553,-17.36731148,-3.439210653
0.4416489999998703,-7.320201397,19.37621117,-157.493988,-3.110337496,-1.625913858,12.8034544,-6.196712017,1.174976468,12.20039463
0.4499819999996362,-7.294201374,19.2183094,-157.5024719,1.103837132,1.35131216,10.33405113,2.539882898,-19.0229702,-3.810976982
0.4583149999998568,-7.219188213,19.14852715,-157.4060059,-2.882721663,-1.036327839,15.74395752,4.409440041,-10.15493202,9.365386009
0.4666479999996227,-7.208248615,19.00699234,-157.3963776,-0.832737565,0.66581279,17.0328083,0.015086791,-17.32710075,-1.498394847
0.47498099999984333,-7.125705719,18.90636253,-157.3453522,-1.618809462,-1.608719826,6.633698463,7.126598358,-13.17052174,3.818596601
0.4833139999996092,-7.030874252,18.69316864,-157.3570404,-0.864500225,1.498343587,13.63644028,10.91013336,-25.55703926,-4.917231083
0.49164699999982986,-6.904195309,18.63780975,-157.339447,-4.711715221,-1.722618222,20.05440712,13.73730087,-7.3047328,0.758104622
0.49997999999959575,-6.76782465,18.48818588,-157.3603363,0.796673477,2.300117731,13.33399677,16.23546219,-17.86684608,-4.946815491
0.5083129999998164,-6.620999813,18.31292152,-157.3576202,-3.985761881,-3.224653959,12.51531029,16.72802734,-21.3929863,-2.563743353
0.5166459999995823,-6.40901041,18.24129677,-157.3398285,-2.878499985,1.331125855,23.26937294,23.84102249,-9.087460518,0.588615358
0.5249789999998029,-6.208826065,18.05102158,-157.3256073,0.68188256,-2.377408743,5.574804783,22.7026844,-23.33979988,-1.317968845
0.5333119999995688,-5.94110775,17.90960312,-157.2725525,-0.303097129,0.618683398,8.006494522,29.2321949,-17.82571602,3.777770042
0.5416449999997894,-5.659834385,17.69248199,-157.2514191,-1.283253193,-2.727286339,18.94083786,32.19086456,-26.63276291,-0.652203441
0.5499779999995553,-5.406837463,17.52400208,-157.1951447,-4.656626701,0.931644082,30.17122459,27.39006615,-21.0459938,4.009450912
0.558310999999776,-5.178936958,17.32123947,-157.1927795,-0.745610654,-1.25654304,14.44781685,26.4747982,-24.71938515,-2.395022869
0.5666439999999966,-4.961408138,17.11962891,-157.1167297,-1.499710202,-1.045977473,12.11205673,22.4711628,-25.16187668,6.097449303
0.5749769999997625,-4.772351742,16.88672256,-157.1233826,0.524321377,-2.410344839,19.02647209,22.1315937,-28.25093079,-3.553530931
0.5833099999999831,-4.625378132,16.59609604,-157.0471039,-4.189293385,-4.349989414,12.59198666,14.07386303,-35.75986099,5.433016777
0.591642999999749,-4.46710825,16.36624146,-157.0453186,-2.009435415,-0.960059285,13.61846924,18.14289093,-27.98062515,-2.40306592
0.5999759999999696,-4.358349323,16.08878136,-156.9721069,-3.911741257,-1.659351945,18.17472076,9.676121712,-34.13186264,5.404788971
0.6083089999997355,-4.313563347,15.87375927,-156.9677277,0.407268196,-3.708339691,18.68411636,4.441485882,-26.235075,-1.86754787
0.6166419999999562,-4.268954277,15.63011646,-156.9196777,-5.813340664,-1.190908551,11.11769295,2.875046492,-29.85222244,2.904682159
0.6249749999997221,-4.247144222,15.44607544,-156.9153748,-0.351922333,-1.978181958,15.42706203,1.690027952,-22.5295372,-1.563378334
0.6333079999999427,-4.234160423,15.23068714,-156.8612366,-5.100702763,-2.708995581,21.29147339,-1.067281723,-26.52262115,3.896849632
0.6416409999997086,-4.297588348,15.04471588,-156.851944,0.906610429,1.431427836,18.9053421,-8.691951752,-22.80358315,-1.007139444
0.6499739999999292,-4.39421463,14.88511467,-156.8062439,-4.790572166,-3.510929346,13.89596462,-13.91807842,-19.78074455,3.393759966
0.6583069999996951,-4.507636547,14.78373432,-156.7728119,-3.761425495,-2.927192211,15.28417969,-15.42818832,-12.89796257,2.500436783
0.6666399999999157,-4.629331589,14.72617626,-156.7498169,-4.477448463,0.147045657,20.53425407,-16.20255661,-7.388363361,1.676810622
0.6749729999996816,-4.797245979,14.67503929,-156.7488861,-0.587255716,-3.524881124,12.58187103,-20.97093391,-6.591916084,-0.816953599
0.6833059999999023,-4.949886322,14.64846611,-156.7541199,-2.790619612,0.010312424,9.606913567,-19.04911995,-3.417132139,-1.307107568
0.6916389999996682,-5.076586723,14.64467049,-156.7516785,-3.030510902,-0.906046689,11.46570396,-16.06936264,-0.944486678,-0.178825825
0.6999719999998888,-5.190013409,14.65778732,-156.7805481,-4.533908367,-3.878660202,21.37858582,-13.62415028,1.568436742,-3.627834558
0.7083049999996547,-5.289193153,14.68031502,-156.776947,0.115646049,1.698982596,19.09393692,-12.80075455,2.186508417,0.240876302
0.7166379999998753,-5.476891041,14.70611477,-156.8230591,-5.316052437,-0.695766866,18.01757431,-22.00887489,3.285872459,-5.465503693
0.7249709999996412,-5.637714386,14.83507729,-156.8201141,-2.971750498,-2.151459455,16.73475456,-20.18061066,14.90211391,1.418773174
0.7333039999998618,-5.818749428,14.85147667,-156.8617096,-2.081761837,-1.758283854,12.16134071,-21.32917404,2.136100054,-5.034927845
0.7416369999996277,-5.969035625,15.00902462,-156.8802185,-1.213267684,-0.596569598,11.7142992,-18.25385284,18.55905914,-0.611015081
0.7499699999998484,-6.087729454,15.0484066,-156.9251404,-2.110659122,-2.692879438,9.603863716,-13.72527599,4.938988686,-5.109259129
0.7583029999996143,-6.191376209,15.16040039,-156.9406433,-3.961532354,-0.793278217,25.96135521,-12.74399281,13.08713341,-0.768363118
0.7666359999998349,-6.326443672,15.20053005,-156.9772949,2.060780287,0.813662529,12.90693474,-15.93255711,4.939527035,-4.121139526
0.7749689999996008,-6.486770153,15.22777367,-156.9792023,-4.255006313,-2.65234828,13.15705776,-19.97002983,2.806117058,-0.274571866
0.7833019999998214,-6.650292873,15.33551693,-157.0125885,-1.590764046,-0.618673921,23.88380432,-19.44030571,12.97494793,-2.7863307
0.7916349999995873,-6.847327232,15.33157921,-157.0265503,-1.215237021,-0.949240625,10.73861885,-23.9922905,-0.74674499,-2.080401897
0.7999679999998079,-7.019765377,15.34854507,-157.0447845,-1.965461969,-1.637262225,7.301943779,-20.98722076,1.963741541,-2.27207303
0.8083009999995738,-7.1165452,15.43700504,-157.0717468,-6.284552574,-2.090073347,17.25443268,-11.5458889,10.45096779,-2.209727526
0.8166339999997945,-7.204871178,15.3666029,-157.0922394,2.373044968,-0.137074828,15.79469967,-10.81308937,-8.407068253,-3.825320005
0.8249669999995604,-7.295592308,15.37441254,-157.0878601,-5.209427357,-0.852624774,22.58058548,-11.81634712,0.39748174,0.199534923
0.833299999999781,-7.440199375,15.39441681,-157.1087341,-1.840166211,1.734567165,20.6650219,-17.55742264,2.371084929,-2.509542704
0.8416330000000016,-7.58523941,15.35560608,-157.112793,-3.053642273,-1.801476717,10.72688484,-18.06629944,-5.022581577,-1.495986938
0.8499659999997675,-7.683991909,15.31335258,-157.1089325,0.717875898,-1.558020592,8.878872871,-12.84281445,-5.408357143,-0.652228296
0.8582989999999882,-7.753858566,15.27647114,-157.1108551,-4.798748493,-0.304377377,13.3212986,-9.113942146,-4.822124004,-1.234567761
0.866631999999754,-7.726622581,15.23733044,-157.0910339,-1.388158202,-1.489597321,20.27082443,1.779215932,-5.292400837,1.21767509
0.8749649999999747,-7.701776981,15.09797955,-157.0824738,-0.063478522,0.647866189,15.17388153,1.922374487,-17.17103195,-1.682458758
0.8832979999997406,-7.694541931,14.95195866,-157.0501709,-2.604408741,1.405948043,19.09291077,-1.001273394,-18.19160271,0.940682888
0.8916309999999612,-7.70759201,14.84919357,-157.0327301,-2.582718134,-3.295898914,16.93980408,-2.895138741,-12.96009922,-0.067711234
0.8999639999997271,-7.69193697,14.6914072,-157.0037842,-0.486847848,-0.454695135,11.05574036,0.130197197,-19.54250336,0.369126856
0.9082969999999477,-7.691609383,14.50991726,-156.9890137,-2.29649663,-1.425547719,11.6926651,-1.197324991,-22.28035927,-1.634739518
0.9166299999997136,-7.671035767,14.33517075,-156.9523163,-2.425551414,-3.90317297,17.9648304,0.580674887,-21.6477356,0.727726221
0.9249629999999343,-7.590878487,14.11197948,-156.9173584,-3.607784986,-0.898930013,15.15689278,7.799872875,-27.55382729,0.053175189
0.9332959999997001,-7.529616833,13.86282539,-156.8633575,1.287845969,1.610556722,14.31880188,4.999595642,-30.76493454,1.590056062
0.9416289999999208,-7.529120922,13.64898014,-156.8304749,-4.543079376,-3.943942785,21.63172531,-1.667910457,-26.41048431,0.016905406
0.9499619999996867,-7.569250584,13.46251774,-156.7751923,-3.28503108,-0.309348345,20.60840034,-7.151637554,-23.32664871,2.722896814
0.9582949999999073,-7.654814243,13.18086338,-156.7566833,0.303686321,-1.660714269,6.33650589,-11.57025909,-34.25338364,-2.754212379
0.9666279999996732,-7.689275742,12.92834473,-156.7045593,-3.272912025,-3.12142849,7.334724903,-6.323737621,-31.1424942,1.236733198
0.9749609999998938,-7.68056488,12.71177101,-156.6899872,-3.559966803,-1.669960976,19.0680809,-0.132925153,-26.45069695,-2.206347466
0.9832939999996597,-7.676788807,12.43278694,-156.6443176,-2.88001585,0.709212661,20.87439728,-1.510639429,-34.19504929,0.062114581
0.9916269999998804,-7.708343983,12.18953323,-156.5966339,-2.093059778,-0.539258957,18.35921288,-5.796852112,-30.14356422,1.210504174
0.9999599999996462,-7.761734009,12.00374317,-156.561676,-5.859548092,-0.2485971,18.44129944,-8.057179451,-22.94643211,0.278221965
1.0082929999998669,-7.817560673,11.74041843,-156.5204926,1.689091802,-1.645056248,9.36052227,-8.505946159,-32.43069077,0.08883027
1.0166259999996328,-7.841228962,11.54658222,-156.4982452,-5.042344093,-1.033037066,12.47093678,-4.160458088,-23.71288872,-1.32109344
1.0249589999998534,-7.858485222,11.37611485,-156.4696655,-1.949661374,-1.731337309,18.45309448,-3.542053461,-21.19114113,0.116365537
1.0332919999996193,-7.849950314,11.16033649,-156.4601135,-4.319455624,-1.45910418,13.63053894,0.023180895,-26.12098885,-3.186169147
1.04162499999984,-7.804542065,10.96947289,-156.4243774,-0.44470796,0.224914446,13.44206238,3.835196018,-23.73092461,0.629290879
1.0499579999996058,-7.809985161,10.86903191,-156.4272003,-4.914433479,0.1816708,23.1019268,-1.365969062,-12.21780109,-2.738584995
1.0582909999998265,-7.830237389,10.72406292,-156.4042664,-1.019326925,-1.71238482,15.06497383,-3.734184742,-18.06942368,-0.111870199
1.0666239999995923,-7.850440025,10.59334755,-156.380127,-1.392872453,-0.216645479,6.861531258,-3.745660305,-16.25814056,-0.060206275
1.074956999999813,-7.803862572,10.50611687,-156.3650055,-6.267179489,-2.290255308,15.69867039,4.468224525,-11.08009243,-0.077137284
1.0832899999995789,-7.689385891,10.39792728,-156.3358459,-1.078598857,-1.209787488,14.06294632,12.32380486,-13.66413593,0.903106809
1.0916229999997995,-7.584967136,10.29572582,-156.3038788,-2.847158194,0.041390941,20.01935005,11.05315971,-13.12364769,1.686953902
1.0999559999995654,-7.539957523,10.23704433,-156.2844543,-3.271571398,0.599160373,22.47180367,4.207521915,-7.620478153,0.572273195
1.108288999999786,-7.492840767,10.1921072,-156.2685242,-2.787605762,-2.061553955,10.53244305,4.525599957,-6.059367657,0.73986721
1.116621999999552,-7.433106899,10.1274538,-156.2296295,-0.477768362,-0.873401523,7.360176086,5.563463688,-8.636211395,2.796127319
1.1249549999997726,-7.381632328,10.12552929,-156.2169037,-4.92113924,-3.937833309,13.76753235,5.120618343,-0.890696526,1.037735105
1.1332879999999932,-7.25950098,10.15702343,-156.1726685,-4.12641573,-0.450442314,16.35297775,12.94753933,2.732168674,4.898339748
1.141620999999759,-7.19712162,10.13859844,-156.1499023,-0.762405515,-0.391833663,14.78491688,6.215294838,-3.00084877,1.97029829
1.1499539999999797,-7.180086136,10.2630291,-156.094986,-7.128222942,-1.633644342,19.19509697,0.102277651,13.6461401,7.550105095
1.1582869999997456,-7.183735371,10.39099789,-156.0779724,-1.297223926,-1.293335438,10.91689777,-1.59465313,14.51720524,3.493219137
1.1666199999999662,-7.21369648,10.54448223,-156.0417633,-4.248587132,-1.64122355,15.46229553,-5.153828621,17.37524223,5.784514904
1.1749529999997321,-7.235553265,10.72679043,-156.0526733,-1.410638094,-1.861556053,7.307420254,-3.171286821,21.39739418,1.053052783
1.1832859999999528,-7.29829216,10.8723011,-156.0391083,-4.096895218,-1.71142602,8.663064003,-8.598047256,16.75150871,3.029011726
1.1916189999997187,-7.378285408,11.04584694,-156.0762329,-1.17244184,-1.773742914,17.33916664,-9.542856216,20.74638557,-2.10107255
1.1999519999999393,-7.478634834,11.28481388,-156.0999451,-3.692048073,-1.740481377,7.565097332,-12.25200367,28.42531967,0.182219818
1.2082849999997052,-7.627501965,11.41434574,-156.1468964,-0.499237716,-0.816353679,4.696684361,-17.54666901,15.66736507,-3.854598522
1.2166179999999258,-7.740644932,11.62445354,-156.1673431,-3.477330208,-2.534475565,14.56184959,-13.84213448,24.93478012,0.234191135
1.2249509999996917,-7.881496429,11.83227539,-156.2333069,0.2576873,0.42292136,3.133649826,-16.08537865,25.29376793,-4.71252346
1.2332839999999123,-8.058343887,11.97189045,-156.2616272,-2.992665052,-1.162282705,8.999403,-21.27436256,16.67838478,-1.718114138
1.2416169999996782,-8.222208023,12.23525143,-156.3383179,-0.65570873,-2.150652885,5.112050056,-18.52547836,32.0921402,-4.853736877
1.2499499999998989,-8.359963417,12.42841911,-156.3778381,-5.187770367,-0.017847633,8.592907906,-16.27051926,23.22482872,-1.972028732
1.2582829999996648,-8.528621674,12.71971226,-156.4587555,1.812878013,-0.620259404,6.218509674,-18.91735458,35.50130081,-4.661912918
1.2666159999998854,-8.693292618,12.92370033,-156.5217133,-4.907403469,-2.3075912,0.917942345,-18.83638191,24.92352104,-4.335328579
1.2749489999996513,-8.8604002,13.29508305,-156.5836639,-1.798559308,0.959041178,15.3187418,-19.15752983,44.68169403,-0.779301882
1.283281999999872,-9.049631119,13.60344124,-156.6799164,-2.062496901,-1.8822124,-4.290895939,-20.76179314,37.92034912,-6.076692104
1.2916149999996378,-9.193911552,13.87520599,-156.6871033,-1.344506621,-0.563878298,14.34292507,-17.90079689,31.86403847,3.92210722
1.2999479999998584,-9.402667046,14.37448025,-156.8259277,-1.170906067,-0.381532341,-7.103074074,-21.72619057,61.35021973,-6.976767063
1.3082809999996243,-9.504155159,14.5429945,-156.8163452,-1.78032589,-0.43123588,7.913211823,-13.25681973,19.29772377,3.997718334
1.316613999999845,-9.640459061,15.02818203,-156.9651642,-2.177443981,-0.572093487,0.618151546,-12.53102589,59.89919662,-8.07876873
1.3249469999996109,-9.75319767,15.30692387,-156.9944458,0.884142697,0.701611936,9.229029655,-13.40008736,33.07431412,1.870148301
1.3332799999998315,-9.860907555,15.677248,-157.114151,-4.482473373,-0.197415337,3.873445511,-9.821861267,45.75925064,-6.781599045
1.3416129999995974,-9.912187576,15.95713902,-157.1465759,4.295797348,0.208328575,-3.462629557,-5.881995201,33.26367569,1.655936241
1.349945999999818,-10.01136112,16.35007286,-157.2419281,-4.231659412,-0.888755739,10.46782207,-9.446357727,47.95355988,-3.379075527
1.358278999999584,-10.04884338,16.62831879,-157.2722168,1.662874341,-0.28061986,4.207513332,-4.256590366,33.01808929,1.964152575
1.3666119999998045,-10.11751556,16.89510918,-157.3342896,-3.19105196,-1.045072556,5.186573982,-6.903874874,32.32811356,-1.840755582
1.3749449999995704,-10.18270111,17.10870361,-157.3748474,2.505425453,-0.145224184,1.078259826,-7.18921566,25.58320618,-0.486657917
1.383277999999791,-10.23673058,17.3383255,-157.4185638,-1.084049582,-1.256362915,-0.172354713,-5.741113663,27.56488037,-0.472006589
1.391610999999557,-10.28020191,17.49300194,-157.4680786,0.888122916,0.197610542,3.862588644,-4.228822231,18.80633545,-2.693171263
1.3999439999997776,-10.31190681,17.66944313,-157.4807434,-1.169725299,-0.265137434,6.736804485,-4.153900623,20.64797401,1.93595016
1.4082769999999982,-10.39452648,17.74190903,-157.5328674,-0.006966691,-0.691967487,5.351070404,-8.80242157,9.158011436,-4.722765446
1.4166099999997641,-10.42304611,17.85031319,-157.5222473,-1.573954582,-1.115340352,1.643592834,-4.620053768,12.13128853,3.121376991
1.4249429999999847,-10.46185589,17.84244919,-157.5709229,0.436446756,-0.419573426,0.543469548,-3.658647537,-0.386608422,-6.05987978
1.4332759999997506,-10.44786263,17.87207222,-157.5446014,-1.206964374,-1.390275955,3.035666943,-0.095989339,2.505276918,3.180570364
1.4416089999999713,-10.46567059,17.81658554,-157.5836334,0.882941365,0.68739742,2.771087408,-1.490351439,-6.205803871,-6.015951157
1.4499419999997372,-10.46307373,17.78468323,-157.5566406,-0.235502228,-0.580334425,1.609430075,-1.484741926,-4.771099567,1.914280057
1.4582749999999578,-10.47515774,17.69609833,-157.5781097,0.085773461,0.569804728,2.543575764,-1.454901457,-10.47398186,-4.766821861
1.4666079999997237,-10.46034336,17.61058044,-157.5631561,-0.100425519,-1.544337749,1.880231619,0.428679913,-10.84756565,-0.60269022
1.4749409999999443,-10.45356846,17.47947121,-157.5635834,-0.521096587,0.549486101,3.568171501,0.037806615,-15.92976379,-3.327045918
1.4832739999997102,-10.44050217,17.33639908,-157.5663147,-0.604883373,-2.657820463,2.515488863,0.915504158,-17.24515533,-4.011919975
1.4916069999999308,-10.43642521,17.18327332,-157.5469513,-0.316138625,1.614490271,4.27664566,-0.989670277,-18.94064331,-1.568859577
1.4999399999996967,-10.44893932,17.00995445,-157.5747375,-0.658989668,-3.247955561,1.026896238,-1.323808193,-20.32399178,-7.324149609
1.5082729999999174,-10.42393208,16.80913544,-157.5309448,0.760841548,2.476007223,3.636765718,0.681800067,-25.07758904,0.156989709
1.5166059999996833,-10.4511261,16.57831764,-157.5550079,-0.810302377,-3.590393782,2.941362858,-3.186989307,-27.15675926,-8.323800087
1.524938999999904,-10.44074059,16.37639809,-157.4868317,-2.445052862,0.097412676,2.98120141,-1.863039732,-25.71869087,2.900557756
1.5332719999996698,-10.47719288,16.1743679,-157.5083466,0.64609623,-0.756323755,3.901236773,-4.404331207,-23.81122398,-7.42453289
1.5416049999998904,-10.44630909,15.98343849,-157.4177094,-2.914742231,-0.212053388,3.523936272,-0.09504167,-24.89542198,5.694303513
1.5499379999996563,-10.46667004,15.79571056,-157.4536438,-1.256172657,-1.29799211,2.820347309,-2.015034437,-21.81966209,-8.75457859
1.558270999999877,-10.43191814,15.66157818,-157.3603668,-1.720496893,-0.026969872,-0.998451233,0.345945925,-18.25098038,7.255874157
1.5666039999996428,-10.4217186,15.43463802,-157.4032745,1.089460492,-1.493012428,3.999228477,1.846915364,-26.31014824,-10.38238907
1.5749369999998635,-10.40100574,15.34584236,-157.3183899,-5.578118324,-0.795176625,7.221729279,-1.00788188,-12.71999264,7.313171387
1.5832699999996294,-10.4133606,15.199049,-157.3682861,3.616755962,1.866295695,3.505970478,-0.657709658,-16.70651627,-9.450514793
1.59160299999985,-10.39489174,15.14713097,-157.3056793,-6.083009243,-1.622691512,4.087395668,-0.540191412,-7.904079437,5.584774017
1.5999359999996159,-10.43894196,15.04354954,-157.3294678,3.162344694,-1.065120697,3.223805904,-5.298368454,-12.15094471,-5.540832996
1.6082689999998365,-10.45526409,15.03107071,-157.2953491,-5.145308495,1.430049181,4.351302624,-3.81041193,-2.657489538,3.192532539
1.6166019999996024,-10.49542522,14.97181892,-157.3079834,1.588319659,-2.216910839,2.841344833,-5.178545952,-7.147384644,-3.329863787
1.624934999999823,-10.51507282,15.04395485,-157.287323,-5.987294674,-1.790928721,3.28403616,-3.789409161,7.60786438,3.51107192
1.633267999999589,-10.54075813,14.96556759,-157.2987213,4.459403992,1.578131795,1.34358871,-3.477939367,-9.429535866,-3.618203163
1.6416009999998096,-10.55880547,15.06384945,-157.2863312,-8.627039909,-3.005170584,5.671910286,-3.340647221,10.86384392,3.150115728
1.6499339999995755,-10.55331993,15.05982494,-157.315506,6.016578197,1.059280634,0.430766881,0.822242498,-0.278413892,-4.022753716
1.658266999999796,-10.55043221,15.14353848,-157.3197174,-9.237161636,-0.467628211,7.512508869,-0.311430722,9.49793911,0.936994493
1.666599999999562,-10.58056164,15.20055199,-157.3198547,8.007655144,-1.193971872,1.115699053,-4.357404709,6.305303097,0.627420783
1.6749329999997826,-10.60222149,15.26228142,-157.339386,-7.911509991,0.240283206,7.836475849,-2.773496628,7.228978157,-1.283337235
1.6832660000000033,-10.66271687,15.34809589,-157.3245239,5.073574543,-0.273668706,4.804413795,-8.463418007,9.388950348,2.941385269
1.6915989999997691,-10.74385834,15.44506741,-157.3470764,-6.573396683,-1.297665834,5.152387142,-9.810112953,11.45148563,-0.821000457
1.6999319999999898,-10.78775692,15.53412151,-157.3226166,4.343479633,-1.117048502,-1.284353495,-6.780153275,9.557723045,4.105706215
1.7082649999997557,-10.79629993,15.55747032,-157.3563995,-4.113659382,-2.07357645,2.134163141,-0.72832799,3.016639709,-3.734107494
1.7165979999999763,-10.75176239,15.60068512,-157.3023224,3.217878342,1.129574299,5.818198681,2.889695883,3.525236607,6.390240192
1.7249309999997422,-10.76847172,15.62757683,-157.368927,-5.569098473,-0.69890219,11.98855209,-0.644108355,4.140592098,-7.380293369
1.7332639999999628,-10.81174088,15.66607189,-157.2839966,3.330987215,2.371909142,11.79464149,-8.658828735,2.295829773,9.803824425
1.7415969999997287,-10.90697861,15.64156723,-157.3711395,-3.457654238,-3.328592062,-1.978460193,-9.397568703,-1.459153533,-10.86388111
1.7499299999999494,-10.8765583,15.63912678,-157.2608185,3.380351067,-0.642946601,-3.370797396,-0.620005429,-3.090037107,11.71185303
1.7582629999997152,-10.82212639,15.60307217,-157.3363953,-3.79186821,-0.53312242,9.043895721,8.184005737,-3.071800232,-9.815491676
1.7665959999999359,-10.75926018,15.52756405,-157.2161713,-0.850599468,-0.947221935,15.01138306,2.969997168,-11.89939213,11.21532536
1.7749289999997018,-10.8086319,15.45708847,-157.2875061,0.463208169,0.602215111,5.446761608,-4.430583954,-7.232064724,-10.10884953
1.7832619999999224,-10.81820488,15.47270298,-157.1909637,-2.483259916,-1.585057974,5.545468807,-4.949195385,-0.65286845,10.6006813
1.7915949999996883,-10.81165123,15.34812164,-157.2523499,0.603153944,-1.381916523,4.161719322,1.954161763,-13.81879425,-10.20344639
1.799927999999909,-10.74606895,15.25057507,-157.125946,-1.507412195,-0.511668503,0.966832459,3.157596111,-14.63517094,11.45453548
1.8082609999996748,-10.69316578,15.16412163,-157.1933899,0.937316835,1.194331408,16.08130836,7.681199074,-9.206617355,-10.02629757
1.8165939999998955,-10.59318161,14.95921898,-157.0531158,-2.646304846,-1.176524997,4.45134306,6.914158344,-27.56581306,10.70209694
1.8249269999996613,-10.59537125,14.877841,-157.1004791,3.275719643,-0.07141763,17.23272896,0.409469247,-9.055799484,-7.615715504
1.833259999999882,-10.51739693,14.65573692,-156.9892426,-5.767410278,-2.617786884,-6.918201447,5.250896931,-28.95744514,7.046610355
1.8415929999996479,-10.39883518,14.52683449,-156.991806,2.520392418,1.337009549,18.14849281,13.51468945,-15.62482929,-3.52396965
1.8499259999998685,-10.31125736,14.31421375,-156.9078217,-4.844540596,-3.259082794,7.395385742,7.296271801,-27.24479485,4.238595486
1.8582589999996344,-10.25384712,14.09148788,-156.8713531,3.827220917,1.508595467,19.64929008,5.027667999,-27.5222702,-1.020433426
1.866591999999855,-10.17888641,13.9758234,-156.8244629,-8.345366478,-3.402212381,-2.180836201,6.924888134,-15.01800346,2.128543854
1.874924999999621,-10.07877827,13.60671139,-156.7400055,8.684936523,1.883507013,9.658230782,8.807599068,-45.80024719,1.477457404
1.8832579999998416,-9.999221802,13.52881813,-156.7548523,-12.51678467,-3.413515568,18.2109108,9.259727478,-9.290964127,-4.132025242
1.8915909999996074,-9.888586044,13.22341061,-156.6255646,8.861332893,1.625092864,9.046608925,8.89857769,-39.17123032,8.115242004
1.899923999999828,-9.817862511,13.06622601,-156.6659851,-10.73859978,-2.153814554,14.61708355,8.883583069,-18.16397095,-8.686982155
1.908256999999594,-9.691930771,12.78900337,-156.5199432,5.402826786,-0.494486421,9.964898109,10.40310764,-36.1463356,10.77602673
1.9165899999998146,-9.583953857,12.60851955,-156.5774689,-6.771980286,-1.186133027,16.6645298,13.76960659,-20.61190414,-11.08919144
1.9249229999995805,-9.465385437,12.31858826,-156.4318695,2.571524143,0.456962645,13.53001785,9.66859436,-37.60181427,10.64544392
1.9332559999998011,-9.366557121,12.08492184,-156.481369,-7.805469036,-1.271927476,21.00880623,12.3996067,-27.10660744,-11.10876369
1.941588999999567,-9.181763649,11.88299465,-156.3464813,3.593753338,-0.213647485,6.003560066,18.02634048,-26.93261528,11.29896259
1.9499219999997877,-9.073547363,11.54087543,-156.401947,-3.050134182,-1.489844084,13.49311733,13.6203413,-39.89591599,-13.74514675
1.9582549999995535,-8.89673996,11.35582066,-156.2622528,-0.316334873,-2.737082243,16.30871582,17.10125732,-24.96740913,12.33559608
1.9665879999997742,-8.745867729,11.11577892,-156.3146667,-4.267035961,-0.483114392,10.20225906,18.60766029,-27.915411,-11.30391979
1.9749209999999948,-8.528047562,10.89822292,-156.192276,-0.613953054,-0.674870908,15.87980938,22.54644775,-28.44378281,9.908751488
1.9832539999997607,-8.382889748,10.64103031,-156.2340546,-4.716777325,-3.495132923,20.76158714,17.63132095,-30.20291901,-10.20265961
1.9915869999999813,-8.200787544,10.47071552,-156.1148376,-3.462548256,-0.087813422,18.60461807,18.44277763,-22.71916771,10.5469265
1.9999199999997472,-8.077625275,10.30712509,-156.1547699,-0.911976278,1.095639825,19.77705574,14.91074562,-19.17394257,-8.208277702
2.008252999999968,-7.991874695,10.12577915,-156.0591125,-0.717706442,-4.0976758,10.74057293,7.464197159,-23.59375954,7.720237255
2.0165859999997338,-7.89790678,9.941270828,-156.0801544,-1.180191755,-2.088169098,13.35644722,10.97801018,-21.99399376,-6.280344486
2.0249189999999544,-7.78983593,9.812502861,-155.9906158,-6.916720867,-2.183995008,18.10609627,10.33739662,-17.2189045,7.955655098
2.0332519999997203,-7.709150791,9.665823936,-156.0202484,2.102062225,-0.314719856,15.79340172,9.53182888,-17.38898468,-6.536511898
2.041584999999941,-7.61364603,9.547846794,-155.9519348,-7.25787735,-2.524296761,20.90643501,9.305089951,-15.57657146,5.700423241
2.049917999999707,-7.612336636,9.412745476,-155.9686432,3.81026721,-0.412650108,11.38094616,-0.260996282,-16.22473717,-4.822969437
2.0582509999999274,-7.574176311,9.281482697,-155.9021759,-6.052483082,-3.681932211,12.73622704,2.493111134,-17.12000847,5.297281265
2.0665839999996933,-7.535816193,9.185992241,-155.916687,-1.41672051,-2.359452486,12.60319805,4.13252449,-11.55367279,-3.913279295
2.074916999999914,-7.445869446,9.104580879,-155.8826752,-6.100747585,-1.652983904,25.95473099,9.355957985,-10.67868996,2.299159527
2.08324999999968,-7.423845291,9.045381546,-155.8687592,0.976440489,-0.336457998,17.17819405,1.623558521,-7.682799339,0.042135421
2.0915829999999005,-7.408144474,8.934326172,-155.8495026,-1.662061691,-1.247973561,11.92374134,0.734001696,-13.97742271,0.119106226
2.0999159999996664,-7.417077541,8.894330025,-155.815979,-2.867080927,-1.641905427,17.83838654,-2.449169159,-5.693134785,2.624613762
2.108248999999887,-7.453238487,8.860075951,-155.8093719,-4.934403896,-3.288731575,16.5728054,-5.253261089,-4.645026207,-0.178467169
2.116581999999653,-7.455031395,8.901849747,-155.7743378,-2.928129196,0.44091779,16.85313797,-1.621265769,4.006527424,4.097867966
2.1249149999998735,-7.464153767,8.895593643,-155.7927551,-0.688656092,-3.335380793,11.1705637,-1.542245984,-0.926684558,-2.684563875
2.1332479999996394,-7.481986523,8.935716629,-155.764801,-1.494708538,0.420457095,15.97618675,-3.415056229,3.917005539,3.227342367
2.14158099999986,-7.49593544,8.958180428,-155.7739563,-5.475437164,-4.318580151,8.57988739,-2.292179585,2.34759593,-1.147735357
2.149913999999626,-7.434334755,9.031331062,-155.7619324,-2.159976006,-0.663454175,21.6611042,6.410065174,8.092741013,1.878574014
2.1582469999998466,-7.418778896,9.057548523,-155.7766266,-3.757786989,-0.431240559,21.4076519,1.355940938,2.877529144,-1.744957089
2.1665799999996125,-7.447420597,9.203838348,-155.7776489,-1.684278131,-1.332253098,18.20644951,-4.172111034,16.99609756,1.471691728
2.174912999999833,-7.460927963,9.279983521,-155.8023529,-2.867223501,-0.58669728,6.995460033,-1.934861183,8.973462105,-2.14051795
2.183245999999599,-7.465324402,9.440690041,-155.7976532,-1.116521001,-2.23664546,21.78712082,-1.372782469,18.62229729,2.374542713
2.1915789999998196,-7.516239166,9.519248009,-155.8453369,-1.729192257,-2.379162312,11.34436512,-5.957192421,9.61476326,-4.789336681
2.1999119999995855,-7.548031807,9.672515869,-155.8492432,-3.854227304,-1.245044827,13.73342705,-4.489087582,17.86962128,1.269339204
2.208244999999806,-7.578966618,9.788269997,-155.8854523,0.928822577,-2.69165802,4.860279083,-3.767867088,13.86657429,-2.839607239
2.216577999999572,-7.599534035,9.957337379,-155.8866577,-6.468854427,-2.732263565,22.95107269,-3.192009211,19.70357895,1.852422237
2.2249109999997927,-7.64309454,10.108675,-155.9377747,0.464716971,-0.623049736,16.03795624,-4.947890282,18.33423805,-4.004850864
2.2332439999995586,-7.69978857,10.21229935,-155.9239655,-5.70623827,-2.409584999,24.06432533,-7.841221809,11.68431854,2.569799423
2.241576999999779,-7.802274704,10.39216423,-155.9571686,1.842386723,-0.221492961,13.12631321,-12.37551117,21.448349,-1.39627111
2.24991,-7.948219299,10.44430542,-155.9569244,-3.702546835,-2.530744553,11.51947975,-18.25845909,5.777676105,0.151738763
2.2582429999997657,-8.102651596,10.66629124,-155.976181,-0.690814435,-2.241235971,20.36265755,-18.8988533,26.22633934,1.046291232
2.2665759999999864,-8.261255264,10.70655537,-156.0030518,-3.449469805,-1.682173014,9.261623383,-19.16020966,4.827567577,-3.247873306
2.2749089999997523,-8.424561501,10.87387753,-156.0209656,-4.430257797,0.005886028,20.9921875,-19.98555756,19.70565796,0.401144803
2.283241999999973,-8.605861664,10.99777889,-156.0666351,2.099877596,-3.250488758,6.828858852,-21.43501854,15.1003685,-3.941534042
2.291574999999739,-8.734579086,11.07922935,-156.0583496,-5.956355095,-1.2616117,10.36414528,-16.42821884,9.049741745,2.015405178
2.2999079999999594,-8.855716705,11.2393198,-156.1196747,-2.581845999,-0.724358737,23.24189758,-13.82812119,19.68898201,-5.018612385
2.3082409999997253,-8.989964485,11.33522987,-156.1307831,-2.074375629,-1.283378839,16.68102264,-16.63958931,11.10584927,0.068748631
2.316573999999946,-9.16813755,11.43944931,-156.1649323,-1.039943099,-0.155106276,12.74281979,-21.2873745,12.58591843,-2.811662912
2.324906999999712,-9.31932354,11.59480286,-156.1834412,-5.110077381,-0.338033289,14.70308971,-18.49037743,18.28427315,0.421738595
2.3332399999999325,-9.474859238,11.69057369,-156.2118683,-0.989755929,-2.52298665,18.06774139,-18.69482613,11.48445415,-2.220460653
2.3415729999996984,-9.620475769,11.81582737,-156.1998596,-1.234607935,-3.253822327,7.844837666,-18.55804634,14.12072372,3.460049152
2.349905999999919,-9.76534462,11.90999126,-156.2329865,-2.321699619,1.276623011,9.838654518,-17.28224945,11.39892864,-2.737202168
2.358238999999685,-9.905963898,12.09968567,-156.2414551,-2.818455935,-3.92864275,19.2557106,-17.45428085,22.13048172,2.485453367
2.3665719999999055,-10.06076622,12.11253643,-156.2797241,-0.553875685,-0.713542223,13.24202156,-18.32561874,1.904239655,-4.963002682
2.3749049999996714,-10.18380451,12.22739697,-156.2997437,-5.354557991,0.039228879,12.38576126,-15.04961205,13.51479244,-0.31084168
2.383237999999892,-10.27877903,12.25637913,-156.353775,2.68185401,-0.762003005,9.215595245,-10.73222542,4.156985283,-6.429212093
2.391570999999658,-10.37062359,12.31507683,-156.3544312,-3.281795263,-2.366711378,15.78388214,-11.79675198,6.476277828,0.765609562
2.3999039999998786,-10.49728203,12.33650017,-156.3941193,-2.144725323,1.138700247,16.22879982,-14.88852024,2.984263897,-4.935620785
2.4082369999996445,-10.60044003,12.4406147,-156.4185028,-4.670941353,-1.752608538,13.76426697,-12.54146099,12.33876324,-0.94497335
2.416569999999865,-10.68134403,12.39846611,-156.4363098,1.26506722,-1.489264488,9.685270309,-9.957444191,-4.972094536,-3.803240299
2.424902999999631,-10.74662876,12.40750504,-156.4491425,-4.735919952,-1.30047369,11.05232716,-8.294465065,0.878798783,-1.702565551
2.4332359999998516,-10.77926064,12.36196899,-156.4603424,0.596513808,-0.083856247,10.44452095,-4.335146427,-5.508893013,-3.121927738
2.4415689999996175,-10.77920151,12.29181004,-156.4478149,-4.240035534,-2.100821495,7.230579853,-1.104140043,-9.013123512,-0.556149125
2.449901999999838,-10.76969242,12.25443935,-156.4400177,-0.014104374,0.712088883,18.01143265,0.234600812,-4.961720943,-0.760960519
2.458234999999604,-10.76586723,12.24708843,-156.4546051,-2.63565731,-1.127978206,7.70100975,0.041904893,-1.013670683,-2.269408464
2.4665679999998247,-10.77539158,12.11005497,-156.4223785,2.059354305,-1.231297851,5.147527218,-2.670271873,-17.24843788,-0.173165083
2.4749009999995906,-10.7572546,12.08433151,-156.4416656,-5.396785736,-2.340823412,12.25251961,1.872119069,-3.076666594,-3.223820448
2.483233999999811,-10.72975731,12.00974178,-156.4119415,-1.084414959,0.509834111,11.13364315,1.842508912,-9.832805634,0.95612818
2.491566999999577,-10.71526527,11.95439625,-156.457016,-3.712070227,-2.979140759,10.99381924,2.072242975,-6.008089066,-6.859069824
2.4998999999997977,-10.68231773,11.88040924,-156.4203796,-2.263215542,1.179314017,12.92780209,2.333328962,-9.909931183,1.768483758
2.5082329999995636,-10.66689396,11.89961147,-156.5078735,-3.917175055,-2.65019846,3.683595419,3.224909306,3.70164156,-10.09484005
2.5165659999997843,-10.63113022,11.8077507,-156.4805145,0.209898472,-0.823897779,9.634985924,2.902502537,-11.82021332,0.322303891
2.524899000000005,-10.63677025,11.84499073,-156.5902557,-4.291309834,-1.131367445,7.841821671,1.232736707,6.305227757,-12.26741695
2.533231999999771,-10.62083626,11.79362106,-156.5601654,-2.17266345,-0.966003239,4.686066151,0.453295171,-7.105453014,1.549763799
2.5415649999999914,-10.63850307,11.89083004,-156.6849823,-3.710927725,-1.663886666,12.35224056,0.164264143,13.70290279,-12.67944813
2.5498979999997573,-10.66237259,11.98986149,-156.6685791,-1.425217152,-1.850628614,-3.442106724,-3.987560034,10.92979813,3.290942192
2.558230999999978,-10.68795395,12.06370544,-156.7471161,-1.412182093,0.192398921,10.78781128,-1.895107985,9.949057579,-7.841325283
2.566563999999744,-10.69747829,12.31543732,-156.747879,-5.202536583,-2.614824295,1.712337136,-1.838219762,29.30565071,4.725163937
2.5748969999999645,-10.73795319,12.42750072,-156.7955017,1.210801125,0.791862249,13.34301662,-4.421670914,13.78438187,-3.407295942
2.5832299999997304,-10.83461571,12.75271797,-156.8109131,-4.410889149,-2.332378864,-3.68861866,-11.90877914,38.28068542,4.738717556
2.591562999999951,-10.89906025,12.99672794,-156.8379822,-1.625677109,-1.76997757,9.82537365,-7.800577164,28.88721657,1.986667275
2.599895999999717,-10.98561478,13.30494404,-156.8741302,-3.53161931,-1.002442956,0.02789229,-10.1122179,36.71746063,2.104211807
2.6082289999999375,-11.15878773,13.63020897,-156.9171448,1.032758355,-1.449774146,8.273151398,-20.36997414,38.80350876,2.143863916
2.6165619999997034,-11.29510403,13.98176289,-156.9972992,-2.868416786,-1.503788114,-5.253628731,-14.77366352,42.79916,-1.704822659
2.624894999999924,-11.36421967,14.26303768,-156.995224,0.60394007,-0.292824894,3.695390463,-9.145123482,32.58072281,6.443394661
2.63322799999969,-11.48965263,14.57870579,-157.0829163,-3.15819025,-0.650954902,14.69244957,-13.15455723,38.73925781,-3.180947065
2.6415609999999106,-11.66261864,14.84738159,-157.0697784,1.45293808,0.546487272,5.410860538,-21.94747353,30.81219673,7.540047169
2.6498939999996765,-11.88805294,15.10488129,-157.1712341,-1.912461042,-2.104611397,-2.501418591,-24.62086296,32.24612045,-5.927001953
2.658226999999897,-11.97174931,15.34881973,-157.1578827,1.817159057,-2.171097279,-2.284595251,-11.25422573,27.85422325,7.139205933
2.666559999999663,-12.03419876,15.43900108,-157.2303772,-1.094292641,1.617835999,9.794091225,-5.91221571,11.91630936,-6.615633965
2.6748929999998836,-12.10040569,15.53859901,-157.2066193,-0.605975986,0.510828137,8.677195549,-9.497107506,10.64648151,4.760381222
2.6832259999996495,-12.20383358,15.52473831,-157.2560577,3.202484846,-0.471691191,0.311550766,-11.54404259,-0.833243906,-6.6167593
2.69155899999987,-12.22432137,15.49554443,-157.2253113,-2.924414873,-1.733155131,6.097761631,-4.235095978,-4.642157555,2.309942961
2.699891999999636,-12.22484303,15.33555889,-157.2177429,2.693336487,0.972744167,6.202544212,-1.027246475,-19.35918045,-3.881825686
2.7082249999998567,-12.19545174,15.18628502,-157.1804352,-1.808807015,-1.813995004,3.215841293,1.55852437,-18.88851929,0.007837958
2.7165579999996226,-12.12555122,14.88399506,-157.1379089,0.810450137,1.14624548,10.76024151,6.337199688,-36.91078186,-3.485371828
2.724890999999843,-12.06505966,14.62269592,-157.0816498,-0.633557558,-1.427946687,3.062341928,4.750189304,-32.49543762,-0.609452844
2.733223999999609,-11.93967247,14.24111462,-157.0131226,-0.571440935,0.461300164,6.509273052,12.26806641,-46.85546494,-2.402248859
2.7415569999998297,-11.8113699,13.90594006,-156.9598541,-2.047867537,-1.709288716,6.813527584,13.05283165,-41.10255051,-2.633160591
2.7498899999995956,-11.65257645,13.44929981,-156.8625336,0.943482995,0.09808334,8.350756645,15.56417942,-56.37224579,-0.703433096
2.7582229999998162,-11.49090767,13.12254238,-156.8063507,-4.23348093,-1.63810432,8.057297707,17.06302643,-40.19715881,-1.863630533
2.766555999999582,-11.31067276,12.62326527,-156.6943817,0.385736585,0.154642358,-1.419267774,17.89785957,-61.73631287,0.336136848
2.7748889999998028,-11.1041708,12.28017235,-156.6707306,-4.84663868,-1.285301685,13.42415714,23.38005447,-41.39082718,-5.708515167
2.7832219999995687,-10.92026997,11.87408638,-156.5941315,-0.924383104,-2.305948257,0.824283183,19.40283203,-49.96981812,-1.135136127
2.7915549999997893,-10.74052525,11.52273655,-156.6091309,-3.456077576,-0.301450193,15.83981133,21.14571762,-41.54635239,-10.07992458
2.799887999999555,-10.56591892,11.16625023,-156.5591736,-1.600421906,-1.895172238,-5.610620975,19.02657509,-43.55052567,-2.774168253
2.808220999999776,-10.39720345,10.8542738,-156.5793762,-1.602209806,0.862547457,13.86758137,19.92086601,-36.84776306,-9.573579788
2.8165539999999964,-10.24946022,10.57014179,-156.5540314,-3.322010994,-2.255102396,-2.211928606,16.41223907,-34.5038414,-3.80875206
2.8248869999997623,-10.11736202,10.35837173,-156.5644684,0.105993018,-0.815149069,15.43781471,15.29176044,-25.26178551,-6.131937027
2.833219999999983,-9.958410263,10.05239201,-156.5332794,-4.286354542,-1.556266546,-5.287013531,17.65806961,-37.22431183,-3.410963058
2.841552999999749,-9.830533028,9.966266632,-156.53302,-0.766486645,-1.153578639,8.685095787,14.55086231,-10.65402603,-2.169872046
2.8498859999999695,-9.703291893,9.791491508,-156.5141449,-5.307066917,-1.805178404,6.146942616,14.1252861,-21.47597504,-1.986730814
2.8582189999997354,-9.606669426,9.680845261,-156.4764099,1.808426261,0.883823276,5.202598572,10.04083252,-14.30592442,1.747685194
2.866551999999956,-9.528057098,9.623929024,-156.4937134,-4.971065998,-2.089677095,4.105371475,9.024177551,-6.826565266,-3.776832581
2.874884999999722,-9.457086563,9.601549149,-156.4298096,-0.5174402,-1.708294392,-1.314259648,6.446130276,-4.361451626,6.589826107
2.8832179999999425,-9.352409363,9.622130394,-156.4451447,-4.43579483,-2.266625404,6.104442596,12.11202621,2.298391342,-2.010474443
2.8915509999997084,-9.286369324,9.605871201,-156.3961639,0.402689427,0.788472772,9.491711617,6.154281616,-3.329325914,4.975718975
2.899883999999929,-9.30594635,9.64887619,-156.392868,-3.258273602,-2.41536665,3.865384817,-3.176383018,4.592632294,0.606878102
2.908216999999695,-9.3222332,9.745156288,-156.3587341,0.5669083,-1.097170711,-1.456191063,-3.434420347,10.28232288,5.429782867
2.9165499999999156,-9.346187592,9.836335182,-156.379776,-4.051381588,-2.176413059,3.657126665,-3.201305389,10.76696873,-1.311871409
2.9248829999996815,-9.364458084,10.02574921,-156.3348846,-1.409898877,-0.551291168,5.404962063,-3.911001444,21.09832764,8.504263878
2.933215999999902,-9.41722393,10.15524673,-156.370697,-1.932895541,-1.402196288,1.572028279,-6.336489677,15.58741951,-2.261955261
2.941548999999668,-9.450101852,10.32131004,-156.3149872,-1.204218388,-2.041117907,-0.716057718,-5.92274332,18.11347008,9.330142021
2.9498819999998886,-9.50117588,10.44791317,-156.3430328,0.627515674,0.876579285,3.482665539,-6.275297642,15.0961113,-1.392684817
2.9582149999996545,-9.536879539,10.59783745,-156.2942657,-2.829569101,-2.288957596,6.190923691,-6.141769409,16.32551575,8.224169731
2.966547999999875,-9.619626999,10.808465,-156.3156128,-1.429459691,0.221084386,5.455761909,-10.20186234,24.91242218,1.072007656
2.974880999999641,-9.715688705,10.97099304,-156.2819214,0.364269674,0.646178722,1.370977879,-13.08215904,18.09326553,6.765209675
2.9832139999998617,-9.852934837,11.14811325,-156.2797394,-1.514435291,-3.292119026,1.480661154,-17.26512146,20.4755764,3.202575922
2.9915469999996276,-9.942120552,11.32086563,-156.2639618,-0.560039461,0.793245673,1.934953213,-11.86040783,19.63565063,4.966550827
2.9998799999998482,-10.05089951,11.51941013,-156.2759247,-3.648231268,-0.878496826,3.332770586,-13.50728035,23.28620148,2.063049078
3.008212999999614,-10.16619873,11.71623039,-156.2466888,2.274983644,-2.129433155,3.585103035,-15.33398533,22.18232727,7.101935387
3.0165459999998347,-10.2930069,11.86315918,-156.2507629,-4.167770386,1.071026683,7.883808613,-15.84795666,17.01946259,1.949833393
3.0248789999996006,-10.45739079,12.11393356,-156.2509308,0.774447024,-2.129642725,0.700232208,-20.51337624,29.13947678,4.974802017
3.0332119999998213,-10.59154701,12.24873161,-156.2501373,-1.151725173,-1.662805796,1.40697372,-16.84053421,15.47494984,2.311224937
3.041544999999587,-10.76459599,12.44600582,-156.2320251,0.034857027,0.753083825,2.368156433,-22.02204895,22.40379143,6.046501637
3.049877999999808,-10.91900826,12.56325245,-156.2726135,-1.180311084,-1.595645785,0.813081861,-18.18664169,14.3123455,-2.803594589
3.0582109999995737,-11.06393242,12.76122379,-156.269516,-2.493336439,-1.712406516,-1.647493839,-18.26341248,22.78477478,4.462310314
3.0665439999997943,-11.21669483,12.85965157,-156.3440704,0.849995434,3.348308086,6.638327599,-17.04536819,12.88593674,-7.106299877
3.07487699999956,-11.37986755,13.10242653,-156.3768921,-5.795591831,-3.895297289,3.790290833,-19.4859333,28.8542881,1.519437909
3.083209999999781,-11.4941473,13.20805264,-156.4359436,6.262657166,1.345650911,1.228090882,-12.80014038,13.40178013,-5.064767838
3.0915430000000015,-11.61253452,13.37979984,-156.4578705,-7.408294201,0.451032192,6.805519581,-14.39286137,20.23797035,1.193367839
3.0998759999997674,-11.71850395,13.49546432,-156.4724121,7.166227818,-0.000491825,1.164671302,-13.007617,13.54652596,0.333292544
3.108208999999988,-11.76976013,13.61254501,-156.4962006,-7.175713539,-0.615941286,3.570347786,-6.271607399,13.85420322,-0.283844173
3.116541999999754,-11.84085083,13.69235992,-156.4828186,4.184224129,0.971131086,2.651505709,-9.601970673,8.671264648,2.664853811
3.1248749999999745,-11.89711952,13.76437569,-156.4862518,-3.775822639,-3.143558025,2.968259811,-7.444483757,8.07212162,0.962608695
3.1332079999997404,-11.89741421,13.78526211,-156.4568481,3.365118265,2.579768658,0.824503899,-1.560380697,1.367262006,3.027192354
3.141540999999961,-11.88950443,13.74657154,-156.4500275,-1.112587094,-0.386820316,5.615622997,-0.036180105,-5.173166275,-0.603791475
3.149873999999727,-11.82883835,13.730093,-156.4104462,1.197618723,-0.567767084,4.057650089,5.464874268,-3.266647816,3.276649952
3.1582069999999476,-11.74094963,13.62775707,-156.3968811,-1.332657099,0.104669079,7.9858675,9.371994019,-12.81082058,-1.385025978
3.1665399999997135,-11.60986328,13.55240726,-156.3283844,-0.495872051,1.647376895,11.88836384,13.10424614,-10.85799217,5.186089516
3.174872999999934,-11.53634834,13.36195087,-156.3258514,-0.917301118,-1.867326021,5.277626514,7.961575031,-22.9176712,-4.718644142
3.1832059999997,-11.42066383,13.27574158,-156.2602844,-0.398535371,-0.953965664,3.078426838,11.37733364,-12.04495716,4.614559174
3.1915389999999206,-11.23127747,12.97194862,-156.2427216,-1.959951401,-0.999740422,3.062998533,21.46061516,-36.61515808,-5.572040081
3.1998719999996865,-11.03555489,12.86244106,-156.1689758,-0.108472362,-0.393555045,8.115089417,20.81237221,-14.94702721,5.101000309
3.208204999999907,-10.84826851,12.55094624,-156.1422424,-3.878647804,0.354899943,12.27741909,20.98091125,-37.76165771,-4.447957516
3.216537999999673,-10.71970177,12.43261147,-156.0438232,1.845048428,-0.314660221,6.62716198,12.17516994,-16.49528122,7.836705685
3.2248709999998937,-10.54183578,12.16571808,-156.0390625,-5.818214893,-0.990235686,6.163150311,20.43460083,-32.04768753,-5.784995079
3.2332039999996596,-10.36173725,12.05972004,-155.9398041,2.811935663,-1.011635542,1.876879215,18.4116745,-15.01070309,8.307776451
3.24153699999988,-10.18666553,11.82219791,-155.9636993,-6.406768322,-2.167910099,12.6322422,20.81363869,-28.01336288,-8.268860817
3.249869999999646,-10.03349018,11.7192049,-155.8673096,1.332940459,-1.84405601,6.170860291,15.32018757,-14.54836845,8.136878014
3.2582029999998667,-9.903744698,11.60216713,-155.9201508,-6.711578846,-0.23254475,12.51323986,16.06141281,-13.22334194,-8.972811699
3.2665359999996326,-9.814389229,11.58270741,-155.8405762,-0.535978019,-3.81187129,4.479969501,8.095328331,-4.300182343,7.99604702
3.2748689999998533,-9.770162582,11.57790565,-155.9141693,-0.806923687,1.229306698,12.9543314,6.290523052,0.437030107,-9.050265312
3.283201999999619,-9.704035759,11.48281097,-155.8152771,-1.925774455,-2.660928965,-3.342050314,4.856767178,-13.61246777,8.707150459
3.29153499999984,-9.690029144,11.60811996,-155.88414,-4.933911324,-1.024079919,22.89196396,2.544698238,15.72051048,-5.874664783
3.2998679999996057,-9.692507744,11.6548872,-155.7989502,-0.238691911,-3.003850937,-2.279173136,-3.06552434,3.447240591,9.986965179
3.3082009999998263,-9.723360062,11.70194149,-155.8203888,-3.908731461,-0.484370083,21.37784195,-3.971807241,5.524503708,-1.95606935
3.316533999999592,-9.751589775,11.9491539,-155.7921143,-1.736666083,-1.6818887,5.700042248,-4.788341522,28.27967644,7.459793568
3.324866999999813,-9.779681206,11.89711857,-155.7634888,1.947132349,-0.404832244,-0.239381805,-4.870635986,-7.190646648,1.82696104
3.3331999999995787,-9.766298294,12.01435184,-155.7217407,-0.827351689,-1.235163212,16.40573883,-0.130568594,12.63914108,6.365241051
3.3415329999997994,-9.768328667,11.95913982,-155.6789093,0.853293061,0.444749773,13.4178772,-2.099611998,-7.849495888,3.404695749
3.3498659999995652,-9.773608208,12.04420567,-155.6285248,-5.271529675,-1.25780642,19.01368523,-2.591942787,8.663144112,6.709341526
3.358198999999786,-9.736821175,11.95386124,-155.5790558,2.495334625,-0.626633942,4.628449917,2.391857862,-12.13450336,3.458716869
3.3665319999995518,-9.646261215,11.89292049,-155.5002747,-4.869252205,-1.691403508,23.40753937,8.215485573,-9.15705204,7.027599812
3.3748649999997724,-9.55022049,11.88221836,-155.4733429,0.27095288,2.276908398,6.921004295,10.07087803,-2.260417938,2.47840786
3.383197999999993,-9.381619453,11.72399521,-155.4063568,-0.500730872,-2.730698824,10.94303513,17.88612366,-20.41590309,3.79275322
3.391530999999759,-9.210455894,11.65562534,-155.3945007,-7.153672218,1.02600491,29.06155777,19.46400833,-8.788541794,-0.377848536
3.3998639999999796,-8.988184929,11.56364441,-155.3730316,-3.614417076,-0.060854584,16.16661835,25.45167542,-11.69573593,-0.105774052
3.4081969999997455,-8.733501434,11.44835758,-155.3506317,0.093341962,0.445338577,12.42146683,29.23829079,-14.54176521,0.045414083
3.416529999999966,-8.455046654,11.30676556,-155.3416901,-0.944207311,-1.824890971,12.84937859,32.49848557,-17.35915947,-2.34858489
3.424862999999732,-8.157770157,11.16541576,-155.3054504,-5.016440392,-1.465122104,22.22447395,34.04061508,-17.86732101,1.341572881
3.4331959999999526,-7.845928192,11.01376057,-155.2938538,-2.519118547,-1.089023829,12.2125988,36.4398613,-18.61851311,-2.009145021
3.4415289999997185,-7.504888058,10.86912823,-155.2515106,-0.245459348,-0.972487509,15.23668766,39.17557526,-18.33294487,2.197577
3.449861999999939,-7.207523823,10.68073845,-155.2530365,-1.990026593,-3.241450071,14.27318382,35.0009346,-22.81131935,-3.893511057
3.458194999999705,-6.925068855,10.555933,-155.231369,-0.951024473,-0.609291077,20.58148956,32.62855148,-15.64353943,0.270051181
3.4665279999999257,-6.724701881,10.36597633,-155.2394867,-4.414717197,-4.311676502,10.89997387,23.4962635,-22.94067955,-4.447083473
3.4748609999996916,-6.441914558,10.20341396,-155.200531,-3.788847446,-2.469502926,14.97036839,32.31378174,-20.37408829,1.904805064
3.483193999999912,-6.211174011,10.03292465,-155.1995392,-2.484757185,-1.563361645,23.80266571,26.93360138,-20.77566147,-2.878722668
3.491526999999678,-6.051843643,10.0071497,-155.1200714,-3.110517502,-3.801309109,16.31297302,16.67302704,-4.545260429,8.578645706
3.4998599999998987,-5.937022209,9.924479485,-155.1220398,-1.249433756,-0.997848928,13.16436577,13.07325077,-10.2781353,-1.956505179
3.5081929999996646,-5.876471043,9.91248703,-155.0674744,-2.215540886,-2.714968204,12.89666748,5.350019455,-2.561769247,5.839481354
3.5165259999998852,-5.886152267,9.93718338,-155.0670471,-6.758541584,-4.375206947,19.43193436,-1.917033315,2.505430698,-0.333228379
3.524858999999651,-5.92020607,10.01738071,-155.0605316,-2.234173775,-1.807906032,12.99464321,-5.011002541,9.027098656,1.329353213
3.5331919999998718,-5.958470821,10.12422466,-155.0863037,-5.295086384,-1.738172531,14.20438862,-4.805090427,12.62561798,-2.348300695
3.5415249999996377,-6.029873371,10.25024986,-155.0923309,-0.715003371,-2.635302067,20.24893379,-9.230848312,14.64819622,0.446481854
3.5498579999998583,-6.22787571,10.36776829,-155.1542358,-4.855937958,-2.649618864,18.36566544,-23.18603325,14.35975742,-6.392945766
3.558190999999624,-6.383438587,10.51571274,-155.1492157,-4.617794991,-3.018401861,10.13529205,-19.56786156,17.11423492,2.112304449
3.566523999999845,-6.514917374,10.69817257,-155.228775,2.143013,-0.075484298,8.398562431,-14.78099728,22.36513329,-7.466464043
3.5748569999996107,-6.675692081,10.90625381,-155.2718964,-4.503067493,-1.18660748,18.20149994,-19.11306572,24.92136765,-2.607774734
3.5831899999998313,-6.822602272,11.11617088,-155.3506012,-1.083039999,-2.435412884,20.47536469,-16.58106804,25.66359138,-6.86504364
3.5915229999995972,-6.997385025,11.29421616,-155.4056396,-5.723966122,-2.770665407,12.10205173,-20.48119736,21.52327156,-4.28832531
3.599855999999818,-7.100010395,11.43852711,-155.5016785,-0.443495363,1.393379688,15.91223717,-10.80230904,18.1288414,-9.682505608
3.6081889999995838,-7.216198921,11.57905674,-155.5729218,-4.404860497,-3.215484619,18.94578934,-13.0272646,17.30877495,-6.639917374
3.6165219999998044,-7.315385342,11.80706406,-155.6716156,-0.266569436,0.796535134,17.75697327,-10.26269722,28.16407967,-8.627919197
3.6248549999995703,-7.405856609,11.91238594,-155.7640839,-5.878345966,-0.717742205,17.35303307,-9.366423607,13.45869541,-9.578687668
3.633187999999791,-7.474563599,12.1294651,-155.8584747,1.426663041,-1.294865251,15.7502737,-6.645016193,26.82040215,-8.191605568
3.641520999999557,-7.545133114,12.13558006,-155.9626923,-2.267502785,-3.609987497,4.736759663,-6.628952503,1.85977304,-12.45629501
3.6498539999997774,-7.542873383,12.30860519,-156.0390625,-2.023488045,-1.827656984,18.79654884,1.453198552,21.31702042,-6.739787102
3.658186999999998,-7.501283646,12.30121708,-156.160553,-1.49354744,-1.438263059,9.795502663,7.308714867,0.517996728,-14.66580486
3.666519999999764,-7.470394611,12.34439087,-156.2159576,-2.067723751,0.407328337,26.56611443,4.36645937,5.539335728,-6.338691711
3.6748529999999846,-7.498115063,12.38483429,-156.350647,-0.619713187,1.074776649,19.56915474,-0.655890942,6.402304649,-15.44706345
3.6831859999997505,-7.492681026,12.31032276,-156.3899078,-2.156694412,-3.709551573,6.846171379,0.902235866,-8.707162857,-6.316868305
3.691518999999971,-7.481832981,12.31999779,-156.5179138,-4.280796528,-1.702351928,21.05822372,3.789268255,2.639598608,-15.15539455
3.699851999999737,-7.452465534,12.26496983,-156.5593719,1.645013332,-0.82518059,8.800951004,3.825793505,-6.357056618,-6.266561031
3.7081849999999577,-7.42783165,12.14349461,-156.6670227,-4.639583588,-3.924429417,10.72604179,4.899288177,-13.28643036,-14.83555317
3.7165179999997235,-7.367863655,12.16401768,-156.7045746,-2.570697069,-2.646611452,18.79515457,7.385917187,2.566597939,-4.63186121
3.724850999999944,-7.327627659,12.01923466,-156.8247681,-3.165218592,0.142306715,15.38307095,7.061412811,-15.89355183,-16.63534164
3.73318399999971,-7.270361423,11.92087269,-156.858429,-1.335370302,-2.176910877,15.13819313,6.953805923,-11.64701271,-6.016746998
3.7415169999999307,-7.218510151,11.8410244,-156.9866638,-3.530563831,-3.277436733,17.56368637,8.602261543,-8.073083878,-16.57657814
3.7498499999996966,-7.199528217,11.69937134,-156.9973145,-0.131318673,-0.857555211,13.97641087,1.785235643,-17.14718246,-3.984410048
3.7581829999999172,-7.221308231,11.59685612,-157.1204529,-5.323205948,-0.496654898,18.18699646,-0.419497252,-10.85358715,-16.32835197
3.766515999999683,-7.177199364,11.50880051,-157.1465302,-2.71397543,-2.796863794,14.30760384,5.168594837,-10.53704357,-4.987053871
3.7748489999999038,-7.149356842,11.34031963,-157.2386322,-1.464305758,-2.504981995,12.88666058,4.740377426,-19.1752224,-13.69628334
3.7831819999996696,-7.126904964,11.26059151,-157.2665253,-4.374708652,-1.345854282,14.9759388,2.604071856,-9.521823883,-5.091176033
3.7915149999998903,-7.12448597,11.15959358,-157.3481293,0.859210014,-1.302109241,8.989679337,1.403993368,-11.30091286,-11.46233273
3.799847999999656,-7.127718449,11.03513336,-157.3738861,-3.086909294,-4.484601021,12.28700447,-0.542624891,-14.87930107,-5.498494148
3.808180999999877,-7.162007332,10.9964056,-157.4350739,-1.592976809,-2.337585449,18.55781364,-3.5009408,-4.180998802,-8.157352448
3.8165139999996427,-7.184265614,10.87762928,-157.4719238,-5.105254173,-0.37030521,17.25522995,-2.576779604,-14.03366852,-6.745574474
3.8248469999998633,-7.250332832,10.76659679,-157.5216827,0.05620518,-1.491954207,15.96951962,-7.596812248,-12.94701099,-7.920524597
3.833179999999629,-7.320139885,10.64975548,-157.5710144,-5.146512985,-2.718014956,15.58123589,-8.018320084,-13.59815407,-8.243725777
3.84151299999985,-7.371957302,10.55838203,-157.5933685,-0.066055179,-1.032060742,11.62684631,-6.514302254,-11.00335121,-4.443339825
3.8498459999996157,-7.426826954,10.45811939,-157.6432037,-4.183188438,-0.006624106,12.76555443,-6.233186722,-11.60118866,-8.084635735
3.8581789999998364,-7.447275639,10.44452,-157.6582794,-4.496936321,-0.709480584,19.9247036,-2.915835142,-1.854816437,-2.402807713
3.8665119999996023,-7.468736172,10.40186214,-157.677475,-2.617007971,-2.207837343,15.35659409,-2.891527414,-5.203570843,-3.648812294
3.874844999999823,-7.487278938,10.33782196,-157.6573639,-0.656706572,-1.36212194,8.540906906,-3.448611259,-8.395233154,0.924469113
3.883177999999589,-7.495389938,10.29953098,-157.6674652,-1.196620584,-1.295362949,8.699392319,-1.489890575,-4.820201874,-2.52775383
3.8915109999998094,-7.455121517,10.33951092,-157.6296692,-2.27786088,-1.026645422,14.68299294,3.230672121,3.710196257,4.618272305
3.8998439999995753,-7.440423965,10.32034969,-157.6264801,-4.007641315,-1.148302794,19.92585754,0.963735521,-2.749341965,-0.678508222
3.908176999999796,-7.467527866,10.28087711,-157.5843658,-1.722109079,-2.422048092,14.75925827,-4.94550705,-5.807989597,3.889240026
3.916509999999562,-7.47628355,10.27869606,-157.595108,-4.226645947,-1.880742073,12.03350544,-1.545780659,-0.510069013,-2.07686615
3.9248429999997825,-7.475181103,10.27156639,-157.5584412,1.524305344,-1.957976222,10.18515778,-1.442094207,-1.878868341,3.754816771
3.933176000000003,-7.52194643,10.24670601,-157.5734558,-4.768156052,-0.566124678,20.23263359,-6.015593052,-3.141342878,-2.939682007
3.941508999999769,-7.588537693,10.26670551,-157.5561676,-2.099935293,-2.775591373,15.3375206,-9.150417328,1.644382954,1.913614154
3.9498419999999896,-7.633876324,10.24862766,-157.5818939,-4.007973194,-0.54516387,10.6749115,-5.614167213,-2.162059546,-4.094935417
3.9581749999997555,-7.672630787,10.19899178,-157.5461273,-1.392466307,-1.622389078,11.71681023,-6.202627659,-6.931762218,2.965462446
3.966507999999976,-7.713968754,10.17010498,-157.5714722,-3.05320549,-0.435694903,14.39439678,-5.139612198,-3.444461584,-4.262067795
3.974840999999742,-7.733544827,10.09462833,-157.5310516,1.748412967,-1.850107551,5.062717438,-3.992606401,-10.08213425,3.086822748
3.9831739999999627,-7.763031006,10.04413223,-157.5516815,-5.616004944,-0.8590855,15.99112988,-3.831594944,-6.089873791,-4.01440382
3.9915069999997286,-7.78217411,10.04166126,-157.5275574,-0.182664871,-0.217940554,12.75814342,-3.591128588,-1.14622426,2.358200312
3.999839999999949,-7.85384655,9.981983185,-157.574234,-2.949435949,-1.215111136,8.043049812,-8.352712631,-6.756639004,-7.236316681
4.008172999999715,-7.881948948,9.965538025,-157.5518799,-1.704847097,-2.822520018,11.97975445,-4.626302242,-2.783767939,1.917404652
4.016505999999936,-7.898979664,9.926628113,-157.6030884,-2.629742861,1.266261578,9.216292381,-1.705587983,-4.205178738,-7.447352409
4.024838999999702,-7.854534149,9.986284256,-157.6021271,-3.349310637,-1.168812037,10.33132935,4.523859024,6.609882355,0.666303217
4.033171999999922,-7.820021152,9.904953003,-157.6154175,-1.052052617,-1.502645135,9.519602776,3.68924427,-9.870306015,-3.666793585
4.041504999999688,-7.754318237,9.954774857,-157.6210632,-5.045120239,0.818234801,17.94470787,7.212099075,5.547019005,-0.277389377
4.049837999999909,-7.718504906,9.992275238,-157.6454315,0.219679236,-1.968885779,4.210597992,4.076351643,4.430852413,-3.033839464
4.058170999999675,-7.658412933,9.951273918,-157.6492615,-4.501048088,-2.351877689,11.89151287,6.502070427,-5.281488419,-1.536175251
4.066503999999895,-7.601453304,10.07807064,-157.6664429,-1.186852574,1.938729763,11.54450035,6.468082428,14.93453789,-0.779531062
4.074836999999661,-7.546328545,10.05795002,-157.6942139,-3.060938835,-3.787724495,5.807811737,6.408246994,-2.427858353,-3.999676466
4.083169999999882,-7.473757744,10.16240978,-157.697464,-1.985205889,0.534725904,20.86501122,8.051579475,12.06141186,0.47058478
4.091502999999648,-7.444587708,10.2491188,-157.7467957,-2.149687052,-1.226936698,2.867158175,3.759912968,10.60588074,-4.853526115
4.099835999999868,-7.366035461,10.26435757,-157.7417145,-2.949880362,-0.440842032,13.04640007,8.588862419,1.316187382,0.064522259
4.108168999999634,-7.297185421,10.44691563,-157.818573,-3.160524368,-2.045005083,9.004384995,9.131248474,22.4192543,-6.629159451
4.116501999999855,-7.243433475,10.49130344,-157.8401031,-0.846571624,-0.268231362,5.926359177,6.19139576,5.180914402,-2.604186296
4.124834999999621,-7.186027527,10.65452385,-157.940979,-1.087183237,-2.155946493,2.43743372,8.321249008,20.45978928,-9.773229599
4.133167999999841,-7.101588726,10.77452755,-157.9966888,-5.546802998,-0.726495206,9.833145142,10.647789,14.6815958,-5.482228756
4.141500999999607,-7.02385807,10.96394634,-158.1032562,-1.383265138,-0.549369335,12.01266098,10.95096493,23.63558006,-10.09725475
4.149833999999828,-6.989231586,11.10822487,-158.162323,-2.036826134,-1.794734716,-0.920983016,4.780462742,17.60451317,-5.524594784
4.158166999999594,-6.961773872,11.41420937,-158.2611389,-2.691025972,-0.477065176,13.07839775,4.82073307,37.39224243,-7.511959076
4.1664999999998145,-6.928606033,11.62653637,-158.3046112,-1.054894209,-3.305916548,-8.909822464,4.231193066,25.44532776,-2.421584368
4.17483299999958,-6.905309677,11.92634869,-158.3670654,-4.414823532,-0.187230825,23.17366219,3.535818815,36.13263702,-3.379097939
4.183165999999801,-6.92534399,12.24493217,-158.3855896,-0.356346905,-1.189057469,-8.740260124,-2.730544806,37.74777222,2.016636848
4.191498999999567,-6.960339069,12.54212093,-158.4319153,-1.041454911,-1.828781366,13.10162926,-3.796072245,35.59158325,-1.504184723
4.1998319999997875,-6.984892845,12.97803211,-158.4640961,-4.216049194,-1.806930423,-0.020946182,-2.884668827,51.91284561,2.18210721
4.208164999999553,-7.0838871,13.22086906,-158.4994965,0.065727159,-1.173968315,7.775846004,-11.7071619,28.96137619,-0.966387451
4.216497999999774,-7.171906948,13.68558216,-158.5483704,-1.836816311,-1.963638544,-4.444315434,-9.98833847,55.57475662,0.830748856
4.224830999999995,-7.255267143,14.0199337,-158.5894012,0.607040286,-0.532038152,2.594932079,-9.614560127,39.938797,-0.131798223
4.233163999999761,-7.30978632,14.42412186,-158.6429138,-3.765455246,-1.466467619,8.634195328,-5.754646301,48.43364716,-0.455819041
4.241496999999981,-7.376457691,14.74256039,-158.6545868,0.607480049,-0.442268848,2.997944593,-8.437941551,37.60569,3.111877441
4.249829999999747,-7.467587471,15.10687256,-158.6760864,-3.555570126,-1.580641747,7.161669254,-11.06200123,43.20681,2.746491194
4.258162999999968,-7.551692009,15.45346165,-158.6875916,2.34773016,0.287796021,0.265611857,-10.51877022,40.94108582,3.689710855
4.266495999999734,-7.65209341,15.76001644,-158.7077637,-2.317779779,-1.538955688,1.173437119,-12.18733311,36.30566788,2.124985218
4.274828999999954,-7.730054855,16.09387207,-158.7346954,2.192040682,0.285448641,3.014291286,-9.258778572,39.65255356,1.854985476
4.28316199999972,-7.769276142,16.30970383,-158.7610931,-4.058355808,-2.255815029,1.51488924,-4.612192154,25.606493,0.050229553
4.291494999999941,-7.720542908,16.45292091,-158.7741394,3.337059021,0.394289732,5.807607174,5.500504017,16.76521111,0.40017125
4.299827999999707,-7.670526028,16.51543236,-158.7950134,-2.276683807,-0.08419995,8.751661301,5.923908234,7.289120674,-1.804407954
4.308160999999927,-7.69892168,16.63193703,-158.7830353,4.584704399,1.456423163,8.414558411,-4.607143402,13.20485783,2.806219339
4.316493999999693,-7.675855637,16.60241127,-158.8226624,-5.592062473,-2.260971785,3.999338627,3.371499777,-3.352199316,-5.527385712
4.324826999999914,-7.53775835,16.49504471,-158.7438202,4.46112442,-0.78391546,-2.928046465,13.08926296,-14.43719959,6.855806828
4.33315999999968,-7.429891586,16.37649155,-158.792572,-2.43418169,-0.456018358,13.86119747,13.81079102,-13.83946705,-7.845143318
4.3414929999999,-7.244942188,16.10493088,-158.6920776,1.45228529,0.267246664,2.066281557,18.0344696,-34.26642609,6.89402914
4.349825999999666,-7.096574783,15.97710323,-158.7210846,-2.549921274,-0.815130651,11.02367496,17.97753906,-15.26646328,-5.662477493
4.358158999999887,-6.889977455,15.5363245,-158.6139984,1.936824441,-0.598009646,4.602762699,20.51391411,-54.47243118,5.408590317
4.366491999999653,-6.708491802,15.38843727,-158.6360016,-5.094485283,-1.694151521,12.24476528,21.69429779,-17.78567886,-5.05508852
4.374824999999873,-6.440428734,14.89901447,-158.5105591,1.804324031,-0.440959424,-7.705408573,27.44865608,-60.4742012,7.280029774
4.383157999999639,-6.207922935,14.69845486,-158.5344391,-5.940847874,-0.652865887,24.17241478,27.84509277,-24.08200836,-5.83273983
4.39149099999986,-5.981124401,14.38755989,-158.4263153,0.767342865,-2.939063311,-3.095006943,23.17011642,-38.89665604,8.101745605
4.399823999999626,-5.756786823,14.01788616,-158.417572,-2.116925001,0.205246612,15.42785931,25.87512589,-44.69690323,-3.951555729
4.4081569999998464,-5.511891842,13.85194016,-158.3431549,-5.799128056,-2.384923458,6.712777138,26.45153618,-21.13454247,6.240760326
4.416489999999612,-5.322326183,13.52745914,-158.3316956,2.150702715,-1.237981796,0.470175982,21.63333511,-39.35558319,-2.773424625
4.424822999999833,-5.105475426,13.3900671,-158.3171234,-8.823942184,-1.752053738,13.84260273,24.82902336,-17.03938293,-0.231565669
4.433155999999599,-4.913340092,13.2438345,-158.3372498,2.072109699,-0.823579133,2.08379364,22.82388878,-17.74123955,-4.302259922
4.4414889999998195,-4.732625961,13.03879738,-158.3657379,-6.476771355,-2.830458641,8.917405128,21.67619324,-24.70406723,-5.813885689
4.449821999999585,-4.581163406,13.16500473,-158.3821411,-1.331148982,-1.281593919,10.4680624,17.83384323,14.78456974,-1.110211134
4.458154999999806,-4.440498352,12.98265839,-158.4294128,-2.48836875,-1.940161109,-9.828622818,17.37465858,-21.84571648,-7.657650471
4.466487999999572,-4.267670631,13.12566471,-158.4045715,-3.867028236,-0.325058281,24.24399376,19.27938652,16.42516327,3.770750761
4.4748209999997925,-4.194639683,13.1131649,-158.4635925,0.325261116,-1.719654202,-6.005171776,9.583182335,-1.454414725,-7.417434216
4.483153999999558,-4.097530365,13.19021702,-158.4077454,-1.295478702,-1.851609707,9.32089138,9.341308594,8.284311295,6.752092838
4.491486999999779,-4.053696156,13.32759953,-158.4417419,-4.791592121,-1.907168627,8.224876404,5.406475067,16.25956345,-3.216828823
4.49982,-4.032464504,13.36698055,-158.3728943,0.946088433,-2.528447866,-0.204644948,-0.147397131,3.680586576,7.92343092
4.508152999999766,-4.076264858,13.62033939,-158.4117584,-1.864484072,-0.137680769,8.16759491,-4.956371784,30.18184471,-2.802340746
4.516485999999986,-4.057139397,13.68010902,-158.3403473,-3.051609516,-2.639269114,0.993554771,-0.516011655,6.097213745,8.389047623
4.524818999999752,-4.087728024,13.88257313,-158.3600769,-1.841371655,-1.576665282,7.695222378,-3.895683289,23.93095398,-0.99845618
4.533151999999973,-4.16362524,14.02136707,-158.2966766,0.524453223,0.254698008,7.254336834,-11.7302866,15.61372566,8.136902809
4.541484999999739,-4.313064098,14.21817684,-158.3233032,-2.835435629,-2.38548255,2.18534112,-17.94359016,23.31422043,-1.773928046
4.549817999999959,-4.414047718,14.42423058,-158.2550049,-1.581695437,-4.447049141,-4.230883121,-14.93401909,23.58445168,9.370846748
4.558150999999725,-4.472641468,14.61976719,-158.2963104,0.40570733,2.641766548,6.886062622,-6.578776836,23.2990284,-3.392671347
4.566483999999946,-4.542818546,14.84470463,-158.2313995,-5.529661655,-1.714166522,12.02737427,-11.18967628,25.85026741,9.203278542
4.574816999999712,-4.671028614,15.13205338,-158.2696991,1.213423967,1.82300818,7.115187645,-14.98794365,34.26015091,-2.081607103
4.583149999999932,-4.818986416,15.33852386,-158.2410126,-3.522493362,-1.775931478,0.675427854,-19.44832993,23.95074081,4.92936182
4.591482999999698,-4.966413975,15.62739754,-158.2288513,0.441583216,-2.450200081,0.387057304,-18.87114716,33.95169067,3.931764603
4.599815999999919,-5.0320611,15.81272507,-158.2292938,-1.588509917,-2.129964352,-1.776353478,-8.649175644,21.69063187,1.457271338
4.608148999999685,-5.088197231,16.08281326,-158.199173,-2.64369154,1.054669619,8.46668148,-8.519802094,31.51163483,5.89202261
4.616481999999905,-5.175312996,16.3768158,-158.2171631,1.166152239,-0.270594597,5.058451653,-10.63800144,34.85850143,0.663665533
4.624814999999671,-5.275459766,16.60365677,-158.16745,-2.662219048,0.539263308,4.181488991,-14.50162697,26.12013817,7.748644829
4.633147999999892,-5.433080673,16.91381454,-158.1890564,1.550441861,-1.903319359,3.002190113,-18.95523834,36.82004929,0.574861109
4.641480999999658,-5.49784565,17.15745163,-158.1465607,-3.725637674,-0.006168228,0.761438191,-10.05573368,28.17391586,7.210541248
4.649813999999878,-5.595207691,17.4796505,-158.1576538,1.780893564,-0.924889505,-0.015917731,-12.07496643,38.13732147,2.042354107
4.658146999999644,-5.674367428,17.6785717,-158.1107941,-1.847494602,-2.150372982,6.2448349,-11.98704529,22.76374245,7.250829697
4.666479999999865,-5.807879925,17.9669857,-158.1295319,-0.004818398,1.107829213,5.016521931,-16.12111855,34.18164825,0.906181514
4.674812999999631,-5.906668186,18.20690918,-158.1324005,-1.374495745,0.71833533,0.053247508,-12.53757668,28.20936584,2.184127808
4.6831459999998515,-6.034882545,18.45118332,-158.154541,0.10152857,-3.679079533,-0.722829938,-15.33844471,28.9493885,0.115469083
4.691478999999617,-6.131481171,18.65412712,-158.2011566,-1.18744266,2.155605078,3.733354568,-10.6013155,24.31022835,-3.121851683
4.699811999999838,-6.223795414,18.93462753,-158.2552185,-3.471135139,-1.824610353,0.662276506,-9.776387215,33.65929031,-2.911509037
4.708144999999604,-6.253770351,19.15413284,-158.2588501,3.372429848,1.142307401,2.699139118,-4.243525505,25.76181412,2.025344372
4.7164779999998245,-6.296366692,19.32567596,-158.3080139,-2.846757412,0.578000844,9.248645782,-3.9559021,20.60489082,-3.714667082
4.72481099999959,-6.309001923,19.55230713,-158.275238,-1.492715478,-0.348667234,7.698510647,-3.61359477,26.15968323,6.243806839
4.733143999999811,-6.312549591,19.73435402,-158.3235474,0.608221889,1.007255197,2.983976126,0.736819386,21.84595299,-3.454861879
4.741476999999577,-6.288279533,19.90200996,-158.2802429,-0.949819267,0.631217062,1.873824835,0.35995701,18.99398804,6.640339851
4.749809999999798,-6.193566322,19.99357605,-158.3205414,3.285494089,-2.094748497,-0.020447349,12.22895527,10.95044613,-3.751653433
4.7581429999995635,-6.020824432,20.06905174,-158.2744904,-3.762186527,1.872264504,8.284220695,18.04989624,7.987059593,5.697965622
4.766475999999784,-5.857059002,20.01333427,-158.2962341,6.08400631,1.18857944,10.82066536,19.75849533,-6.863810539,-3.556704044
4.774809000000005,-5.744005203,20.08129692,-158.263916,-5.502654552,-0.365889847,12.27751827,11.44941139,7.278850079,4.021358967
4.783141999999771,-5.60199976,19.95594406,-158.2750092,4.215819836,-0.45653078,6.62111187,16.70965767,-15.30898094,-3.162065744
4.791474999999991,-5.392270088,19.84856033,-158.2200165,-2.859358072,-1.33987689,-0.552775681,22.13365936,-13.88729191,4.515203476
4.799807999999757,-5.132458687,19.7171917,-158.2293854,1.008803964,0.514737725,13.91255093,30.77258873,-16.06617355,-2.925468683
4.808140999999978,-4.847761154,19.507967,-158.1644135,-1.876990914,0.069256149,2.825598001,30.75914955,-26.11793709,4.703804493
4.816473999999744,-4.601253986,19.39999771,-158.1841278,0.235894442,-1.259370565,19.20995522,29.58254433,-13.19158554,-3.718024731
4.824806999999964,-4.301800251,19.10973167,-158.0852966,-2.211176872,-1.288983464,-4.287991047,31.23792839,-36.06339264,8.029644012
4.83313999999973,-4.033488274,18.99065399,-158.1005096,-2.299008369,0.750749052,21.45940018,32.00843048,-14.58754063,-3.18468523
4.841472999999951,-3.742083549,18.77472496,-158.0095367,-2.356767654,-3.087433577,-3.272303581,30.64952469,-27.01879501,8.119236946
4.849805999999717,-3.536686182,18.60041809,-158.0339813,-1.687092423,-0.499783814,21.65489769,24.80069733,-21.16246033,-4.527409077
4.858138999999937,-3.335884809,18.64405251,-158.0039368,-5.815448761,-2.923009872,-0.407580107,22.15744972,4.554776192,3.295964003
4.866471999999703,-3.15691328,18.35266304,-158.0127411,1.527197242,-0.271085441,5.301707268,21.02547646,-35.31758881,-3.405660868
4.874804999999924,-2.968637705,18.56573105,-158.03125,-8.09714222,-1.561184049,18.28383446,22.50822258,25.17922783,-1.167741179
4.88313799999969,-2.803817511,18.38782883,-158.0337982,6.71688509,0.935696125,-7.633384228,19.09037971,-21.76959419,-1.792037129
4.89147099999991,-2.653294086,18.43569183,-158.0656891,-10.7178812,-3.878716707,23.84999466,18.48336411,5.443180084,-3.783825397
4.899803999999676,-2.591738224,18.6070137,-158.0401459,1.728728294,-1.141236186,3.754364491,5.626937389,19.93971634,3.418887138
4.908136999999897,-2.599397659,18.58092117,-158.0727997,-3.602976799,-3.160010099,4.794444084,-0.458482057,-3.425404787,-4.280663967
4.916469999999663,-2.539255619,18.86329842,-158.0541229,-1.999778032,0.084382825,18.50609016,5.70972681,33.29393005,3.215281487
4.9248029999998835,-2.55509901,18.88403702,-158.073761,1.469407916,-2.309025764,-4.520350933,-1.926792383,2.118963003,-2.547220469
4.933135999999649,-2.568810701,19.02833939,-158.0601349,-4.303679943,-1.19382298,23.96833801,-2.96363163,16.76700401,1.891816616
4.94146899999987,-2.61351037,19.24245644,-158.0540314,-1.519465566,-2.40336585,2.344322205,-6.3937397,25.17097092,1.424357176
4.949801999999636,-2.687708855,19.28646278,-158.0180206,-0.189553648,-0.38743332,9.185452461,-11.11664391,4.623421192,3.891648054
4.9581349999998565,-2.767033815,19.52164268,-158.0265656,-1.515589952,-0.953019083,16.82945442,-9.967670441,27.7691288,-0.049755685
4.966467999999622,-2.834342241,19.61489105,-158.0020447,-1.78017199,0.617471814,5.611452103,-9.850428581,10.58057499,2.888184547
4.974800999999843,-2.870978355,19.74162102,-157.9770355,-1.614844561,-1.085822344,13.56549454,-6.195251942,14.58162212,3.151114941
4.983133999999609,-2.898127079,19.77408409,-157.9579163,0.811087012,-0.869448125,8.373813629,-4.821559906,3.321730852,1.924679399
4.99146699999983,-2.902793884,19.76049614,-157.9459229,-1.497510433,-0.79447192,13.1812191,-1.83560586,-2.164671898,0.84311825
4.9997999999995955,-2.879602671,19.81760216,-157.9156036,-0.75235182,0.710324883,12.27599621,0.763714015,6.212502956,3.338585138
5.008132999999816,-2.8677001,19.6772995,-157.9203796,-1.124399185,-1.932965517,14.82990265,0.833820462,-17.25448418,-1.81101656
5.016465999999582,-2.804503441,19.672369,-157.9065399,-2.48107934,0.707039118,19.80515289,6.238166809,-1.127576947,1.104075909
5.024798999999803,-2.749491215,19.49705505,-157.9254761,2.558192492,-0.691950917,5.717366695,6.573871136,-21.37566376,-3.582113743
5.0331319999995685,-2.6520648,19.25672531,-157.9427948,-3.789270878,-0.936969221,16.44047737,11.5940094,-29.17188263,-3.747147799
5.041464999999789,-2.52986002,19.05790138,-157.96698,-1.084213138,-0.663006127,22.88628197,14.8283968,-24.17666435,-4.242706299
5.049797999999555,-2.398399353,18.77959251,-157.9851074,-2.100274563,-1.068446636,11.09851074,15.69552517,-33.73479462,-3.920506954
5.058130999999776,-2.224793673,18.50619316,-158.0041351,-0.621130764,0.295013189,9.353936195,20.77468491,-33.16073608,-3.914437056
5.066463999999996,-2.039037466,18.18548775,-157.9905548,-0.089579523,-2.234147072,15.58006477,20.99264336,-38.97106171,-0.312839985
5.074796999999762,-1.863032699,17.91751671,-157.9845734,-2.362129211,-1.585454941,20.31064415,20.11101532,-32.62928391,-0.840877891
5.083129999999983,-1.668172717,17.64738846,-157.9377747,-4.529314518,-0.630019844,14.70701218,20.88318634,-33.01998138,3.92121172
5.091462999999749,-1.477825046,17.38869858,-157.9078827,-1.119841337,-0.724906802,23.74777031,20.97595978,-31.590271,2.138151169
5.099795999999969,-1.34050262,17.00543976,-157.8695984,-0.451347768,-3.124490261,12.46587563,14.33478069,-46.54089355,2.830891132
5.108128999999735,-1.18070662,16.65725708,-157.8373413,-1.819423676,-0.357337654,14.89427757,17.26638222,-42.31898117,2.35697484
5.116461999999956,-1.03695035,16.28877449,-157.8016663,-2.830646992,-3.046518326,10.53892517,15.24982357,-44.74327087,2.821003675
5.124794999999722,-0.894867897,15.98300171,-157.7787781,-1.102813005,-1.23622787,24.59200859,15.49950218,-37.19734192,1.590492606
5.133127999999942,-0.820632041,15.62216759,-157.7743225,-5.812959671,-0.892520249,19.92912483,7.977695942,-43.75737381,-0.559351861
5.141460999999708,-0.754489422,15.31490803,-157.7455292,-1.068808317,-3.559329033,15.86404705,6.227392673,-37.37998962,2.395933151
5.149793999999929,-0.735032737,14.9653492,-157.743103,-3.613557816,-1.861106157,10.52768707,1.473666191,-42.40088654,-0.689549088
5.158126999999695,-0.739850104,14.6098156,-157.7323761,0.105567366,-3.068586588,12.70479012,-1.695498586,-43.14352036,0.266618997
5.1664599999999155,-0.745434523,14.28495407,-157.7297821,-2.52176404,-3.992921591,12.03217983,-1.53435874,-39.43732834,-0.630764186
5.174792999999681,-0.785564125,14.00208378,-157.6925812,-4.444988728,-2.393805981,18.25101089,-6.696117878,-34.46637726,3.44773078
5.183125999999902,-0.889541447,13.68986797,-157.7156982,-2.615248203,-0.98819387,24.95676994,-12.5980072,-37.87550354,-3.666337252
5.191458999999668,-1.0265975,13.39675236,-157.6959076,-5.28217411,-3.13599062,21.4415741,-17.7936039,-35.67405319,1.293802381
5.1997919999998885,-1.198427677,13.10757732,-157.7279663,-0.54790616,-0.491487503,9.062839508,-20.52175713,-35.07619476,-4.843979359
5.208124999999654,-1.327771783,12.82544231,-157.733963,-1.412038684,-0.45515421,10.25186062,-16.15070724,-34.29854202,-1.876232505
5.216457999999875,-1.530887723,12.62025642,-157.7774048,-4.284741402,-3.920353889,20.12325096,-24.01204872,-24.94272041,-6.122409821
5.224790999999641,-1.747382522,12.4555006,-157.7810516,-6.337462425,-1.498962879,20.58380699,-26.67544746,-20.21693802,-1.419760108
5.2331239999998616,-1.977385283,12.36287212,-157.8159637,-4.569422722,-0.037923448,12.77333164,-27.48536301,-11.43101501,-4.878196239
5.241456999999627,-2.153170109,12.30414581,-157.8291779,-0.368279696,-3.545656681,8.477437973,-21.54738045,-7.453399658,-2.228246927
5.249789999999848,-2.353718758,12.28234005,-157.8722992,-2.842324495,-0.033005245,18.39292145,-23.74918365,-2.871190548,-5.580460548
5.258122999999614,-2.602898121,12.29821014,-157.8966217,-3.964555025,-3.250878334,10.7737999,-30.07056046,1.5595752,-3.198311329
5.266455999999835,-2.755163193,12.32570553,-157.9310608,-5.32887125,-1.721456289,18.58302116,-18.17493439,3.028935671,-4.305332184
5.2747889999996005,-2.937492847,12.3333559,-157.9729919,-0.918172538,-0.796205878,15.08240318,-21.59758377,0.69478637,-5.289379597
5.283121999999821,-3.143774986,12.41632366,-157.9934692,-4.234078884,-2.156472683,23.62382698,-25.01307297,9.612797737,-2.293717861
5.291454999999587,-3.38683176,12.5007906,-158.0344391,-2.000241518,-1.080067635,10.09329319,-28.89755821,9.928161621,-4.64669466
5.299787999999808,-3.638012409,12.63766384,-158.0654297,-3.380728483,-0.445730269,20.77063179,-30.11800385,16.15929413,-3.043217421
5.3081209999995735,-3.922770739,12.67802715,-158.1069641,-1.712010145,-3.678641081,12.41409397,-33.87082672,4.687973022,-4.960521698
5.316453999999794,-4.203337669,12.8146019,-158.1440277,-3.928552866,-1.555174232,10.47694397,-33.47332001,16.19917679,-3.590466499
5.32478699999956,-4.488247871,12.89297581,-158.2010345,0.612113535,-1.869332194,4.151845932,-33.45864868,9.417314529,-6.366924763
5.333119999999781,-4.780125618,13.05032444,-158.2603302,-5.383618832,-3.213772535,21.47588158,-34.21358109,18.92269516,-5.812582016
5.341453000000001,-5.063366413,13.15382004,-158.3232117,-2.146531582,0.750726044,12.49339008,-33.06987,12.53841209,-6.684848785
5.349785999999767,-5.345699787,13.27320194,-158.3876648,-6.337829113,-1.076798081,21.56901741,-32.85533142,14.51068592,-6.805467606
5.358118999999988,-5.609228134,13.44654179,-158.4255524,1.451428533,-2.768612385,11.71741962,-31.36496735,20.66180038,-2.847243309
5.366451999999754,-5.913492203,13.55401325,-158.4734344,-4.357051373,1.328352094,16.72255707,-35.90924072,12.9549017,-4.887215137
5.374784999999974,-6.257581234,13.78620911,-158.5114746,-1.831825614,-1.17779398,22.11740112,-41.00382614,27.71081734,-1.88473773
5.38311799999974,-6.572304249,13.8777113,-158.563324,-2.394581795,-3.61798501,6.32327652,-37.01104355,11.15368176,-5.422605038
5.391450999999961,-6.848757744,14.01794243,-158.5868988,-1.951357603,1.37668395,9.503688812,-33.28401184,16.56871605,-1.189949155
5.399783999999727,-7.128730297,14.19584751,-158.6556244,-1.351558447,-0.969858825,14.72110844,-32.3199234,21.73135567,-5.974131584
5.408116999999947,-7.36552763,14.30972385,-158.6626892,-4.288346767,-4.176001549,15.22561073,-28.99773598,13.19375134,0.482009113
5.416449999999713,-7.621488094,14.40221214,-158.7329407,-0.478825212,1.661170959,16.27616119,-29.35197639,11.6419611,-7.308067799
5.424782999999934,-7.841462612,14.52576828,-158.746582,-6.040788651,-1.429282188,15.28799915,-26.77907372,14.43885803,-0.005955314
5.4331159999997,-8.071229935,14.66365623,-158.7978973,-0.261834621,-0.703546762,17.22379303,-26.80725479,16.754673,-4.035052776
5.4414489999999205,-8.289536476,14.77470493,-158.8207397,-3.733771563,0.744251788,13.03420258,-26.29089165,13.1006403,-1.155010581
5.449781999999686,-8.481170654,14.90309525,-158.8581085,0.00274301,-0.304153115,11.57651997,-22.56153107,15.45820045,-2.742530823
5.458114999999907,-8.622225761,15.02514458,-158.8799591,-4.625321865,-0.930392325,12.16456604,-17.0394268,14.39448738,-0.754685223
5.466447999999673,-8.671476364,15.10239887,-158.8811798,-1.640047431,-1.096802473,16.62294769,-6.660150528,8.729614258,0.828210831
5.4747809999998935,-8.699433327,15.17587471,-158.8880005,-0.481028497,1.239596486,11.45310116,-3.92921114,8.369426727,0.122948326
5.483113999999659,-8.72284317,15.21043396,-158.8670807,-1.599734306,0.34351781,17.83665466,-4.170881271,3.320475578,2.296162367
5.49144699999988,-8.795560837,15.29133034,-158.8730774,-2.60546279,-1.469398141,17.33109474,-9.326771736,9.235494614,0.365694493
5.499779999999646,-8.859410286,15.3249073,-158.8558655,-1.088044763,-1.529604435,6.246391773,-8.996269226,3.219504118,2.15866518
5.508112999999867,-8.874659538,15.4049015,-158.8518982,-5.118039131,-3.210293055,8.321099281,-2.745705366,8.947693825,1.506603837
5.5164459999996325,-8.853032112,15.39697933,-158.8508606,0.15712519,-0.61845392,11.3580389,1.774861455,-1.414610028,-0.454921603
5.524778999999853,-8.818081856,15.41416454,-158.853241,-3.225134373,-1.507095695,16.72998238,3.480513334,1.613338232,-0.382484555
5.533111999999619,-8.819475174,15.4216671,-158.8642426,-2.757279158,0.176191911,17.34665489,-0.602741301,0.628726959,-1.547189355
5.54144499999984,-8.830745697,15.46206474,-158.869812,-0.851106822,-0.270601541,11.01040173,-1.96401,4.423194408,-0.321958125
5.5497779999996055,-8.865951538,15.43808174,-158.8777618,-2.189395905,-0.906857908,11.86619568,-4.759957314,-3.159169912,-1.776590466
5.558110999999826,-8.852814674,15.4821558,-158.8681488,-3.43275094,-2.819475889,7.624004364,0.48062554,4.588150024,1.483832836
5.566443999999592,-8.803164482,15.40504456,-158.8501129,-2.178239346,-0.751105666,6.541086197,4.594041348,-9.920995712,0.214570463
5.574776999999813,-8.745738983,15.49837685,-158.8735504,-4.746596336,-0.543514848,14.67612648,6.850913048,11.01793957,-1.399165034
5.583109999999579,-8.7180233,15.47183514,-158.8838196,-0.847169757,-2.429374456,0.373192728,2.867308855,-3.426249981,-2.08498621
5.591442999999799,-8.69831562,15.51924515,-158.9475861,-2.731180668,0.213603303,10.81055927,3.619368076,6.274360657,-6.855714321
5.599775999999565,-8.711547852,15.61753654,-159.0072021,-2.745368958,-2.016102791,9.46850872,-0.456970781,12.24468136,-5.451824188
5.608108999999786,-8.755005836,15.74102974,-159.0777893,-3.402282953,-1.554671288,9.859922409,-3.715461254,15.41897964,-6.237772465
5.616441999999552,-8.801190376,15.87084293,-159.148407,-1.250210166,-0.642683685,0.424041271,-4.023600578,16.18220711,-6.108368874
5.624774999999772,-8.835583687,15.96395874,-159.1811676,-1.157848716,-2.673159599,3.447015285,-3.837358713,11.15495014,-2.451474905
5.633107999999993,-8.869409561,16.21496773,-159.242157,-4.181882858,-0.884308755,15.41119766,-2.820398092,30.38639259,-2.740968466
5.641440999999759,-8.927248001,16.34389496,-159.258728,2.699810743,0.384893656,-8.430006981,-7.172230721,15.11398983,0.077816062
5.649773999999979,-8.958070755,16.54337692,-159.2825775,-7.64444828,-1.666967988,21.311203,-3.677372932,23.61546326,0.584798813
5.658106999999745,-9.064712524,16.82400513,-159.3021088,2.84116745,-0.601322234,-7.049054623,-12.91526222,33.14375687,2.629355192
5.666439999999966,-9.128566742,16.98899078,-159.3242035,-5.952431679,-1.242559433,13.40117073,-7.681853294,19.49233818,0.198228627
5.674772999999732,-9.198396683,17.34254456,-159.3600922,1.869321823,-0.646790326,-3.131302357,-7.898225784,42.07354736,2.265147209
5.6831059999999525,-9.27023983,17.49345016,-159.3665009,-2.82790637,-0.742424428,5.139395714,-9.180874825,17.53210449,1.755190372
5.691438999999718,-9.303378105,17.8339386,-159.3760529,0.239656165,-0.444463283,4.353406429,-4.416630268,40.03351974,5.086123466
5.699771999999939,-9.353002548,17.96819878,-159.3911591,-3.000463724,-0.524003208,6.438076019,-6.187849045,15.71722889,0.48303327
5.708104999999705,-9.426231384,18.23624039,-159.3788452,2.546559811,-0.639521956,2.458561897,-10.03603649,31.03910255,6.203644753
5.7164379999999255,-9.445177078,18.40857315,-159.4272766,-4.990439415,-0.949255288,4.10025692,-1.235234022,20.84489822,-2.479061604
5.724770999999691,-9.447274208,18.55983353,-159.4107971,2.711741209,-0.074280038,8.799593925,-1.666705728,17.13195801,4.402114391
5.733103999999912,-9.494589806,18.69776344,-159.482132,-3.652148962,-0.074672304,4.616606712,-3.732187033,17.20017052,-5.70497036
5.741436999999678,-9.437487602,18.77354813,-159.4348907,3.155061483,0.427770257,4.693485737,4.243254662,7.621286392,6.36191082
5.749769999999899,-9.423710823,18.81101799,-159.5041962,-1.489980936,-0.033433355,5.770589352,3.542730808,5.267490387,-7.458263397
5.7581029999996645,-9.323931694,18.789814,-159.4325714,1.03976655,-1.001924276,7.172653675,8.4167099,-4.301437378,7.187432289
5.766435999999885,-9.216497421,18.62079048,-159.4573517,-0.069105387,1.232842922,4.383457661,13.05678654,-20.02369499,-6.475345612
5.774768999999651,-9.05056572,18.50026703,-159.3859558,-0.564272702,-1.628130436,9.126373291,16.3971386,-16.03560638,5.295053959
5.783101999999872,-8.879810333,18.22326851,-159.4000702,1.409357905,1.108291626,4.153251648,20.23535347,-33.04242325,-7.194036961
5.7914349999996375,-8.694705963,17.96035767,-159.315033,-2.180171251,-0.951553822,17.20572853,18.25631332,-33.12686539,4.33657217
5.799767999999858,-8.504108429,17.58154297,-159.2987213,1.551404834,0.463548094,-5.933952808,21.48806,-45.68241119,-5.382626057
5.808100999999624,-8.214125633,17.23758125,-159.2196198,-4.310268879,-0.955714762,16.31319237,31.17068291,-42.62062073,2.534893751
5.816433999999845,-7.968476295,16.86431122,-159.2093353,2.024107218,-0.089864992,2.835609674,28.32849503,-44.97301483,-5.563951015
5.824766999999611,-7.717191696,16.39817238,-159.124176,-4.736346245,-1.559679151,14.20388222,26.44340897,-57.21510696,1.638650775
5.833099999999831,-7.516799927,16.12925911,-159.1607819,-0.693933785,-1.036736846,2.453177691,24.48924065,-31.88386345,-8.884577751
5.841432999999597,-7.254625797,15.55496407,-159.0824127,-1.896754622,-1.940368891,4.700984001,28.10597801,-69.97325897,-0.314121783
5.849765999999818,-7.037417889,15.30458641,-159.1355591,-2.418340445,0.950956643,15.43163395,26.97408485,-29.50519753,-10.26419067
5.858098999999584,-6.827368736,14.80360508,-159.0917664,-1.774845123,-3.26125145,1.071346998,23.05535507,-60.7580452,-2.649200201
5.866431999999804,-6.6364851,14.51012421,-159.1113129,-0.91542834,-0.673548758,9.667646408,22.71030617,-35.16697311,-6.807748795
5.87476499999957,-6.430807114,14.1082716,-159.0832977,-3.80133605,-1.405168891,6.872357845,23.06454659,-48.74755478,-2.680344105
5.883097999999791,-6.258194447,13.81331348,-159.0696411,0.282257855,-1.679241538,3.258747339,19.52854919,-35.81303787,-2.757363081
5.891430999999557,-6.110744476,13.58479404,-159.0521088,-5.990403652,-2.403443575,15.63350773,16.40990257,-27.94954681,-1.351728439
5.899763999999777,-5.9697752,13.23052788,-158.9951782,2.370253563,0.967725575,-4.995513916,14.54317379,-43.433918,1.708344579
5.908096999999998,-5.837585926,13.08567238,-158.9984131,-3.884213209,-2.37792325,11.43507481,15.16411972,-17.71892357,-2.593147755
5.916429999999764,-5.707603455,12.80993176,-158.9165192,-1.290482163,-1.516916871,6.316861629,12.60733891,-34.3434906,5.772968769
5.9247629999999845,-5.60656023,12.64559174,-158.9222717,-3.432102442,-1.096310019,4.585609436,11.48947525,-20.02528191,-3.042472839
5.93309599999975,-5.487819672,12.49097538,-158.8390808,-0.044872791,0.967172861,5.30446434,11.28827572,-19.86847305,7.478131771
5.941428999999971,-5.425220013,12.36289501,-158.8537598,-3.010842562,-3.759499311,4.548232079,7.101291656,-15.60387516,-3.602271318
5.949761999999737,-5.311887264,12.29367256,-158.7623901,-3.017813683,-0.95728898,1.36934495,10.47179317,-9.732247353,9.458827019
5.9580949999999575,-5.196950912,12.15397739,-158.7801056,1.65630877,-0.424850821,5.366198063,13.45360088,-16.9694519,-4.02985096
5.966427999999723,-5.167561531,12.06049442,-158.6780243,-5.042553425,-0.906146109,12.50701427,0.170309082,-12.71504974,10.4859066
5.974760999999944,-5.222492218,12.01899719,-158.6901093,2.40875268,-3.984987736,0.632532537,-7.079864502,-5.297805786,-2.288798571
5.98309399999971,-5.204600811,11.98119545,-158.6104431,-5.023336411,0.107704476,0.612954855,-0.628534973,-5.827278137,8.474010468
5.991426999999931,-5.191533566,12.03036308,-158.6092072,-0.356112391,-2.025580883,3.43008256,0.748678565,5.396407127,0.248381242
5.9997599999996964,-5.142679214,12.04471684,-158.522644,-2.622219563,-0.830624759,8.97619915,2.946789742,0.354449809,9.673600197
6.008092999999917,-5.198264599,12.09312344,-158.5166626,-1.323683143,0.570420265,6.839400291,-7.610950947,5.255580425,0.79524529
6.016425999999683,-5.265971184,12.12405396,-158.4254913,-0.007087512,-2.306765079,2.548705578,-11.17112446,2.272853851,10.40109634
6.024758999999904,-5.28474474,12.17390156,-158.4120636,-2.967978716,-0.629067361,6.832228184,-3.382040024,5.346485138,1.688823581
6.0330919999996695,-5.324878693,12.31146812,-158.3322144,-2.558200359,-1.701593995,1.236405373,-7.635669231,15.10838223,10.42276764
6.04142499999989,-5.337041855,12.34406853,-158.2956085,2.329330683,-0.233552366,4.828915596,-3.187089682,3.030702114,4.209340572
6.049757999999656,-5.431258678,12.47774792,-158.2319641,-4.602642536,-1.268431544,6.197517872,-13.73606205,14.80828762,8.501599312
6.058090999999877,-5.512608528,12.53304482,-158.2026367,2.799528122,0.722472012,5.676624298,-11.31331062,5.811589241,3.624414206
6.0664239999996425,-5.606163025,12.73841858,-158.1918488,-7.044900417,-3.828651428,-0.318229079,-12.29907894,23.94466019,3.217456818
6.074756999999863,-5.671971798,12.79555607,-158.1288605,5.932555676,2.677132607,2.581800699,-10.3563633,5.631624222,7.581329823
6.083089999999629,-5.800279617,12.95819473,-158.1556396,-8.540955544,-5.218635559,8.50929451,-15.42002106,19.29190826,-1.803588986
6.09142299999985,-5.864411831,13.11583614,-158.082962,4.601587772,3.18598175,2.666033506,-10.45341682,17.48945808,9.945832253
6.099755999999616,-6.006836891,13.28198719,-158.1727142,-6.636829376,-3.82482028,1.059972525,-15.42089176,20.45272255,-8.794203758
6.108088999999836,-6.100734711,13.4391737,-158.0575562,4.449965,0.188039094,5.422407627,-15.25012398,16.87343979,14.93152142
6.116421999999602,-6.252175331,13.62398434,-158.1977844,-7.091080666,-1.853780031,3.557964802,-14.96867752,23.37067986,-14.53397846
6.124754999999823,-6.347258091,13.85059547,-158.0741882,2.950762749,-0.276838362,-0.001250789,-15.72235298,24.98140717,16.87692833
6.133087999999589,-6.537004471,13.99667358,-158.2124023,-3.483273983,-3.652944088,6.081675053,-19.50255394,18.79251289,-14.71332932
6.141420999999809,-6.658583641,14.30204868,-158.0934601,-0.50727576,3.082695484,2.568587542,-18.86913109,34.34534073,17.53013039
6.149753999999575,-6.849025249,14.45247555,-158.2552948,-1.079557776,-4.229904652,-2.117284775,-18.8188591,19.67559052,-16.98643875
6.158086999999796,-6.970961094,14.74885654,-158.1284485,-1.68978107,-0.734012306,5.041922092,-19.25961304,33.06882095,18.47467995
6.166419999999562,-7.175019741,14.95409679,-158.3243256,-1.11122632,1.302150488,2.95644474,-19.25172234,26.77339172,-19.94161606
6.174752999999782,-7.282753944,15.25766945,-158.1989441,-1.583694339,-1.450063467,-0.484684378,-17.63897514,33.84511566,18.56448555
6.183086000000003,-7.468847752,15.43241692,-158.3656158,-0.577818573,-0.435906917,7.487783432,-17.82651329,22.80906296,-16.86359787
6.191418999999769,-7.563162327,15.81916714,-158.2796631,-3.427514553,0.022970386,0.943254411,-14.88511467,44.24542999,15.49036884
6.1997519999999895,-7.711051464,15.94056511,-158.4154205,3.342625618,0.841402471,3.016022444,-14.07732201,16.05634308,-14.0237093
6.208084999999755,-7.782224655,16.34839439,-158.351944,-7.309963703,-2.673205376,5.521188736,-11.44862843,47.04036713,13.41989136
6.216417999999976,-7.85292387,16.47799873,-158.4637451,6.555299282,4.161085606,0.232977927,-5.481332779,16.69454575,-11.0642128
6.224750999999742,-7.891757965,16.80598831,-158.4266968,-8.452445984,-4.801962376,5.786730766,-6.723605156,37.937397,9.184688568
6.2330839999999625,-7.907293797,16.93482971,-158.4658508,7.876937389,4.158882618,3.047002554,-1.287358761,15.46736336,-2.757795334
6.241416999999728,-7.850599766,17.20755196,-158.4873352,-7.543344498,-1.645112514,0.720266521,6.770822525,32.28897476,1.6178478
6.249749999999949,-7.744684219,17.24346542,-158.4742737,6.649726868,0.809377372,2.035247087,11.45968151,3.602283716,1.641642094
6.258082999999715,-7.643482208,17.43197441,-158.5019531,-5.937623501,-3.241206884,6.527239799,12.34719372,22.37524796,-0.542727411
6.266415999999936,-7.511716843,17.43147469,-158.4672241,3.577497482,2.243698835,4.664865971,13.77715683,-1.049172044,3.505949259
6.2747489999997015,-7.35168457,17.49558067,-158.4910431,-3.460489035,-2.796558142,8.352984428,19.2733345,7.515424728,-2.137675047
6.283081999999922,-7.172410965,17.3981781,-158.458252,2.008306026,3.156305075,9.433641434,19.54756355,-12.53216648,1.818252683
6.291414999999688,-7.056267738,17.3685112,-158.479538,0.153769702,-2.383838892,4.730902672,13.91080952,-3.697837591,-3.287241459
6.299747999999909,-6.838040352,17.24114609,-158.427002,-3.366672277,0.153306007,7.817036152,23.52818108,-16.36316872,3.69933939
6.3080809999996745,-6.561206341,16.9788208,-158.437027,2.628053427,-2.10899663,2.528914452,32.78656006,-31.59610367,-5.244331837
6.316413999999895,-6.304286957,16.80274963,-158.3638458,-2.455898762,0.693774998,12.04017925,27.4932251,-22.40060806,5.557040215
6.324746999999661,-6.058627605,16.50902939,-158.3898468,0.508063376,-1.508369684,14.65869522,29.58595848,-35.18486786,-7.196372032
6.333079999999882,-5.819523335,16.27041626,-158.2982178,-2.727775335,0.197053164,0.333123803,24.80370712,-30.03322983,7.103067398
6.341412999999648,-5.612126827,15.99346161,-158.3524628,-0.556641042,-3.298382521,20.5394249,25.90955544,-32.91317749,-9.96081543
6.349745999999868,-5.373483181,15.70064831,-158.2382813,-3.333351612,-1.222843647,-4.722943783,24.10982704,-36.69923019,9.330744743
6.358078999999634,-5.166455746,15.35617256,-158.2757568,-0.855580866,-1.161215067,20.33093834,25.25940323,-41.23023605,-8.541482925
6.366411999999855,-4.959174633,15.27280903,-158.1824036,-5.970445156,-3.187689781,1.877684116,21.128479,-11.37891293,9.455142021
6.374744999999621,-4.825784206,14.86248684,-158.1905365,2.350975037,-1.262072921,16.08184433,15.47311115,-49.44620895,-5.568561077
6.383077999999841,-4.705792427,14.88021088,-158.1243134,-10.66865158,-2.123453856,13.99959564,11.57274437,1.020778656,7.404026508
6.391410999999607,-4.613179207,14.5645895,-158.1154175,5.840623856,-1.666996598,-7.011079311,10.05472851,-38.29990387,-2.475427389
6.399743999999828,-4.536868572,14.50592327,-158.0626678,-7.62217617,-2.35843873,18.64012146,6.782188892,-7.968473434,5.117852211
6.408076999999594,-4.514861584,14.35072136,-158.0773773,1.055982351,-1.4608289,12.62572384,2.292423487,-18.89817619,-3.602655888
6.416409999999814,-4.493334293,14.3483429,-158.0430908,-6.223789215,-2.005129814,14.20707703,0.776777327,-1.059238195,3.523468494
6.42474299999958,-4.477520943,14.22689724,-158.020752,-0.228090525,-0.601844072,15.47432232,0.447147787,-15.19704342,1.022136211
6.433075999999801,-4.488605976,14.24878693,-157.9833527,-2.959579468,-2.635025501,12.18706608,-3.221387148,1.817073703,4.114414692
6.441408999999567,-4.528770924,14.12649059,-157.958725,-1.250654697,0.439360797,16.95069695,-6.331904411,-15.32291317,1.2734375
6.449741999999787,-4.556777954,14.23189545,-157.9125214,-6.2085886,-2.112755299,13.37333584,-5.423162937,11.74917603,5.60823822
6.458074999999553,-4.574430466,14.075634,-157.8859711,0.52386409,-0.754461348,11.2325058,-3.685671806,-19.40421104,1.15809679
6.466407999999774,-4.583687305,14.13403606,-157.8529205,-5.45539999,-1.670240998,20.53638077,-2.783563137,6.244367123,3.649823904
6.4747409999999945,-4.581762791,14.17607403,-157.8334351,1.115697265,-0.354790032,3.317878962,-1.129882097,4.380417824,2.234764814
6.48307399999976,-4.530744553,14.16017914,-157.8182373,-1.362662554,-2.220965385,9.438373566,4.889731407,-2.503471136,1.183095932
6.491406999999981,-4.448629856,14.17816067,-157.780014,-7.537456036,-0.788348138,26.7910099,7.943128586,1.336089849,4.176145077
6.499739999999747,-4.366165161,14.20367527,-157.7775269,-1.756625295,-1.113515139,16.60830498,9.036037445,2.568570137,0.094747074
6.508072999999968,-4.265907288,14.23173904,-157.7300568,-0.936188579,0.352527022,17.55160141,9.844575882,2.476794243,5.331116676
6.5164059999997335,-4.241788387,14.2399416,-157.7471161,-2.17125535,-0.634372056,17.35429192,2.610116243,0.669095039,-2.333034277
6.524738999999954,-4.232594967,14.28767014,-157.7016754,-3.903138876,-3.37877965,18.92159081,-1.028603673,4.855562687,5.263110638
6.53307199999972,-4.276987553,14.33258057,-157.7133026,-4.106321335,-2.105381727,12.24660015,-5.693930149,5.035912991,-1.668242574
6.541404999999941,-4.240510941,14.34105778,-157.6869812,-4.750401497,-2.189921141,11.63128185,2.807473421,0.321202487,2.697332382
6.5497379999997065,-4.221691132,14.37960625,-157.7104187,0.018362869,-3.690315485,12.08780003,2.235661745,4.373118877,-3.059428215
6.558070999999927,-4.213181019,14.4202919,-157.6970367,-3.929404974,-1.74405992,14.57748413,-0.167888507,4.288694382,1.482449412
6.566403999999693,-4.21827364,14.48348141,-157.7282104,0.416798472,-0.737397373,22.34738541,-0.462861955,7.367600441,-3.482293367
6.574736999999914,-4.319634914,14.47933674,-157.7485046,-5.855516911,-2.994909763,17.75833702,-12.34313011,-0.78642118,-2.818629265
6.58306999999968,-4.374150753,14.45700932,-157.7698669,-0.935270607,-0.205018669,14.79560661,-6.631564617,-2.926567793,-3.321462393
6.5914029999999,-4.445858955,14.44746685,-157.7979126,-3.060654879,-2.298181057,8.584656715,-8.555142403,-1.35772109,-3.765920401
6.599735999999666,-4.480212688,14.43863583,-157.8038635,1.137247682,-2.044254541,18.30794525,-4.729834557,-1.460869312,-1.200167775
6.608068999999887,-4.60021019,14.42351246,-157.8418732,-9.036255836,-1.113159657,24.89249611,-14.05495644,-1.926792741,-4.975732327
6.616401999999653,-4.746913433,14.41549015,-157.8493347,0.623193204,-3.049048662,12.25001144,-18.16842461,-1.346655846,-1.369273186
6.624734999999873,-4.860831738,14.3721199,-157.8752594,-7.903360367,-2.885655165,14.85951996,-13.68672562,-5.399622917,-3.868045092
6.633067999999639,-4.973982334,14.33270264,-157.8765869,4.737397194,-0.71479243,9.479311943,-14.28230858,-5.143762112,-1.15157783
6.64140099999986,-5.112551689,14.30146217,-157.9322052,-6.88713789,-2.091372252,16.22391319,-15.76775455,-3.632137537,-7.201097488
6.649733999999626,-5.223611832,14.28968334,-157.9177246,-0.259751379,-3.957616329,15.20567131,-14.49546814,-2.002175093,0.944320083
6.658066999999846,-5.382001877,14.20131207,-157.9776001,-6.351781368,-0.324476838,18.50488853,-18.02921295,-10.38036442,-8.343520164
6.666399999999612,-5.517370224,14.13941383,-157.9784546,-0.502836704,-0.232872248,15.34841061,-16.9614563,-7.8264184,-1.403135538
6.674732999999833,-5.694494724,14.03008938,-158.0419006,-2.933085203,-4.861293316,11.80381012,-20.19202805,-12.80119324,-9.062103271
6.683065999999599,-5.833412647,14.02691174,-158.0182343,-3.690006018,-0.166551933,20.82545853,-18.1019783,-1.096763253,2.114276171
6.691398999999819,-6.061151505,13.9446106,-158.0875702,-3.569708109,0.268460661,18.04930687,-26.10992622,-9.453260422,-9.483306885
6.699731999999585,-6.255627155,13.93664932,-158.0831757,-4.836783886,-4.766071796,17.33651733,-24.20831871,-1.442760825,-0.190147355
6.708064999999806,-6.467682362,13.81198311,-158.1342621,-0.730895042,-1.45269835,6.641070843,-24.76717758,-14.67495728,-8.003058434
6.716397999999572,-6.640606403,13.79551029,-158.1351318,-1.653662086,0.038671419,9.582901001,-21.46766853,-2.38984704,-0.930270791
6.724730999999792,-6.832450867,13.72599411,-158.1754303,-2.663929701,-4.508356094,11.31521606,-22.6621933,-8.199800491,-6.070973873
6.733063999999558,-7.0230937,13.7031517,-158.1759949,-4.611775875,-1.309705615,24.02858162,-23.60131645,-3.147543192,-1.003118038
6.741396999999779,-7.233809948,13.60628128,-158.2206726,-2.472429276,0.60330832,15.72226334,-24.81189919,-11.35394001,-7.040294647
6.74973,-7.423300743,13.59937096,-158.2356567,-4.626630783,-2.332072735,16.51209831,-23.05893326,-1.033291578,-2.447838545
6.7580629999997655,-7.595355511,13.57046604,-158.2671356,-0.084803827,-0.070283882,10.75998116,-20.54939842,-3.424304485,-4.522745609
6.766395999999986,-7.822388649,13.54637337,-158.292038,-3.811164856,-1.790820599,19.77690315,-27.28469849,-2.906820297,-3.880238533
6.774728999999752,-8.035908699,13.55194283,-158.3372498,-3.900087357,-2.693979025,12.82924652,-25.14229393,0.922548354,-5.559303761
6.783061999999973,-8.229417801,13.47550011,-158.3389435,-3.72000885,-0.112861991,12.35546303,-23.91019821,-9.479898453,-2.127609015
6.7913949999997385,-8.410520554,13.5784483,-158.399826,-2.251590014,-1.618065596,10.95272636,-20.81407356,12.78560734,-5.668394566
6.799727999999959,-8.543838501,13.58514118,-158.4139252,-3.868789673,-2.941624165,9.665496826,-16.33892822,0.610208094,-2.134575844
6.808060999999725,-8.713489532,13.70577526,-158.4694519,-2.312839985,0.016936272,27.56407547,-19.57744408,14.81838036,-4.65704155
6.816393999999946,-8.881685257,13.70950699,-158.5119934,-3.393654108,-0.972068489,10.10021877,-19.70638275,0.778877974,-5.480000973
6.8247269999997116,-8.998493195,13.74081802,-158.5311279,0.210588023,-0.15346536,7.006132603,-14.26312447,3.591014147,-2.048998594
6.833059999999932,-9.120658875,13.84879017,-158.5824127,-4.543889523,-0.759904802,22.58239365,-13.92873096,13.31241322,-4.489088058
6.841392999999698,-9.261604309,13.91326141,-158.5993958,-4.2572999,-1.89211905,18.00269127,-17.21424294,7.487837315,-1.147428513
6.849725999999919,-9.393032074,13.94638157,-158.6184998,-0.914828062,-1.390414,12.13898563,-15.94918156,3.864420414,-2.210368156
6.858058999999685,-9.46130085,14.02331638,-158.6568451,-3.792619705,0.9415555,7.72380352,-7.870141029,9.371969223,-3.321564913
6.866391999999905,-9.462144852,14.07574177,-158.6458282,0.584500074,-2.995085716,9.99661541,-1.146326661,5.57962656,1.623020411
6.874724999999671,-9.428697586,14.0409317,-158.6791534,-2.654282093,-0.189718887,16.06098938,4.195125103,-3.9494977,-4.940999031
6.883057999999892,-9.375476837,14.02612782,-158.6552582,-3.241952896,0.330916226,20.89933205,4.90374279,-2.663074017,2.02793026
6.891390999999658,-9.36768055,13.96275616,-158.6644592,-1.073942065,-2.171468735,14.70041847,0.414873779,-7.794987679,-2.725085735
6.899723999999878,-9.358819962,13.86193752,-158.6075439,-3.984396696,-3.677875519,15.59565067,-1.292968631,-13.42026234,3.849923372
6.908056999999644,-9.406586647,13.78416348,-158.6170197,-1.22706449,-0.021109406,16.3217926,-6.250117302,-9.494391441,-3.039525986
6.916389999999865,-9.422305107,13.72538567,-158.587616,-7.005788803,-2.894930601,15.69374561,-3.425686598,-7.915913582,1.445180893
6.924722999999631,-9.463796616,13.62312222,-158.6032257,3.433469534,-0.960049808,6.273104191,-5.325520992,-12.27187252,-4.238529682
6.933055999999851,-9.497040749,13.50219345,-158.5991058,-6.259783745,-2.289266348,9.518374443,-4.802145004,-14.78445053,-2.714225531
6.941388999999617,-9.492033005,13.4514637,-158.6215668,-2.480694532,-2.934289217,15.20020771,0.441205233,-6.03757,-4.017580032
6.949721999999838,-9.447968483,13.35294914,-158.6338654,-3.347015619,-0.422228247,15.20896244,4.927205563,-11.81921577,-4.144344807
6.958054999999604,-9.445913315,13.2849493,-158.6322937,-2.37681222,0.030534837,19.95477676,-0.586629987,-8.546048164,-1.589017391
6.966387999999824,-9.484507561,13.27097797,-158.6513367,-4.364088058,-1.01786077,19.88762283,-4.801837444,-1.678027034,-3.284500599
6.97472099999959,-9.487482071,13.23223495,-158.6543427,-2.105876446,-1.030616164,10.00138474,-1.063464642,-4.994148731,-1.543065667
6.983053999999811,-9.462441444,13.14657974,-158.6588898,0.570119917,-1.036753178,5.13312006,2.431277752,-10.44145203,-3.025771379
6.991386999999577,-9.402415276,13.08688736,-158.6407166,-3.410746336,-3.695565462,16.64138031,5.920423508,-7.879386425,0.491818935
6.999719999999797,-9.320130348,13.02165794,-158.6281281,-5.163575649,-1.321602941,20.16397858,8.83655262,-8.352890968,-0.63773042
7.008052999999563,-9.237466812,12.83614159,-158.5673981,2.280017853,-0.849771917,15.51819897,7.499212265,-23.58195114,2.992102623
7.016385999999784,-9.179847717,12.70404148,-158.5516968,-6.184024334,-0.157342747,19.26252937,5.796323776,-16.33385658,-1.531360388
7.024719000000005,-9.10006237,12.61003017,-158.4944,-0.611670315,-0.682112932,17.92931747,7.281001568,-12.6689949,4.39942503
7.0330519999997705,-9.049603462,12.41934872,-158.4960938,-0.88150239,-1.177463651,12.69573784,5.393514633,-22.95713806,-4.609424114
7.041384999999991,-8.996165276,12.2477541,-158.4316864,-3.411174774,-0.79030776,11.64283371,3.972923517,-21.98656464,3.796620369
7.049717999999757,-8.893809319,12.09169865,-158.41745,-4.420345306,-3.469108343,13.50079441,11.21652985,-19.15106773,-2.07089901
7.058050999999978,-8.713502884,11.82783508,-158.3444672,-1.566250563,-0.19315353,16.06932259,19.03447533,-33.06808472,3.191051483
7.0663839999997435,-8.598013878,11.66626263,-158.3324127,-3.88002038,1.42169404,23.32628822,12.85013103,-19.77813148,-2.313927174
7.074716999999964,-8.498967171,11.51269817,-158.2856293,-3.389442205,-0.989282906,21.73616409,9.969346046,-19.50569534,2.268960953
7.08304999999973,-8.460741043,11.28136253,-158.2864838,0.665524065,-0.902341306,6.817694664,3.899641991,-27.83481598,-5.030446529
7.091382999999951,-8.378815651,11.11535645,-158.2329865,-6.894126892,-1.455243945,13.22755051,7.795696259,-21.09390831,2.882063866
7.099715999999717,-8.242249489,10.94922161,-158.2317505,-2.242356062,-3.062652588,13.08406258,15.64421082,-20.14590073,-3.551402807
7.108048999999937,-8.07684803,10.71341324,-158.1572723,-2.925512552,0.168225229,20.80815887,17.38171005,-29.72264862,4.24233675
7.116381999999703,-7.967800617,10.60866165,-158.1781006,-3.592155695,1.55883193,25.06998825,12.83547592,-12.49914837,-5.02819109
7.124714999999924,-7.883462429,10.4087019,-158.1363831,-2.327047586,-0.675139487,7.70178175,8.419686317,-24.91166306,1.136786103
7.13304799999969,-7.790167332,10.29177475,-158.1478424,-4.161761761,-0.591493845,12.85829544,10.72027874,-14.11599827,-4.063686848
7.14138099999991,-7.657165527,10.28336334,-158.1365662,-6.182460785,-2.705843925,17.66300583,14.9312582,-1.646829009,0.754697919
7.149713999999676,-7.470600605,10.22720909,-158.1266174,-1.526029706,-0.21428588,11.76071262,21.45549393,-7.235526085,-0.551948667
7.158046999999897,-7.292016983,10.26992035,-158.0960541,-5.553183079,0.811192572,17.94441795,19.99020195,4.152171612,3.806532383
7.166379999999663,-7.151196003,10.30474281,-158.0568237,-3.979721069,-1.735296726,16.12084579,15.26347351,3.107288837,4.692092896
7.174712999999883,-7.026342869,10.47524071,-158.0364075,-5.191876411,-0.457556695,16.27823448,13.75257206,19.54034233,4.483594894
7.183045999999649,-6.898409367,10.63788605,-158.0380859,1.191260815,-3.766937494,-0.938401282,14.59453678,18.93891716,1.743408084
7.19137899999987,-6.786736488,10.79977608,-158.0635529,-9.013264656,-1.967599273,16.47139931,13.18175888,19.18130684,-1.098249435
7.199711999999636,-6.678913116,11.09976482,-158.144989,-2.545366526,-0.190032512,15.7752552,14.00011921,36.41716385,-5.736660957
7.208044999999856,-6.578653812,11.29519176,-158.2072296,-5.280191422,-1.582311273,8.531037331,12.6939106,23.67389488,-5.000145435
7.216377999999622,-6.489254951,11.68955517,-158.3231354,-2.275060177,-0.301718354,13.95250988,12.7032795,48.10832596,-8.587844849
7.224710999999843,-6.403072834,11.99037838,-158.4326935,-3.078362703,-2.206960678,1.314825296,12.25158691,36.84868622,-9.163082123
7.233043999999609,-6.299797058,12.41934395,-158.5278625,-1.396554708,-0.686600387,6.663318634,14.01312256,51.93586349,-5.829084396
7.241376999999829,-6.175750256,12.74447155,-158.6285553,-3.281762362,-0.801483572,7.066940784,16.73042679,39.59956741,-7.913288116
7.249709999999595,-6.062554836,13.2057476,-158.6947327,-3.698956966,0.715835571,16.78032303,14.57300472,55.40338898,-2.226690054
7.258042999999816,-6.018253803,13.67550373,-158.7961426,-0.872646093,-2.471354723,1.078725696,7.356787682,56.83729935,-6.267884731
7.266375999999582,-5.993360043,14.10344696,-158.8426819,-1.250089407,-2.090143919,6.704197407,3.533415079,51.17743301,-0.446956605
7.2747089999998025,-5.984920979,14.64726925,-158.9393463,-4.971904755,-2.943787575,2.152039766,3.103329897,65.60959625,-4.796757221
7.283041999999568,-5.977618694,15.15281105,-158.9611816,-2.419253588,-1.138245463,10.7993145,0.756672442,60.13728333,3.373763561
7.291374999999789,-6.025615692,15.64379883,-159.0702057,-0.686126411,-1.582843304,-3.251390696,-3.074370623,59.44771957,-6.813471317
7.299707999999555,-6.141995907,16.24523544,-159.1030731,-1.099467397,-1.192794204,12.44873905,-13.67536354,71.70523834,3.447692394
7.3080409999997755,-6.26204443,16.74028206,-159.2328033,-2.82374692,-2.71750617,-5.23775053,-10.77562428,60.20545578,-8.852320671
7.316373999999996,-6.363092422,17.31982231,-159.259903,-2.327836037,-3.391213417,5.136435509,-11.96585655,69.00263977,4.124089241
7.324706999999762,-6.537765503,17.85047722,-159.4029236,0.115298823,2.216993332,12.16340351,-16.56595802,64.64740753,-9.532592773
7.333039999999983,-6.775718212,18.36295128,-159.4501648,-1.155804873,-1.284779549,4.286201954,-27.58665085,61.24500275,1.347109199
7.341372999999749,-7.051459789,18.85629463,-159.5868988,-1.134520411,-2.082658052,-1.043211818,-28.64473152,60.176754,-8.739598274
7.349705999999969,-7.281713486,19.31959915,-159.6302643,-0.120803274,-1.742655993,-5.835783482,-26.72020912,55.31302643,1.625100613
7.358038999999735,-7.480449677,19.73363304,-159.724762,-0.5682019,-1.485108376,2.483964682,-20.84874535,50.17959213,-4.646471977
7.366371999999956,-7.64465189,20.09043694,-159.7446899,2.546964645,0.154666334,1.59041369,-19.68358994,42.27614212,2.977558136
7.374704999999722,-7.83933115,20.43132591,-159.7880249,-1.34773612,2.342463017,5.453915119,-22.34993553,40.72624588,0.245154306
7.383037999999942,-8.026378632,20.68964005,-159.8138123,2.151944399,-1.434813976,0.627503812,-22.15261269,30.63765717,0.98051399
7.391370999999708,-8.196487427,20.95399666,-159.8356171,-2.998075962,0.753711998,0.443170249,-20.27288437,31.28588295,1.624021411
7.399703999999929,-8.317668915,21.10417175,-159.8668823,2.227207661,-1.627442598,-3.219223976,-13.98938656,17.87277603,-1.308183551
7.408036999999695,-8.402244568,21.27606392,-159.8704376,-3.941359758,0.622533441,3.568162203,-10.78289223,20.0009346,2.17511034
7.416369999999915,-8.48042202,21.3137455,-159.9030457,3.853148937,-0.65136379,0.466331929,-8.752193451,4.54488802,-3.372460127
7.424702999999681,-8.508781433,21.39097404,-159.8812103,-4.588075638,1.491950512,4.166823387,-5.146861553,8.338817596,3.355439663
7.433035999999902,-8.550053596,21.31668663,-159.9057617,5.486060619,-0.408534169,1.554162502,-4.672203541,-8.871836662,-4.467699051
7.441368999999668,-8.516054153,21.29252052,-159.8649445,-6.778554916,0.330892622,2.923498869,1.51239264,-4.010920048,3.651053429
7.449701999999888,-8.466175079,21.12057495,-159.8727875,6.746097088,1.053290248,-1.961425304,5.53531599,-20.74020195,-4.343574524
7.458034999999654,-8.343417168,21.01468277,-159.8216095,-8.61045742,-0.831784368,1.619741678,11.73618889,-13.87458134,3.384921789
7.466367999999875,-8.206571579,20.80272484,-159.7975769,7.790531635,1.760468006,-1.768011332,14.60155964,-26.02227402,-1.425292253
7.474700999999641,-8.029639244,20.64627266,-159.7423401,-10.03658295,-2.738697529,-0.720138252,18.10018158,-19.92664719,3.05565238
7.483033999999861,-7.819285393,20.4058342,-159.704422,8.417384148,1.602878809,-0.019142708,22.85876083,-29.62949371,-0.186433464
7.491366999999627,-7.611162663,20.19020462,-159.6767273,-10.04753399,-3.262129068,3.552449703,23.03500938,-26.52658081,-0.813803554
7.499699999999848,-7.349725246,19.92900276,-159.6319427,6.639869213,2.26322031,5.400342941,28.74055481,-32.19903183,0.495200843
7.508032999999614,-7.134130955,19.70160484,-159.6454315,-10.74953747,-2.149268627,6.812081337,25.63337517,-27.34326744,-5.380494595
7.5163659999998345,-6.876505852,19.51118279,-159.5937653,3.450588703,1.51199007,4.056443214,28.04564667,-23.85703659,2.580227375
7.5246989999996,-6.674249172,19.31563377,-159.650589,-5.089555264,-0.846250951,-2.317901611,25.75096703,-23.01004791,-9.583999634
7.533031999999821,-6.415282726,19.10744476,-159.5638275,2.957064152,-0.860337198,0.059342247,26.86101723,-26.40389061,6.489323139
7.541364999999587,-6.19934988,18.95061684,-159.6468506,-5.36171627,-1.587343454,2.722251654,28.37332916,-18.13706398,-11.86090279
7.5496979999998075,-5.978913784,18.79127693,-159.5480347,0.024916068,-1.254152894,1.710689068,21.8289032,-20.66726112,8.701471329
7.558030999999573,-5.776546001,18.70237923,-159.6434937,-3.83006978,-1.401860595,4.479608536,27.17975044,-9.967646599,-12.31463051
7.566363999999794,-5.539344311,18.59194565,-159.5614014,-1.984686971,-0.864798427,2.678449154,24.5260849,-14.57211494,7.553258896
7.57469699999956,-5.350227833,18.52077103,-159.624939,-1.460052609,-2.299573898,-2.0862782,24.33166695,-8.282226563,-8.434400558
7.583029999999781,-5.104982853,18.39887428,-159.5629883,-1.995926499,-1.827605128,1.531113505,26.29052162,-15.67578125,5.258760452
7.591363000000001,-4.930990219,18.34285164,-159.6148224,-1.132571816,-0.247764885,8.521258354,22.05209923,-6.646986485,-6.897109509
7.599695999999767,-4.798089027,18.29150581,-159.574295,-3.049750328,-0.778584778,7.640728951,13.63184738,-6.997361183,3.649363279
7.608028999999988,-4.707184792,18.31701088,-159.6342773,-0.949094772,-0.591196001,2.573862314,12.38066769,3.151140213,-6.986885071
7.616361999999754,-4.619725704,18.30183983,-159.6080475,-4.393051624,-3.135202169,0.066146657,8.71939373,-2.523988724,2.400182247
7.624694999999974,-4.580219746,18.36831474,-159.662674,0.815947831,0.138671666,1.254677415,6.013839245,7.983241081,-5.990850449
7.63302799999974,-4.519485474,18.3175602,-159.6552429,-3.907953262,-5.316270828,0.602661133,6.220161438,-6.604310989,-0.070605651
7.641360999999961,-4.478160858,18.4500351,-159.6880341,-1.773784876,1.425755858,4.260653019,5.411007881,15.67573357,-2.905051708
