time,Euler_X,Euler_Y,Euler_Z,Acc_X,Acc_Y,Acc_Z,Gyr_X,Gyr_Y,Gyr_Z
0,-6.806833148,-1.013158788,-76.9463539,-0.700797707,-2.155737787,11.59867275,-3.68727231,-14.90482426,1.344247877
0.008333,-6.81999898,-1.134566348,-76.93736648,-1.438373893,-0.174427703,9.329875708,-2.324091852,-15.03073025,-1.059968502
0.016666,-6.807253957,-1.166277543,-76.92700195,-3.515009046,-0.541334152,11.78638053,0.866372615,-4.400349438,0.359972775
0.024999,-6.806010485,-1.236581352,-76.90730665,0.731504902,-0.97117535,6.94485897,-0.577034369,-9.093614697,0.979690373
0.033332,-6.816582441,-1.333307661,-76.90406035,-2.670887292,-1.211745449,7.716160776,-1.967163902,-12.04450727,-1.433878795
0.041665,-6.803207159,-1.330637887,-76.88936615,-2.704692483,-0.078060492,10.20964277,0.905709788,-0.33215265,1.394474317
0.049998,-6.791691661,-1.354985014,-76.8848381,-1.081757303,-1.76551792,9.534721613,0.675597757,-3.44138138,-0.223593116
0.058331,-6.792544127,-1.443030886,-76.8737297,-0.811537083,-1.32403212,12.82075667,-0.814977884,-11.09222639,-0.318109512
0.066664,-6.754584432,-1.432547525,-76.8807373,-2.820023179,-0.162427005,8.828412847,3.819745302,0.871418696,-1.11711698
0.074997,-6.713722944,-1.452403449,-76.87466813,-0.374507681,-0.021805249,8.367182851,4.170362532,-2.894395877,0.061256588
0.08333,-6.703117967,-1.504960872,-76.8685379,-0.779287607,-1.589155793,9.514467716,0.575087559,-6.831982494,-0.414207608
0.091663,-6.66519928,-1.510696076,-76.86741638,-2.605722144,-0.633928299,7.417158783,3.797057657,-1.137854755,-0.358612061
0.099996,-6.621378183,-1.48751647,-76.8697815,-2.313588262,-1.072799224,10.4777329,4.55858469,2.307423278,-0.374499262
0.108329,-6.601259947,-1.533125661,-76.84684755,1.047257574,-2.027883917,11.33856678,1.716320362,-6.194706917,1.719848603
0.116662,-6.564035058,-1.555292949,-76.86094285,-4.034241736,-0.47241515,12.13761353,3.720704973,-2.931910754,-2.438389011
0.124995,-6.511604667,-1.509520203,-76.84495925,-0.025211027,-0.533122335,8.105279982,5.591075659,4.79247834,2.159222521
0.133328,-6.483112216,-1.56046094,-76.85952375,-1.26470153,-1.335582687,6.811919211,2.637494944,-6.36157751,-2.850518704
0.141661,-6.471368551,-1.581405438,-76.8355713,-0.600300085,-1.195113652,9.373524547,0.768795312,-3.270377703,2.177290134
0.149994,-6.43116343,-1.548721574,-76.86099243,-3.563533038,-0.42593896,8.66208589,3.98580589,3.757925511,-3.012852475
0.158327,-6.408688903,-1.585357361,-76.8439407,0.005101607,-2.392221358,11.72692013,2.057027966,-5.05196929,1.161666229
0.16666,-6.396227956,-1.614196822,-76.8547554,-1.520953864,-1.054369211,11.62276387,0.68617335,-3.776959777,-2.112620386
0.174993,-6.359502196,-1.582586579,-76.8632622,-3.02760312,0.0520669,10.44128144,3.678794002,3.430309892,-0.997716337
0.183326,-6.33537972,-1.569884464,-76.86241533,0.566709855,-1.3202869,7.207835139,2.138695948,1.013301829,-0.126886472
0.191659,-6.333038807,-1.614612766,-76.8663597,-1.814471867,-1.804130346,7.904357792,-0.44802168,-5.734112025,-1.467609212
0.199992,-6.330794573,-1.573128589,-76.86795808,-1.91154936,-0.372558519,12.39712978,-0.480199673,4.478377044,-0.073039003
0.208325,-6.302146077,-1.55468873,-76.87103653,-1.271575879,-1.136142306,7.326503873,2.697915327,1.78900386,-0.505208783
0.216658,-6.285301209,-1.602175102,-76.86265563,-0.726291485,-1.422524855,9.916631579,1.322856888,-6.271421731,-0.065114513
0.224991,-6.274474025,-1.557831742,-76.86515425,-2.487682641,-0.759421021,13.28999019,0.557276219,4.87069428,-0.101173045
0.233324,-6.248584151,-1.526746608,-76.8724861,-1.202342853,-0.416265696,9.574474873,2.333636507,3.309730507,-0.900378771
0.241657,-6.23171103,-1.539262779,-76.86650468,-0.786450818,-1.503007054,4.776240051,1.339781329,-2.029451117,0.174016774
0.24999,-6.223983407,-1.514897108,-76.87363815,-1.785938941,-1.353740246,8.585082532,0.146081001,2.505270422,-0.98391311
0.258323,-6.227871537,-1.462156899,-76.88718795,-2.418154866,-0.912773229,15.88886547,-1.216730714,6.010944068,-1.310024075
0.266656,-6.210732937,-1.463475295,-76.88610838,1.201155588,-1.276491843,5.763165475,1.29083908,-0.666399021,-0.325915545
0.274989,-6.17957747,-1.45922073,-76.9006386,-4.071523726,-0.205435477,9.706485092,3.005753845,0.236931831,-2.087954089
0.283322,-6.169647455,-1.362423897,-76.89912795,-0.016790069,-1.546383262,13.35029417,0.426720232,11.06043875,0.980916247
0.291655,-6.162424088,-1.370785423,-76.92432023,-1.97565775,-1.018672139,7.811654267,0.067221523,-1.159169138,-3.458280325
0.299988,-6.153349876,-1.32426136,-76.91139983,-0.937494442,-0.782407686,5.650028587,0.403065771,4.875647486,1.701457635
0.308321,-6.135641575,-1.231612811,-76.93583295,-2.966823414,-1.127623879,11.05768478,1.314320829,10.91578925,-2.124985978
0.316654,-6.144200683,-1.223206803,-76.92354965,0.592272563,-1.738493025,13.48225761,-1.714222908,0.332703412,1.164038956
0.324987,-6.127301455,-1.200154873,-76.92871093,-1.770569392,-0.679667365,8.110598208,1.262189522,2.365538672,-0.717954069
0.33332,-6.094668388,-1.11392707,-76.92438508,-2.483746454,-0.26425219,9.784690977,3.22236383,9.719517469,1.175908119
0.341653,-6.104273915,-1.086091122,-76.91918948,0.943080481,-1.521491885,10.05034077,-1.905564709,2.803084225,0.611174822
0.349986,-6.107996941,-1.063651264,-76.9271431,-2.922429085,-1.176650882,7.66164232,-1.181696877,2.267167151,-1.124247104
0.358319,-6.098109722,-0.952741731,-76.92604065,-1.826197609,-0.7216805,8.712125956,0.454703719,12.76328063,1.158865012
0.366652,-6.114379644,-0.924097139,-76.92514803,0.09458137,-2.206364066,9.596901298,-2.681951314,2.890720316,0.055931911
0.374985,-6.134469509,-0.919002913,-76.9244156,-1.851860099,-0.815011394,13.93653393,-3.141947813,0.142616995,-0.256129585
0.383318,-6.12023592,-0.798682243,-76.9360771,-2.058289834,-0.854239285,8.605036125,0.951741949,13.99111271,-0.276691422
0.391651,-6.131291389,-0.808361441,-76.93114473,0.671547435,-0.58413665,8.345455647,-2.058020473,-1.675010845,0.078299463
0.399984,-6.174424887,-0.77128043,-76.9264183,-2.086606808,-1.368363701,10.34024239,-5.894184947,3.845980555,0.599664599
0.408317,-6.191275239,-0.686522156,-76.93439485,-2.112880916,-0.542708476,7.00519821,-2.779032528,9.76040113,-0.261950493
0.41665,-6.222639561,-0.678463228,-76.93127823,-0.712297635,-2.154164195,8.199621558,-4.468579635,0.395355582,0.063484729
0.424983,-6.258458615,-0.662507936,-76.92694093,-0.560213194,-1.114154138,12.22720504,-5.043206334,1.391019613,0.318615437
0.433316,-6.28317976,-0.612121537,-76.9431572,-3.319722265,-0.435882032,14.92213607,-3.708368063,5.703355074,-1.715561509
0.441649,-6.298874021,-0.565511797,-76.936985,1.210775927,-0.760918334,4.293077067,-2.626307905,5.020927987,0.980487283
0.449982,-6.332491517,-0.603811302,-76.94132995,-2.223920599,-0.947855228,7.590867757,-4.759528637,-5.032810331,-1.478761055
0.458315,-6.374162197,-0.502439335,-76.93443298,-1.752161093,-1.153761216,11.88875556,-5.723533392,11.53704417,1.781623885
0.466648,-6.39556098,-0.51168697,-76.9368515,-0.597508659,-1.005530108,9.998368679,-3.319905699,-1.589661181,-0.855646804
0.474981,-6.408415794,-0.515084397,-76.92609408,-1.879201174,-1.27479706,8.4608832,-2.232069224,-1.014054656,0.853645534
0.483314,-6.41291976,-0.443265198,-76.92802048,-1.587559722,-0.408175089,11.97887826,-1.297274798,8.069714546,0.272381768
0.491647,-6.449163914,-0.436146132,-76.92486193,0.218536586,-0.89616257,10.1139636,-5.068278894,0.342219323,0.107211603
0.49998,-6.459947467,-0.444717704,-76.92636108,-1.603394821,-1.174169377,3.383906066,-2.043583892,-1.524655313,-0.753676519
0.508313,-6.454601288,-0.430573567,-76.92724993,-1.377019092,-0.588480765,10.02163911,-0.073237717,1.237039864,-0.320424527
0.516646,-6.462789893,-0.392302877,-76.93349455,-1.849695951,-1.858777791,15.38603044,-1.736610145,4.120969371,-0.655458745
0.524979,-6.480215073,-0.447075627,-76.92808913,0.52971495,-0.691900652,12.45067471,-2.806939795,-7.067477941,-0.48574521
0.533312,-6.463810563,-0.401007505,-76.9521103,-3.560313016,0.030534856,3.191925466,1.197881609,5.293860781,-2.690762669
0.541645,-6.45933795,-0.377374098,-76.95718765,-0.978270464,-1.409687549,8.743982077,-0.170369886,2.418476954,-0.679552198
0.549978,-6.470602751,-0.384948513,-76.965374,0.604430869,-1.307564482,11.89645934,-2.129820839,-1.317548424,-1.509129629
0.558311,-6.4519521,-0.412267236,-76.97950363,-2.889529437,-0.703555741,12.16599929,1.530748625,-3.533208549,-2.466923133
0.566644,-6.416177631,-0.339308442,-76.98779295,-1.006381885,-0.422976846,8.654567333,3.521518722,8.281777949,-0.415101171
0.574977,-6.415253878,-0.376041295,-76.99957655,-0.802101761,-1.586919978,8.402022361,-0.607188314,-4.689951078,-2.294068664
0.58331,-6.438791752,-0.365865287,-76.99217988,-1.358388096,-0.842449963,9.033120991,-3.566616118,0.583370656,0.573108941
0.591643,-6.413111449,-0.302484512,-77.0140381,-3.056702614,-0.677604541,8.768153907,2.340279937,7.388593554,-2.168219716
0.599976,-6.393664956,-0.299719298,-77.00585938,0.255857207,-1.70133625,11.92788911,1.609403297,-0.319633246,0.611411765
0.608309,-6.385798931,-0.301438559,-77.0157318,-1.202296466,-1.303388327,10.38790274,0.201241523,-0.536740035,-1.611951828
0.616642,-6.38375032,-0.258693224,-77.02062228,-1.690273239,-0.330753717,9.892828347,-0.495548964,4.62830326,-0.451729437
0.624975,-6.39072156,-0.227903027,-77.03118515,-0.997920871,-1.715117574,3.824328393,-1.56572774,3.345362902,-1.226800196
0.633308,-6.39706409,-0.263310459,-77.03169633,-0.782846443,-0.283791853,10.19803071,-1.501208365,-4.752792315,-0.99155914
0.641641,-6.378334761,-0.151183885,-77.06064988,-4.028252274,-1.740474224,10.95658994,1.515517667,13.29005766,-2.338016421
0.649974,-6.376772881,-0.179460503,-77.075119,2.31901817,-0.959427745,6.132310391,-0.568690538,-3.72187987,-2.504175797
0.658307,-6.360513926,-0.112516895,-77.11945725,-5.096880585,-0.478848338,10.610488,1.228382303,8.106634618,-4.816988111
0.66664,-6.390029073,-0.057456538,-77.14629365,2.270414591,-1.558535546,3.769812404,-4.298360467,6.377532064,-2.841688335
0.674973,-6.413640738,-0.002971824,-77.20946885,-5.675179787,-1.213033199,9.042732389,-3.56128934,6.878832489,-7.23891139
0.683306,-6.454425931,0.111841917,-77.23674393,3.281595111,-1.337927062,2.496803106,-5.636862458,13.51198924,-2.112759777
0.691639,-6.498922706,0.168310247,-77.28907393,-5.676559508,-1.57716021,11.52634454,-6.052177668,6.977473483,-5.906452
0.699972,-6.560866356,0.34450629,-77.3088646,2.153940201,-0.535985913,6.020082535,-8.152873755,20.72726441,-0.370507941
0.708305,-6.652381897,0.382783831,-77.33348085,-3.026649922,-1.196191739,3.162858605,-11.70851368,4.440469741,-2.806049846
0.716638,-6.752053023,0.614452448,-77.346241,-0.326778382,-1.916478589,1.876615166,-12.67048514,27.2380929,1.285611391
0.724971,-6.875402093,0.704744637,-77.34246828,-1.93826215,-1.359345645,11.74218714,-15.53827095,10.239048,1.328476487
0.733304,-6.997122407,0.927829585,-77.34957123,-1.394030064,-0.625425305,8.064224363,-15.32890677,26.12793636,1.971081347
0.741637,-7.12133646,1.055701012,-77.33641815,0.681603879,-0.118097354,2.161889792,-15.67423367,14.56764782,3.058449715
0.74997,-7.272418499,1.256591425,-77.33650588,-1.360028729,-1.016318321,2.729564607,-18.86674357,23.37207365,2.568744928
0.758303,-7.420043349,1.413720839,-77.31818773,-0.203562055,-1.578773618,8.761110307,-18.48137999,17.94903278,4.186694145
0.766636,-7.553133488,1.578666985,-77.30810548,-1.390167475,0.138371311,6.930301606,-16.74198604,18.92110515,3.3358078
0.774969,-7.680963755,1.715886354,-77.29976655,0.124857336,-0.55149594,4.331478596,-16.08950973,15.71743131,2.791443885
0.783302,-7.815599203,1.828793109,-77.2948761,0.711239152,0.346382782,5.982347131,-16.93390393,12.80536127,1.957433675
0.791635,-7.910490632,1.908754841,-77.30381395,-0.579617977,-0.505926527,4.12102747,-12.0481894,9.178075792,-0.149324678
0.799968,-7.985161543,1.931575328,-77.29466628,1.797740817,0.059785395,7.13792336,-9.760459185,2.019189775,1.021169305
0.808301,-8.048271895,1.925785184,-77.31341938,-2.19188222,-0.160787523,7.743590892,-8.192367316,-0.850578785,-2.704540297
0.816634,-8.084838748,1.875285298,-77.284729,3.551295996,-0.169424563,5.098096013,-5.263616979,-7.022899092,2.099429295
0.824967,-8.074478507,1.784221053,-77.31522753,-3.784242869,0.071624827,9.492823363,0.641787008,-10.77382576,-5.545991659
0.8333,-8.041210294,1.647364155,-77.27033233,4.238327772,0.219539117,9.78194785,3.119955331,-17.54986191,2.491817668
0.841633,-7.974738359,1.460661754,-77.2892685,-3.402795117,0.072617228,7.401713252,7.275657295,-22.33338499,-5.756565392
0.849966,-7.901001692,1.269601501,-77.2484741,2.388578728,-0.248772442,4.574614972,8.041013479,-23.91999102,1.149231851
0.858299,-7.799517036,1.020080461,-77.25279235,-1.463212151,0.137480468,5.591550231,11.41137672,-30.05385208,-4.994162738
0.866632,-7.673525453,0.748369493,-77.20801163,-0.052155257,-0.557997108,11.42043758,14.37815213,-33.56875134,0.382832766
0.874965,-7.501947999,0.483315811,-77.2087555,-0.951004043,-0.144837253,6.59245956,19.78405094,-31.98026085,-4.659205706
0.883298,-7.327966333,0.140117414,-77.16743085,-1.275846437,-0.809283383,9.247009754,20.20198822,-42.02768517,-0.864302635
0.891631,-7.159530997,-0.089423224,-77.15774153,-0.151636656,-0.775274504,10.09239376,19.39333916,-27.93471003,-2.699934781
0.899964,-6.969376683,-0.500921525,-77.12417985,-1.521068439,-0.230715316,9.41213578,22.20135164,-50.03997421,-2.607379675
0.908297,-6.764192224,-0.654303806,-77.09851458,-2.21941264,-0.300048497,5.032517179,23.84955788,-19.10646582,0.450492501
0.91663,-6.598602653,-1.039002106,-77.08426668,0.460906849,-1.603674442,9.147358657,19.20254731,-46.5899725,-4.159237683
0.924963,-6.397130609,-1.201233477,-77.04678728,-3.844868422,-0.039879717,13.59925175,23.52401066,-20.31973112,1.808536843
0.933296,-6.220178604,-1.484363795,-77.03683853,1.005999163,-1.909209907,2.388109915,20.52615404,-34.45173502,-2.91405651
0.941629,-6.041855335,-1.686015189,-76.99895478,-4.281469762,-0.922019441,10.79138666,20.80943394,-25.01504424,1.449466169
0.949962,-5.880629421,-1.793038011,-77.01374435,-0.081185371,-1.570046932,8.521946341,18.53543139,-13.14224777,-3.466517478
0.958295,-5.715489626,-2.064812422,-76.97979738,-1.995006844,-0.785710074,9.597231237,19.2586906,-33.33033276,0.306163341
0.966628,-5.556622863,-2.048137367,-77.0042572,-2.988437593,-0.545127034,6.29244399,18.16677165,1.731302321,-3.147017449
0.974961,-5.447287679,-2.266868442,-76.97922135,0.134200469,-2.220089227,13.10007963,12.56946921,-26.89334536,0.083781838
0.983294,-5.3023839,-2.221366286,-76.9866295,-4.049484909,-0.572679416,9.773822426,16.54738522,4.973153413,-0.83974272
0.991627,-5.203296542,-2.275968105,-76.9818039,-0.443268888,-2.174211037,3.319818824,11.24045152,-7.060442685,-0.355577469
0.99996,-5.117037773,-2.332342416,-76.95293808,-1.027708929,-0.52943311,15.69958568,9.702567578,-7.600206376,2.344702721
1.008293,-5.043111324,-2.210991532,-76.95925905,-3.544735223,-2.167819917,7.516437338,8.160051941,14.08782125,0.204472303
1.016626,-5.005942345,-2.332954794,-76.91052245,3.128222943,-0.89885601,6.245948435,3.901520432,-15.6453464,4.092903059
1.024959,-4.969406843,-2.144068495,-76.93584058,-8.686314225,-1.798893601,11.99681723,3.594745606,22.36004853,-1.453866959
1.033292,-4.970726371,-2.187979192,-76.88536453,6.790379823,-1.42682197,7.432145476,-0.719746977,-6.335181711,5.188013823
1.041625,-4.95931983,-2.051899254,-76.93406678,-10.18825805,-1.213300727,10.23572159,0.45931083,16.29618025,-4.844877899
1.049958,-5.011247754,-1.942631975,-76.90264513,7.22067541,-2.226914779,9.253585339,-6.850534737,12.16287243,4.527144551
1.058291,-5.049996019,-1.953462869,-76.95151903,-7.200012186,-0.268254621,10.98534632,-5.587326855,-1.24997592,-6.382985115
1.066624,-5.095063687,-1.71495685,-76.93492893,2.688943207,-1.180382028,4.936453388,-6.06887442,27.75656939,4.099782169
1.074957,-5.170332909,-1.783166006,-76.98019408,-3.739114344,-0.83365736,13.57380044,-9.961903333,-8.132771491,-6.5352145
1.08329,-5.221446276,-1.483577162,-76.9615822,-0.381716512,-1.271762848,8.682881369,-6.756248297,35.01641321,5.049426138
1.091623,-5.312266231,-1.526369259,-76.99907685,0.767120108,-1.23620202,6.188036919,-11.82428443,-5.159430504,-5.311923831
1.099956,-5.391955853,-1.368590649,-76.97095873,-2.791447729,-0.34025142,12.41417456,-10.11265302,17.94268461,4.671636657
1.108289,-5.479123712,-1.256467857,-76.99699023,0.567339778,-1.308564097,4.797681152,-11.37973702,13.23656559,-2.183575512
1.116622,-5.560475588,-1.24239821,-76.9734459,-1.431586385,-1.007294297,10.95193541,-10.30788255,0.812129616,2.528285859
1.124955,-5.63083756,-1.026277814,-76.99699785,-1.77002269,-0.452681959,9.880972503,-9.35813594,25.62800097,-0.647921084
1.133288,-5.722094774,-1.088533869,-76.98614883,1.44193615,-1.474994093,9.771302223,-11.53702974,-8.158856749,0.138397217
1.141621,-5.767309785,-0.943736032,-76.98994065,-2.900218427,0.282063547,10.35258621,-6.289045715,16.88039708,0.871345757
1.149954,-5.844789863,-0.880353827,-77.01265335,-0.134453744,-1.661825761,6.182719802,-9.97727245,7.247931959,-2.315861224
1.158287,-5.913590551,-0.851001613,-76.98804858,-0.445152789,0.283725903,13.3102231,-9.024537683,2.740630864,2.857827068
1.16662,-5.951698542,-0.68711967,-77.0320091,-2.339508981,-1.029934399,6.220074206,-5.313183159,19.51654923,-3.596752882
1.174953,-6.013671875,-0.745223418,-76.99098968,2.347693145,-1.367710173,7.077000827,-8.162976385,-7.915664643,3.767976865
1.183286,-6.050227165,-0.615297236,-77.02632903,-4.789030105,0.026046023,13.9468149,-5.114959598,15.36978865,-3.031343654
1.191619,-6.063772202,-0.583153326,-76.99193573,2.110654071,-0.955997702,8.505888753,-2.356000751,2.9244771,4.153944373
1.199952,-6.069103241,-0.580401227,-77.01836395,-2.280557171,-0.804159127,8.348794937,-1.385855243,0.095535666,-3.666169018
1.208285,-6.082129478,-0.467799555,-77.0121498,-1.404785737,-0.256372563,14.5685662,-2.299902916,12.87870228,1.797053382
1.216618,-6.09949255,-0.454892982,-77.02666855,1.014829681,-1.008610022,6.016568543,-2.830308974,1.14367266,-1.975968689
1.224951,-6.091469169,-0.461229246,-77.01690675,-1.492119759,0.448828636,4.669000242,0.240533739,-1.3565396,0.656723391
1.233284,-6.07920444,-0.33485318,-77.04712298,-3.252649773,-1.560111106,10.40164515,0.71199894,14.88375533,-2.398811862
1.241617,-6.073998928,-0.365507725,-77.03340528,1.806308955,-1.21016948,13.60275519,-0.095592246,-4.312095702,0.845810846
1.24995,-6.026583433,-0.299549887,-77.06482695,-3.910673261,-0.178016722,10.92108595,4.928205431,7.689253568,-3.336337686
1.258283,-5.970780015,-0.203394234,-77.05707548,1.131671719,-0.839342244,8.156614005,5.970256686,10.89734828,1.75149855
1.266616,-5.964461208,-0.258860685,-77.0671501,-0.361384526,-0.735975366,12.59821653,0.009620979,-7.077646016,-2.296988704
1.274949,-5.922465324,-0.116309539,-77.0589409,-2.709741965,-0.673298384,6.30826053,4.335277736,16.42841506,2.341807961
1.283282,-5.88593936,-0.100598112,-77.07051468,0.651431322,-1.228149332,4.984432817,3.598791093,1.440236848,-1.556712032
1.291615,-5.877915025,-0.069120385,-77.05461885,-2.76099357,-1.728160307,13.31392527,0.291445166,3.073557735,1.886539519
1.299948,-5.824762464,0.053671621,-77.0529823,-0.600055166,-0.099145602,13.37587369,5.587874412,14.06269955,1.260714173
1.308281,-5.78104055,0.042069391,-77.04343795,0.410252148,-2.170014411,7.212568878,4.569522292,-1.990065755,0.636628985
1.316614,-5.752584458,0.082924396,-77.02974318,-0.657528222,-0.142208435,10.13884079,2.621066593,4.135758399,1.68734473
1.324947,-5.757587195,0.170032628,-77.0462494,-2.275425471,-0.885006413,12.20157099,-1.278768346,10.10854823,-1.286206275
1.33328,-5.753425956,0.161221214,-77.02010725,1.428552717,-1.532457423,2.805064679,-0.288576208,-1.9490643,2.626726985
1.341613,-5.733079195,0.216675632,-77.04709625,-4.591468036,-0.75772053,8.661737586,1.758311629,6.461932005,-2.981792092
1.349946,-5.741470814,0.312038038,-77.0358963,1.057588436,-2.029509246,15.08283687,-1.774192229,10.66241729,2.127172977
1.358279,-5.752403855,0.243722439,-77.04652025,-0.567990288,-0.749716379,14.76669466,-2.016827226,-8.511932732,-2.502033994
1.366612,-5.725674153,0.378476839,-77.04977798,-2.365675628,-0.400199047,6.677200198,2.459713027,15.54214335,0.832591027
1.374945,-5.741164565,0.355854504,-77.058815,1.194399521,-0.990911826,6.976826052,-2.584069848,-3.073980227,-1.734740112
1.383278,-5.787446022,0.36357183,-77.05263138,-1.868780345,-1.103831515,10.84231675,-6.298869967,0.258732677,0.429064035
1.391611,-5.800703764,0.471177889,-77.06866455,-2.898595393,-0.802517217,8.447803498,-2.29368782,12.55692649,-1.017362327
1.399944,-5.829069495,0.420072403,-77.05215075,3.054624535,-1.887861423,6.969255209,-4.167772882,-6.892698882,0.979498085
1.408277,-5.840628624,0.45738674,-77.07167818,-4.702169418,-0.87328586,13.84559572,-2.089929685,4.210359602,-2.300200135
1.41661,-5.879230261,0.503276242,-77.05306625,1.862694874,-0.713816781,14.98725104,-5.39131999,4.656425521,2.424061149
1.424943,-5.904492021,0.436108182,-77.0648804,-1.326332227,-0.480572715,3.258840401,-3.763682008,-8.349934698,-2.643693462
1.433276,-5.929633975,0.519825046,-77.04805375,-1.963787496,-0.876674176,6.257792235,-3.746729076,9.188076615,2.632820159
1.441609,-5.992190003,0.525304103,-77.06024553,-0.110794686,-1.7974608,10.54665315,-8.260213494,0.329040423,-1.751069337
1.449942,-6.034130454,0.499302088,-77.03902818,-2.171346873,-0.65164569,12.96531388,-5.741767391,-3.967588185,1.757812172
1.458275,-6.03426981,0.609008759,-77.0484848,-0.732146867,-1.172076326,8.619762121,-0.785201356,12.73503256,-0.131807804
1.466608,-6.054964185,0.564170847,-77.03881838,0.016944569,-1.052843727,10.36709398,-3.199247122,-6.070856349,0.207366467
1.474941,-6.097203016,0.591550721,-77.02875903,-1.58077269,0.31949638,14.80881572,-5.834904164,2.660115261,1.141991168
1.483274,-6.107460618,0.691447865,-77.04149245,-1.57084322,-1.091902658,3.947147787,-1.940377951,11.48662889,-0.639055997
1.491607,-6.143257022,0.637267847,-77.02490235,1.076187551,-1.428206921,4.835659504,-5.050477803,-7.158702163,0.882080734
1.49994,-6.174989581,0.731528379,-77.0459633,-4.104790151,-1.052623198,11.24234355,-4.516968206,10.9261663,-1.716259614
1.508273,-6.19924438,0.771905877,-77.04051973,0.376949087,-1.097393706,15.65232968,-3.638428509,4.259615362,0.785015487
1.516606,-6.195519328,0.768072985,-77.0414505,0.512874476,-1.244768528,5.499854029,-0.304931112,-1.038945362,-0.548484013
1.524939,-6.190393448,0.83204712,-77.05103303,-3.054892644,0.635984758,11.14092958,-0.090853706,7.272161126,-0.729935311
1.533272,-6.229255557,0.882659072,-77.04944993,1.081128493,-1.57822907,10.12303975,-5.4072361,5.421180667,0.464011564
1.541605,-6.245252371,0.857248683,-77.05325318,-1.772715516,-0.446334467,6.485161782,-2.641887665,-3.463240325,-1.221475646
1.549938,-6.22824192,0.955852272,-77.06453323,-2.100985149,-1.414954886,8.28022924,1.332935393,11.31137645,-0.439777404
1.558271,-6.222614527,0.941996765,-77.05686188,1.558374152,-1.372700214,13.84200144,-0.089115202,-2.235248603,0.343916059
1.566604,-6.232451558,0.922822705,-77.05846405,-2.426171199,0.105942831,15.8763628,-1.900691807,-2.863108069,-0.846729755
1.574937,-6.203618646,1.034150272,-77.0517006,-0.691631519,-0.538224027,2.317327559,2.709640443,12.70790374,1.868494749
1.58327,-6.210425496,0.932720946,-77.04764175,1.084827714,-1.427350894,3.628037275,-1.565545171,-12.75119209,-1.20814053
1.591603,-6.206382394,0.994590289,-77.0500679,-4.366402269,-1.441361398,14.27831399,-0.226881087,6.925795437,0.090479143
1.599936,-6.192619086,1.018008539,-77.05400085,1.049027398,-0.748927613,15.77891397,0.912161608,2.248011858,-0.554266393
1.608269,-6.156247258,0.978000887,-77.05571365,-0.76363121,-1.014620673,4.304309965,3.638092831,-5.236226,-1.112586439
1.616602,-6.13984704,1.01336522,-77.0575409,-1.766399086,-0.44277031,9.876325787,1.236963064,3.647253125,-0.19912188
1.624935,-6.154055,1.037206595,-77.0623703,0.341017314,-1.512578133,9.900058123,-2.437562868,2.42248267,-0.632124215
1.633268,-6.152348399,0.944596084,-77.05104828,-1.229253994,-0.850757204,9.466201225,-0.528159171,-11.72843341,-0.373509981
1.641601,-6.114192605,1.017498884,-77.06415178,-1.825672746,-1.409032524,8.261193871,3.85437268,8.316114067,-0.927398734
1.649934,-6.110531688,0.950597495,-77.06748583,0.26795071,-1.194844821,13.66152734,-0.292501718,-8.539662124,-1.650130004
1.658267,-6.146997333,0.942739678,-77.07359695,-1.665894568,-0.897934258,10.30758715,-5.088671684,-1.346300006,-1.218895003
1.6666,-6.140078425,0.966796503,-77.0866089,-1.713448528,-0.354299635,5.655115509,0.111063197,2.441565111,-1.675814629
1.674933,-6.152179241,0.932525681,-77.08558273,1.002973095,-2.487096667,8.297078789,-2.170790762,-4.591352448,-0.683842622
1.683266,-6.153933644,0.861558482,-77.08028793,-1.150132314,-0.002573252,15.11131644,-0.974999324,-9.131933808,-0.703872964
1.691599,-6.147649884,0.914351944,-77.09550475,-2.907545414,-0.781851113,11.6605643,0.063734234,6.006235004,-1.504685916
1.699932,-6.146876335,0.872276884,-77.07854843,0.679583952,-0.731273074,4.554636116,-0.680873573,-5.839031623,1.061895848
1.708265,-6.167598486,0.859053534,-77.08969115,-1.851832896,-1.324916985,6.971507728,-3.199551254,-1.917385429,-1.900694713
1.716598,-6.144293666,0.92037748,-77.0943222,-2.332560092,-0.56397529,13.97442961,2.07808283,6.77185932,-0.166982383
1.724931,-6.129526496,0.887275908,-77.09577943,1.532838714,-1.311848194,12.35433799,1.037046857,-4.417552994,-0.970401764
1.733264,-6.107949257,0.890155327,-77.11045075,-2.850453675,-0.734053627,7.106248737,1.88380602,-0.070606292,-2.144942731
1.741597,-6.112652183,0.94364962,-77.12180328,-0.756319548,-0.940612843,9.1200521,-1.278515563,6.042616963,-1.051534936
1.74993,-6.107779384,0.951183552,-77.13026808,-0.518582799,-1.318108596,8.499105869,-0.149068654,0.405697584,-1.316286847
1.758263,-6.080189348,0.943262,-77.13296888,-1.613168747,-0.715826117,12.78918314,2.604202479,-1.399725139,-0.817865778
1.766596,-6.053139687,1.067314174,-77.13766478,-1.745200507,-0.917996973,11.35611999,2.510633961,14.25912512,0.605082028
1.774929,-6.080628276,1.013678989,-77.14107133,1.546965391,-2.001842067,7.848133058,-4.027720631,-6.842494846,-1.468973267
1.783262,-6.083423257,1.062105814,-77.1498146,-3.13999629,-0.674246979,7.598438502,-1.038106663,5.281818987,-0.844533459
1.791595,-6.073334694,1.104637604,-77.1595993,0.460989824,-0.775441371,12.76375914,0.489257515,4.713250693,-1.005035348
1.799928,-6.074455023,1.083803551,-77.1708107,-0.862409966,-1.615346879,9.792134168,-0.843585491,-2.950334582,-2.002703533
1.808261,-6.090369225,1.107846424,-77.17288588,-1.583611414,-0.198144495,9.333654881,-2.638304338,2.410033792,-0.34783485
1.816594,-6.086622715,1.191225231,-77.18881605,-1.264493257,-0.761568094,6.67074293,-0.249204233,9.546413302,-1.235835586
1.824927,-6.089990258,1.110202102,-77.18504715,0.675635904,-1.610470802,12.78751129,-1.136743799,-10.20467448,-0.974528924
1.83326,-6.06811142,1.20916028,-77.20020295,-3.07197696,-0.533236988,11.71404231,1.929190964,11.39667323,-0.98709267
1.841593,-6.086701751,1.202076744,-77.20772935,1.100505076,-0.968288869,7.589221776,-2.96182245,-1.23513788,-1.361140628
1.849926,-6.1013726,1.184861332,-77.21165848,-1.751294673,-1.636543907,5.117964953,-2.470944613,-2.612299994,-1.105984316
1.858259,-6.086753011,1.248161316,-77.21289825,-1.244887002,0.100164384,13.91833162,1.019148707,7.082371891,0.249780536
1.866592,-6.090571165,1.251375377,-77.22142793,0.067881169,-2.184734643,11.16304791,-1.178610291,-0.115914599,-1.346034445
1.874925,-6.09710145,1.223229989,-77.20832443,-1.295681536,-0.010737321,8.995831608,-1.536181927,-4.013267995,0.777020767
1.883258,-6.096944213,1.339632534,-77.23212435,-2.33693707,-1.149005212,4.909105182,-0.676058918,13.58691424,-1.719663262
1.891591,-6.117398978,1.239615042,-77.2169609,1.686852455,-2.271687304,13.04785406,-3.195187032,-12.62135863,0.131692506
1.899924,-6.128115416,1.310536221,-77.23616028,-2.807348013,-0.249577206,13.84983075,-1.999648944,8.105158031,-1.797917716
1.908257,-6.13858676,1.302491501,-77.24975968,0.278826989,-0.814669214,6.20182389,-1.936081052,-1.276399069,-2.11591512
1.91659,-6.176054716,1.25895498,-77.25195313,-0.397521459,-1.398530418,6.412257552,-5.241492629,-5.773154377,-1.207397446
1.924923,-6.176577211,1.264943399,-77.25997543,-1.867353708,-0.183542654,14.53752208,-0.748089254,0.327077419,-1.30519259
1.933256,-6.174141407,1.290017895,-77.2744408,0.295330524,-1.198014334,8.794347942,-0.4374111,2.57112515,-1.7483989
1.941589,-6.188632608,1.162070504,-77.27171708,-0.67817685,-0.89892263,8.949705629,-2.448445976,-15.79088843,-1.753931761
1.949922,-6.188943982,1.241108436,-77.29033663,-2.227753528,-0.924977057,10.17409512,-0.75456661,9.068404764,-1.609160181
1.958255,-6.187378049,1.133818439,-77.28488925,0.705817416,-0.899130986,14.38007855,-0.531524599,-13.36222816,-1.134403296
1.966588,-6.191684842,1.117667943,-77.28230668,-1.084961715,-1.532789113,4.289727956,-1.26875639,-2.568029169,-0.308827665
1.974921,-6.176046133,1.009752875,-77.2866745,-0.564104647,-0.050915238,12.42713237,1.162649691,-13.30615949,-2.3264101
1.983254,-6.144524932,1.062754441,-77.3042679,-2.905764111,-0.992252065,14.11376882,3.072267711,5.941437363,-1.809633017
1.991587,-6.126414061,0.914689444,-77.2970047,1.81363979,-0.554956503,10.95923299,1.432290199,-18.24947929,-1.401483357
1.99992,-6.07209158,0.907449923,-77.30023575,-2.951461583,-1.160938725,10.76560819,5.79350543,-1.433424354,-0.911540371
2.008253,-6.041857243,0.833058082,-77.29877855,1.35258323,-1.435934767,8.410316853,2.882175088,-9.381229042,-1.133218646
2.016586,-5.992111564,0.714795504,-77.27643965,-2.807676792,-0.026683735,15.71358848,5.213391721,-15.00543636,0.749956176
2.024919,-5.957816005,0.765132725,-77.28398895,-2.262687732,-1.736655682,12.39315724,3.38441211,5.613189745,-0.662768357
2.033252,-5.906784415,0.630367857,-77.26572798,1.826314777,-0.560908295,11.44323352,5.361972868,-16.92130876,0.107557439
2.041585,-5.862455726,0.554691363,-77.26076893,-3.168775082,-1.262935935,12.23620272,4.578862012,-9.582097502,-0.762580604
2.049918,-5.805958152,0.559398387,-77.2612381,-0.973936364,-1.253108695,12.82983613,6.047742009,-0.044082027,-0.405489236
2.058251,-5.776385784,0.455422795,-77.2630272,-0.293814242,-1.564055949,14.66664445,2.823297605,-12.88288975,-1.874469103
2.066584,-5.73798418,0.454964257,-77.2599182,-1.30767291,-1.116262209,11.33739221,3.864057899,-0.701381631,-0.064602287
2.074917,-5.703949451,0.347923033,-77.24949648,0.205012575,-1.130976737,11.56437647,3.339008212,-13.39398384,-0.41884085
2.08325,-5.670022607,0.3451554,-77.2471695,-4.372669041,-0.966894001,12.42829597,3.34533465,-0.968218386,-0.220135212
2.091583,-5.618509293,0.389197366,-77.24718475,-1.006145209,-1.516158074,13.50927615,5.442023307,4.768605776,0.139581531
2.099916,-5.584630251,0.331052106,-77.25469205,-0.724151581,-0.881729463,17.17405725,3.344927889,-7.473347247,-1.994615853
2.108249,-5.542803884,0.387859836,-77.2614708,-1.441336177,-1.115814187,12.44647193,4.280769289,6.373535753,-0.543812681
2.116582,-5.489919901,0.341566823,-77.26905823,-0.049911872,-0.51261364,12.67878223,5.606847465,-6.055654346,-1.840280414
2.124915,-5.455343485,0.366864618,-77.2736168,-3.337999881,-1.418397382,14.02750087,3.424687743,2.584610819,-0.683595941
2.133248,-5.414726257,0.457480047,-77.27814103,-2.026124746,-1.501984403,11.92689228,4.135194361,10.25964808,0.095675554
2.141581,-5.380185127,0.436801966,-77.26969525,0.222605146,-1.067361482,13.44715953,3.413385034,-3.058502793,0.368774552
2.149914,-5.368259191,0.523736898,-77.27783583,-2.872218162,-1.89132449,14.41906929,0.698906794,9.861577629,-0.429246586
2.158247,-5.343176008,0.573671023,-77.2755623,0.25344022,-1.518001407,15.54834151,2.288215697,5.445138574,0.446990848
2.16658,-5.317352176,0.571556,-77.2845268,-0.773533162,-1.099693666,14.35770393,2.350788016,-0.767319217,-1.52814208
2.174913,-5.303648472,0.629146103,-77.29212188,-1.213191142,-1.655169442,14.33265376,0.937176958,6.471184135,-0.670840174
2.183246,-5.295060277,0.689364232,-77.30065155,-1.686489567,-1.608553238,14.88262177,0.2840873,6.67658782,-0.776050568
2.191579,-5.282122254,0.70950418,-77.2990875,-0.300377771,-0.356073419,13.1474216,0.832814889,1.89408958,0.011020564
2.199912,-5.266583085,0.739131875,-77.29919435,-1.576520548,-1.067511007,12.74054623,1.116892636,2.92405045,-0.112379242
2.208245,-5.247411966,0.782335386,-77.30046463,-1.590214461,-1.930274696,14.18734193,1.581992654,4.683402926,-0.085208958
2.216578,-5.217529535,0.840864558,-77.29612733,-1.981707737,-0.661466431,15.92753553,2.838227004,6.32545811,0.745188579
2.224911,-5.177170038,0.877011951,-77.29502485,-0.861347627,-0.997579455,17.0049305,4.099244714,3.815944851,0.134935797
2.233244,-5.13924408,0.911247674,-77.29997253,-1.788957283,-1.371974939,16.74036789,3.82588622,3.523446262,-0.661939109
2.241577,-5.099573851,0.948281966,-77.2888336,-0.382770937,-0.866071284,13.15955019,4.00293842,3.814789116,1.325892121
2.24991,-5.064912915,0.984357866,-77.3094597,-3.011219323,-1.210602351,13.55195832,3.468622267,3.905274749,-2.487801865
2.258243,-5.041640997,1.023647763,-77.3038063,0.599590285,-1.937272373,16.1406157,2.039395809,4.144562602,0.692154219
2.266576,-5.0134058,1.035042912,-77.3135414,-1.770189404,-2.111102313,17.71825171,2.673668444,0.841206752,-1.464000853
2.274909,-4.984319449,1.042125868,-77.3055954,0.163302072,-0.623689577,14.9866147,2.750552792,0.268139512,0.623581782
2.283242,-4.977510929,1.067541131,-77.32178113,-2.023281723,-1.880570163,13.48488498,0.099203825,2.582215905,-2.052302197
2.291575,-4.986140609,1.09555447,-77.31233598,-0.481995221,-1.878685102,13.11461759,-1.782862961,2.756539851,1.02247864
2.299908,-4.999145866,1.131983906,-77.31095505,-2.282566428,-1.298559681,14.40302467,-2.301663307,3.713952065,0.143173963
2.308241,-5.021579862,1.130686161,-77.30197908,0.220797064,-1.2899158,16.14433885,-3.447019845,-0.743453123,0.664337234
2.316574,-5.041299105,1.145723473,-77.30340958,-2.984461963,-1.72893256,16.59161496,-3.108044267,1.186160058,-0.4034594
2.324907,-5.080125094,1.165873844,-77.29228975,-0.458898641,-1.496636197,18.07482195,-5.411381788,1.795778897,1.141994745
2.33324,-5.124736905,1.195561308,-77.29458238,-2.829558849,-0.901426122,13.41015053,-6.101074562,2.94808013,-0.358980387
2.341573,-5.1788975,1.224710182,-77.28769303,-0.798382863,-1.464977086,12.62036824,-7.234292746,2.912485987,0.733546982
2.349906,-5.242946983,1.241285678,-77.28811648,-1.732304961,-1.64021498,15.41030931,-8.444239021,1.358755171,-0.266964316
2.358239,-5.303633452,1.261551283,-77.27658463,-0.682738684,-1.757068545,14.87934494,-8.028820633,1.796569645,1.203263879
2.366572,-5.369212389,1.298644327,-77.2720299,-1.895106092,-1.320115045,15.18889785,-8.63641596,3.751185596,0.579576477
2.374905,-5.431419969,1.354049392,-77.24570463,-0.282811649,-1.469146924,12.32179189,-8.258869408,5.824876189,3.369764284
2.383238,-5.495120526,1.411062524,-77.22911835,-2.351717979,-1.149070062,13.22760844,-8.442798496,5.992348373,2.226908117
2.391571,-5.574994326,1.477400504,-77.19825745,-0.814241145,-1.087617904,15.58101487,-10.39196003,7.067282677,4.058979809
2.399904,-5.656283021,1.526227907,-77.1847229,-1.647544384,-2.120528281,15.16348004,-10.56337571,5.043731392,1.802896574
2.408237,-5.732970118,1.586361677,-77.16500855,-0.686598498,-1.270696454,15.29329729,-9.970002651,6.445163488,2.668504164
2.41657,-5.821546316,1.648234502,-77.17121125,-1.950783178,-0.615668796,15.97793484,-11.36193943,6.91122818,-0.484887243
2.424903,-5.91535616,1.723595262,-77.1800766,-0.708047286,-1.452432662,13.79136753,-11.95120132,8.530668855,-0.455004905
2.433236,-6.000450373,1.780131892,-77.20874788,-1.404698804,-1.079674836,12.14862633,-10.86860228,6.475363016,-3.118680921
2.441569,-6.077853203,1.807084516,-77.22977448,0.117314674,-0.412838442,13.1877482,-9.912102459,2.981017432,-2.570004613
2.449902,-6.144713164,1.848456308,-77.26942825,-1.981709406,-1.317943946,14.01917815,-8.63721037,4.815559507,-4.613411933
2.458235,-6.213490963,1.895356432,-77.30272293,-1.009710387,-1.376648113,15.41753006,-8.831026673,5.525881052,-3.762788892
2.466568,-6.268061876,1.937836334,-77.33859255,-1.057908237,-0.439809479,13.29696727,-7.174393893,4.905555546,-4.111545861
2.474901,-6.312009931,1.942389473,-77.36881258,-0.611641472,-0.426524979,10.21845889,-5.860351861,0.440334454,-3.936338365
2.483234,-6.358039021,1.966561571,-77.40582275,-1.636975035,-0.980523866,11.16492224,-6.135852218,2.746204823,-4.512492299
2.491567,-6.392814994,2.008738116,-77.43716815,-1.25869928,-1.614021748,13.25274348,-4.758587003,4.950258374,-3.57479316
2.4999,-6.413558006,2.012333781,-77.46050263,-0.29406415,-0.825137727,12.48494625,-3.146295816,0.112036683,-3.148069501
2.508233,-6.425308228,2.00501439,-77.4841919,-0.808264785,-1.358918011,11.67842364,-2.022317469,-1.053174198,-3.326754391
2.516566,-6.438659072,2.031185806,-77.5006943,-0.762704574,-1.370502681,11.2988162,-2.285430104,2.715774864,-2.033296347
2.524899,-6.440406561,2.002177238,-77.51548765,0.202060864,-0.383145291,10.55287194,-0.871684447,-3.756798417,-2.542805076
2.533232,-6.431301355,1.972771376,-77.51995468,-0.971979558,-0.873759739,8.630303383,0.367836416,-4.070729867,-1.365017876
2.541565,-6.412609816,1.993974388,-77.53236008,-2.227352262,-1.317316786,10.16070831,1.56487298,2.200432502,-1.599263162
2.549898,-6.392530203,1.989244551,-77.53256988,-1.059820861,-0.691777658,14.94308949,1.669330835,-1.187700003,-0.504638815
2.558231,-6.370582819,1.998687104,-77.53744508,-1.594672233,-1.071190046,12.76288986,1.930045545,0.695426568,-0.863430284
2.566564,-6.334352136,2.026727647,-77.54022218,-0.267290346,-0.896298431,9.732290029,3.610934973,2.757030085,-0.36935727
2.574897,-6.308553815,1.957372323,-77.53421023,0.517333791,-1.27813378,10.62678206,2.340334319,-8.847317934,-0.590702716
2.58323,-6.288951159,1.96891804,-77.5299568,-2.454959393,-1.11765046,10.55515277,1.58882225,0.702038214,0.215425332
2.591563,-6.250706792,1.985405401,-77.5220604,-1.232104823,-0.592128396,10.39741778,3.831502199,1.366641015,0.763320223
2.599896,-6.21671164,1.995851219,-77.507267,-0.993752122,-1.035693854,10.97619652,3.285416365,0.427949615,1.491478495
2.608229,-6.192773223,2.003827885,-77.49617005,0.203688998,-1.657166839,10.63964522,2.088411748,0.311641932,1.040872865
2.616562,-6.182388306,1.915046304,-77.47603228,0.506194198,-1.588656605,10.35081851,0.430210207,-11.46946096,0.807495356
2.624895,-6.155500174,1.944372118,-77.47326663,-3.669467032,-0.489696574,9.600775033,2.480918035,2.969407283,0.287071563
2.633228,-6.126661301,1.964913145,-77.4688225,-0.557218585,-1.160074919,10.48346973,2.71340254,1.770981044,0.397536129
2.641561,-6.121253133,1.953598946,-77.46362685,-0.344941154,-1.26652056,11.56338024,-0.116029307,-1.910668263,0.076138273
2.649894,-6.120401383,1.917114794,-77.45911408,0.032174844,-1.431080818,9.586152316,-0.651962312,-5.030181362,-0.317514032
2.658227,-6.111322046,1.901446566,-77.45770263,-2.422900707,-0.796602704,9.415555835,0.347127393,-2.380673528,-0.453928948
2.66656,-6.087786317,1.971785754,-77.46405793,-1.7897605,-0.75802508,11.32300043,2.125411794,7.857314706,-0.273476809
2.674893,-6.092580795,1.927289561,-77.4556732,1.282502685,-1.863253296,10.04515648,-1.347254396,-5.913008154,0.04478655
2.683226,-6.099689841,1.896842197,-77.45468903,-0.612102695,-1.054497376,8.960889102,-1.589215964,-4.259244204,-0.688552281
2.691559,-6.107499361,1.870003254,-77.45099258,-1.672537387,-0.565284051,11.25966263,-1.69110623,-3.743101273,-0.315016694
2.699892,-6.098299861,1.932623506,-77.46189118,-2.145980757,-1.17085962,10.48021257,0.416602716,6.996035755,-0.88752693
2.708225,-6.100357056,1.887070596,-77.44953918,1.199799024,-1.272256345,8.961638687,-1.035285741,-6.088925988,0.509819327
2.716558,-6.107142806,1.852644891,-77.446373,-1.379663013,-1.051235192,9.716695666,-1.562071392,-4.757364094,-0.476933889
2.724891,-6.105709434,1.882328749,-77.43979643,-1.617899269,-0.749078013,11.67233539,-0.582746327,2.961860634,0.754992388
2.733224,-6.090345383,1.919117346,-77.44578173,-1.032384853,-0.810104286,8.957885862,1.127228143,3.856828228,-0.637445457
2.741557,-6.098692894,1.851780713,-77.42632675,1.427958295,-2.028700888,6.926219524,-1.803584904,-8.781015158,1.076540783
2.74989,-6.095088482,1.863262162,-77.42458345,-3.408772349,-0.447026812,10.69863623,-0.3137744,0.745022416,-0.08707241
2.758223,-6.097227693,1.936991677,-77.42178343,-0.424419969,-1.341918021,10.78666103,-0.995020204,8.265253187,0.883182041
2.766556,-6.102647185,1.885414645,-77.41639328,0.353733216,-0.938164294,9.126638442,-1.423552811,-6.824906499,-0.414620832
2.774889,-6.106502533,1.889596596,-77.40374375,-2.704701006,-1.294967667,8.266757311,-1.221738249,-0.161465883,1.138136495
2.783222,-6.100414276,1.998096794,-77.41146088,-1.268399611,-0.738000036,9.152577521,0.011167795,12.44260287,0.070173357
2.791555,-6.146920085,1.933940053,-77.40231323,2.00612852,-2.063078493,9.820471584,-6.340986654,-8.270891904,-0.114838209
2.799888,-6.160281539,1.93169944,-77.4001999,-2.648395091,-0.413174845,9.170561494,-2.352766901,-0.894183427,-0.192599889
2.808221,-6.175431013,2.033275977,-77.41396333,-1.707394093,-0.967928216,8.468502522,-2.480252207,11.79573977,-0.719820813
2.816554,-6.205223203,1.966016561,-77.40891268,2.296860308,-1.121840813,9.339589074,-4.355419546,-8.683700441,-0.675120801
2.824887,-6.222477675,1.990295604,-77.42043688,-4.516076029,-0.474968299,11.17758906,-2.730941989,2.547573269,-1.485523244
2.83322,-6.234450817,2.0909338,-77.4334831,0.261798739,-1.132716313,7.069094658,-2.127480183,11.57457215,-0.619262576
2.841553,-6.272337318,2.011773288,-77.43312075,1.290611088,-1.554318607,7.854176225,-5.273113966,-9.945182682,-1.381900937
2.849886,-6.292499185,2.07472542,-77.44723893,-3.3541103,-0.314062435,10.79950899,-3.097190321,7.102153048,-1.306703903
2.858219,-6.30888474,2.136020184,-77.46729663,0.217574567,-1.118211746,8.727342368,-2.613510385,7.076138497,-1.945103615
2.866552,-6.334011913,2.050795585,-77.45721055,-0.025536746,-1.036338426,8.149546891,-3.786639065,-10.89429295,-0.338424918
2.874885,-6.333115936,2.203437626,-77.47862245,-3.384788394,-0.747411594,9.119774043,-0.531668343,17.9927237,-0.937359639
2.883218,-6.370731473,2.154224336,-77.47517395,3.035312295,-1.454155147,8.017032982,-5.261677325,-6.511572036,-0.610604949
2.891551,-6.379586458,2.14623183,-77.4772682,-3.918834716,-0.215013523,9.755231203,-1.781466835,-1.42098427,-0.796967663
2.899884,-6.387177348,2.300736308,-77.49497985,0.135143757,-1.443607509,6.676638096,-1.564258427,18.06722999,-0.410573781
2.908217,-6.41709733,2.168889612,-77.4784813,1.277896017,-0.861940533,10.04053116,-4.408784449,-16.43763924,-0.200399607
2.91655,-6.407895804,2.311902464,-77.49185943,-4.490527988,-0.425617471,9.094682276,0.45395482,16.64134741,-0.11463967
2.924883,-6.431192279,2.306199134,-77.48436358,2.904886067,-1.864823461,6.039446593,-3.576569885,-1.278000831,0.452971749
2.933216,-6.435736537,2.274873376,-77.48336028,-2.48410438,-0.11218404,11.88718772,-1.270504612,-4.338190196,-0.746719126
2.941549,-6.440210819,2.429397643,-77.50266648,-1.750127643,-0.976158351,9.011990966,-1.185487837,18.18829107,-0.592857756
2.949882,-6.446153164,2.304982841,-77.49162673,2.107612729,-1.194106862,8.193842171,-1.495881707,-15.57539916,-0.743703132
2.958215,-6.427592874,2.443792492,-77.50201035,-4.72577107,-0.346790619,8.892279087,1.557461262,16.19337618,0.199448451
2.966548,-6.442939639,2.461547434,-77.50889968,3.248425394,-1.956637591,7.635496855,-2.552945122,1.623379468,-0.944454521
2.974881,-6.434788346,2.3923091,-77.49816133,-2.476087004,0.162892103,10.17365301,0.207974852,-8.898583294,-0.086534502
2.983214,-6.421611786,2.567169875,-77.51766968,-2.656154588,-1.196323186,7.581732126,0.942789927,20.5291009,-0.377233758
2.991547,-6.417035341,2.510947645,-77.50686645,2.479824133,-1.269590916,10.33038956,-0.239422888,-7.347437651,0.162042056
2.99988,-6.397274494,2.55695343,-77.51098633,-3.810539961,-0.206210554,10.16906238,1.664944578,4.958258032,-0.325662636
3.008213,-6.363572478,2.668101519,-77.52041625,0.483800188,-1.458606571,6.403330147,3.36668104,12.88139129,-0.011702477
3.016546,-6.371104837,2.604282498,-77.50271988,0.878913589,-1.514926031,9.647250206,-1.73637642,-8.427442581,0.830573634
3.024879,-6.360366941,2.71062234,-77.51091005,-3.468162179,-0.357445799,10.49530798,0.610806696,12.29345059,0.022675
3.033212,-6.354744911,2.782937288,-77.5130539,0.121996975,-1.186278545,9.779834746,-0.061826348,8.070652015,0.335460052
3.041545,-6.34935534,2.740124285,-77.50783535,-0.320903,-1.311949037,8.609021411,-0.098704268,-5.674788892,-0.353220247
3.049878,-6.336566568,2.884746969,-77.51623915,-2.822720409,-0.654143754,9.599066466,0.848798189,16.77926398,0.49661205
3.058211,-6.343040943,2.911251634,-77.52413178,2.160287991,-1.913536713,8.9066,-1.462861061,2.767390818,-0.96201624
3.066544,-6.353478432,2.872005284,-77.50963593,-0.871190555,-0.409371376,9.562273979,-2.068583339,-5.450168134,0.758914597
3.074877,-6.346702337,2.996839434,-77.52548218,-3.04523468,-1.086823151,8.873017377,0.183823806,14.60054541,-0.635287523
3.08321,-6.346426487,3.024986208,-77.51926805,1.243145973,-0.820709594,9.528445719,-0.745034844,2.693596303,0.743097775
3.091543,-6.343439818,2.996939123,-77.51607515,-1.166676611,-0.992583394,9.53592205,-0.396031352,-3.881597519,-0.413240835
3.099876,-6.314059377,3.148535669,-77.52325058,-2.901465535,-0.456070779,9.801546752,2.857601673,17.59868145,0.7116981
3.108209,-6.320339442,3.14865923,-77.52209473,1.966905862,-2.124057293,8.740638674,-1.501144528,-0.498260856,-0.236717142
3.116542,-6.314159513,3.143842876,-77.5132942,-1.039933018,-0.60368063,9.222097516,-0.039823711,-1.268833149,0.559968822
3.124875,-6.299959541,3.252834439,-77.52706145,-2.260680824,-0.506640114,10.07266748,1.061649319,12.68444037,-0.607617723
3.133208,-6.289818048,3.274720609,-77.52700423,1.05624836,-1.269313012,9.854030967,0.47560519,2.031385183,-0.07352566
3.141541,-6.28488183,3.260609031,-77.52194975,-1.696435064,-1.13110955,8.760157705,-0.157409057,-2.247652382,-0.001876246
3.149874,-6.261660695,3.408492148,-77.5351181,-2.061400801,-0.528593338,9.119891293,2.137313098,17.23561549,-0.027074233
3.158207,-6.275102854,3.403738797,-77.53982545,1.599172518,-2.080050766,9.174269319,-2.30286707,-1.003741801,-1.004362986
3.16654,-6.27515471,3.40456909,-77.5403099,-1.717315733,-0.441573262,10.85000706,-0.739665464,-0.465826929,-0.492949143
3.174873,-6.276252985,3.535261393,-77.55449295,-2.436805785,-1.349331036,9.72319162,-0.746398917,15.27587867,-0.377445042
3.183206,-6.286684036,3.561476887,-77.5562744,1.745189264,-1.388416857,8.602846563,-1.989713811,2.577076853,-0.249316141
3.191539,-6.310171366,3.563784898,-77.5611725,-1.92903962,-0.798076326,10.40453029,-3.497268319,-0.157476127,-0.971304655
3.199872,-6.312827706,3.678608895,-77.5665169,-1.097535849,-1.142584587,9.027189909,-1.017342955,13.19393325,0.463342391
3.208205,-6.348092437,3.683763981,-77.56842423,0.667361792,-1.840818525,7.738475562,-4.931902885,0.139603987,-0.546527799
3.216538,-6.388134957,3.698477686,-77.5654564,-0.224287078,-1.01734437,11.73929906,-5.568195582,1.153201005,0.065098569
3.224871,-6.418657184,3.760318876,-77.5726776,-2.409724862,-0.566544648,9.991483211,-4.326887652,6.974365473,-0.440004528
3.233204,-6.447947264,3.782415032,-77.57071303,0.533232674,-1.277507866,5.848283291,-4.270700067,2.03522411,0.146369375
3.241537,-6.49736774,3.795352876,-77.56996538,-1.286891643,-1.143677682,11.21691692,-6.656945229,1.036169529,-0.146302111
3.24987,-6.536146164,3.861842275,-77.56879045,-0.936827708,-1.103701875,12.62360811,-5.398286611,7.342381776,0.631317281
3.258203,-6.573796034,3.858069718,-77.5685272,-0.194961227,-0.986595154,6.992905765,-5.242754072,-0.949721098,-0.427363921
3.266536,-6.598799944,3.895160437,-77.57304003,-0.960603073,-1.074913532,7.372521132,-3.684940666,3.915443152,-0.463982694
3.274869,-6.657683492,3.908817053,-77.56901168,-0.015439078,-1.173839383,12.93642879,-7.837342024,1.077622921,0.269442573
3.283202,-6.704211593,3.920985222,-77.56847383,-0.378461376,-0.953183323,9.883545041,-6.316198826,0.873234144,-0.174673058
3.291535,-6.740445972,3.942957222,-77.57237625,-1.710621372,-0.225948982,7.391065955,-5.051588357,2.180229232,-0.565607164
3.299868,-6.77213943,3.974545658,-77.56830598,-0.440308698,-1.515661165,9.932566286,-4.566316783,3.132550404,0.569305159
3.308201,-6.831087232,3.972577453,-77.55768203,-0.941393223,-1.509430692,10.74147081,-7.888195574,-0.881565228,0.832971744
3.316534,-6.872543097,4.026720524,-77.564312,-1.188040942,-0.540996094,10.24551892,-5.644371927,5.974501014,-0.40943073
3.324867,-6.909323812,4.041617275,-77.56511308,0.200718828,-1.093853444,7.603739977,-5.145292014,1.292251092,-0.275378645
3.3332,-6.947566509,4.01097697,-77.56296923,-0.294609437,-1.23629164,8.470914005,-5.329688967,-4.249421477,-0.601018874
3.341533,-6.994641662,4.063054383,-77.57593155,-2.047901571,-0.658354655,11.15684366,-6.273666382,5.896669865,-1.187143128
3.349866,-7.023095131,4.080322445,-77.58103945,0.819474943,-1.110416636,9.176231146,-4.107408881,1.565923113,-0.745470252
3.358199,-7.06130743,4.036981344,-77.58141328,-1.189282436,-0.766237074,7.559851408,-5.308768123,-5.652226031,-1.083735149
3.366532,-7.09296155,4.097295284,-77.5909233,-1.999914259,-1.079015195,9.980238557,-4.440458596,6.753091335,-0.625307538
3.374865,-7.127338529,4.111225367,-77.58887865,1.105212122,-1.025302122,9.774871826,-4.880213231,1.132783309,0.067868117
3.383198,-7.153118372,4.063055873,-77.58590698,-1.046940001,-0.835707902,7.046322644,-3.846374869,-6.341823071,-0.805785507
3.391531,-7.177333117,4.158913255,-77.60290528,-2.453099996,-0.867652472,10.04610294,-3.489971638,11.17238557,-0.988683954
3.399864,-7.226399183,4.141060889,-77.59815215,0.977565951,-1.469376371,11.21727192,-6.6623683,-2.757878378,-0.118331373
3.408197,-7.253205419,4.136459291,-77.5963249,-1.069546134,-0.224291049,7.180342256,-3.953185678,-1.07213179,-0.2643933
3.41653,-7.268110395,4.211010695,-77.61000063,-1.521166012,-1.177082438,5.819915028,-2.402452127,8.520063639,-0.907634057
3.424863,-7.304295302,4.172464669,-77.60442353,1.100553279,-0.936364874,11.67164239,-5.12349695,-5.168610156,-0.30575712
3.433196,-7.339521527,4.216680467,-77.61831285,-3.53398484,-1.050831773,11.3788259,-4.827358916,4.914802791,-1.434608698
3.441529,-7.343764067,4.311890543,-77.63677978,0.582693674,-0.753912911,5.910584301,-1.083651973,11.11987871,-1.107060239
3.449862,-7.373789787,4.237426758,-77.63594435,-0.067829698,-1.161026582,7.552865207,-4.335344344,-9.433794378,-1.494136199
3.458195,-7.404738903,4.351597607,-77.6519165,-2.664189786,-0.857197151,11.87466872,-4.291710913,13.33189297,-0.510773581
3.466528,-7.426619768,4.352016449,-77.65385818,2.138661057,-0.823976479,6.337122797,-3.352295034,-0.479956925,-0.615615755
3.474861,-7.427223325,4.364564061,-77.66478728,-3.190498531,-0.282547262,6.101687244,-0.695007026,1.168096485,-1.531036556
3.483194,-7.454858065,4.467057824,-77.68430328,0.277108357,-1.793790069,8.733038664,-3.876209259,11.93782878,-1.104626926
3.491527,-7.47826159,4.393516004,-77.67722703,-0.349629537,-0.227562865,11.39322943,-3.585285843,-9.354445696,-0.746811927
3.49986,-7.482773423,4.56317848,-77.70628738,-2.101119608,-1.216763631,-1.380686101,-1.019062721,20.08167029,-1.207340211
3.508193,-7.524434209,4.493658245,-77.70975113,0.754218355,-1.439210132,11.25236711,-5.674290091,-8.713342906,-1.906448498
3.516526,-7.579900622,4.614302695,-77.72735593,-1.759473041,-1.200850517,11.140643,-7.243707433,14.06873739,-0.581699571
3.524859,-7.605591059,4.661475003,-77.74504468,-0.411380708,-0.430756615,3.211172662,-3.621337473,5.393775344,-1.749471419
3.533192,-7.657248855,4.705727697,-77.74285128,-0.172632173,-1.278878704,2.174995154,-6.963969469,4.669062078,0.559126776
3.541525,-7.747726083,4.802534461,-77.76527405,-1.211165425,-1.418930069,5.33395946,-11.36339879,11.3771795,-1.491420984
3.549858,-7.824903012,4.851683915,-77.7554474,-0.062435739,-1.158752158,5.84862946,-10.08054197,5.122879982,1.543706112
3.558191,-7.895559907,4.95697403,-77.7721863,-1.258577839,-1.016745804,7.188124924,-9.052242756,12.29989135,-0.669636071
3.566524,-7.984925747,5.013214708,-77.77329638,-0.701549172,-1.135155931,6.676774562,-11.40494215,6.140024543,0.387725949
3.574857,-8.09871018,5.108082056,-77.7684059,0.9835933,-0.308404699,3.169905797,-14.48205745,10.70473742,1.77083382
3.58319,-8.230354786,5.184162617,-77.79168703,-2.366657555,-1.381917052,-0.468143672,-16.24932432,8.870712163,-1.880763974
3.591523,-8.351759196,5.27497375,-77.77026365,2.538544178,-1.321765516,4.358516276,-15.54240966,9.922164082,3.695744902
3.599856,-8.469619274,5.342304468,-77.80758288,-3.456898693,-0.748078056,11.26119399,-14.45474339,8.092051388,-3.660217434
3.608189,-8.566367865,5.410958767,-77.78810885,2.585442305,-0.080072999,7.803945183,-12.53751826,7.305757641,3.113705576
3.616522,-8.667706728,5.443503618,-77.8258743,-2.600362666,-0.186297678,2.486562124,-12.49336493,3.991419077,-4.302023793
3.624855,-8.785973072,5.49059689,-77.81060408,2.671248421,-0.090414543,3.440877557,-15.06647539,4.807011545,2.265838832
3.633188,-8.875641108,5.494096279,-77.8440323,-1.991395593,-0.3432834,3.820664182,-11.14471602,0.487339661,-4.333330453
3.641521,-8.939555168,5.520036936,-77.83232495,1.41107525,-1.263840199,7.214380145,-8.470727563,2.354649693,1.462454557
3.649854,-8.97764802,5.470837593,-77.86172868,-1.631401174,0.8130337,8.752270341,-5.029474199,-5.823867262,-4.83738348
3.658187,-8.987227917,5.440289259,-77.85435868,1.440374434,-0.446700791,7.72954631,-1.882899228,-4.265237823,-0.080031634
3.66652,-8.979947328,5.389883876,-77.8759041,-0.916996956,0.252819609,6.27314043,0.306442186,-6.104077697,-3.966691236
3.674853,-8.960191727,5.29913497,-77.87887955,0.64205347,-0.138388511,3.524371527,1.760393024,-11.2056345,-2.440223337
3.683186,-8.901342392,5.221485257,-77.88463973,-0.930960894,-0.213529576,7.32540691,6.323447943,-9.637412549,-2.582084909
3.691519,-8.814004183,5.120966792,-77.8779373,0.281152278,-0.800284401,8.468098642,9.762323858,-12.54124451,-1.455650985
3.699852,-8.729398966,5.00174892,-77.86963273,-0.762105458,0.188785341,6.791438818,9.247699142,-14.82879281,-1.637335658
3.708185,-8.624896526,4.904446483,-77.87321853,-1.140389242,-0.895783231,3.237872057,11.95029616,-11.98630405,-2.570181787
3.716518,-8.492927075,4.791866005,-77.85743333,0.752835885,-0.332940757,6.174781561,14.85313845,-14.17575633,-0.606840253
3.724851,-8.366902828,4.679416895,-77.8877487,-3.044726521,-0.812291093,7.080696821,14.78634262,-13.31937599,-5.946273702
3.733184,-8.247751117,4.603095651,-77.87140273,1.589414165,-1.116071794,7.461460829,13.33453465,-9.88824737,0.177375794
3.741517,-8.132049084,4.513950944,-77.92477418,-2.621170588,-0.995570407,1.587788117,13.71392417,-10.17794776,-8.245679855
3.74985,-8.024139524,4.466243148,-77.91070935,0.975916729,-1.107931614,3.566774935,12.06848443,-6.449521065,0.416496979
3.758183,-7.938892603,4.397600115,-77.9602585,-2.432195589,-1.804371208,6.533020616,9.967003226,-7.826491595,-7.420864701
3.766516,-7.872732639,4.360228479,-77.93436813,0.669329502,-0.7351149,6.333485842,6.992885767,-5.41866672,2.034433126
3.774849,-7.815263391,4.323887766,-77.95396423,-1.922943712,-1.544224233,3.014823854,6.312003971,-4.487207651,-3.320181265
3.783182,-7.798493743,4.317664445,-77.91123203,0.284513652,-1.015907452,4.200294361,0.935595259,-1.985766083,4.529845238
3.791515,-7.809291243,4.317340076,-77.90267563,-1.216398876,-1.371441841,2.494325847,-2.142860889,-0.661436498,0.598192096
3.799848,-7.833027005,4.341174483,-77.85680773,-0.4313306,-1.550964847,2.325550795,-3.941996053,1.527255535,5.411040336
3.808181,-7.88104105,4.371518791,-77.84123993,-0.880342841,-1.276522219,4.683793783,-6.680487693,2.868813932,1.937486887
3.816514,-7.957558155,4.424690187,-77.80942535,-1.181874365,-1.588538081,5.384518266,-10.15573204,5.238112032,4.226884753
3.824847,-8.050300598,4.486206293,-77.79560853,0.675089717,-0.641564563,1.827714742,-12.04280424,6.599233747,2.257607222
3.83318,-8.163554668,4.560709536,-77.78113555,-2.21284017,-1.070904575,1.386029773,-14.39684963,8.050152779,2.531391532
3.841513,-8.294665337,4.644679904,-77.75924683,1.171826072,-1.867804157,3.297595024,-16.72247624,9.115212441,3.627803013
3.849846,-8.430491448,4.736568511,-77.76125338,-2.653262839,-0.287470993,5.749493361,-16.9613347,10.39375413,0.911783636
3.858179,-8.582914352,4.828696549,-77.73847963,2.120686811,-0.822501596,4.069992185,-19.2837627,10.04523516,3.925139777
3.866512,-8.742888212,4.925390721,-77.75557328,-3.225653678,-1.482397742,1.855529368,-19.72940898,11.2294302,-0.706085131
3.874845,-8.913715601,5.023585558,-77.72681045,3.114284218,0.394434095,2.564952433,-21.53694963,10.62469101,4.798506141
3.883178,-9.083626747,5.115703702,-77.758667,-3.52052021,-1.568655938,3.062711358,-20.77566767,10.97550356,-2.494805507
3.891511,-9.228049994,5.195746899,-77.72478105,3.084046125,0.222730368,4.012111843,-18.41924191,8.342194677,5.120978773
3.899844,-9.367470503,5.276850462,-77.75709155,-3.271615088,0.284059561,4.20025605,-17.10688805,9.690124272,-2.69622916
3.908177,-9.477310896,5.347752094,-77.72743608,2.311219215,-0.391462893,2.749115736,-14.22810483,7.316819131,4.48829639
3.91651,-9.574972392,5.404273033,-77.75790788,-1.487634152,0.536541395,2.979071081,-12.12163186,6.75382185,-2.917516113
3.924843,-9.643442154,5.441706896,-77.74060058,0.995835424,0.406520754,4.086574972,-9.115876199,3.586841576,2.391463399
3.933176,-9.676089526,5.4542166,-77.76112365,0.459488928,-0.186025873,4.143839359,-4.443039239,1.354922798,-2.618661612
3.941509,-9.672585964,5.450670123,-77.75196075,-0.855212346,0.776583493,5.189847589,-0.369392377,-1.101738595,0.617642701
3.949842,-9.638669967,5.420112252,-77.75844193,2.307005525,0.197073226,4.504740655,3.383172751,-3.955346405,-1.85879922
3.958175,-9.57585144,5.376442433,-77.75769423,-2.866702914,-0.098933417,6.069119573,6.841297031,-5.741389505,-1.164983571
3.966508,-9.470470429,5.319607616,-77.7470627,3.678920061,0.502437532,5.618714809,11.76437735,-7.466804475,-0.357434333
3.974841,-9.342660666,5.234793544,-77.75836943,-4.809981197,-0.142562009,7.010638952,14.7747767,-10.31592018,-3.382640057
3.983174,-9.181534529,5.147329331,-77.73081208,5.064522088,0.450291381,4.813308358,18.28425122,-11.41784051,1.076105446
3.991507,-9.018654347,5.025080442,-77.75533295,-5.298248381,-0.126226485,4.425217152,19.09825421,-14.51739073,-5.589901149
3.99984,-8.822481155,4.936422229,-77.71870043,5.21599713,-0.249778498,3.499497354,22.41850424,-11.72228849,2.225228243
4.008173,-8.605456591,4.800069928,-77.73991013,-5.524099887,-0.99194145,7.431401849,25.548172,-16.28194022,-5.378411353
4.016506,-8.36415267,4.68760264,-77.68848803,4.384319246,0.166975573,10.29019308,27.72913981,-14.78220212,3.622182891
4.024839,-8.116529465,4.550428808,-77.7086792,-5.648569495,-0.898527695,7.314341068,29.16504765,-16.43584967,-5.143381894
4.033172,-7.894053698,4.443114996,-77.6505127,5.484071538,-1.060704976,4.679500178,25.44717407,-14.24843455,4.632014081
4.041505,-7.682752729,4.316909492,-77.68500138,-6.378682418,-0.986820698,4.369069874,24.91581345,-14.93726862,-6.546313703
4.049838,-7.472046495,4.217107773,-77.62965013,5.301188052,-1.711316347,4.967493445,24.12058497,-13.27691966,4.544811189
4.058171,-7.284530521,4.075126648,-77.68109895,-6.770134091,-1.061625537,9.643168808,22.14599705,-16.59065485,-8.702798067
4.066504,-7.108018637,4.011499107,-77.63486865,5.35372752,-1.666295983,7.581018029,20.15183449,-8.801180601,4.119193346
4.074837,-6.950293303,3.871243596,-77.67810823,-5.663082004,-0.999639779,7.812214495,18.4487021,-16.54531407,-7.621109902
4.08317,-6.808463693,3.840874076,-77.63837815,2.826529145,-1.091328513,4.82177639,16.10524058,-4.727479816,3.873799653
4.091503,-6.687409878,3.693149388,-77.65665053,-3.281779111,-1.063933715,7.73873508,13.79909492,-17.81542325,-4.663168549
4.099836,-6.579550982,3.714728535,-77.6243019,1.360434235,-2.010355607,9.46640301,12.1135571,1.583261073,3.728134096
4.108169,-6.466245175,3.577782989,-77.6297684,-2.510581672,-0.013295934,7.692051591,12.75968027,-16.71451974,-2.912237166
4.116502,-6.373339415,3.588855744,-77.59753038,0.396351874,-1.719412848,5.527729333,10.34396863,0.343666151,3.565697312
4.124835,-6.308158636,3.526130259,-77.60272598,-1.230314672,-1.458150938,10.41189021,6.95804143,-7.870062649,-1.837611793
4.133168,-6.266115666,3.516153693,-77.58567048,-0.89258305,-2.154308863,8.845826983,4.371547188,-1.960293144,1.472082137
4.141501,-6.234012842,3.480833411,-77.57496643,0.310156639,-0.07172893,5.240202308,2.869128168,-4.801719457,0.420167208
4.149834,-6.220157862,3.5048064,-77.5812111,-2.752534807,-2.839124024,8.955241204,1.16015546,2.398600631,-0.900699853
4.158167,-6.221291185,3.477187693,-77.56315993,1.53468775,-0.654207543,6.425870747,-1.168268502,-3.976642847,1.401899575
4.1665,-6.242317677,3.516064823,-77.5789871,-3.298743993,-1.803701695,10.06557393,-2.960234762,4.301946879,-1.813872813
4.174833,-6.249512673,3.499201835,-77.54235078,2.16715321,-0.616185837,8.657997371,-2.026131079,-2.934703201,3.73437774
4.183166,-6.292018294,3.577781498,-77.58539198,-5.180281013,-2.567307085,6.324176252,-5.357449129,9.400577009,-4.515480042
4.191499,-6.346164704,3.565825045,-77.52742005,4.46856919,-0.204837367,15.62043405,-7.78109324,-2.642569274,6.32952264
4.199832,-6.396933437,3.638907314,-77.58401488,-5.435223356,-1.898679547,4.363065839,-6.291968705,8.942424685,-6.167781428
4.208165,-6.441025615,3.645148933,-77.52032853,3.610498786,-0.257472554,10.79164946,-6.584063769,-0.563957154,7.236782936
4.216498,-6.530977845,3.729793668,-77.59028243,-5.40128845,-1.820020683,7.435096829,-10.92149079,10.52440828,-7.589346439
4.224831,-6.602053643,3.791634202,-77.52706148,3.006080121,-0.585633457,11.18323755,-9.781137584,6.042487845,7.945692302
4.233164,-6.687591672,3.854151011,-77.59519578,-2.997733936,-0.370474056,3.408828847,-10.44787646,7.897085427,-7.655565858
4.241497,-6.738096833,3.966710329,-77.54604343,-0.123159886,-1.072338674,8.815821767,-7.162722945,12.25389481,7.003088922
4.24983,-6.818146706,4.044355691,-77.59781265,-1.200717077,-1.273571119,9.282028914,-9.942217469,9.493812292,-5.480761171
4.258163,-6.858745813,4.176671029,-77.56027605,-1.690694034,-1.593687177,14.1496079,-5.849125624,14.75300264,5.93947035
4.266496,-6.919417978,4.258625686,-77.59365468,1.706520691,-0.479503468,8.177697183,-7.803900123,9.760256163,-3.210932552
4.274829,-6.975311279,4.367769659,-77.58430483,-3.090618197,-1.299891666,13.12274432,-7.426645576,12.38598561,2.302869201
4.283162,-7.077724695,4.464966059,-77.60092165,2.516073376,-0.882412765,5.418695182,-12.94600928,11.3479639,-1.008944689
4.291495,-7.160863042,4.541664064,-77.6020279,-2.892046357,-1.380335132,5.286015242,-10.60097265,8.665353834,0.604175925
4.299828,-7.284804583,4.643001438,-77.61758425,1.208864898,-2.013753969,6.502923548,-15.53042316,11.8279618,-0.776827574
4.308161,-7.39204669,4.677774728,-77.63370513,-2.109095737,-2.053669378,16.41022873,-13.35190475,3.914631411,-1.791141272
4.316494,-7.487891197,4.774432719,-77.65066148,1.113503754,0.067166612,13.21623755,-12.13583612,11.28941405,-0.958850265
4.324827,-7.600114226,4.78449893,-77.67112735,-1.311593659,-1.235654401,7.411363431,-13.91326308,1.044734568,-2.652964771
4.33316,-7.710015059,4.886657655,-77.68829345,-0.638192421,0.142105818,4.446491571,-13.81969428,11.96384644,-0.887511849
4.341493,-7.842577338,4.916918278,-77.7158356,-1.163007855,-2.439890623,6.936227865,-16.2832675,3.568096101,-3.136046052
4.349826,-7.905774355,4.98306346,-77.71091083,-0.758609639,-0.08397737,17.79859233,-8.404090762,7.315036267,1.176263929
4.358159,-7.983578205,5.103495479,-77.75743868,-1.348827034,-1.536019422,6.967369453,-9.532283426,14.61483318,-3.862950783
4.366492,-8.080030084,5.048777223,-77.73460388,1.095950485,-0.315185696,9.761577875,-12.56734776,-7.353590489,1.313696414
4.374825,-8.146232248,5.267321825,-77.79642868,-4.109923184,-1.447323233,4.853271127,-7.989875438,26.5443306,-3.984133363
4.383158,-8.204672933,5.205469728,-77.77425383,3.598118186,-0.326281794,14.02696258,-7.983519018,-8.194497705,1.108596944
4.391491,-8.252458334,5.400275946,-77.82786178,-5.781454385,-0.668951459,12.36562318,-5.858802571,23.5956564,-3.388307393
4.399824,-8.315867901,5.438594461,-77.82147598,3.644483149,-1.283318028,5.058563352,-8.420440554,3.970894933,0.98202413
4.408157,-8.361909151,5.516887188,-77.8611641,-4.41594398,-0.758674029,7.031249121,-5.786496877,9.527369977,-3.728751242
4.41649,-8.388838291,5.667619109,-77.85256198,1.392402761,-0.918445118,15.18705678,-4.04406929,17.27974844,3.173806042
4.424823,-8.425073147,5.709985733,-77.88547898,-0.785802804,-0.995444477,7.074857845,-4.705258712,5.153107509,-3.52797395
4.433156,-8.444323301,5.788816929,-77.87661363,-0.860756598,-0.544921338,7.441078692,-3.093729437,8.736289561,1.929245252
4.441489,-8.471683979,5.929050446,-77.9190483,-0.137935005,-2.415167034,11.22992831,-3.544536889,16.94338369,-2.904828236
4.449822,-8.496720314,5.879618168,-77.90725328,0.394296899,0.554650277,14.92086661,-3.800183118,-6.537756038,0.003516078
4.458155,-8.496603012,6.078120351,-77.95273208,-4.212825656,-1.079983533,2.852823317,-0.193381559,23.9151938,-2.248371467
4.466488,-8.524369955,6.045574665,-77.9538002,3.678417787,-2.634233054,8.472955228,-3.997566521,-4.306211903,-1.163437188
4.474821,-8.531745911,6.166180492,-77.99580383,-4.943281591,0.078050003,16.17314816,-1.115772583,14.6122042,-3.242567957
4.483154,-8.557858706,6.258577943,-78.0116501,1.773965158,-1.58269909,7.8964639,-3.60442841,10.77898294,-0.64469552
4.491487,-8.560994864,6.246596456,-78.00914385,0.010668941,-0.925252648,7.617863297,-1.171768099,-1.907678179,-0.347156107
4.49982,-8.555060864,6.381577254,-78.03895568,-2.43326813,-0.119079985,12.52839935,0.421261184,16.08665371,-1.561905265
4.508153,-8.55192709,6.388708115,-78.02887725,0.92108804,-0.871316191,7.500490845,-0.511474669,0.223103613,0.910836011
4.516486,-8.542568445,6.46507597,-78.05462648,-1.940193713,-2.003327984,7.078098812,0.771058947,9.067946375,-2.16080115
4.524819,-8.521548987,6.530412674,-78.04815293,-0.204786767,0.108622659,15.99057412,1.709548384,7.188165247,1.528756887
4.533152,-8.525363922,6.583971739,-78.07279588,-0.888225183,-1.616615147,5.76978296,-0.831469923,6.338594913,-2.418797225
4.541485,-8.485450268,6.606359363,-78.07074738,-0.490184426,-0.624668405,9.743120908,4.036464453,2.174034028,0.225853548
4.549818,-8.465568781,6.746510268,-78.11852265,-1.59253341,-1.488432124,11.74287856,2.322120548,17.02259433,-3.59930706
4.558151,-8.465433121,6.677915693,-78.10392763,1.456336677,-0.701210106,12.27103496,-0.894558311,-8.846878945,0.112039935
4.566484,-8.417022228,6.853322506,-78.15070723,-2.817421496,-1.269277899,5.442323134,5.734066248,21.19145894,-2.889284164
4.574817,-8.401287317,6.758403182,-78.1351013,3.660714656,-1.118122015,9.503434763,0.956083521,-11.9892994,-0.186401054
4.58315,-8.380647183,6.801624656,-78.1651268,-5.133501291,-0.69216606,12.64796156,2.182896458,5.208650945,-3.317284569
4.591483,-8.357931137,6.861865997,-78.17781833,2.888091658,-2.148939285,8.732755811,2.182013445,6.922747493,-0.764111579
4.599816,-8.342494488,6.730957508,-78.18192675,-1.97655049,-0.269966017,11.63550818,1.191610672,-15.91187775,-3.30148425
4.608149,-8.327539206,6.84857595,-78.20532608,-1.148959786,-1.87676654,8.02181232,1.42081251,13.91777849,-1.072750211
4.616482,-8.306569218,6.673628211,-78.18299103,2.846843481,-1.114540145,10.95993912,1.461907365,-21.59238291,-0.915533334
4.624815,-8.287307382,6.709101319,-78.20616913,-4.066984683,-0.169536658,8.822842856,1.943236644,4.162390054,-2.530081127
4.633148,-8.253856182,6.629154682,-78.1947365,1.476212144,-1.273304939,12.89733458,3.110435985,-10.1305351,-0.472861201
4.641481,-8.204740763,6.581433773,-78.20181275,-1.940252274,-1.300440535,8.151745066,5.302817345,-5.998234629,-2.068157852
4.649814,-8.170426011,6.529839993,-78.20110703,0.57634547,-0.569838554,6.880011202,3.354590893,-6.573055626,-1.266185157
4.658147,-8.121667147,6.46406579,-78.20798113,-1.928888917,-1.007720649,14.49333548,5.255990595,-8.147592336,-2.332819939
4.66648,-8.098034978,6.429209352,-78.20024873,0.418668861,-1.562076152,9.016135572,1.991202884,-4.7069303,-0.139840812
4.674813,-8.034909368,6.328066707,-78.20923995,-2.178244673,-0.228777212,9.984933972,7.002962232,-12.31456042,-3.185812772
4.683146,-7.983530998,6.37659049,-78.2196846,-0.230193841,-1.827931136,7.504872233,5.553512752,5.497134271,-0.831742383
4.691479,-7.96497488,6.180904389,-78.21722413,-0.257317413,-1.071156323,12.44008774,1.494520173,-23.74148059,-3.383303106
4.699812,-7.916558504,6.298244119,-78.2292862,-2.853153915,-0.960413136,7.796161891,5.228628412,13.70760906,0.055957439
4.708145,-7.886314511,6.145066381,-78.22574233,2.113502264,-1.390826401,11.14076567,2.87428923,-18.71157813,-2.471179068
4.716478,-7.839718461,6.192279697,-78.21356198,-4.604310274,-0.741715242,9.249161528,4.727373719,4.971465871,1.718113464
4.724811,-7.827404737,6.179008484,-78.22549818,1.8465399,-1.657047525,7.543915807,0.880303994,-1.823989452,-1.978440285
4.733144,-7.78538394,6.125827432,-78.20779038,-2.240260989,-1.430618048,12.08497,4.12443012,-7.048926593,0.718293121
4.741477,-7.752232075,6.231682658,-78.21611025,-1.315455079,-0.212508091,10.377588,3.340980739,12.27887678,0.361250639
4.74981,-7.751592517,6.166771173,-78.18901445,1.457051411,-2.436946191,7.238386602,-0.96671962,-8.597431302,1.693987861
4.758143,-7.71892798,6.184502125,-78.18394088,-2.643565596,-0.541028157,13.11552858,3.106843591,1.589030385,0.476539999
4.766476,-7.701028347,6.264035344,-78.1742592,-0.243221533,-1.985438898,7.279997348,1.333160416,8.861146836,1.967528835
4.774809,-7.714459658,6.147977949,-78.14628218,1.319358707,-1.137080386,10.83677059,-2.732271463,-14.68439269,1.041541636
4.783142,-7.696063996,6.277334571,-78.15785598,-4.551523115,-0.87499997,11.68057889,1.678757518,15.12383756,0.242359162
4.791475,-7.71604538,6.189640522,-78.12784958,3.793688081,-1.26908844,7.346656203,-3.548372974,-11.34508568,1.765265912
4.799808,-7.705850363,6.238172293,-78.13955308,-5.367640853,-0.820708513,8.826821686,0.695615262,5.518834293,-1.11995747
4.808141,-7.710791826,6.305389047,-78.1360283,1.965045497,-1.435631827,12.16761019,-1.40140301,7.496473073,1.166149206
4.816474,-7.720923543,6.2279073,-78.12834168,-2.943464875,-0.850338989,12.03286594,-1.993581414,-9.77716279,-0.845509887
4.824807,-7.71007061,6.371335745,-78.13482665,0.448532358,-1.156861618,5.638968588,0.626290448,16.72188199,1.176929608
4.83314,-7.716928482,6.277562499,-78.12137223,-0.01253128,-1.346065462,12.8065275,-1.694100067,-11.80181789,-0.411044508
4.841473,-7.74085474,6.347305536,-78.11748888,-1.791815728,-0.873969264,10.37423336,-3.64983324,7.788648724,1.194788784
4.849806,-7.722673059,6.315095663,-78.11017608,-0.122786753,-0.784481034,11.72157049,1.367758438,-4.381599635,-0.120050685
4.858139,-7.707634211,6.339749813,-78.10627748,-1.086294174,-1.616459072,7.358742237,1.033396691,2.426504254,0.456215145
4.866472,-7.731307268,6.265430451,-78.10474013,1.227606595,-1.371424478,11.29301167,-3.580255956,-9.292504431,-1.487220332
4.874805,-7.706469775,6.283042908,-78.09641645,-2.727197528,0.029789358,13.83799851,2.154176712,1.520253779,0.841866374
4.883138,-7.689206481,6.265647411,-78.10336305,1.596216768,-1.77249226,5.242680014,1.435380146,-2.395411848,-1.503049791
4.891471,-7.662663698,6.108830929,-78.0818901,-1.074300856,-0.1078193,14.44213343,2.192624062,-19.43451405,-0.383336116
4.899804,-7.616533995,6.185463786,-78.10809325,-3.418695569,-1.036531613,11.30551863,5.157797933,9.092420101,-2.336709961
4.908137,-7.550189734,6.094127655,-78.10137938,3.133673668,-1.007608381,8.940600901,7.145962954,-11.41156161,-1.004372701
4.91647,-7.502077818,5.981012941,-78.1044197,-2.925257459,-1.295824543,10.94531512,5.090859473,-13.84111193,-2.634677679
4.924803,-7.454124212,6.005219579,-78.11390685,-0.566023462,-1.509756103,13.44592178,5.156808853,2.585347057,-1.108017657
4.933136,-7.402243733,5.900357127,-78.10900115,-0.600669712,-0.016332641,12.2239238,5.441700943,-12.98656726,-1.516968083
4.941469,-7.318056584,5.874303579,-78.10679628,-1.383112321,-1.800904543,6.976075291,9.363508464,-3.57880199,-0.528773878
4.949802,-7.278079987,5.815412164,-78.11670683,-0.046569169,-1.19371572,11.01039144,4.195496798,-7.289325476,-2.54542771
4.958135,-7.228841066,5.708503485,-78.1094589,-1.25221669,-1.232971041,13.48955321,5.104834899,-13.27706528,-1.153947234
4.966468,-7.149120927,5.768495083,-78.11767578,-2.589770585,-1.307940379,10.02071583,8.944089054,6.832425499,-0.5482984
4.974801,-7.108380199,5.685208678,-78.11273193,1.576150462,-1.682301551,8.46445623,4.09906543,-10.43004853,-1.006850742
4.983134,-7.062504411,5.605036617,-78.09568023,-1.999294326,-0.818743885,15.46663141,4.59298563,-10.23573632,0.367260218
4.991467,-7.006606698,5.676361919,-78.1029892,-3.160841703,-0.829538062,10.11073398,6.076411486,8.159662365,-0.205602278
4.9998,-6.952077031,5.648633718,-78.08869935,2.418413431,-1.786555544,7.866462768,5.65100658,-3.946977794,0.870423049
5.008133,-6.950371265,5.555168867,-78.07424925,-1.614559345,-2.382164836,12.94173455,-0.692611903,-11.77925906,-0.060827375
5.016466,-6.9369241,5.615889907,-78.07410813,-1.587376975,-0.718620463,13.61614812,0.905447289,6.794643223,0.446724966
5.024799,-6.926306486,5.575255871,-78.05870438,-0.426904157,-1.74819006,9.648679019,0.359925061,-5.500893951,0.853014892
5.033132,-6.914578319,5.542970419,-78.0405426,-0.618949453,-0.975298636,11.65256476,0.489158273,-4.544148028,1.234228395
5.041465,-6.940997005,5.552154303,-78.04773713,-2.024168313,-1.591137231,14.23636365,-3.819335848,0.758745074,-1.118359163
5.049798,-6.946951509,5.513387799,-78.04618455,1.470831808,-1.603470713,8.866024435,-1.445744217,-5.077631542,-0.80101485
5.058131,-6.966588616,5.463798642,-78.03548435,-2.722036518,-1.04081399,10.71106982,-3.207004746,-6.499683021,0.139786445
5.066464,-7.010832071,5.529304862,-78.03948593,-1.259675609,-1.778906316,15.8103646,-5.981228113,7.428506404,0.029706074
5.074797,-7.067673087,5.461263299,-78.0286522,0.176990167,-0.990102306,13.69956553,-7.672252435,-8.700644732,-0.109376032
5.08313,-7.093085051,5.472868562,-78.03111648,-1.06422744,-1.447371155,7.441675991,-3.738749981,0.98423338,-0.566583616
5.091463,-7.11384964,5.375200868,-78.01678848,0.250697427,-1.527072177,12.20289826,-3.382501274,-12.28170097,-0.136581557
5.099796,-7.139640093,5.430022002,-78.02601623,-4.377201975,-0.329445154,14.4976399,-3.702630818,6.22603338,-0.708867565
5.108129,-7.155525685,5.447730303,-78.0272064,0.975789838,-1.169602026,13.58995295,-2.620611548,1.685950994,-0.242902993
5.116462,-7.151036859,5.389555693,-78.03137208,-1.395375699,-0.526083008,12.68488276,-0.123098787,-7.291240393,-1.878211886
5.124795,-7.139406919,5.436865687,-78.03560638,-0.864929862,-1.112865902,12.42339563,0.720083479,5.256076396,-0.181111807
5.133128,-7.116976857,5.37280047,-78.0264168,0.146543429,-0.953041397,17.93368173,1.861751557,-8.191669941,-0.343877476
5.141461,-7.065531612,5.352763772,-78.01369858,-1.415513375,-0.921777167,14.26615048,5.323035181,-3.014629037,0.821221344
5.149794,-7.006984949,5.344450832,-78.01472855,-2.308081538,-1.086510107,12.21544623,6.309295715,-1.405350759,-0.713689387
5.158127,-6.937838316,5.358659029,-78.00041198,-1.0700241,-0.762272619,12.26802468,7.424894929,1.045701362,1.509322189
5.16646,-6.878461719,5.364896536,-78.00395583,-1.547779813,-1.695220314,14.49338007,6.440581441,0.359809492,-0.773524195
5.174793,-6.805074334,5.343626142,-77.99181368,-0.382169992,-1.350030169,16.07820249,7.954350472,-3.146356739,0.743305966
5.183126,-6.71981442,5.347396016,-77.99388503,-1.463035383,-0.980869418,13.60898948,9.527821183,0.047946632,-0.647860907
5.191459,-6.632372618,5.358355284,-77.97802735,-1.043257043,-1.394655146,15.9355464,9.607119085,0.645059368,1.640467063
5.199792,-6.548004389,5.383889675,-77.9638405,-1.628551871,-1.627119825,15.91186977,9.226075053,2.419709772,1.580174327
5.208125,-6.467854858,5.397211313,-77.93774033,-0.357572075,-1.177290187,13.54852772,8.614650607,0.794140607,2.896291152
5.216458,-6.404299736,5.407764196,-77.9098816,-1.173775077,-1.864861533,12.64668584,6.586127758,0.453189493,2.989562333
5.224791,-6.355502248,5.450083256,-77.8923187,-1.99486658,-1.948203698,13.95965981,4.947635859,4.372621983,2.255375013
5.233124,-6.309512615,5.499224424,-77.86628343,-0.553566739,-1.618190318,14.60967326,4.486816824,5.082783222,3.323687255
5.241457,-6.268339276,5.518787146,-77.84424593,-1.263425559,-1.736229182,16.44420314,3.96995014,1.604395509,2.490395248
5.24979,-6.250590801,5.545764923,-77.83113098,-0.617169254,-1.113041118,15.7155068,1.249215901,2.611669153,1.479154929
5.258123,-6.255441427,5.595451117,-77.8196907,-1.350752116,-1.821500681,12.23310232,-1.438383401,5.339338601,1.616418302
5.266456,-6.265306711,5.6444906,-77.80218508,-0.968802117,-1.673566461,12.70364284,-2.117644206,5.188272595,2.289669424
5.274789,-6.282860994,5.661068678,-77.78153993,-0.394613549,-1.088629084,15.14521575,-3.061067686,1.266479865,2.28632009
5.283122,-6.300063848,5.661898255,-77.75305558,-0.64563365,-2.138556212,15.94458866,-3.138153493,-0.707923047,2.968683362
5.291455,-6.324671746,5.6749053,-77.74126053,-1.711803943,-1.033021234,16.79114842,-3.793765865,0.953694865,1.183992386
5.299788,-6.360240221,5.680191994,-77.7200432,-0.339387819,-1.290590107,14.88652993,-5.26428923,-0.08225368,2.17294848
5.308121,-6.402899504,5.677174211,-77.7162247,-1.10701311,-1.580473401,12.16336179,-5.871762216,-0.85277151,0.026196912
5.316454,-6.447244883,5.646298051,-77.69151305,-0.256204441,-1.805666119,13.39623714,-6.349167228,-4.446464897,2.110632211
5.324787,-6.484239698,5.601513148,-77.68568038,-1.469337016,-0.860882277,15.17725325,-5.212820947,-5.861366749,-0.298434705
5.33312,-6.506270051,5.545484781,-77.66137693,0.087735981,-1.352229472,15.67220831,-3.666943372,-7.441463351,1.708927371
5.341453,-6.526431084,5.492054224,-77.6600914,-2.03592208,-1.6442523,16.38532233,-3.139286861,-6.829318762,-0.959467623
5.349786,-6.554326534,5.440079331,-77.63782503,0.178766221,-1.147338882,14.16305042,-4.345554859,-6.931071639,1.513663579
5.358119,-6.571574926,5.377107263,-77.6307373,-1.609203696,-1.163015783,11.94784713,-2.855574548,-8.045780659,-0.40926107
5.366452,-6.577716947,5.319107652,-77.5984917,-0.430178065,-1.091769263,14.16594601,-1.828907535,-7.789574146,2.620621264
5.374785,-6.582345128,5.257277727,-77.58485413,-1.860352293,-1.342372984,16.02700067,-1.418426559,-7.998342752,0.385263719
5.383118,-6.570662618,5.186938763,-77.54990005,-0.132904012,-1.188281417,16.1259234,0.282435395,-9.297875524,2.779378623
5.391451,-6.5630759,5.128507495,-77.53318785,-1.588095613,-1.106131539,15.43730807,0.021682451,-7.635319472,0.798152503
5.399784,-6.562191606,5.060668826,-77.5053177,-0.768683448,-1.354155757,14.66720796,-0.927530035,-8.906262994,1.989163309
5.408117,-6.555448055,5.009081841,-77.49155428,-1.657384068,-0.908743054,11.82710839,-0.048218854,-6.778422952,0.539176427
5.41645,-6.538766742,4.952170968,-77.47332763,-0.8011798,-0.883201435,13.31650257,1.083837524,-7.469527006,0.976696387
5.424783,-6.514524222,4.900978387,-77.46475603,-1.379156105,-1.841228828,15.64961219,2.102118462,-6.659720183,-0.062037714
5.433116,-6.489600301,4.807957232,-77.44715115,-0.307526592,-1.130170934,16.47323418,2.084035307,-11.76560903,0.42648669
5.441449,-6.445167184,4.733469546,-77.44636155,-1.058562175,-0.068544231,13.82741857,4.608923376,-9.332675694,-1.300780669
5.449782,-6.391399741,4.651364506,-77.4455147,-1.03191289,-0.971820772,12.12156248,5.711715222,-10.2380774,-1.401543785
5.458115,-6.341066599,4.583022714,-77.45366668,-1.574864626,-1.494767584,12.84620953,5.404888868,-8.483617663,-2.269904792
5.466448,-6.296187639,4.483239889,-77.45933915,-0.038787697,-0.925330162,12.88678789,4.70051992,-12.26143313,-2.387298167
5.474781,-6.243010402,4.381462038,-77.46957398,-1.382336617,-1.438532949,12.08754122,5.780842543,-12.44990706,-2.948080436
5.483114,-6.178483605,4.30767566,-77.4799652,-1.271212243,-1.293444306,10.42509127,7.097260595,-9.102035166,-2.593604982
5.491447,-6.110708118,4.209999323,-77.49309923,-1.045414865,-1.15500395,14.0306083,7.545257688,-11.92671394,-3.210725635
5.49978,-6.055294872,4.101523161,-77.4998207,-1.063246034,-1.289846078,15.81633473,5.968412222,-13.29311729,-2.58201766
5.508113,-5.996616483,4.030987144,-77.51218033,-1.203502342,-0.808226906,12.3262496,6.44083488,-8.702866674,-2.750623316
5.516446,-5.933112502,3.928523541,-77.5152054,-0.444005035,-1.449948907,11.02265859,6.903937697,-12.62941861,-2.013365656
5.524779,-5.885395408,3.814718544,-77.51724625,-1.12314266,-1.897030622,13.44461656,5.033601522,-13.99698424,-2.054332405
5.533112,-5.856220245,3.754901469,-77.5181427,-1.944010087,-1.270543218,13.38158631,2.77446986,-7.56603539,-1.231097043
5.541445,-5.806150436,3.667176485,-77.50964355,-0.154048555,-1.257121042,10.45678186,5.227286518,-11.01516938,-0.440638535
5.549778,-5.761392117,3.56887418,-77.50547408,-1.546355415,-1.671820492,10.7654773,4.609522402,-12.22279811,-1.093539059
5.558111,-5.73297298,3.537562311,-77.50177383,-1.954491556,-1.087185957,12.92121875,2.674282894,-4.222336948,-0.333571032
5.566444,-5.704259157,3.460817933,-77.50196455,-0.395093142,-0.442967375,13.48302698,2.710668478,-9.599656106,-1.328834519
5.574777,-5.675331473,3.397932112,-77.49905398,-0.957245082,-1.873272568,10.22895551,2.743691415,-7.983429015,-0.808049152
5.58311,-5.646731019,3.360958576,-77.50022508,-1.100851432,-1.348180503,11.36092186,2.69901979,-4.837808311,-0.960091949
5.591443,-5.633237839,3.254381418,-77.4888649,0.625324665,-1.844065607,12.62016964,0.830266595,-13.30138826,-0.28624244
5.599776,-5.621047497,3.196753025,-77.48682783,-2.591991156,-0.763458408,10.20122314,0.712274201,-7.341558813,-0.840012451
5.608109,-5.594395638,3.176106751,-77.48483275,-0.885320158,-1.480536595,9.250008821,2.477536857,-2.930348367,-0.383573115
5.616442,-5.583151102,3.096711517,-77.47655485,-1.235016873,-1.253002555,13.36629558,0.558873892,-10.01704574,-0.329978638
5.624775,-5.574672938,3.11458242,-77.47306825,-1.89751032,-0.755526997,13.20600248,0.282310387,1.652761832,0.246748328
5.633108,-5.556155682,3.029001594,-77.45588685,0.831061065,-1.336045623,11.84238339,1.371415019,-10.86002076,0.697206754
5.641441,-5.555505395,2.985330403,-77.4485359,-2.3821702,-1.806734592,9.501689197,-0.680394083,-5.739673198,-0.041213297
5.649774,-5.559578061,2.995479345,-77.4419861,-1.21713154,-1.083580326,11.68055558,-1.263700842,0.697254718,0.522062969
5.658107,-5.563399434,2.949283034,-77.43218993,-0.921372399,-0.929740757,12.67390084,-1.228132129,-6.072113872,0.239630789
5.66644,-5.559799433,2.988526493,-77.42419435,-1.559447318,-1.152595878,10.62405288,-0.348596931,4.154420786,1.03085126
5.674773,-5.560179949,2.949241012,-77.41536715,0.643306464,-1.540176511,12.69059181,-0.825578999,-5.234352618,0.222398801
5.683106,-5.573665857,2.912955821,-77.39631653,-1.290714495,-1.269409031,12.11870193,-2.460679472,-4.994215996,1.461074486
5.691439,-5.567033172,2.950292915,-77.39533235,-1.990731329,-0.661257453,8.745522023,0.062850915,4.009921312,0.164555447
5.699772,-5.556101084,2.915545404,-77.36896898,-0.207467111,-1.219318979,11.15206838,0.435394041,-4.898197532,2.362625107
5.708105,-5.557677388,2.956384987,-77.36584088,-2.582397759,-1.303970963,13.90498996,-0.93771489,4.403432995,0.448073026
5.716438,-5.546442986,2.990518034,-77.3406868,-0.026806958,-0.419326289,12.76203918,0.473639131,3.344530642,3.024240613
5.724771,-5.53039217,2.938175231,-77.32885363,0.052079059,-1.428368509,10.84494889,1.113633111,-6.825598478,0.41949071
5.733104,-5.526835799,2.952209562,-77.30921173,-1.69697465,-1.666537196,9.269796491,-0.402140349,1.008330047,2.11307196
5.741437,-5.518760443,2.944456101,-77.29762648,-0.675311985,-0.841280248,11.30506706,0.155632079,-1.496060237,0.915670589
5.74977,-5.510083437,2.942940593,-77.27550888,-1.83625406,-0.985942699,12.71315551,0.209277958,-0.88198787,2.236388516
5.758103,-5.497279644,2.992930413,-77.2599907,-0.211903013,-1.121749476,11.0087322,0.693796734,5.356890619,2.04805024
5.766436,-5.496563554,2.900495142,-77.2321434,1.313044032,-2.152014107,10.94761389,-0.796241239,-11.80404615,1.888083048
5.774769,-5.495380163,2.886897743,-77.20811465,-2.670326829,-1.023962446,9.446495056,-0.74051699,-2.33461304,2.304128617
5.783102,-5.48278892,2.89865163,-77.18798448,-1.103947141,-0.793091986,10.38912904,0.679712132,0.729323726,2.173041284
5.791435,-5.490743995,2.892569125,-77.1601715,-1.1660996,-1.561697781,13.70931077,-1.85439682,-1.483071007,2.847771585
5.799768,-5.498056531,2.912853062,-77.1430168,-0.379425638,-1.235506758,10.61692452,-1.703647599,1.78213641,1.937899485
5.808101,-5.505966187,2.809800387,-77.11008833,1.118011266,-1.666412562,9.441361515,-1.880139679,-13.12417937,2.35289827
5.816434,-5.51626873,2.834593237,-77.09640885,-3.922383666,-1.230945021,11.24956328,-2.034503292,2.362461537,1.531500608
5.824767,-5.523779631,2.830700725,-77.06812288,0.371069866,-0.805017621,13.58123017,-1.797546193,-1.229784191,2.954307497
5.8331,-5.543856025,2.803042531,-77.0424118,-1.597450107,-1.557294697,11.79039288,-3.27425158,-4.045233966,2.373050004
5.841433,-5.575599909,2.799829692,-77.01026538,0.635342479,-1.264045641,10.19551766,-4.732620359,-1.195070709,3.432044923
5.849766,-5.612283349,2.691479326,-76.97423173,0.112863593,-1.570763692,11.41100025,-5.326202467,-13.80391431,2.660259843
5.858099,-5.640512824,2.683576196,-76.94119645,-2.203973651,-0.921900176,8.863264563,-4.297729492,-1.768951133,3.445748568
5.866432,-5.659004688,2.665563554,-76.908535,-1.460024551,-1.318428874,11.75470197,-3.127821714,-2.978282809,3.322233677
5.874765,-5.682112098,2.625504822,-76.87278748,-1.431783736,-0.848141219,15.38291121,-3.681197971,-5.649172008,3.395490527
5.883098,-5.712321758,2.647608966,-76.85290145,-1.741361022,-1.053705581,14.12326383,-4.469261736,1.962127358,2.2645033
5.891431,-5.72612989,2.630424351,-76.8338852,-0.05461175,-1.063722968,10.66493928,-2.475868762,-2.721569986,1.690568358
5.899764,-5.744158268,2.572768986,-76.8191681,0.178617448,-1.607683122,10.43534112,-2.985621006,-7.499758601,0.698263228
5.908097,-5.772674322,2.552993924,-76.8080635,-1.335571394,-0.933620051,11.69688416,-4.193834633,-2.93466457,0.691033669
5.91643,-5.781427741,2.531548917,-76.79383088,-0.62106533,-0.990736306,11.84206295,-1.859718427,-3.174327455,1.086997703
5.924763,-5.776035071,2.486518651,-76.77656175,-1.817177594,-1.038201779,11.08756256,-0.157908615,-6.024301767,1.122505471
5.933096,-5.782104611,2.530730694,-76.769474,-2.555400521,-1.010977417,12.89385605,-1.49224703,4.749705672,1.017845735
5.941429,-5.780568004,2.515945763,-76.75315095,0.428875304,-1.171114788,11.61009312,-0.62396273,-2.403518259,1.401927933
5.949762,-5.782645345,2.468246579,-76.74097443,-0.261963278,-1.438120186,9.076350808,-1.043139696,-6.284385367,0.519924154
5.958095,-5.782549381,2.449604929,-76.72610855,-0.433043391,-0.99063962,7.812343359,-0.781816723,-2.846055031,1.160926715
5.966428,-5.781715155,2.396981746,-76.70721818,-1.489310777,-1.237383148,12.98728323,-0.723835945,-6.955033541,1.269806475
5.974761,-5.766718269,2.4405182,-76.69266893,-2.832982868,-0.91132687,11.89661109,1.012265072,4.583264336,1.858408958
5.983094,-5.744235396,2.460622698,-76.67853928,0.044392765,-0.893022664,9.510048152,1.89046523,1.78541182,1.607171774
5.991427,-5.759159565,2.393436224,-76.6618538,0.272258054,-1.724872619,11.57170069,-2.597945988,-8.661358,0.787932314
5.99976,-5.765036821,2.401068241,-76.64863585,-1.232860707,-1.148888596,10.33158016,-1.50131762,0.307271451,1.335340441
6.008093,-5.751618624,2.385996998,-76.63196183,-2.219144598,-0.587519795,9.614280938,0.811212327,-2.43972376,1.407194838
6.016426,-5.752473116,2.467653424,-76.62763978,-1.508654535,-1.433796317,11.67911911,-0.851116244,9.25119698,1.159306817
6.024759,-5.785092354,2.404912353,-76.61710358,1.84786579,-2.108659506,11.38939363,-4.696476161,-8.057112336,0.12412018
6.033092,-5.7918787,2.391806901,-76.61073688,-2.032989264,-0.522941903,6.614372253,-1.568452582,-2.084249359,0.229852542
6.041425,-5.796276093,2.432393402,-76.60825348,-2.176688016,-1.089069709,10.10719711,-1.263242826,4.37572442,0.407173464
6.049758,-5.816516161,2.475947022,-76.60211563,-0.274731707,-1.441191644,12.65890884,-3.183641434,4.679823399,0.905146241
6.058091,-5.842115641,2.453407437,-76.59618378,0.347161827,-1.454030633,7.906760038,-3.836845923,-3.200790435,0.068518087
6.066424,-5.857318997,2.466483921,-76.59017563,-2.533181995,-0.545643442,11.04472065,-2.572709873,1.044093847,0.490128424
6.074757,-5.870493889,2.568733305,-76.59134675,-1.507533968,-1.210735492,9.25950706,-2.300475672,11.77870166,0.744929388
6.08309,-5.903080225,2.537484556,-76.58270645,1.758032501,-1.507365405,7.689056977,-4.676487208,-4.281515628,0.291275464
6.091423,-5.932337284,2.562385708,-76.58263778,-2.38857773,-0.846778784,10.07608903,-4.24437803,2.536325009,-0.092861168
6.099756,-5.951770068,2.656091303,-76.59242248,-1.532315671,-1.064041481,9.498627067,-3.000218272,10.85820532,-0.331854865
6.108089,-5.996412158,2.642394364,-76.58781815,0.467691601,-1.665404379,6.857789517,-6.113333762,-2.129890934,-0.0010534
6.116422,-6.021507979,2.707510591,-76.5911293,-2.606642515,-0.723222278,11.32772374,-3.710888028,7.368447065,0.046547473
6.124755,-6.076273322,2.789011479,-76.5917549,-0.128703865,-1.645190075,9.251606287,-7.297496288,9.292857884,0.58880087
6.133088,-6.131212592,2.759915143,-76.5872345,0.615675315,-1.229885954,8.725132824,-7.340162635,-3.975150108,-0.178608054
6.141421,-6.171453595,2.850318671,-76.5783386,-2.11671485,-0.497872472,9.021985591,-5.605154455,10.23275077,1.824774355
6.149754,-6.227377534,2.860607654,-76.58369065,0.979881965,-1.65326798,6.830427825,-7.416873933,0.853424609,-0.842605904
6.158087,-6.279962182,2.868928939,-76.57386398,-2.070192337,-0.444719553,12.70570016,-7.083687544,0.426220544,0.872756966
6.16642,-6.325562,2.943978757,-76.5780487,-1.335914508,-1.358086884,7.686115265,-6.172909659,8.561200261,0.13847694
6.174753,-6.373392343,2.951483995,-76.5740738,0.877727002,-0.853845444,6.91483748,-6.476178289,0.405495711,0.148386438
6.183086,-6.437957883,2.965350956,-76.5842285,-1.59687002,-1.009485364,11.26560378,-8.425373912,1.350888044,-1.40339132
6.191419,-6.462753892,2.994560003,-76.5856323,0.074654855,-0.501724146,7.212710262,-3.677281976,3.057881594,-0.142696857
6.199752,-6.490231514,2.977167189,-76.59119033,-0.882494021,-0.595265996,7.042291522,-4.003165424,-2.439749587,-1.261337802
6.208085,-6.504481912,3.018719137,-76.59347153,-1.47283122,-1.193207264,11.85676801,-2.408737034,4.542499066,-0.08053121
6.216418,-6.534113527,3.024208904,-76.59987258,-0.395798456,-1.068136216,9.879345536,-4.249962017,0.299311951,-1.049693771
6.224751,-6.538511634,3.021467448,-76.59949878,-1.018898532,-0.852290854,7.042860509,-1.232188687,-0.774757043,-0.387274474
6.233084,-6.53827548,3.059271157,-76.59950638,-0.183373254,-1.045544319,8.441105902,-0.719417427,4.067172408,0.155468703
6.241417,-6.571825624,3.014348865,-76.60147095,-0.164668856,-1.018096566,12.12683761,-4.724046756,-5.769904852,-1.230418213
6.24975,-6.557470441,3.040258825,-76.59967808,-1.948695347,-0.131211139,9.341234566,0.970209748,2.62457858,0.200546749
6.258083,-6.538552403,3.050477565,-76.5958328,-0.980678231,-1.512792319,3.587229252,1.548668683,0.71958391,0.212694124
6.266416,-6.538226724,3.046564818,-76.5886345,0.366203219,-0.988006458,11.27755773,-0.749069184,-1.006684271,0.444003552
6.274749,-6.540568114,3.063883186,-76.5916786,-1.936157972,-0.599564348,12.35754061,-0.977106169,1.666257307,-0.518073574
6.283082,-6.499411583,3.0587672,-76.58312988,0.890209708,-1.258148019,2.882926821,4.153325618,-1.169702694,0.591051664
6.291415,-6.471950889,3.061870873,-76.58015825,-2.270292848,-0.369652172,9.85870287,2.557782978,-0.108431638,-0.008712079
6.299748,-6.459821582,3.082248807,-76.56593323,0.280164555,-1.319923923,13.1245625,0.637173675,1.793563403,1.607005179
6.308081,-6.427984953,3.070362032,-76.56376268,-1.393324331,-0.845229067,7.658299774,3.090216607,-1.886350751,-0.299552052
6.316414,-6.38408649,3.096293569,-76.55416108,-1.105089486,-1.062339679,5.259915397,4.485635579,2.519813329,1.12165378
6.324747,-6.381957054,3.095818878,-76.5497017,0.391280264,-1.543044671,12.3741315,-0.506585609,-0.553587698,0.138438523
6.33308,-6.386319041,3.080918849,-76.54603195,-1.320845839,-0.522588738,13.5855242,-1.269944549,-2.268137694,-0.143977635
6.341413,-6.335804939,3.095709443,-76.54122543,-0.762327753,-0.56188084,2.865021522,5.305540681,1.259615123,0.400513798
6.349746,-6.312535882,3.075167418,-76.5325775,-0.641488835,-1.506584779,5.91836977,2.030299567,-3.011340916,0.365537643
6.358079,-6.314907313,3.105540395,-76.53551483,-0.701120107,-1.554113433,13.76968312,-1.006063171,3.225520402,-0.3317267
6.366412,-6.306670904,3.073386073,-76.53651048,-0.213777181,-0.476292864,8.721031843,0.281199455,-4.268192947,-0.906398207
6.374745,-6.272575378,3.078350902,-76.5382538,-1.607131273,-1.258034662,3.21975106,3.370192844,0.178223789,-0.542003636
6.383078,-6.263542414,3.105552435,-76.5414238,-0.180603504,-0.720729277,12.36889195,0.384700276,2.841960251,-0.379705418
6.391411,-6.271398187,3.046622753,-76.52983093,-0.711511463,-0.878562711,12.24107182,-1.741841674,-7.618861736,0.195244543
6.399744,-6.227766037,3.117671966,-76.54270553,-2.02304069,-1.167599238,3.811741778,4.602295458,8.198848009,-0.978838436
6.408077,-6.227342129,3.078653335,-76.53078843,1.248353563,-1.724602014,7.51703787,-0.751640216,-5.251469195,0.548592895
6.41641,-6.250995994,3.082896471,-76.54504013,-1.948380694,-0.772831202,15.91206694,-3.478788078,0.25266859,-2.042658419
6.424743,-6.23490119,3.112938047,-76.54632188,-0.468926132,-0.131928992,7.767976223,1.217960179,3.158427834,-0.115049586
6.433076,-6.203230143,3.032581926,-76.53890993,-0.771622084,-0.863015965,1.648020713,3.035937369,-10.12953839,-0.53279537
6.441409,-6.186322332,3.140027821,-76.5469284,-1.589606509,-1.620121688,11.16609019,1.360804662,12.48077631,0.051209297
6.449742,-6.201182842,3.062213361,-76.54628373,1.742834509,-0.930975363,11.6313903,-2.530068994,-9.729952932,-1.296243854
6.458075,-6.153271556,3.075775445,-76.54819488,-3.223266006,-0.463813819,4.821463436,5.061988115,1.200936794,-0.478006438
6.466408,-6.13729167,3.111794472,-76.55041885,0.861896005,-1.201233096,7.719324113,1.182420343,3.885260999,-0.13288027
6.474741,-6.147322178,3.014447093,-76.53893665,-0.854857579,-0.894929513,14.47906399,-1.973705173,-12.20419321,-0.31366235
6.483074,-6.111308217,3.145443559,-76.55551148,-2.485654056,-0.871252999,6.142412269,3.688857198,15.40032315,-0.657082156
6.491407,-6.101386309,3.039386869,-76.54300308,1.750928596,-1.974969685,4.650477409,0.400910616,-13.25554419,-0.241321281
6.49974,-6.110257626,3.088954568,-76.55034635,-2.85813731,-0.575995691,15.80103207,-1.761347115,5.569656378,-0.64489916
6.508073,-6.119853854,3.105710864,-76.55308913,0.799359508,-0.756687571,8.906298935,-1.850356698,1.592225148,-0.459922865
6.516406,-6.080455899,3.011365295,-76.53359223,-1.181669988,-0.032807253,2.709465385,3.887681186,-11.94845393,0.69826985
6.524739,-6.049204111,3.145779133,-76.54973983,-2.632048011,-1.521475256,7.657403173,3.13887167,15.7988739,-0.582086757
6.533072,-6.067973852,3.023593903,-76.54091645,3.084889084,-1.364195995,12.88494715,-3.049362719,-15.13133478,-0.869882197
6.541405,-6.022278786,3.092960298,-76.56641008,-4.749255419,-0.331429236,7.938815116,4.935517907,8.157132985,-2.568160325
6.549738,-6.014675736,3.101613581,-76.56464388,2.571655959,-1.546561901,4.093952322,0.166601539,0.567035379,0.001629696
6.558071,-6.010622144,3.02220586,-76.56984713,-3.042560778,-0.749465972,13.93000472,-0.192622073,-9.850227595,-2.065324247
6.566404,-5.990412951,3.16192925,-76.58515168,-0.32824716,-1.226849154,5.735408754,1.795840109,16.41956544,-0.38572158
6.574737,-5.985710144,3.023756683,-76.58610533,0.023130477,-0.903977611,7.558317543,-0.154214174,-16.91508821,-2.270088276
6.58307,-5.999418139,3.187787235,-76.6015091,-2.103997171,-1.623049975,6.802509039,-2.265964165,19.32378364,-0.134839481
6.591403,-6.006808877,3.07525754,-76.60821535,0.591305614,-0.251715154,10.75004923,-1.570361257,-13.78549492,-2.590640411
6.599736,-5.993147254,3.21878773,-76.61626435,-2.071334869,-1.095166728,1.303109829,0.979705997,16.78265369,0.473274872
6.608069,-6.003491521,3.14661634,-76.63166428,0.363820151,-1.02078788,7.735769359,-1.884685934,-8.852580548,-3.146936998
6.616402,-6.043043017,3.263136327,-76.6497383,-2.55942598,-1.802433461,8.587100746,-5.31893228,13.68149668,-1.049940169
6.624735,-6.068853021,3.27476871,-76.65907288,1.666764397,-0.958952956,6.976371736,-3.788348972,1.070114807,-1.338350028
6.633068,-6.092001677,3.323761165,-76.67750548,-2.968539775,-1.019070156,7.881645084,-3.348600466,5.634690926,-1.976237589
6.641401,-6.151820541,3.404216409,-76.68247223,1.58994019,-0.988931268,2.423726411,-7.895326792,9.225094557,0.104973465
6.649734,-6.224288583,3.423551262,-76.69081878,-1.809813082,-1.22908511,4.368547231,-9.34466064,1.969636678,-1.153418858
6.658067,-6.305950403,3.561299086,-76.69277573,-0.131820574,-1.524578288,5.69333303,-10.51201439,16.01766157,1.179452516
6.6664,-6.391821981,3.564024746,-76.6977539,-1.120552004,-0.66204793,8.530407547,-10.98862958,-0.050040573,-0.952776067
6.674733,-6.488429904,3.696899116,-76.69379045,-0.566980809,-0.964829013,3.216786035,-12.33970773,15.34700561,1.892956935
6.683066,-6.597992063,3.71428752,-76.70161438,0.484275595,-0.95380766,2.712292105,-13.84544754,1.7482999,-1.097432494
6.691399,-6.717009545,3.830853403,-76.69589998,-1.480386064,-1.399478979,4.201288044,-14.99994803,13.36324334,1.908731967
6.699732,-6.84407723,3.883152008,-76.70231248,1.570487808,-1.060086243,8.023301125,-15.9915514,5.896958888,-0.417207956
6.708065,-6.955428004,3.97037828,-76.70588685,-3.455355704,-0.684746988,6.030010044,-13.96356273,9.989378394,0.399828673
6.716398,-7.059036732,4.010826052,-76.6958542,3.190973222,-0.049939247,3.422624946,-13.3245728,4.252601326,1.351279259
6.724731,-7.183896304,4.058698058,-76.72079085,-3.958385944,-1.019505106,8.039834618,-15.41240978,5.632472872,-2.771473169
6.733064,-7.279325962,4.093091309,-76.70539475,4.168369621,0.059143213,4.339682341,-12.37714696,3.435878606,1.948040485
6.741397,-7.344514489,4.118825317,-76.74314115,-4.005134046,-0.717851926,6.326972485,-8.153158784,3.191325843,-4.520679563
6.74973,-7.401594877,4.115910649,-76.71783068,3.453204512,0.246403969,8.773361563,-7.839538455,-1.164807223,2.540996522
6.758063,-7.446884036,4.119008839,-76.76757433,-3.461773515,-0.168429352,5.670277566,-5.703093171,0.678610683,-6.135910035
6.766396,-7.447658777,4.090569437,-76.73947143,2.924306393,-0.392104056,5.015404248,-1.075631395,-4.255556017,2.476931855
6.774729,-7.429227591,4.042793453,-76.78570938,-2.530800313,0.177427106,8.139910102,1.89422372,-5.406172604,-6.638118267
6.783062,-7.389509559,3.988565087,-76.7602577,1.906343758,-0.01942369,8.56600356,3.830926001,-7.287746311,1.795410678
6.791395,-7.319551349,3.940381468,-76.79755783,-2.802743495,-0.713864766,4.101393819,7.973139524,-5.602541327,-5.556551278
6.799728,-7.240648985,3.837130249,-76.76073075,2.693952501,-0.250563273,6.710513115,8.468033077,-13.29218078,2.421346128
6.808061,-7.140097499,3.792249501,-76.79217148,-3.375757813,-0.33601749,7.296122491,11.55949187,-5.310052529,-4.778410077
6.816394,-7.029954553,3.703003526,-76.74665453,1.590708599,-1.190398753,7.924835325,12.19538593,-11.74704117,3.675035328
6.824727,-6.925717116,3.624030769,-76.76719665,-1.852728777,0.205206104,4.591211021,11.87351084,-9.537389875,-3.970937386
6.83306,-6.809904456,3.538960636,-76.7352104,-0.086356178,-1.239466232,4.655946136,13.01712942,-11.0468173,2.191160977
6.841393,-6.678265452,3.486543298,-76.73894118,-0.376092643,-0.791892573,7.587019086,15.02670431,-6.624906242,-1.582544565
6.849726,-6.553969741,3.37655139,-76.73931885,-1.550800115,-1.029216047,9.978268981,14.27106571,-13.55762601,-1.952253342
6.858059,-6.432687521,3.355599344,-76.73569105,0.401236057,-0.402474415,4.006346241,13.73916102,-2.979307584,-0.227892578
6.866392,-6.330585718,3.275137842,-76.7482643,-0.987814278,-1.488550693,2.173263073,11.6638943,-9.879451871,-2.951497487
6.874725,-6.233513832,3.256744981,-76.7340126,-0.304058582,-0.857970585,5.817737579,10.79551756,-2.813999176,1.067646056
6.883058,-6.132677197,3.198356092,-76.74533463,-1.425397024,-1.103807215,9.319330216,11.48699784,-7.267052027,-2.486591928
6.891391,-6.053336382,3.168562949,-76.71792983,0.256642491,-1.102955397,6.379182339,8.597489417,-4.341075502,2.511085302
6.899724,-5.979736924,3.142813504,-76.72747803,-1.262513191,-0.744222075,1.714680907,8.169014691,-3.392119467,-1.865043089
6.908057,-5.931413651,3.127250374,-76.69382093,0.390143499,-1.954058111,4.134153247,4.88481769,-2.722479582,3.434971355
6.91639,-5.898807049,3.108933687,-76.70065688,-1.343511373,-1.246694759,11.0478611,3.195744038,-2.536293149,-1.447409406
6.924723,-5.863847852,3.095321417,-76.68849183,-0.965795544,-1.40594393,7.747635365,3.454931596,-2.224913471,0.903449178
6.933056,-5.856293201,3.07099247,-76.68668748,0.832444644,-0.659753784,3.456562653,0.103100479,-3.356963516,-0.467981875
6.941389,-5.875571013,3.06335628,-76.69446945,-2.156902194,-1.489048675,4.122791588,-2.936540783,-1.266489327,-1.397013068
6.949722,-5.886940599,3.075933039,-76.6843338,1.284265317,-0.899947224,9.574385166,-2.191765215,0.945799009,0.930353701
6.958055,-5.877881646,3.051650524,-76.69694518,-2.679896176,-0.851435967,7.762717665,0.491422043,-3.191428542,-2.175853133
6.966388,-5.876690865,3.06522876,-76.67655183,1.344458431,-0.171216004,6.041012466,-0.754665867,0.937682852,2.196228549
6.974721,-5.899673581,3.046778143,-76.69538115,-1.672495578,-1.449680165,5.680080786,-3.323367179,-2.414728031,-2.89217715
6.983054,-5.93331933,3.067679465,-76.66592025,1.068347685,-1.293922603,6.61569196,-4.964013398,1.694407553,3.346359134
6.991387,-5.958027244,3.052981437,-76.70035553,-2.393127292,-0.763365194,3.794929474,-3.473242521,-1.768823564,-4.62234205
6.99972,-5.990773678,3.037109494,-76.67176055,0.830368266,-1.202182651,8.336399913,-4.797850728,-2.699963987,2.806087503
7.008053,-6.022058964,3.037626147,-76.70139313,-0.714194343,-0.764924474,7.853624582,-4.341273725,0.003870927,-3.915126443
7.016386,-6.037999273,3.004188478,-76.69430923,-1.364689931,-1.056013405,9.644907475,-2.622430325,-4.525178075,-0.011408031
7.024719,-6.062264324,3.016538262,-76.7080803,0.671028458,-4.29935E-05,6.288334489,-3.597535044,1.213637591,-1.854288019
7.033052,-6.084956766,2.961657882,-76.70563888,-0.565026827,-0.785660904,5.38179934,-3.423759066,-7.027445853,-0.810095132
7.041385,-6.097982884,3.0080266,-76.71970365,-1.645343304,-0.953262523,5.163268268,-2.231653005,5.278030813,-1.465281524
7.049718,-6.116132617,2.918610305,-76.71181105,1.514513292,-0.494231448,7.152979107,-2.905349776,-11.21696937,-0.604777604
7.058051,-6.116636872,2.942911238,-76.71825793,-2.37725246,-1.589890689,9.859815836,-0.780360133,2.5467242,-0.857436508
7.066384,-6.097535372,2.898825437,-76.72042465,1.126901329,-0.311456166,8.362861752,1.607591037,-5.669849337,-1.254649347
7.074717,-6.086886763,2.858344436,-76.72266768,-1.708471621,-0.171826835,7.742236495,0.553091526,-5.241691412,-1.170058072
7.08305,-6.089289427,2.902599335,-76.72420503,-0.498286642,-1.508025755,5.428855062,-0.978748947,4.854406823,-0.013918102
7.091383,-6.091081858,2.823204667,-76.71926118,0.014407665,-0.63696465,6.361405106,-1.000607245,-9.967729986,-0.820821256
7.099716,-6.079675555,2.875787407,-76.72271728,-2.296032219,-1.542620912,7.834194303,0.714054346,5.870500788,-0.162118792
7.108049,-6.052036405,2.847197563,-76.7066803,1.437872909,-0.556415871,10.48080266,2.466077656,-4.047846436,1.147501558
7.116382,-6.037825465,2.834071785,-76.7193222,-1.921742827,-0.41951615,7.925830364,1.070627213,-1.853145242,-2.0435775
7.124715,-6.027164579,2.88828826,-76.71608355,-0.782076769,-1.102036633,3.92262733,0.538424015,5.990946174,0.652298562
7.133048,-6.028031469,2.872935444,-76.72639465,-0.26489943,-1.569218177,4.956614346,-0.762686182,-2.143636063,-1.820384473
7.141381,-6.03152144,2.898350537,-76.7237854,-1.088376671,-1.163392229,11.46656609,-1.158378258,2.558698893,0.248525321
7.149714,-5.998440624,2.955566972,-76.73120118,-1.018527888,-0.567593463,9.923369408,3.29344976,6.480443239,-0.55391426
7.158047,-5.975385428,2.949567646,-76.71996308,0.48768083,-0.194111638,5.372115411,1.977271646,-1.29397672,0.8553041
7.16638,-5.984750271,3.02764374,-76.71673588,-1.816791445,-1.352297113,7.169211924,-1.862987668,8.834279404,0.961123027
7.174713,-5.980948925,3.091629207,-76.72439575,-0.560058493,-0.897477694,3.754488409,-0.234005392,7.298417569,-0.515287839
7.183046,-5.978169799,3.122869551,-76.71591185,-0.435740812,-1.593436703,6.471732021,-0.407170385,3.176344574,0.976152063
7.191379,-5.98292768,3.206369281,-76.71276093,-0.163092725,-1.695775144,12.22367406,-1.347517058,9.492584825,1.012620539
7.199712,-5.972688675,3.249866188,-76.72543335,-1.290860057,-0.162487135,9.018051982,0.610457778,4.903320164,-1.328536782
7.208045,-5.984917402,3.2930637,-76.707119,0.918910787,-0.817236763,4.943780244,-2.329742532,4.48571232,2.357284635
7.216378,-6.023950458,3.393108309,-76.72470475,-1.456787735,-1.772580754,4.39969796,-5.284537733,11.71809197,-1.225461975
7.224711,-6.068713069,3.415372491,-76.70765685,0.208697595,-1.193954215,6.747994124,-6.209384859,2.003123239,1.897989482
7.233044,-6.109260559,3.489904285,-76.71599198,-1.238394782,-0.774980422,7.209104538,-5.528365553,8.55703771,-0.444294929
7.241377,-6.144387007,3.544166267,-76.7006836,0.210127208,-1.519829065,7.533853234,-5.043116749,5.838089898,2.133115173
7.24971,-6.168980479,3.575024247,-76.70448305,-1.463541843,-0.452977568,9.830357671,-3.663457453,3.295336663,-0.484282046
7.258043,-6.217269898,3.663720668,-76.70329285,-0.786685497,-1.076349797,7.820604383,-6.493315936,10.12088495,0.898640692
7.266376,-6.268948674,3.672470153,-76.6882858,1.864967916,-0.887687281,5.663300872,-7.082234203,0.415104387,1.510145098
7.274709,-6.316356898,3.767122269,-76.70798493,-3.829226881,-0.957646608,5.908829034,-6.232337952,11.09355533,-1.422323272
7.283042,-6.386198044,3.77649349,-76.6846657,3.608472377,-0.961303823,6.996759356,-9.294157743,0.370529443,2.487994194
7.291375,-6.455400348,3.826894582,-76.70904923,-3.962566048,-1.259269625,6.32311678,-8.836694003,5.902074336,-2.65818134
7.299708,-6.529597521,3.889034629,-76.7049217,1.319982916,-1.406419352,6.323260844,-9.648421883,6.910401166,0.935178936
7.308041,-6.6135813,3.857592463,-76.71078873,-0.728383765,-0.265619146,9.301230074,-10.75066733,-4.08923316,-1.673579916
7.316374,-6.680480957,3.94860357,-76.7074585,-0.26359757,-1.336885169,7.51825577,-8.763060809,10.3582387,1.263252944
7.324707,-6.721114397,3.884957791,-76.71075058,-0.051850542,0.130560525,7.720475695,-5.601667762,-7.973424672,-1.664746381
7.33304,-6.76935947,3.94443965,-76.70974353,-1.179323286,-0.837384775,7.38688606,-6.476131082,6.628059202,0.524169743
7.341373,-6.820009589,3.936184406,-76.71468733,0.645054311,-0.190003315,7.548878074,-6.80022043,-1.346252128,-1.071379051
7.349706,-6.855207443,3.932620823,-76.72130968,-1.559209004,-0.961028263,3.8818506,-4.870591998,-0.781336591,-1.202223592
7.358039,-6.880687237,3.979221404,-76.72449873,-0.018886074,-0.833553657,5.400661648,-3.762209475,5.155832231,-0.072196983
7.366372,-6.882116079,3.919516087,-76.72130965,-0.3000862,-0.593727082,12.12604141,-0.911674619,-7.601028562,-0.87762063
7.374705,-6.86624217,3.985646248,-76.73603058,-2.394860007,-0.515211487,7.728326916,1.29309607,7.648338677,-1.1694085
7.383038,-6.839973569,3.970297456,-76.72786713,1.881301794,-0.521628557,7.877948404,2.374109965,-2.387758672,0.351196751
7.391371,-6.819069267,3.981138826,-76.732975,-2.607094974,-0.381820381,8.832824469,1.815440893,0.929700717,-0.868028071
7.399704,-6.790732861,4.053787589,-76.72542953,0.892947808,-0.578298837,1.946804196,2.619673952,8.095261992,1.639397636
7.408037,-6.727860689,4.011497915,-76.71748353,-1.512749553,-0.399681771,6.471541613,6.752499669,-5.587726831,-0.088378862
7.41637,-6.677012205,4.096792638,-76.7121887,-0.918466326,-1.950292677,9.079341889,5.354333252,9.644430191,1.46002128
7.424703,-6.61167717,4.088887334,-76.70993805,0.088281527,-0.778782368,11.61173368,7.069830239,-1.410528138,-0.236925215
7.433036,-6.53817904,4.118085265,-76.70886233,-1.697063163,-0.665292639,9.4360528,8.123526097,3.017337777,0.140708566
7.441369,-6.487095595,4.185570896,-76.708004,1.018240869,-1.607056707,6.067205967,5.3660741,7.599366964,0.640291929
7.449702,-6.439275384,4.179087341,-76.71625138,-1.435098089,-0.613960946,6.770517111,5.10910523,-1.104677916,-1.488689728
7.458035,-6.416784883,4.226283312,-76.71279145,0.361698702,-1.074367613,6.134122014,1.943864403,5.136400162,0.689881045
7.466368,-6.389366627,4.25419873,-76.73002625,-1.237804629,-1.834638208,7.562119365,2.717023507,3.116452131,-2.05652535
7.474701,-6.372790575,4.226176143,-76.73114775,0.379908957,-1.445915431,10.31231058,1.29070431,-3.765866101,-0.916304523
7.483034,-6.352276683,4.239001811,-76.73987198,-1.054276869,-0.776374852,12.38319874,1.800911292,1.204179645,-1.245620348
7.491367,-6.324736834,4.225163698,-76.7465477,-0.517405939,-0.312265411,7.114525198,2.655117274,-1.999959484,-1.396196716
7.4997,-6.333444119,4.231693745,-76.7498703,0.285370935,-1.275421545,4.769658193,-1.742180943,0.379753396,-0.689150946
7.508033,-6.330811382,4.191951513,-76.7538948,-1.146555163,-0.44813272,6.112570405,-0.365431643,-5.111570418,-1.510023266
7.516366,-6.306059599,4.230751097,-76.75605393,-1.792983652,-1.469526664,8.95119822,2.283617735,4.21109882,-0.146939233
7.524699,-6.261886358,4.204290092,-76.74713515,0.84228614,-1.0397681,14.80004955,4.491293013,-3.708778561,0.315112696
7.533032,-6.21678102,4.227043033,-76.75354385,-1.628603429,-0.53105224,8.723500698,4.743484784,2.356132269,-0.851955142
7.541365,-6.190831184,4.186484397,-76.73011783,0.149095163,-0.09286348,9.979057907,2.207799554,-5.586077688,1.860227413
7.549698,-6.165663362,4.241327822,-76.7386284,-1.259717882,-1.676105183,-0.69392544,2.344618801,6.216511309,-0.690614298
7.558031,-6.127352953,4.194565058,-76.72761155,-0.856825829,-1.57025212,12.06914616,3.815600009,-6.165148975,0.288746208
7.566364,-6.090511441,4.250154912,-76.7355919,0.125585076,-1.070955802,11.3088963,3.735167712,6.294174553,-0.580108106
7.574697,-6.030225396,4.179987669,-76.72831348,-0.840786299,0.030361801,13.04565668,6.47698027,-8.90988779,-0.429566816
7.58303,-5.993795038,4.266168714,-76.7242813,-0.557137207,-1.944135964,2.252084613,3.591378732,9.795518756,1.204371829
7.591363,-5.973791123,4.203591228,-76.72175598,-1.32597065,-0.953881558,8.891580343,1.66648829,-7.939780713,-0.900740735
7.599696,-5.969772458,4.288453698,-76.7257576,-1.007136069,-2.662741378,11.00113785,-0.200601079,9.731319306,0.232811034
7.608029,-5.932459235,4.225034773,-76.71100618,1.066193439,-0.862237454,12.72415686,3.622269452,-8.188991308,0.548115765
7.616362,-5.912409782,4.283618867,-76.72218703,-2.104191743,0.02794458,8.520058751,1.783077225,6.68766947,-0.983157613
7.624695,-5.909811974,4.258353949,-76.7137909,-0.542658925,-1.100038558,6.223565385,-0.490528554,-3.559440782,0.313073186
7.633028,-5.903635502,4.351891577,-76.721035,-1.759016067,-0.951725988,7.959398626,0.086095794,10.81055677,-0.099415303
7.641361,-5.868889451,4.341011345,-76.70729828,0.540494479,-0.909200652,8.653670461,3.328118325,-1.9088974,1.136673182
7.649694,-5.80363214,4.437405586,-76.7016106,-2.055076063,-1.076730585,13.56725085,7.054962754,10.99736083,1.433942825
7.658027,-5.781231046,4.417779386,-76.697258,1.038483508,-1.373335347,10.8837217,1.924529031,-2.834668399,-0.081395726
7.66636,-5.755135059,4.514577746,-76.69003678,-2.38066224,-0.755216032,8.651338459,2.350846827,11.0272851,1.579537332
7.674693,-5.771301627,4.516552687,-76.69359588,1.645600602,-1.850735668,0.946827561,-2.64062953,-0.158166409,-0.75409915
7.683026,-5.762520313,4.576773763,-76.69449235,-4.399562031,-1.427123413,12.28877476,0.363650501,6.757022634,0.157706592
7.691359,-5.775441766,4.607014418,-76.69664763,2.50203532,-1.596178949,11.47988272,-2.275511444,3.198639035,-0.225283429
7.699692,-5.760782957,4.65094471,-76.69927978,-3.561732151,-1.027734444,13.88772321,1.089044362,4.834842084,-0.243697346
7.708025,-5.802513838,4.704765022,-76.69979475,2.503092736,-0.764860607,6.649936859,-5.744267941,5.996222767,0.219030827
7.716358,-5.827496886,4.736897052,-76.71085738,-3.632035121,-0.743053727,6.887748063,-3.601464525,3.529783859,-1.367044777
7.724691,-5.882913113,4.843126416,-76.71539308,0.552085183,-1.930474356,4.044280365,-7.324508011,12.29069868,0.4164716
7.733024,-5.927711725,4.892881394,-76.72831725,-2.013962418,-1.198722072,13.72079659,-5.974617511,5.662964792,-1.368751034
7.741357,-5.971587062,4.997039557,-76.73983383,-0.273288325,-1.895006091,9.945170642,-5.852840363,12.12989909,-0.438329965
7.74969,-5.982421279,5.034576297,-76.74051288,-0.41497732,-0.217683595,12.57698155,-2.031180024,4.052899121,-0.036205739
7.758023,-6.017318487,5.16923821,-76.7549553,-0.738086209,-0.662412402,6.67845118,-4.749009371,15.80692625,-0.384216547
7.766356,-6.082488418,5.194813252,-76.74147033,0.008067118,-0.974782594,11.39051974,-8.690884934,2.446787059,1.493770972
7.774689,-6.14260459,5.356607914,-76.76324463,-1.936802566,-1.61238794,1.355622962,-7.701909691,19.14070082,-0.895557322
7.783022,-6.202415944,5.337320209,-76.74663925,0.661215425,-1.098285705,13.1304791,-8.05425644,-2.953840374,1.261027409
7.791355,-6.228505731,5.496771455,-76.76148988,-0.894626618,-1.588957056,9.445883751,-3.709031999,18.77588105,-0.067596287
7.799688,-6.265233636,5.433831096,-76.7600441,0.1519624,-0.117180802,13.54277933,-5.128812462,-7.966581853,-1.066992972
7.808021,-6.310967207,5.621878028,-76.7747078,-2.137400448,-1.017014607,6.994684487,-6.057925223,22.18227911,0.35365572
7.816354,-6.37217617,5.575713992,-76.77833938,1.350759417,-0.622203589,6.521082281,-8.007962226,-5.897627711,-1.471605286
7.824687,-6.424337983,5.73635745,-76.79354858,-3.145813189,-1.932470769,6.706975638,-6.802769423,18.91720235,-0.032725259
7.83302,-6.467281938,5.670280576,-76.795002,2.9945741,-1.045150176,11.04670262,-5.867383063,-8.290897964,-1.497943316
7.841353,-6.490594506,5.77938962,-76.81435775,-3.790307783,-1.117230624,13.68805325,-3.274652854,12.82503623,-1.198765282
7.849686,-6.546362043,5.738469482,-76.80895233,2.90137352,-0.331681127,8.793034255,-7.4840104,-5.386697531,-0.338703617
7.858019,-6.596514464,5.804696083,-76.82214738,-3.843893796,-0.870450428,6.670102373,-6.580073998,7.636543274,-1.06119778
7.866352,-6.645712257,5.796841383,-76.82086185,1.391758237,-1.525968835,3.544382751,-6.634728998,-1.396328435,-0.3406662
7.874685,-6.658012867,5.809658885,-76.82358933,-2.215413166,-0.534208156,17.87334061,-2.164332614,1.128000738,-0.568741694
7.883018,-6.662726283,5.856379867,-76.83332443,0.420383483,-1.151664749,8.085390212,-1.16987586,5.265112755,-0.885945283
7.891351,-6.669612646,5.812120557,-76.81810378,-0.810572326,0.036966935,10.15267682,-1.721369505,-5.926074983,0.758354299
7.899684,-6.694642425,5.944813728,-76.83971023,-1.542656183,-1.472173497,1.766941608,-3.476854295,15.67922139,-1.090251051
7.908017,-6.720151186,5.852389455,-76.82642365,-0.23065493,-1.614204189,14.59640026,-3.916753009,-11.64406487,-0.139123514
7.91635,-6.713749409,6.009060025,-76.8434372,-0.755457446,-1.448876048,9.342278063,0.235212542,18.47301889,-0.214404315
7.924683,-6.720809579,5.878884435,-76.83753585,1.301319748,0.198122054,11.68984673,-1.627189874,-16.03742981,-1.52153711
7.933016,-6.722086906,6.02052772,-76.84635163,-3.382200122,-1.349068858,5.978043228,-0.772475004,16.56597131,0.53804009
7.941349,-6.754588723,5.920940638,-76.84560775,2.263123035,-1.038511433,6.711883186,-4.624091215,-12.31921911,-1.700580895
7.949682,-6.759084583,5.991562963,-76.85837555,-3.634602934,-1.937413007,12.42389458,-1.099244639,8.157106519,-0.946042687
7.958015,-6.77069974,5.927935004,-76.86108018,3.017148346,-1.139953522,10.04079306,-2.087000236,-7.983000757,-1.584388018
7.966348,-6.766543746,5.922925592,-76.8727951,-3.982807681,0.656254769,13.66740799,-0.071841165,-0.870590924,-1.891380876
7.974681,-6.780114889,5.938795924,-76.87760165,1.790239066,-1.775755525,1.040554762,-2.289409876,1.514954301,-0.696255874
7.983014,-6.778536201,5.862793207,-76.87344743,-1.940035612,-0.432207435,10.99241924,-0.593750939,-9.547533035,-1.025053233
7.991347,-6.770157814,5.94110775,-76.88441848,-1.240444174,-1.701003514,8.321927548,0.434702933,9.041509629,-0.541030198
7.99968,-6.745124817,5.821774006,-76.86061098,0.477260411,-0.354024234,16.70618486,1.98959218,-14.98889789,0.680909634
8.008013,-6.724876285,5.949803352,-76.8824234,-2.266893268,-1.454331666,3.765345186,1.97455603,15.1197716,-1.135379879
8.016346,-6.743507147,5.792320609,-76.8639221,1.659813166,-0.776428666,8.481296299,-3.180326239,-19.46183539,-0.456948895
8.024679,-6.738974333,5.905696511,-76.88708878,-3.383909583,-1.716160215,6.558389128,0.099610895,13.39582199,-1.53167057
8.033012,-6.73919487,5.753285766,-76.8727951,1.766960085,-0.860197393,14.27661678,-0.904653162,-18.80504918,-0.846521967
8.041345,-6.719708562,5.847502589,-76.88581468,-3.781626612,-0.894931689,13.3950572,1.766790241,10.9715271,-0.625643745
8.049678,-6.728538752,5.782053113,-76.88977435,2.389375449,-1.030972242,4.370550334,-1.741630733,-8.180281701,-1.771314204
8.058011,-6.745403528,5.802415133,-76.88982393,-3.710574389,-0.798761547,10.22378135,-2.730621796,1.986496328,-0.137442831
8.066344,-6.746314883,5.829168797,-76.88855743,1.349803027,-1.611114025,8.257192016,-0.844988048,2.733259975,0.118027214
8.074677,-6.732792854,5.728016973,-76.88043213,-0.430252686,-0.486503339,13.013044,0.807011649,-12.60637474,-0.868431531
8.08301,-6.714171767,5.841699481,-76.89207078,-2.823012106,-0.907397915,8.871791542,1.659988165,13.27200639,-0.21266541
8.091343,-6.724101305,5.72828567,-76.88417435,3.112616062,-0.80049071,6.857318192,-2.020973802,-14.06157767,-1.013866037
8.099676,-6.682769656,5.753915072,-76.89161683,-5.613278925,-0.690610139,14.90823364,4.354913205,2.714859665,-0.97447782
8.108009,-6.66427362,5.780420303,-76.89319993,3.879048735,-1.772157014,8.606419623,1.496230572,2.744508028,-0.147973389
8.116342,-6.647184253,5.653566361,-76.90015033,-2.846479595,-0.289034177,8.210243134,1.430207726,-15.45994687,-3.069297314
8.124675,-6.629187227,5.761212826,-76.91608048,-1.194651582,-1.976063341,9.913544355,1.622780778,12.6103723,-0.733290944
8.133008,-6.604614615,5.614417434,-76.90935135,1.032062024,-0.856158643,14.68568301,2.152867559,-18.02698064,-1.670058277
8.141341,-6.580364943,5.66048944,-76.91880035,-2.521609054,-1.00526315,5.760136426,2.299998477,5.186252415,-0.891164057
8.149674,-6.54122901,5.594215393,-76.91706848,-0.306845948,-0.508594513,11.27024841,3.960927874,-8.3629328,-1.111638651
8.158007,-6.514852286,5.645730019,-76.92381668,-0.775566932,-2.19985193,13.61189079,2.520408898,5.793040632,-0.48277713
8.16634,-6.488197327,5.546574235,-76.92099763,-0.377195776,0.099482559,11.07507785,2.445883603,-12.28852749,-1.473010868
8.174673,-6.410655976,5.630265117,-76.92702868,-2.726286583,-0.964378961,7.475262791,8.679096818,9.613790452,0.013159514
8.183006,-6.368939877,5.581843257,-76.92710493,1.67776376,-1.255461857,11.88830806,4.26198855,-6.203852632,-1.055069585
8.191339,-6.329903126,5.522951245,-76.92840575,-1.712049603,-1.380555332,13.87293601,4.002381989,-7.448740244,-1.37397984
8.199672,-6.273554564,5.622426271,-76.95876695,-2.063795388,-1.382408112,9.817649365,6.376408696,11.83201152,-2.706221193
8.208005,-6.228500366,5.524321079,-76.95333483,0.350890681,-0.931890749,12.74458623,4.640242606,-12.21432138,-1.02298449
8.216338,-6.19273901,5.609347224,-76.9634323,-3.39863649,-0.923067525,15.90482616,3.671810329,9.840788603,-0.526094034
8.224671,-6.170431972,5.600404978,-76.96868513,1.223628744,-2.065958202,12.50008261,2.032896161,-1.441626683,-1.106182739
8.233004,-6.131065011,5.609129429,-76.97194673,-1.540514022,-0.999451123,10.3013165,4.04074806,0.651248513,-0.745966539
8.241337,-6.099265933,5.576291204,-76.9762535,2.232287862,-1.615008166,11.67038536,3.144567043,-4.303969692,-1.287381113
