,time,Euler_X,Euler_Y,Euler_Z,Acc_X,Acc_Y,Acc_Z,Gyr_X,Gyr_Y,Gyr_Z
0,0.0,-1.788329184,3.7067918779999998,28.9850464,-2.6035140455000003,-0.322813362,12.499768735,-20.78190613,45.029045104999994,1.3141283984999999
1,0.0083330000002206,-1.962894499,4.1211025715,28.989299800000005,-3.2185480589999997,0.06724837449999999,14.50525284,-22.657485010000002,49.570280075,1.769627571
2,0.0166659999999865,-2.1488164665,4.538183689,28.9883194,-1.3190288545,-2.515129089,19.615419385000003,-24.056129455,49.88225174,1.2064594924999998
3,0.0249990000002071,-2.350905299,4.998311758,28.9911041,-4.907522439999999,-0.541493118,18.868475915,-25.986307144999998,55.058607105,2.132808506
4,0.033331999999973,-2.5785695315000003,5.425616741000001,28.978542349999998,1.1716395019999999,-2.9725706575000004,16.03833485,-28.927635195,51.15370941,0.20342838750000003
5,0.0416650000001936,-2.7699671985,5.887722015,28.9844017,-4.726297855,-0.5165097114999999,13.933980465,-24.77236843,55.259937285,2.9145957229999997
6,0.0499979999999595,-2.991885543,6.2896289825,28.963035599999998,-0.3579662445,-0.45965154450000006,11.28298092,-28.075807575,48.154613495,-0.5945143995
7,0.0583310000001802,-3.222553134,6.7545182705,28.958801250000008,-1.6843355895,-3.1094654795,12.219289779,-29.36557388,55.633968355,2.14788276
8,0.0666639999999461,-3.478743434,7.1617200375,28.92918015,-2.868310511,0.28957627750000003,16.73914337,-32.04112911,48.85185242,-1.1470281254999999
9,0.0749970000001667,-3.7192466260000003,7.637637376500001,28.902591700000002,-2.8368207215,0.3915919665,17.804519655,-30.200724604999998,57.09902382,0.0528939665
10,0.0833299999999326,-3.9769506455,8.0184407235,28.876644150000004,-0.5734610554999999,-2.9175236225,18.83068466,-32.183755875,45.662475584999996,-0.5302800535
11,0.0916630000001532,-4.2199323175,8.481917619499999,28.839412699999997,-3.9904760125000003,0.3834310175000001,16.44301939,-30.2898674,55.695358275000004,-0.80696702
12,0.0999959999999191,-4.481679677500001,8.840856075,28.810493499999993,0.9634242355,-1.2322414815,12.091934680000001,-32.571084975,43.074548725,-0.695991904
13,0.1083290000001397,-4.7298243045,9.2271022785,28.777297949999998,-4.8999537225,-1.2550566195,16.967647075000002,-30.9305439,46.42231941,-0.567382991
14,0.1166620000003604,-5.0018486975,9.6106481565,28.7395401,0.08980655650000013,-0.8786176145,15.771639344499999,-33.56970978,46.104047775,-1.068911195
15,0.1249950000001263,-5.3177509305,9.8839707375,28.710418700000005,-1.7273523510000002,-2.234778881,9.525393485999999,-39.09753799,32.883600235,-0.8550696375000001
16,0.1333280000003469,-5.592836857,10.2727913835,28.6729622,-3.7651525735,-0.3512515425,17.87382126,-33.894989965,46.740436555,-0.5153599085
17,0.1416610000001128,-5.8934545515,10.538054941999999,28.632267000000006,1.281867474,0.473743692,16.272789477,-36.93948555,32.055534365,-1.9770832655000001
18,0.1499940000003334,-6.206955433,10.810292244,28.604980449999992,-3.4387617114999998,-1.548239529,16.047618865,-38.714069365,32.705842974999996,-0.293097928
19,0.1583270000000993,-6.4675579075,11.105407714999998,28.553318000000004,-1.804953456,-0.30892333400000005,19.032996175,-31.837960244999998,35.770664215,-2.512550116
20,0.16666000000032,-6.720798254,11.331261155,28.521987949999996,-1.5390512645,1.0161834355,13.624273299999999,-31.355591775,27.228862765000002,-1.085885048
21,0.1749930000000858,-6.9467818735,11.53147745,28.494369500000005,-0.8509220630000001,-1.7437836304999998,10.97919798,-28.195973395,24.141374585,-0.7343289550000001
22,0.1833260000003065,-7.1254334450000005,11.676181315000001,28.469665499999998,-1.2317830325,0.2973840535,12.292491915,-22.5848875,17.457951545,-1.128980249
23,0.1916590000000724,-7.3063302045,11.83622217,28.436691299999993,-1.8849210145000002,1.374469951,16.623466965,-22.624391555,19.43796253,-1.8033142684999999
24,0.199992000000293,-7.4767637255,11.963625910000001,28.41703795,-2.251824975,-1.423506618,20.60757923,-21.658928875,15.337844370000001,-0.7827843910000001
25,0.2083250000000589,-7.6043736934999995,12.05259848,28.396270750000006,-0.689712346,-0.079980046,17.844057085,-16.551918505,10.806015965,-1.3915644135
26,0.2166580000002795,-7.713327169499999,12.092731480000001,28.381240849999998,-1.30505541,0.2924407645,14.137650489999999,-14.415098665,4.8755488395,-1.454241857
27,0.2249910000000454,-7.755487442,12.093404295,28.384963950000007,-1.9204319865000001,-1.2192399425,10.135812282,-6.911444664,-0.076547861,0.0713995395
28,0.2333240000002661,-7.764157533500001,12.06794739,28.37866975,-0.64631433,1.026021719,10.9249863635,-2.592070758,-3.0555602459999998,-1.5177136955000001
29,0.2416570000000319,-7.7778007984999995,12.02618313,28.37942125,-2.1734176874999998,0.5647563339999999,16.985217095,-3.3994576935000005,-5.0769662855,-0.966854304
30,0.2499900000002526,-7.779239416,11.984536645,28.39171985,-2.1985218525,-2.178229511,18.855773925,-2.1693719625,-5.2695717815,0.36773061750000013
31,0.2583230000000185,-7.75796628,11.89713764,28.403015149999995,-1.621083155,0.6667680145000001,17.90681362,0.5000540019999999,-10.6696310065,-0.482418597
32,0.2666560000002391,-7.7230453489999995,11.76881981,28.417381250000005,-1.4424529074999999,-0.8662483395,9.9977121335,2.1216019395,-15.61563873,-0.7177751065
33,0.274989000000005,-7.641294241,11.649538515,28.431545250000006,-2.5864557025000003,-1.121155918,9.923327686,7.716309309,-14.506299015,-0.6390496455
34,0.2833220000002256,-7.54799819,11.523814680000001,28.440601349999994,-1.5134676249999999,0.1965572835,10.90013838,9.2495903965,-15.225763794999999,-1.2487072030000002
35,0.2916549999999915,-7.45974946,11.346603395,28.444393149999996,-1.1105047765,-0.851816833,11.519247054000001,8.764511347,-21.24090481,-2.710211754
36,0.2999880000002122,-7.369753837499999,11.17285633,28.46339415,-2.17396003,-0.40477171549999996,13.38860035,8.623131751999999,-21.090316774999998,-0.7914546579999999
37,0.3083209999999781,-7.2765865325,10.997472285,28.469493850000006,-1.2396789495,-0.28875443,14.417983535,9.304522039,-21.066991805,-2.341929734
38,0.3166540000001987,-7.179409027,10.7615542405,28.4965744,-1.798170567,-1.1403897405,12.69340992,9.309276341,-28.609142300000002,-0.726490658
39,0.3249869999999646,-7.074134111499999,10.586038112499999,28.50379565,-3.1217091085,-0.8858322055,12.38220167,10.748576165,-21.106850625,-2.136618674
40,0.3333200000001852,-6.9761998655,10.3782753925,28.533218350000006,-1.374986917,-0.6243689695,11.544950964,9.3618092515,-25.291183475,0.060846649
41,0.3416529999999511,-6.8908975125000005,10.133736131500001,28.54480745,-1.991011441,-1.7376188635,12.162249565,8.25805521,-29.39636135,-2.5548876525
42,0.3499860000001717,-6.7952046395,9.92118788,28.573974599999993,-1.7987027164999998,-0.1376698425,12.366811275,9.1273622515,-25.85632515,0.055890307
43,0.3583189999999376,-6.713268757,9.6759862925,28.588695550000004,-2.6391091345,-1.3476632835000002,10.067772864,7.809281111000001,-29.526737215,-2.1011055115
44,0.3666520000001583,-6.6285231115,9.488714695999999,28.603065499999992,-1.851712391,-0.5044921785,11.98557186,8.1423664095,-22.641452790000002,-1.2359196395
45,0.3749849999999242,-6.5789432525,9.228997707,28.603923800000004,-1.1840344779999998,-1.2477061745,10.498707294999999,4.184953033999999,-31.07111168,-3.8593963385
46,0.3833180000001448,-6.509023905,9.011616229000001,28.6219902,-3.3545206785,-1.0328404905,8.8184084905,6.310153961499999,-26.28273964,-1.1671391355
47,0.3916510000003654,-6.446011543,8.8595066055,28.610134099999996,-2.1851752995,-0.825845763,10.719305995,6.037731408999999,-18.078409195,-3.8296301364999996
48,0.3999840000001313,-6.404198885,8.587156057,28.610061599999995,-0.8677780925,-1.2309188844999999,7.8197977545,3.286444366,-32.60173416,-3.9680268764999997
49,0.408317000000352,-6.3658869265,8.49147892,28.589946750000003,-4.11200726,-1.6766981484999999,9.213072778,3.2090093495,-11.2453742,-4.021300912
50,0.4166500000001178,-6.3646268845,8.275545835500001,28.575576750000003,-0.23209694749999998,-0.9289591909999999,8.816737889,-1.3326773045,-25.689394955,-4.8721441035
51,0.4249830000003385,-6.340502501,8.2160665985,28.536979700000003,-4.7081980705,-1.2519129515,9.4564571385,1.7994577885,-6.686385272500001,-5.7174494265
52,0.4333160000001044,-6.328699112,8.1049275395,28.523967749999997,-0.9710439369999999,-0.480503837,5.6240175805,-0.0918525455,-13.213930130000001,-3.3123753670000005
53,0.441649000000325,-6.3550479415000005,8.0093221665,28.474494900000003,-1.818653613,-1.7822669145,6.7129335405,-4.0693405865,-10.85381031,-7.478980303
54,0.4499820000000909,-6.382810354,8.03320837,28.4535828,-5.1904006005,-0.7159989775,6.850090742,-4.761039734000001,2.997288227,-2.460420132
55,0.4583150000003115,-6.4261748789999995,8.048703432,28.38866424999999,0.01708090300000009,-1.2586190405,7.7005519855,-5.7924358845,2.6048465965000003,-7.820686579
56,0.4666480000000774,-6.495732069,8.023799658,28.381114950000004,-3.211697452,-0.571866304,4.1563234925,-10.031578065,-2.995770663,-1.5490851104999999
57,0.4749810000002981,-6.5498535635,8.253340483,28.309433,-3.668270707,-0.76660163,10.982749464000001,-6.9482192995,28.22990227,-5.689329624
58,0.4833140000000639,-6.6270263195000005,8.243367195000001,28.313839,1.1565871235000003,-1.100418165,-0.4700150489999997,-11.144198893999999,-1.3736925125,0.034655689999999906
59,0.4916470000002846,-6.699893235999999,8.537091732,28.259548199999998,-6.729800227,-0.5486240385000001,8.5527024095,-9.4748272885,35.650385855,-2.6641632315
60,0.4999800000000505,-6.773394823,8.6585161685,28.253219599999994,2.135172844,-0.108955711,-2.1757636090000005,-10.50093603,14.4282650965,0.6279587744999999
61,0.5083130000002711,-6.878676414499999,8.907482624,28.208221399999992,-4.2461090085,-0.4171150775,9.519358874,-13.51353979,30.19519806,-2.1072464285000003
62,0.516646000000037,-6.9764511585,9.126010416,28.169517500000005,0.88076517,-0.7038140595,6.3626396655,-12.792916298000002,26.453881265,-1.728129387
63,0.5249790000002577,-7.052883387,9.3261117915,28.125587499999995,-2.5625406505,-0.9701749085,-0.2680263519999999,-10.056866167999999,24.366051675,-2.5925914050000003
64,0.5333120000000235,-7.121589183999999,9.573498727,28.063510900000004,-0.5190667545,-0.07232034199999998,1.209730983,-8.7979280925,30.235897065,-3.9694474935
65,0.5416450000002442,-7.2149717805,9.7615327815,28.01960375,-0.099604949,0.4159095995,4.8275175095,-12.008173228499999,22.932726860000002,-2.699979514
66,0.5499780000000101,-7.3210527895,9.968882085,27.944232950000007,-0.3914926315,-0.1149276495,10.300970552,-12.971820834999999,25.677618029999998,-6.032073498
67,0.5583110000002307,-7.396586657,10.1248703005,27.92074205000001,-1.4293583035,-0.79704085,6.441903352500001,-10.2420921345,18.817381859999998,-0.7157135010000002
68,0.5666439999999966,-7.447130442000001,10.2941226935,27.854850750000004,1.0328025815,-0.6728126485,-0.372757554,-6.487923663999999,21.021004675,-5.4466843009999995
69,0.5749770000002172,-7.4792847635,10.391776084,27.845214849999998,-2.4519155325,-0.12177628250000005,-2.927454591,-5.303114175999999,11.659504412499999,0.03282439700000017
70,0.5833099999999831,-7.5023472305,10.500749112000001,27.78720095,3.2503730355,0.5116370915,2.1576256305,-3.318766423,13.73254442,-5.434708357
71,0.5916430000002038,-7.533421516000001,10.5469231605,27.789615650000002,-3.540827036,0.5824472605,5.0219720599999995,-5.4520866869999995,5.351858735,0.6450046299999999
72,0.5999759999999696,-7.5476324560000005,10.5697565065,27.740909599999995,3.7579169275,-1.1914450525,5.416312933,-2.4446481465,3.343483925,-5.688441515
73,0.6083090000001903,-7.533447981,10.565921785,27.754150399999993,-4.3375445605,1.2923084495,3.072320163,-0.267707229,-0.7634196280000001,1.126078725
74,0.6166419999999562,-7.515434742,10.5102386475,27.721847500000003,3.660079479,-1.619786501,0.23333084599999998,1.0915892125,-6.2535429,-4.9958198075
75,0.6249750000001768,-7.4596326355,10.4382286055,27.739143399999996,-2.7969851495,1.079334587,1.7617346310000002,4.6209938525,-8.93537903,0.5310728849999999
76,0.6333079999999427,-7.4218053815000005,10.3031106005,27.727573400000004,2.9120199085,-0.2012915015,2.7541308995,3.025432587,-16.02775955,-3.7859449385
77,0.6416410000001633,-7.356347799,10.162670611500001,27.745277400000006,-2.7447344065,-0.46760857149999996,4.0082963705,5.747279346,-17.082643985,-0.4649882335
78,0.6499739999999292,-7.282526493000001,9.9686708455,27.74106214999999,1.886890739,1.4617394504999999,3.133638263,7.229807615,-23.153264045,-3.7777625919999998
79,0.6583070000001499,-7.1850399975000006,9.7592658975,27.7517395,-1.4700299055000001,-1.6215099689999999,2.9117272495,9.7344326955,-25.188817025,-2.285438001
80,0.6666399999999157,-7.0634212495,9.502470017,27.75395964999999,1.221913472,0.3066046235,3.096779775,12.8474412,-30.73749256,-3.8701805474999995
81,0.6749730000001364,-6.97287488,9.242050168999999,27.769474049999992,-0.8353263734999999,0.16978386050000005,1.1423105,8.7852108475,-31.340729715000002,-2.372796394
82,0.683306000000357,-6.865529299,8.9293222435,27.793529500000005,0.660303891,-1.4931969645,2.8994569180000003,10.731142522999999,-37.72212982,-1.9966968299999999
83,0.6916390000001229,-6.737630606,8.61344862,27.814533200000007,-1.290092468,1.1400778595,3.9118289945000004,13.19816923,-38.03439522,-2.389767274
84,0.6999720000003435,-6.623425722,8.2847449775,27.855602299999994,0.11687137199999997,-0.18368434899999997,1.993981302,11.305032731,-39.867547990000006,-0.03767847999999985
85,0.7083050000001094,-6.490193367,7.931905508,27.881484999999998,-0.475731492,-1.8482154905000001,2.4470273255,13.766746524999999,-42.51621437,-2.160487354
86,0.7166380000003301,-6.3456285,7.570551872,27.930923449999995,-0.947641894,1.4029299615,3.4076397414999997,14.85169172,-43.872892379999996,0.7200814485
87,0.724971000000096,-6.221629381,7.2004916665,27.958374050000003,0.01054996250000001,-0.7353861705,3.0581039635000002,12.708916665,-44.599430080000005,-1.985984266
88,0.7333040000003166,-6.083862305,6.8171639445,28.01082995000001,-0.39709605300000006,-1.5354972555000002,3.977070451,14.03659678,-46.528745650000005,0.9988163559999998
89,0.7416370000000825,-5.9508018494999995,6.4350280765,28.039093,-1.692591101,1.4797243475,2.797363162,13.82720089,-46.058940885,-1.8295453190000002
90,0.7499700000003031,-5.8211541175,6.0386676784999995,28.0906982,0.2047080994999999,-1.3791508975000002,2.5956841710000003,13.17640781,-48.068798064999996,0.9823464749999999
91,0.758303000000069,-5.6680686475,5.6571590905,28.11985395,-1.391516149,-0.6154866219999999,2.4541954995,16.270150185,-46.001859665,-1.489298224
92,0.7666360000002896,-5.5363924505,5.258245468,28.17087935,-1.0008568765,1.643073818,2.508722663,13.485265255000002,-48.360622405,1.1305246205
93,0.7749690000000555,-5.3908543585,4.8596197365,28.19010925,-0.10892206400000004,-3.1562149525,5.1261065005,15.556104659999999,-47.938196180000006,-2.632950783
94,0.7833020000002762,-5.2480189799999994,4.471892953,28.243942249999996,-1.4587613050000001,1.9386652705,3.5437312725,14.85292673,-47.05006218,1.847385824
95,0.791635000000042,-5.128702879,4.058644414,28.250343299999997,0.706337422,-1.392545216,3.5357482430000005,12.549447055,-49.556930545,-4.092543244
96,0.7999680000002627,-4.994315863000001,3.671310186,28.303272250000006,-3.4221333265,-1.6282268759999998,3.0524201394999997,13.939469815,-46.987091065,1.9975751635
97,0.8083010000000286,-4.8594915865,3.2680540085,28.306572000000003,2.238082498,1.6966701745,3.9401272535,14.468827725,-48.346250535,-4.1305925850000005
98,0.8166340000002492,-4.753778219,2.895077348,28.347000100000002,-4.018125474500001,-1.221929252,2.3725373149999998,10.6240301145,-45.135715485,0.8598586920000001
99,0.8249670000000151,-4.6302719115,2.494311035,28.360572799999993,1.7379625439999997,-1.8781298400000002,4.3954991105,13.097926139999998,-48.16186905,-2.682649493
100,0.8333000000002357,-4.517918825,2.155822098,28.373817449999997,-4.0122612195,1.4905604124999998,3.3762553335,11.598368645,-40.747657775,-1.8622224925000002
101,0.8416330000000016,-4.425071478,1.7871787845,28.392063150000006,1.7314917445,-0.8203172679999999,2.8513566255000002,9.421528815999999,-44.37081337,-1.641007185
102,0.8499660000002223,-4.3232865335,1.465627596,28.395027149999997,-3.653302908,-2.438096702,4.1030874255,10.39304781,-38.63200569,-2.808990359
103,0.8582989999999882,-4.232355118,1.1426844085,28.41656495,0.9079397615,2.3144342895,4.1143134235,9.2045598025,-38.936172485,-0.6877188680000001
104,0.8666320000002088,-4.16850543,0.861052334,28.386932350000002,-3.0720508695,-2.5996697545,3.0577249525,5.899739503999999,-33.577384949999995,-6.2340192815
105,0.8749649999999747,-4.0830905435,0.5749138295,28.428123500000005,0.3650249240000001,0.31800614250000003,5.4512598515,8.563252925,-34.69953632,2.0859230755000002
106,0.8832980000001953,-4.019515395,0.34117677799999996,28.3735771,-2.5184913580000003,-0.27019689999999996,3.6470625995,5.8551180365,-27.650353430000003,-8.7153351285
107,0.8916309999999612,-3.9642381665,0.10239779949999994,28.41685105,-0.5169907215,-0.31136244500000004,3.7890404465000005,4.95682621,-29.04323101,2.8067069050000004
108,0.8999640000001818,-3.9059563875,-0.08801573499999993,28.344543450000003,-2.20186311,-2.0963354115,4.423638821,5.2093682285,-22.333813669999998,-10.428246973
109,0.9082969999999476,-3.8455543514999997,-0.254746586,28.390514400000008,-0.6934974345,2.560134649,4.300654471,5.5808641915,-20.433835979999998,3.773829639
110,0.9166300000001684,-3.812858224,-0.40189608949999994,28.304397599999994,-1.4459026455,-2.9571754340000003,3.072525263,2.083712518,-17.062780855,-11.690692426
111,0.9249629999999344,-3.762060046,-0.5239654185,28.358440399999992,-1.9695280645,0.20706784700000003,4.973835468000001,4.4659394025,-15.142763135,5.126696825
112,0.9332960000001548,-3.7391644715,-0.5831117029999999,28.257293700000005,-0.8198029994999999,-0.506186724,2.7041327204999996,0.8552530705000001,-6.423570633000001,-12.782907965
113,0.9416289999999208,-3.7126955985,-0.666569263,28.304828649999997,-1.8264627454999998,0.7473969905,4.7565678355,1.5336459040000001,-10.4640877245,4.663936257
114,0.9499620000001414,-3.6981240509999997,-0.6524559555,28.197578449999995,-1.4014280440000002,-2.355048299,4.405441165,-0.12977439150000003,2.3873879909999998,-12.938628195
115,0.958295000000362,-3.68843019,-0.673582405,28.236793499999997,-0.9528832135,0.6736206634999999,4.066019773500001,-0.5361315685000001,-2.935532093,4.152176261
116,0.966628000000128,-3.6972593065,-0.610162541,28.128093749999998,-2.2678240535,-0.42553365200000004,2.3981598615,-2.912057325,8.3008645785,-12.73413849
117,0.9749610000003486,-3.6954219339999996,-0.5524634125000001,28.137161250000005,-1.227674186,-1.2988564820000001,4.4890737535,-1.51982674,6.7376519429999995,1.15766722
118,0.9832940000001144,-3.7069300409999997,-0.43127507,28.049377400000004,-0.5080454945,1.314733744,3.3787559270000003,-3.1867890955,15.06117916,-9.8555207235
119,0.9916270000003352,-3.715214014,-0.33001777499999996,28.03854369999999,-2.5638355915,-0.75286454,5.694269418999999,-2.747799277,12.10859966,-0.879983507
120,0.999960000000101,-3.7163562775,-0.13262757649999996,27.957439449999995,-0.13937401749999978,-0.7365291715,3.18929255,-1.8958964795000002,24.135573385,-8.4674761295
121,1.0082930000003216,-3.7396500115,0.021264195500000027,27.927837399999994,-2.705358386,-0.33207225399999996,5.404909611,-4.5516700745000005,18.55673027,-2.711452961
122,1.0166260000000875,-3.7402035,0.2719461325,27.859985349999995,0.6694912910000004,0.772122443,3.2632735075,-1.7591293455,30.417642594999997,-6.4659025670000005
123,1.0249590000003082,-3.78714335,0.4751554425,27.813736000000006,-2.9196817875,-1.7555137054999999,4.16417706,-7.383006572499999,24.59288883,-4.307875216
124,1.033292000000074,-3.8182070255,0.7747401890000001,27.759910599999998,-0.12759840450000004,-0.7391470525,3.36049664,-5.3266853095,36.172021865,-4.387614399
125,1.041625000000295,-3.878362894,1.04394849,27.695865650000002,-2.3765073885000003,0.41570715649999995,2.4764870405,-8.915691136500001,32.644641875000005,-5.867927224
126,1.0499580000000606,-3.9119662045,1.370979145,27.65717315,-0.076806307,-0.018964011000000003,5.3200464245,-5.5606210229999995,39.337310795,-2.2755718230000004
127,1.0582910000002812,-3.9579111335,1.6894806624999998,27.594680750000002,-1.7032072245,-0.962455802,4.501779556000001,-7.1361424925,38.54220009,-5.2261116795
128,1.066624000000047,-4.024473071,2.02672863,27.5827751,1.4660512655,-0.431929648,6.2306234835,-9.609149458000001,40.34181404,1.0455635785000001
129,1.0749570000002675,-4.090285778,2.3428773285,27.523189549999998,-3.33665061,-0.04837077849999999,4.7591422795,-9.4184384345,38.245407105,-4.8104040325
130,1.0832900000000336,-4.173248768,2.6556655765,27.511760699999996,3.39478755,0.434693515,3.8260326385,-11.588775634000001,37.40855217,0.9640840290000001
131,1.0916230000002545,-4.2221906185,2.9176144600000002,27.436222049999998,-1.319524087,-2.0883803965,6.782894137,-7.214097022999999,31.910303115,-7.096744059000001
132,1.09995600000002,-4.253700971500001,3.121068597,27.425933850000007,1.712986901,2.9091209175,7.4764549735,-5.4242334365,24.325985905,0.01096302250000003
133,1.1082890000002408,-4.2929341795,3.2897951599999997,27.331363699999997,1.2188402415,-1.7715188259999999,7.068525791500001,-5.8085386755,20.934393880000002,-10.152982234
134,1.1166220000000069,-4.313218355,3.3507475854999997,27.308788299999996,1.3763411044999998,1.3438481835,12.342403415,-3.9990804195000003,7.388370037,-2.7156026365
135,1.1249550000002273,-4.316642761000001,3.3416614535,27.220974,1.1060384515000001,0.901702523,9.683964729500001,-1.5247452035,-0.39632904550000014,-10.936479089999999
136,1.1332879999999932,-4.25304389,3.2063474655000004,27.195713049999995,2.247651517,-0.350853026,8.1165990815,6.0984499455,-16.068692685000002,-4.819018841
137,1.1416210000002138,-4.1613731385,3.008288801,27.134773250000002,1.8290408845,0.6760737,8.0538306235,9.655131338,-23.269538875000002,-9.392648697
138,1.1499539999999795,-4.052778125,2.622041285,27.144382450000002,2.8825782540000002,2.099101782,12.657984255,11.289082768,-46.41417313,-2.735009283
139,1.1582870000002004,-3.8656803369999997,2.1789770125,27.117900849999998,1.3719059379999998,-0.192140162,12.2180604945,20.878932955,-52.92123032,-7.2053875925
140,1.1666199999999662,-3.6628825665,1.5576893535,27.15253444999999,2.8248710040000002,0.11822471000000001,15.585654735,22.481116295,-74.767169955,-1.306915313
141,1.1749530000001869,-3.4056594374999998,0.8893079755,27.150299099999998,-1.9196054339999997,1.5285058615,10.2679400465,29.15680981,-80.136806485,-5.5958442690000005
142,1.1832859999999528,-3.1350187065,0.16399127199999997,27.189372999999996,2.4165452125,-0.8643022775,16.81714582,30.715438839999997,-87.263778685,-0.8085374835000001
143,1.1916190000001734,-2.8326811789999997,-0.7581909895,27.210212700000007,-0.2056779860000002,-0.7909321039999999,10.7638018155,34.6000576,-110.74002075,-3.64717263
144,1.1999519999999393,-2.4987882375000003,-1.5289884285,27.243350999999997,-1.725816548,0.39991840700000003,16.659207345,38.402589795,-92.682460785,-0.891338438
145,1.20828500000016,-2.156559229,-2.5351241235,27.27584075,-0.5660860539999999,-0.110443081,9.701979637,39.53076172,-120.89014815,-1.3987653850000001
146,1.2166179999999258,-1.7588208915,-3.328780055,27.316455850000004,-2.8062500655,-0.501308188,18.115160945,46.221593855,-95.464134215,1.2459204195
147,1.2249510000001465,-1.3451380130000001,-4.2812542915,27.3689957,-1.6323422865000001,0.42261773350000004,11.188559293,48.38574028,-114.51955035,2.8196995769999997
148,1.2332839999999123,-0.9563417730000001,-5.0408462284999995,27.401836400000008,-2.804070711,-0.285906881,19.188869475,45.254600525,-91.326496125,1.8199017345000001
149,1.241617000000133,-0.5314201414999999,-5.8983459475,27.45344925,-2.7244945764999997,-0.3528103085,12.4863019,49.88700104,-103.06769564999999,4.4525283575
150,1.2499500000003536,-0.0883226995,-6.575679779,27.4892464,-3.502868652,-1.196406871,15.257330415,51.881002425000005,-81.42712021,3.531149983
151,1.2582830000001195,0.3393870555,-7.322359562,27.539161699999994,-2.4693123695,-0.557263702,16.1794867535,50.393730160000004,-89.67750549499999,5.7522991895
152,1.26661600000034,0.737397477,-7.892874956,27.549102799999993,-2.5378995535,-2.21030277,18.75463295,46.152078625,-68.579380035,1.562990621
153,1.274949000000106,1.138360053,-8.503173351000001,27.595684049999996,-3.513807535,-0.14996796849999994,9.4925096055,47.243833545,-73.228378295,6.3279775385
154,1.2832820000003269,1.5563384889999998,-8.9910411835,27.595600149999996,-2.3497356475,-2.2747209665000003,11.876810549,48.39646721,-58.659725185,1.1224858465
155,1.2916150000000926,1.9572411179999998,-9.4816670425,27.652431500000006,-3.160561144,0.8170090615000001,9.1875360015,47.54247284,-58.732133865,8.145387888
156,1.2999480000003132,2.3433101179999998,-9.799178121499999,27.639892599999996,-2.8479362129999997,-0.8944881634999999,20.539365765,44.3590641,-38.25875664,-0.26638896
157,1.308281000000079,2.689451933,-10.133301735,27.707172399999997,-4.6646339375000005,-2.377285972,16.323132515,41.200584410000005,-39.81116676,9.315598964500001
158,1.3166140000002995,3.0441892145000002,-10.3075375565,27.676437399999998,-2.6094775795,-1.1909761655,15.589962005,40.233081815,-21.193623539999997,-2.824378431
159,1.3249470000000656,3.367094755,-10.451467993000001,27.730525999999998,-5.184128821,-0.1438462734999999,12.49064493,38.163419725,-16.99454212,6.9603917595
160,1.3332800000002862,3.6914143565,-10.461137297,27.696472199999995,-2.3790364265,-4.062062621,11.51043272,36.54467392,-1.5332702400000002,-4.2164221405
161,1.341613000000052,3.9546028375,-10.432567598,27.736087799999993,-4.068886250499999,0.394803837,14.3667950625,30.627489089999997,3.616637111,4.0818506480000005
162,1.3499460000002728,4.1829607485,-10.264795301,27.70814895,-4.487727865499999,-1.948457688,15.529861924999999,25.173369405000003,19.714637755,-5.0525464415000005
163,1.3582790000000386,4.3493733405,-10.037739754499999,27.740249649999996,-2.3551214335,-3.788501263,15.517888070000001,18.83367348,27.33849144,1.4015748500000003
164,1.3666120000002593,4.4933991429999995,-9.7768702515,27.723663349999995,-4.982036054,0.9402128905,14.088476660000001,15.330910685,30.918499945,-4.7575274709999995
165,1.3749450000000252,4.5435969830000005,-9.3382754315,27.756515500000006,-1.266453862,-4.6845786575,13.857337955,4.839098573,52.660570145,-0.6181361674999999
166,1.3832780000002458,4.5707781315,-9.022812843499999,27.75308224999999,-3.1221207079999997,-1.6460220815,15.35345745,1.5765964984999998,37.547706605,-3.8654102110000004
167,1.3916110000000117,4.533863544500001,-8.441079378000001,27.803256999999995,-4.301425785,-1.1203249094999999,14.77036047,-5.3579006195,69.95064926,0.0323336125
168,1.3999440000002323,4.424301386,-8.02724576,27.805999749999998,1.1834938524999998,-4.5889177325,13.833509209,-14.72785425,49.369195935,-4.0004821995
169,1.4082769999999982,4.275934458,-7.480195999,27.860816950000007,-5.913827669,-0.0643725095,12.741441250000001,-18.749438285,65.84762001,1.158287525
170,1.4166100000002189,4.0531938075,-6.8697481155,27.876049050000006,1.069694996,-3.336993456,15.82132626,-28.139340405,73.020332335,-3.9652104379999997
171,1.4249429999999847,3.7540516855,-6.3785419465,27.909748050000005,-1.892165899,-2.572172582,14.9072942715,-37.272148134999995,58.97962761,-0.3621754645000004
172,1.4332760000002054,3.416114211,-5.784280300000001,27.918987249999994,-2.4298875329999996,-1.772439301,14.384891985,-42.06347275,71.06366348,-3.833523393
173,1.4416089999999713,3.0163644549999997,-5.1311066155,27.94942475,-1.092231989,-3.1098846195,13.768633365,-49.47947693,78.36846924,-1.1285073755000004
174,1.449942000000192,2.569148898,-4.663372874,27.937480899999997,0.16137123099999995,-1.7806180715,12.969653604500001,-55.413333890000004,55.808280945,-4.658971548999999
175,1.4582749999999578,2.062932849,-3.9725100995,27.953098300000008,-3.7575904730000005,-2.273447424,11.90049887,-62.460165025,82.82218933499999,-1.8448832039999998
176,1.4666080000001784,1.4925544265,-3.4093750715,27.934844999999996,0.19478535650000017,-1.487866044,19.11237526,-70.196117405,67.291917805,-4.798437239
177,1.4749409999999443,0.86456576,-2.8817285894999998,27.926189400000005,0.7684969905000001,-4.074674159,15.896091460000001,-77.30271149000001,63.194944385,-2.7024555204999996
178,1.483274000000165,0.1872588175,-2.3153463005,27.917938200000002,-4.451988042,-1.08380118,15.377357960000001,-82.9081192,67.76661301,-2.129346607
179,1.4916069999999308,-0.5554679185,-1.7323244215,27.887653349999994,0.7399711609999999,-4.4659394025,12.084346295,-91.16015244,69.9025383,-3.7763645670000003
180,1.4999400000001517,-1.360517323,-1.31396462,27.883804350000005,-1.0946649315,-0.26651167899999995,10.584007742,-98.19596480499999,50.01160431,-0.18110084500000045
181,1.5082729999999174,-2.177939415,-0.762130968,27.8365631,-2.123308346,-2.3692465425,15.560772415,-100.068561535,66.29153824,-3.9855580309999996
182,1.516606000000138,-3.0827684404999998,-0.2195720075,27.820137050000007,-2.0106357335,-3.611613512,18.334825995,-110.20329665,64.944519045,0.6317920684999998
183,1.5249390000003586,-4.0168260335,0.21909859799999998,27.7634926,0.4571330550000001,-0.696425542,11.6309371,-113.9371147,52.881505965,-3.8806859255000004
184,1.5332720000001243,-4.9154109955,0.8555653805,27.731628399999998,-6.866082907,-0.3956094085,15.109264855000001,-109.44358445,76.26030731,1.7748653890000001
185,1.5416050000003452,-5.8481721879999995,1.389614746,27.671611799999994,2.165328711,-2.1724594235000003,14.028796196000002,-113.605793,64.40008354,-1.5583491325
186,1.549938000000111,-6.757911444,1.94451797,27.647148149999992,-7.597040653500001,3.826929927,16.629074575,-110.7396393,66.325912475,4.0469971524999995
187,1.5582710000003317,-7.644753456,2.729768753,27.5404434,-1.1420390009999999,-2.5113605855000003,18.648705005,-107.71589660000001,95.007331845,-1.2508126494999998
188,1.5666040000000976,-8.5240688325,3.333538055,27.508304600000002,-3.4505648609999997,-0.011648834000000052,11.79208565,-106.9887085,72.09949875,5.990445614
189,1.5749370000003182,-9.235307693,4.25493598,27.365997299999997,-5.54735589,4.868930936,17.960654735000002,-86.03160095,111.78585815,-0.1141823529999999
190,1.583270000000084,-9.9473481165,5.0780715945,27.279094699999995,-1.999518454,-1.0283257365,11.1947176435,-86.29689789,98.939876545,5.9151144025
191,1.5916030000003047,-10.571276665,5.9751672745,27.117095950000007,-1.576827973,0.7792443335,10.4153423305,-74.80443954500001,109.28765870000001,-0.21291136750000006
192,1.5999360000000706,-11.12081051,6.9468321799999995,26.967449200000004,-4.4046956,4.787787676,18.909906385,-65.631782535,117.68261335,4.1477348805
193,1.6082690000002913,-11.622574805,7.8382442,26.762870749999998,0.15820419799999996,-0.815255761,20.05772209,-58.81694603,109.5728378,-3.1442083715
194,1.6166020000000572,-12.008480075,8.8015575405,26.593849200000008,-2.322813988,1.8383758664999998,16.195457935,-45.14259719499999,117.0723,3.7513526085000004
195,1.6249350000002778,-12.319538595000001,9.7153253575,26.369068099999993,0.6180546879999999,2.0928629635,12.569272518999998,-34.7060833,112.69744875,-3.282600522
196,1.6332680000000437,-12.478322984999998,10.621016979,26.194263450000008,-4.6591260435,2.1307457385,11.1593983185,-17.15260124,110.41298675,2.8524442615
197,1.6416010000002643,-12.57962704,11.52669525,25.9716911,0.9119395615,2.4984728095,15.634232995000001,-8.713059604500001,111.67516705,-2.372284189
198,1.6499340000000302,-12.64756489,12.370271205,25.804210649999995,-0.7819895745000001,1.490587841,15.85802889,-5.7626245625,102.9076309,2.592019096
199,1.6582670000002508,-12.6163497,13.19775772,25.603057849999992,0.1498463935,0.41841091249999995,21.385523795,7.3777291775,101.940910325,-1.6140898465000002
200,1.6666000000000167,-12.51897144,13.91808367,25.456054699999996,-0.49224311099999996,1.240977794,18.84205055,14.062897205,87.94350052,1.696231604
201,1.6749330000002374,-12.384080885,14.587304115,25.304080999999996,1.1373812479999998,-0.589240357,11.117278574,18.953927995,82.126605985,-0.3078722805
202,1.6832660000000033,-12.194077015000001,15.15677595,25.185352299999998,0.2873754355,-0.16381722700000012,10.7175571925,24.735869405000003,69.59133148500001,0.5351099370000001
203,1.691599000000224,-11.972555634999999,15.66814184,25.071563750000003,-0.57078892,0.3017434555,16.056128025,28.530986785,62.656894685000005,-0.38143634800000004
204,1.6999319999999898,-11.73869991,16.092669485,24.981243150000005,-0.45303905,-0.07514584050000006,18.096138475,29.294122695,51.884016035,-0.2672337294999998
205,1.7082650000002104,-11.54315853,16.436959745,24.895576499999997,1.0795493425,-1.934370816,17.409118175,24.676671024999997,42.354232785,-1.675636381
206,1.7165979999999763,-11.31378746,16.69899607,24.833599050000004,-0.151132785,-1.989837289,19.577172275,27.879421235000002,32.104701995,-1.1808368864999998
207,1.724931000000197,-11.071052075,16.873146535,24.788410150000004,-0.12180018400000003,0.28685979749999996,16.38512373,29.007779120000002,21.405938149999997,-1.3915337025
208,1.7332639999999628,-10.836390015,16.9482131,24.759277349999998,1.1193040795,-1.6352635919999998,11.534091475,27.40315819,9.345776797,-1.9348939360000001
209,1.7415970000001837,-10.586997985,16.9720974,24.760650600000005,-0.13798339650000002,-1.9297788740000001,12.146048545,28.198238375,2.6824719234999996,0.33170461649999994
210,1.7499299999999494,-10.350958345,16.90596104,24.778129549999996,0.004709958999999986,-0.44874380550000004,15.151604175,25.938931465,-8.3033275585,0.21025457950000004
211,1.75826300000017,-10.146016125,16.801091194999998,24.811695099999994,-0.20221483,-1.7286813855,15.70344782,21.727165225,-13.171429634999999,1.1907298935
212,1.766595999999936,-9.9583439825,16.63397503,24.843147249999994,-0.8430030495,-1.059967473,16.53191948,19.67044735,-20.506649019999998,-0.2627830405
213,1.7749290000001563,-9.774113655499999,16.437973975,24.89206695,-1.8094642459999999,-0.49755911500000005,14.794991015,18.713562969999998,-24.237457275,1.1440670785
214,1.7832619999999224,-9.5940246585,16.22166109,24.899562849999995,-1.420687616,-1.9470795390000002,13.765046595000001,19.536911009999997,-25.887645720000002,-3.6531633135
215,1.791595000000143,-9.42528677,15.971544265,24.936580649999996,-0.6423038839999999,-0.706016511,11.0175344955,17.279273985,-30.40816975,-1.1236272455
216,1.7999280000003637,-9.290955067,15.69979906,24.91963580000001,-1.9054707885000002,-2.0311767455,9.507933618,14.8512454,-32.008292194999996,-7.3665144445
217,1.8082610000001296,-9.145899295500001,15.501266479999998,24.915302300000008,-2.5070921185,-0.982444197,10.762594225,15.80328274,-23.5366621,-4.6859285835
218,1.8165940000003504,-9.070625782,15.236843585,24.87223815,-0.453953091,-2.0258147715,9.4369857295,8.603784322500001,-30.693777085,-10.0526299465
219,1.824927000000116,-8.9898056985,14.998487,24.860065450000008,-3.1087434295,-1.293258101,7.4376149179999995,8.341608286,-28.12794113,-6.254994154
220,1.8332600000003367,-8.9428334235,14.910210135,24.807086950000006,-2.4478494525,-0.9553836285,10.411624435,5.5007796285,-9.654794691500001,-7.840268850499999
221,1.8415930000001024,-8.9078316685,14.683954714999999,24.822067250000003,-0.15018719400000002,-1.3507739905,6.194989919999999,2.010161698,-27.193413735,-2.866548419
222,1.8499260000003237,-8.910832405,14.60734892,24.816387199999994,-4.9746487145,-1.8585901260000002,8.201975584,-1.9890672935,-9.119071483,-2.238216877
223,1.8582590000000887,-8.9321932795,14.587354659999999,24.82243345,0.5993282795000001,-0.9619744045,8.0584638135,-4.4332346305,-2.5819149205,-0.037435054500000065
224,1.8665920000003096,-8.961204052,14.45944405,24.852542899999996,-3.9649886155000003,-1.632989347,-1.1291713415,-6.2287750245,-15.831056114999999,0.8125222924999999
225,1.874925000000076,-8.998910904,14.57535982,24.8619804,-1.214871287,-0.4501782875,10.596625326,-6.4713931085,13.46246624,2.900684655
226,1.8832580000002963,-9.0646448135,14.502019404999999,24.889141099999996,-1.637290001,-0.478452839,3.2362301345,-10.545491693999999,-9.3044686305,1.4167879225000002
227,1.8915910000000624,-9.1366734505,14.588692665,24.920940400000006,-1.0600991249999998,-0.472423334,10.555010555500001,-11.26206303,9.581859111,4.9411601425
228,1.8999240000002828,-9.194486617999999,14.646057605,24.915870650000002,-0.901354015,-1.263140202,5.7063221935,-8.615919111,6.772436738,0.2051187750000001
229,1.9082570000000487,-9.2342357635,14.62292957,24.965648650000006,-1.1233078055,0.07001271850000002,3.290911436,-7.9858598705,-3.7687270665000003,4.9004964829999995
230,1.9165900000002691,-9.295676708,14.721592905,24.93482975,-1.148203254,-1.0277708175,5.9244890214999995,-8.215492725499999,12.137113894,-1.891214395
231,1.9249230000000352,-9.3517780305,14.68286419,24.97733305,-0.434252204,0.991465539,5.077891230500001,-9.7706871045,-5.487826586500001,3.7438732385
232,1.933256000000256,-9.393480301,14.71554327,24.946540800000008,-1.281773923,-1.1617124085000001,7.090958834,-5.850964665,4.328063487,-3.1601885559999996
233,1.9415890000000215,-9.4277796745,14.669710160000001,24.977550499999992,0.9379500745,0.376374312,8.576289175,-6.746579408500001,-6.1169679165,2.2923335435
234,1.9499220000002424,-9.4623904225,14.66379118,24.939445499999998,-2.3545199635,-1.1728652715,3.928327531,-4.8426082135,-0.09461894650000002,-4.7601050140000005
235,1.9582550000000083,-9.4518756865,14.56670904,24.973632799999997,1.440825641,-0.16519522650000007,-1.1296917794999999,-1.441569269,-12.249990464,1.647020936
236,1.966588000000229,-9.442419052,14.509234424999999,24.935234099999995,-2.1967478095,-0.7221653889999999,3.2710767985,0.4629387855,-6.188509016,-5.8144518135
237,1.9749209999999948,-9.452358246,14.398062225,24.973182650000005,1.2142474055,1.284812689,8.7965927115,-3.9715137775000002,-13.987027170000001,1.8119188544999998
238,1.9832540000002157,-9.467590809,14.29164076,24.94679645,-2.330620393,-1.60372863,8.216519832500001,-2.8836322425,-12.208368776499999,-5.4281765815
239,1.9915869999999811,-9.4303007125,14.155838965,24.99315645,1.4799888135,-0.15940177449999998,1.4540711640000001,1.4469623564999998,-17.064803599999998,2.2904120685000002
240,1.999920000000202,-9.378739357,14.016011715,24.98003769999999,-1.7434848844999997,-0.8372323589999999,-1.3248467745,4.714845002000001,-16.415762905,-4.5463873745
241,2.008252999999968,-9.3197221755,13.847485065,25.025463099999996,0.2160748239999999,0.342021942,1.7366194725,4.137264073000001,-20.92117214,1.587545037
242,2.0165860000001885,-9.289821148000001,13.699117659999999,25.0197754,-0.8139423135000001,0.02523392449999995,6.723743916,1.8875652554999998,-17.581187725,-3.8143709900000005
243,2.0249189999999544,-9.257534027,13.53563929,25.064826950000004,-1.2932649255,-0.07935868200000001,7.775807619,0.985379934,-20.30758381,1.676630974
244,2.033252000000175,-9.2113456725,13.363847735,25.06869125,0.7098579405000001,-0.9716322195,4.9748251435,3.5620578729999997,-20.541707995,-3.142124474
245,2.041584999999941,-9.129811286999999,13.19082594,25.1231728,-1.8304347994999999,0.36953943949999996,1.9019655585,6.655574322,-21.615434649999997,2.6267158984999996
246,2.0499180000001616,-9.0583896635,13.00543404,25.1347313,-0.05699408049999999,-1.073343277,-0.3461249475,6.391926527000001,-22.29638958,-2.470430195
247,2.0582509999999274,-8.958421707,12.84051466,25.200332649999993,-1.224144429,1.0880420805,3.0874826905,8.5992465015,-20.85091114,4.128069043
248,2.066584000000148,-8.878676891000001,12.641572475,25.206302649999998,0.3435558675,-0.1229745115,5.3784852025,7.5694272520000005,-23.81019402,-3.2946203425
249,2.074916999999914,-8.7839970585,12.47823,25.277015699999993,-2.566299319,-1.4474323390000001,4.49203372,7.8723654745000005,-20.74167919,4.820864141
250,2.0832500000001346,-8.676477908999999,12.285938264999999,25.280811300000003,1.954040289,1.0893508415,3.4537012574999997,10.984012129,-22.99011612,-3.3591998515
251,2.0915830000003552,-8.565136432500001,12.100272180000001,25.356647499999994,-2.8893542290000003,-0.7422450185,1.889090002,9.7468690885,-23.463196755,5.090735793
252,2.099916000000121,-8.453059673,11.9091506,25.373065949999997,1.068590224,-2.124542415,1.951951921,11.25235987,-23.08440208,-1.754070282
253,2.1082490000003418,-8.332238674500001,11.713716985,25.442226450000007,-1.4661620260000001,2.6110996005000002,3.5097593069999995,11.0926156,-24.488151549999998,4.2469387055
254,2.116582000000108,-8.228959083500001,11.517339230000001,25.463260650000002,0.2775443715,-1.992595136,3.346906781,10.0945453635,-23.798155785,-1.1719224750000001
255,2.1249150000003283,-8.110684395,11.305676935000001,25.531944300000006,-1.0943639875,-1.427322626,2.3510398864999997,10.824909210000001,-26.390701295,4.0118129255
256,2.133248000000094,-7.9867706300000005,11.090995312499999,25.550281499999997,-0.25907021799999996,2.137292862,3.7042611835,12.705444815,-25.92804813,-1.7028420714999999
257,2.141581000000315,-7.879622698,10.879473687,25.613155350000007,-1.0567419235,-1.64178884,1.271637276,9.668720007,-26.263427735,3.456278324
258,2.1499140000000807,-7.747647524,10.6379661555,25.64390565,0.9821622219999999,-1.55002439,3.9315644499999998,13.423709389999999,-29.31587219,-0.6314427255000001
259,2.1582470000003013,-7.6295831204999995,10.4086894975,25.696590399999998,-2.3560824395,2.5814433694999996,3.6454180480000002,11.24384403,-28.20013523,2.1019633915
260,2.1665800000000672,-7.5232093335000005,10.1588525765,25.72543720000001,1.951670453,-2.6769971845000002,3.1588060854999997,10.456399442999999,-30.278020855,-0.857642174
261,2.174913000000288,-7.3941955565,9.905759813,25.782573699999993,-2.1298487815000002,0.026821970999999944,2.718143344,12.468004225000001,-31.09469223,2.3657330869999997
262,2.1832460000000538,-7.283584833,9.640791415999999,25.814632450000005,0.39433771400000006,1.462462038,2.567655921,10.9614248255,-32.12536335,-0.6077377795000003
263,2.1915790000002744,-7.157533645499999,9.381312846,25.845443700000004,-1.479948711,-2.987631917,3.6284391879999998,12.712491515,-31.451203345000003,-0.677420616
264,2.1999120000000403,-7.038255453,9.119920968,25.884677850000003,0.2286763415,1.9831014274999998,3.0410944224999996,11.86945057,-31.805479050000002,0.41025006750000026
265,2.208245000000261,-6.9329731465,8.846051456,25.880096450000003,-0.870452702,-1.1576304175,4.916346073,10.92891979,-32.657601355000004,-4.912796855
266,2.216578000000027,-6.828664541,8.612488984999999,25.91820525,-2.1182075145,-1.6349292995,2.829854447,10.139038563500002,-28.46737099,0.777968526
267,2.2249110000002474,-6.7288098335,8.3518619535,25.889171600000005,1.248611391,0.7610263230000001,4.1137070655,10.694601061,-30.753770825,-7.494022133
268,2.2332440000000133,-6.6408770085,8.1549134255,25.916057599999995,-4.2673190835,-0.11552393450000009,3.974322319,8.3899149895,-23.944822315000003,0.06398427500000015
269,2.241577000000234,-6.558331966,7.9176871774999995,25.891880049999997,2.708229348,-3.2769260405000002,5.3520739079999995,8.5795764925,-28.050136565000003,-6.494615078
270,2.24991,-6.4861824509999995,7.7624008655,25.923645,-5.43842864,1.828889191,4.197707534,6.381129265,-19.057041165,1.403218627
271,2.2582430000002205,-6.4580779075,7.561254501500001,25.911281600000002,3.9359272124999998,-1.547012605,6.507019043,1.8784146305,-23.917952535,-4.5515693425
272,2.2665759999999864,-6.408700227500001,7.419302225499999,25.959228499999995,-5.5138127805,-1.3707899449999998,10.3577995295,3.4015136955000003,-17.648539545,3.196522981
273,2.274909000000207,-6.3790292740000005,7.199845552499999,25.95800785,4.0958454904999995,0.548321024,6.502617359,1.9274469614999998,-26.255560875,-3.4377657175
274,2.283241999999973,-6.3334453105,7.056785822,25.997642550000002,-3.9438316225000003,-1.2543834075,5.797556877,3.051187396,-17.664443015,2.2228165864999996
275,2.291575000000193,-6.291911363500001,6.7563400265,26.022991200000007,2.443408966,-0.41526910699999997,7.79508257,3.031089939,-36.26585197,-1.3139209750000003
276,2.2999079999999594,-6.2463538645,6.612054348,26.051773100000005,-2.082371235,1.4033558365,13.06241703,3.2200243475,-17.662679675,0.870154619
277,2.30824100000018,-6.2112269399999995,6.18696475,26.11983875,3.339895785,-1.8205581309999999,10.069190741,1.725488156,-51.686454775,2.183774471
278,2.316573999999946,-6.1146242619999995,5.986633539,26.1646347,-4.770095125,0.48664128050000005,10.5060434335,9.1615066525,-24.550458905,2.0872935055
279,2.3249070000001666,-6.052020073,5.495324849999999,26.238552099999993,5.107308306499999,0.7051841915000001,11.994307041999999,5.056361437,-59.655376435,2.1800796985
280,2.3332399999999325,-5.919939518,5.101708889,26.27423855,-3.2219285365,-1.6185139415,11.5197460645,13.56086302,-47.499223709999995,-1.3300058840000002
281,2.341573000000153,-5.7762205605000005,4.638551831,26.34799195,0.2686977389999998,0.9982765915,14.878169536999998,14.935533525,-56.27950095999999,2.765430689
282,2.349905999999919,-5.6210849285,4.149493575,26.366752650000002,-2.3547445535,-0.17228010300000002,11.8626441965,16.578729629999998,-58.708194735,-4.1624776125
283,2.35823900000014,-5.4243748185000005,3.6785752775000002,26.430606799999993,-0.5338623524999999,-0.48835438500000006,16.33158779,21.490739825,-57.074449535,1.8179166315000002
284,2.3665720000003603,-5.2146382335,3.1650491955,26.4440842,-2.5469905735,-0.6595941780000001,11.71542501,23.19565487,-61.60186768,-4.6474622785
285,2.374905000000126,-4.991045952,2.735698223,26.504871400000006,-2.4549794195,0.709546447,15.725828645,24.850356105,-52.057353975,2.3102459905000003
286,2.383238000000347,-4.7661364079999995,2.2038194535,26.52076725,-0.02947056300000006,-1.9545994695,12.509816645499999,25.092314719999997,-63.850727085,-4.0697786215
287,2.3915710000001127,-4.505499363,1.843010455,26.576240500000004,-4.840381622500001,0.21501080699999997,16.51827669,29.374736785,-43.788209914999996,2.757762492
288,2.3999040000003333,-4.263679981,1.3681833815,26.584815950000007,1.7936732395000001,-1.4830683470000001,13.272377966,27.20664501,-56.988819125,-3.7994309665
289,2.408237000000099,-3.9930721525,0.9890806225,26.648532900000006,-7.6153485775,0.22098174499999998,13.967663289999999,30.60969448,-46.02290344,3.957377076
290,2.41657000000032,-3.710642457,0.6843209859999999,26.630806,1.8765931130000002,-1.975787401,15.171358105,32.172986985,-36.44913578,-4.9924230575
291,2.4249030000000857,-3.485068679,0.21301907300000006,26.694458000000004,-3.723569393,-0.499829389,13.43475437,25.27129078,-57.026868820000004,3.6977410319999997
292,2.4332360000003064,-3.2490826845000003,0.004416763499999976,26.6665306,-3.0183275939999996,-1.274230331,16.3305544855,26.59258175,-24.893449785,-5.239622474
293,2.4415690000000723,-3.0519798995,-0.36522433149999994,26.704502100000006,-1.9528770444999999,-1.3087656495000002,16.4427261345,21.931332585,-44.643074035,1.7500385045
294,2.449902000000293,-2.8706305025,-0.616667479,26.680919649999993,-2.2589001655,-1.5075788945,16.68874073,19.997180935,-30.093455315,-4.832381725
295,2.458235000000059,-2.7137871980000003,-0.7579018325,26.7136383,-4.5564097165,-3.124500513,12.300933364999999,17.111759185,-17.223896025000002,2.7262078525
296,2.4665680000002794,-2.5879808664999997,-1.029260151,26.69314955,1.693893194,-1.6705881955000002,13.616811274,13.375044825,-32.52369213,-4.358888626
297,2.4749010000000453,-2.483990312,-1.071199855,26.71823884999999,-7.3643016815,-1.604637146,14.970498085,10.72490597,-5.2702386975,2.4078280925
298,2.483234000000266,-2.4194420575,-1.1178174115000001,26.694053650000008,0.41839480400000006,-2.033370554,13.923811435,6.0230278965,-5.571473837,-3.673121035
299,2.491567000000032,-2.388207555,-1.215743013,26.715152699999997,-4.8042407035,-0.4628247619999999,16.942825795,1.9856216910000002,-11.956244947,1.6615194085000002
300,2.4999000000002525,-2.3734800815,-1.065894785,26.695903799999996,-2.4598302845,-1.7316195964999999,18.890946385,0.04394125949999994,17.943987370000002,-1.9365651604999998
301,2.5082330000000184,-2.393398881,-1.0716412064999998,26.706668849999993,-3.462881446,-1.84792012,9.1408874975,-4.1717783805,-0.8477289079999999,0.896113634
302,2.516566000000239,-2.41447258,-0.992244007,26.703765849999996,-1.1529741885,-0.19979780899999994,11.35731554,-4.2109104395,9.4092955585,-0.41665351399999984
303,2.524899000000005,-2.473790407,-0.763292357,26.69882585,-4.463086486,-2.7868407965,18.584403514999998,-8.92494774,27.370105745,0.21308541299999995
304,2.533232000000225,-2.5764939785000003,-0.6572598515000001,26.70845035,0.49959662550000006,-1.624947429,13.2457709335,-13.9957943,12.534579277,1.2147171495
305,2.5415649999999914,-2.6935002800000003,-0.40668806450000006,26.69408035,-5.492825985,-1.1284310965,14.907098295,-15.856052875,30.011440274999998,-0.7118207219999999
306,2.549898000000212,-2.7947279215,-0.05827325599999994,26.68208695,-2.621841967,-1.5822519659999998,16.508646485,-13.861879344999998,41.69363785,0.19153094300000006
307,2.558230999999978,-2.9188632965,0.19690555300000007,26.653408049999996,-2.4430594445,-0.18414562950000002,11.210750312999998,-16.676606655,30.652321815,-2.2782476845
308,2.5665640000001986,-3.0923030375,0.578846738,26.634342149999995,-2.8071706295,-1.230529249,16.2202692,-22.4978714,45.75418091,-0.3781554699999998
309,2.5748969999999645,-3.265999794,0.9945916605,26.586086249999994,-3.411676146,-3.0995963815,18.473870755,-22.542525294999997,50.031194685,-3.378787935
310,2.583230000000185,-3.479473114,1.3997778895,26.571510300000007,-0.1519504675,-1.386649102,15.3583593375,-27.293341635,48.507040025,0.5250038505000001
311,2.591562999999951,-3.710398316,1.825268656,26.5254402,-3.8015418055,-1.7387307285,13.36261797,-29.325134275,51.203208925,-2.682760626
312,2.599896000000172,-3.8922623395000002,2.398974657,26.492431650000007,-3.458343148,-0.0259233815,14.407586575,-23.407170295,68.82106018,0.011463075999999961
313,2.608228999999937,-4.1228516105,2.8954416515,26.438488,-0.36039084199999993,-2.0385839939999997,14.06204462,-29.119149205,59.78261757,-2.657505572
314,2.616562000000158,-4.3722207545,3.4437652825000002,26.411422749999993,-3.4423246385,-0.29986238499999995,16.699170115,-31.485865595,65.727264405,0.982624203
315,2.624894999999924,-4.6399247645,3.939659953,26.359260549999995,-1.342270702,-1.6766449214999999,14.610333915,-33.452076915,59.714328765000005,-1.9213892225
316,2.6332280000001447,-4.8824489115,4.58706975,26.308433550000004,-3.273115516,-0.9228929244999999,15.16171646,-30.401626585000002,77.793441775,-0.24563008550000004
317,2.6415610000003653,-5.1110715865,5.1446383,26.230102550000005,-1.1547480895,-0.19655448200000003,11.61698723,-28.371798515000002,67.370880125,-3.876456976
318,2.649894000000131,-5.344103575,5.7868037225,26.1912346,-2.543292761,-0.4753400835,15.17499542,-29.2487402,77.02745437499999,1.8092023135000002
319,2.658227000000352,-5.584074736,6.3808350565,26.109397900000005,0.004263639499999972,-1.1495440005,17.97507954,-29.489349365,71.79018592999999,-3.301787734
320,2.6665600000001177,-5.82488513,6.919294596,26.0908127,-3.1556408255,0.3633183245,16.516041755,-30.366778375000003,64.39376640500001,3.5127454995000003
321,2.6748930000003384,-6.050601244,7.608473778,26.003002150000007,-1.563240081,-2.162767947,17.554605485,-27.480927469999997,83.23896027,-2.209274769
322,2.683226000000104,-6.234805107,8.1971392635,25.976844799999995,-2.0462805275,0.5177007095,12.48798704,-23.41829491,70.44483947500001,3.8076837655
323,2.691559000000325,-6.38705039,8.7689340115,25.901878349999997,0.18494343749999997,0.6713335885,13.960720065,-18.641708375,69.07521057,-1.6643051805
324,2.6998920000000908,-6.516475439,9.381427289,25.869266499999995,-2.6685644385,-1.1192749145,16.458541869999998,-16.678953645,73.3486557,3.7882193625
325,2.7082250000003114,-6.669778824,9.911189080500002,25.791187299999997,-0.5241832435,-0.47360314400000003,15.22072077,-18.515111920000002,64.10813522000001,-2.23587507
326,2.7165580000000773,-6.7925257685,10.416823863000001,25.754554749999997,-0.4464505015,-1.1443065105,15.95326519,-15.718735695,60.660310745000004,2.0793083905000005
327,2.724891000000298,-6.9084870815,10.846663953499998,25.676574699999996,-0.005142658999999994,-1.1265450645,14.65880394,-13.868241785,52.206035615,-3.337907666
328,2.733224000000064,-7.0125935075,11.269458295,25.6321449,-2.0268095155,-0.3749971835,14.944536685,-13.229277135,50.88758087,0.2957180735
329,2.7415570000002845,-7.125641346,11.606406215,25.561462399999996,0.8160782755000001,0.135424763,14.84495306,-13.559001445,41.046346665,-3.63257277
330,2.7498900000000503,-7.223564625,11.92909002,25.5167236,-0.41488024549999997,-1.6085687874999999,17.713945865,-12.406727315,38.97107315,-1.0415275695
331,2.758223000000271,-7.312526941,12.17667341,25.457305899999994,-0.7397532615,-1.6630013885000001,18.031478405,-10.865972519,30.251139639999998,-3.516037494
332,2.766556000000037,-7.398025274,12.371431829999999,25.42859265,0.6308619085,-0.206067771,14.216462135,-11.2965440775,23.503118515,-0.9376098509999999
333,2.774889000000257,-7.468320369500001,12.535151005,25.388957999999995,-0.7908818125,-1.1582045855,15.049125669999999,-9.069792032999999,19.977119445,-2.417152643
334,2.7832220000000234,-7.515725851,12.648241044999999,25.37514875,-0.8940204679999999,-0.5424280319999999,13.85704088,-7.11227417,13.5700469,-0.4468659165000002
335,2.791555000000244,-7.586935996999999,12.72438812,25.345664949999993,-0.9214068655000001,0.733469695,13.038968085,-9.4180164335,9.4061453345,-2.576255083
336,2.79988800000001,-7.648041248,12.776435375,25.337356549999996,-0.4522010835,-2.7765680555,16.37997389,-8.9194347875,6.2088463305,-0.600640893
337,2.8082210000002306,-7.711844921,12.79216576,25.3387337,-1.0814178585,-1.158503309,16.528510569999998,-9.348050117500001,1.7442077695,0.05996286849999999
338,2.8165539999999964,-7.795922041000001,12.743709565,25.3473816,-0.3098664545,-0.943883568,13.156774525,-12.14971018,-6.011681080000001,-0.18862354800000003
339,2.824887000000217,-7.867297411,12.711456775,25.353649149999995,-2.0810023545,-1.5478679985,12.173991679,-10.3867206585,-4.039256334,-0.15433835950000008
340,2.833219999999983,-7.917784214,12.645384790000001,25.35027315,-1.3892383755,-0.5778097365,12.482263565,-7.813220024,-7.91332078,-1.8509363529999998
341,2.841553000000204,-7.9750359055,12.57311869,25.3482056,-1.110167384,0.02233874800000002,11.2200345995,-8.4756293295,-8.661332128,-1.7945330735
342,2.849885999999969,-8.044117451,12.4372282,25.333217600000005,0.3338865935,-1.6189516485,11.340597630000001,-9.726771832,-16.00940752,-4.420538485
343,2.85821900000019,-8.100582599500001,12.361442565,25.326084150000007,-3.470566511,0.31948977749999996,13.920058730000001,-8.2722020155,-8.9901688075,-2.4641027859999998
344,2.866551999999956,-8.173685074,12.18124533,25.28915024999999,1.2306525110000002,-1.6795250179999999,10.741930009499999,-9.633294582000001,-20.90763569,-7.6901335715000005
345,2.8748850000001767,-8.227185726,12.079370975,25.28446195,-4.508604407,-0.17022365750000001,9.6916871085,-8.018262386,-12.1238153005,-2.655472994
346,2.8832179999999425,-8.2956852915,11.991930960000001,25.217803949999997,0.4686495064999999,-1.8002781865,8.9886450765,-8.3473806355,-9.3848466875,-9.5180149065
347,2.891551000000163,-8.375612259,11.788483620000001,25.22836305,-1.8709953875,-0.6114139555,4.4063758255,-11.58578014,-24.4375248,-2.683508873
348,2.899883999999929,-8.483033657,11.794244765,25.151149750000002,-3.7727235555000003,-1.7830914855,10.662409306,-12.766500950000001,1.8934040069999998,-9.164780140000001
349,2.9082170000001497,-8.599522113999999,11.715367315,25.151714300000002,-0.46634699999999996,-1.6588309405000001,7.017130613500001,-15.730185985,-9.471244337,-1.7117806375
350,2.916549999999916,-8.762431144499999,11.638962265,25.11772155,-1.7040029765,-0.5081422329999999,7.5142402655,-20.433423995,-8.56890726,-5.7141991855
351,2.924883000000136,-8.906123161,11.7511549,25.120327000000003,-3.3642902375,-2.2900901435,7.038065432,-19.10134363,13.159198285,1.9863209130000001
352,2.933216000000357,-9.0637111665,11.686069965000002,25.11733245,0.1778814645,-0.0011758205000000077,1.32139124,-20.522500039999997,-7.776492359,-1.9212104079999999
353,2.9415490000001228,-9.2144651415,11.810120585,25.1187744,-2.8106983899999998,-0.36697334049999997,9.036473273999999,-19.944862365,14.576334,2.139969349
354,2.9498820000003434,-9.3999238015,11.81995058,25.141330699999997,-0.7544856815000001,-0.47970466700000003,6.753428459,-24.474061965,0.6274080275,2.3903467655
355,2.9582150000001093,-9.5716786385,11.907722475,25.127677900000002,-0.061349132,-1.0039086940000002,10.2020096795,-22.087046620000002,10.5572729405,-0.23530507049999994
356,2.96654800000033,-9.731573582,11.947242735,25.16095355000001,-1.6278789045000002,-0.04699403050000006,3.0383665564999998,-21.71078491,3.9198408114999994,4.2131227255
357,2.974881000000096,-9.8455877305,11.957437995,25.140064200000005,0.6560848805,0.10513222249999998,4.863758325499999,-14.9255147,1.5258784300000006,-2.5929940045
358,2.9832140000003164,-9.935643673000001,11.95760441,25.182861299999992,-1.290477842,1.3037874995,9.57701063,-13.582098961,-0.927824974,4.440516710000001
359,2.9915470000000823,-10.025238035000001,11.926336285,25.16100315,0.9034060014999999,-0.836870305,10.910384414500001,-11.957323075,-3.3510351180000004,-3.550665617
360,2.999880000000303,-10.05770922,11.835948944999998,25.217296600000005,-1.0277361275,1.0556651655,5.510582685499999,-7.0042335985,-11.909513472,4.0808672905
361,3.008213000000069,-10.062092305,11.691219805,25.212528199999994,1.469246745,0.13078118,8.4520850185,-2.1299456355,-17.103754281,-3.9519516230000002
362,3.016546000000289,-9.9771127695,11.565924644999999,25.269088749999995,-2.6224030855000002,1.7651873235000002,8.342115165500001,7.0686666965,-16.046818734,3.4469664095
363,3.0248790000000554,-9.890330315,11.30929995,25.28138729999999,2.9653291705,-0.7369596065,9.7263555535,8.430056095,-30.6850729,-4.246222496
364,3.033212000000276,-9.771154403499999,11.099742412000001,25.341323849999995,-3.653702736,0.851563394,7.2650504115,11.094306945,-26.07993984,2.2790089845
365,3.041545000000042,-9.624346733,10.837878226499999,25.35699845,1.878232986,-0.454625398,7.611904382500001,15.570572850000001,-31.387675285,-3.8312854765
366,3.0498780000002625,-9.433069706,10.475376608,25.436405199999996,-2.0790027975000003,0.34461292599999993,7.688404800999999,19.375679015,-44.547275545,1.6602607965
367,3.0582110000000284,-9.200982094,10.277905464,25.436016100000003,-2.0297513905,0.11349707850000001,10.751451495000001,26.18914223,-23.47595215,-4.241459787
368,3.066544000000249,-8.991537094,9.842539786500001,25.5151634,1.9235881865,-0.9598871175,6.1707546849999995,21.659669875,-53.165435790000004,0.611604929
369,3.074877000000015,-8.7502408025,9.5894117355,25.524730700000006,-4.777847886,-0.2755861695,9.1809890275,27.067914010000003,-30.285541535,-3.940058947
370,3.083210000000236,-8.497266769500001,9.250344036,25.59718705000001,1.1447811725,-0.491568938,7.258613587,27.12666607,-41.616302489999995,2.032858179
371,3.091543000000001,-8.260554313499998,8.880352972,25.625701899999996,-3.0176200865,-0.646650173,6.588338852,26.18667984,-44.51502037,-3.503076557
372,3.099876000000222,-7.9834911825,8.707726002,25.627319300000003,-1.4675319495,-1.1865355075,12.553138734000001,31.358183859999997,-20.64273548,-3.070907205
373,3.108208999999988,-7.740519762,8.2682433125,25.662452700000003,-1.043596268,-0.24435685549999997,0.8917171955000001,26.887211800000003,-52.907899855,-3.4506480095
374,3.1165420000002086,-7.4902060035,8.1247575285,25.6175232,-2.4527560025,-1.2059024575000001,10.613502264,28.926960944999998,-16.466006274999998,-7.9312958695
375,3.1248749999999745,-7.271069765,7.773270607000001,25.631259899999996,-0.684535742,-0.56376455,3.7074550984999997,24.414727210000002,-42.135473250000004,-4.1603175105000005
376,3.133208000000195,-7.046583652500001,7.604477167000001,25.565509800000008,-1.8668865859999997,-1.614703536,9.450852157,26.173282625,-19.229822159999998,-10.618833544000001
377,3.141540999999961,-6.843731642,7.3888084885000005,25.58300785,-1.793954313,-0.47431191799999994,3.4919317959999994,22.36842823,-26.04065609,-1.4379594325
378,3.1498740000001817,-6.6684727665,7.1501770019999995,25.5378799,-0.94460699,-1.7150076035,4.086216092,19.95422268,-27.890787125000003,-9.192837238
379,3.158206999999948,-6.503906727,7.058904648,25.55952835,-2.156082958,0.23993733550000002,9.6447834965,17.699602125,-11.277343748,0.9287659225
380,3.166540000000168,-6.385519265999999,6.835095405500001,25.5365143,0.14576137100000008,-2.734587073,2.8043226595000004,12.77849722,-26.48260975,-6.080382585500001
381,3.174872999999934,-6.2463526730000005,6.76344347,25.570095050000006,-3.0128987135000003,0.32650521399999993,5.69387269,14.456466675000001,-9.088964463,2.6487625240000003
382,3.1832060000001547,-6.163747311,6.5822753904999995,25.5667076,0.45289015749999995,-1.7122085095000001,5.2282047275,8.2608437535,-21.64976883,-3.28081955
383,3.1915389999999206,-6.0777161125,6.5211350915,25.602211000000004,-2.851831045,-1.505220145,5.251619816,8.062075138,-7.851013421999999,3.048139155
384,3.1998720000001413,-6.037776946999999,6.4183614255,25.607910150000002,0.43002760399999995,-0.514921725,5.708237648,3.027443141,-12.421260835,-1.1325079205000002
385,3.208205000000362,-6.0050058365,6.3426282405,25.648487050000007,-2.5709377825,-0.95485431,3.283833444,1.5676295759999999,-9.6511564255,3.4775301814999997
386,3.216538000000128,-5.988087892499999,6.2774612905,25.662529000000006,-0.46331226849999996,-2.6966112255,1.3737396005,0.17981195449999998,-8.0415444375,0.34467768649999986
387,3.2248710000003484,-5.976927042,6.2301599979999995,25.690849300000004,-0.662355781,0.6695507765000001,4.0702332255,-0.8776269255,-6.101163149,2.3846726419999995
388,3.2332040000001143,-6.028462887,6.1875462535,25.707370749999995,-1.713025123,-0.8191542919999999,6.308245182,-8.0470783695,-5.382031917500001,0.9613535405000002
389,3.241537000000335,-6.085508108,6.1608815195,25.730171199999994,-0.8381016849999999,-2.4243150205,6.459878206,-8.9979043005,-3.575702768,1.9794811009999997
390,3.249870000000101,-6.142134905000001,6.116038799,25.748580950000004,-1.2722563745,1.1861858965,4.187397241499999,-8.687549113,-5.6918997765,1.2950305935
391,3.258203000000321,-6.2150051595,6.1009352205,25.762241350000004,0.13910132649999996,-2.224498302,0.0725755245,-10.7660424695,-2.079178095,1.0430629255000001
392,3.266536000000088,-6.2653691765,6.0640394685,25.794807449999993,-1.20661756,-0.337209869,0.47227245549999997,-8.1135597225,-4.925073623499999,2.952719331
393,3.274869000000308,-6.33942008,6.046382189,25.794612900000004,-0.34795272349999995,0.8032568095,3.8858366010000003,-10.7301831255,-2.2058149575,-0.6380503174999999
394,3.283202000000074,-6.4343783855000005,6.026524305500001,25.84491729999999,-0.5036877695,-0.825288832,6.0378537175,-13.698771,-3.1492000224999996,5.393616139
395,3.2915350000002945,-6.5114004615,5.985312223499999,25.837886800000007,0.0030432344999999916,-0.6980296374999999,5.6928822995,-10.9692020395,-4.92425406,-1.7680099009999999
396,3.2998680000000604,-6.5996394160000005,5.9793682100000005,25.887092600000003,-1.504671425,0.4230430125,1.8913617729999999,-12.93404579,-1.4941809325,5.450499177
397,3.308201000000281,-6.6586213115,5.9213654995,25.88068770000001,1.5591216685,-1.537062407,1.436022699,-8.7757382395,-6.9276328085,-1.9379861354999999
398,3.316534000000047,-6.725254536,5.894317865,25.939819300000003,-2.642268896,1.8739459219999999,2.622386396,-10.48860264,-4.1616419555,6.3332300185
399,3.324867000000268,-6.8084352015,5.84925437,25.92382814999999,1.2512232365,-2.1211373805,3.8111931089999995,-11.488697049999999,-5.245738864,-2.899461329
400,3.333200000000033,-6.864881277,5.8088889120000005,25.987724300000004,-2.1725791695,0.5034028290000001,4.6361602545,-9.376827717,-5.8249659535,6.5869257455
401,3.341533000000254,-6.929990053,5.76547575,25.973270399999997,1.2396516205,1.13842316,3.7736376525,-9.2940940875,-5.0636594294999995,-2.699843347
402,3.34986600000002,-6.9769742484999995,5.7073123455,26.024948100000003,-2.052966118,-2.4601640700000003,3.129392266,-8.111471653,-7.791536808,4.9403138755
403,3.3581990000002406,-7.037419319,5.675420284,26.018768349999995,1.417956635,0.3074074385,1.2482001185,-8.855808258,-3.80794698,-1.5685648325
404,3.3665320000000065,-7.0800318715,5.592287779,26.053161649999993,-2.368985243,1.256411642,3.6151639220000003,-7.354700327,-10.5232326975,2.5197626055
405,3.374865000000227,-7.1346235275000005,5.579446316,26.051177999999993,0.5974435805,-1.7235845925,1.9463988639999998,-8.2037732605,-1.5987382829999999,-0.793606043
406,3.383197999999993,-7.170883417000001,5.478536844000001,26.077846500000007,-0.679356098,-0.17443531750000008,4.502908826,-6.491998672499999,-12.536843300000001,1.3742935059999999
407,3.3915310000002137,-7.2079596519999996,5.4660861495,26.081558250000008,-1.750501007,1.8046047985,3.2493228915000003,-6.1694643495,-1.637806433,-0.11042296899999982
408,3.39986399999998,-7.2354307175,5.376415252999999,26.078731549999993,1.5924056169999998,-2.748564124,2.5922822955,-5.093206167,-10.7591018695,-1.9720979335
409,3.4081970000002,-7.2592451570000005,5.348027706,26.107791899999995,-2.9809296725,1.066675246,1.6523779035,-4.8822205064999995,-3.917422056,2.6482878330000004
410,3.416529999999966,-7.2780516145,5.2673835755,26.085941299999995,2.620155424,0.7594478725,3.732998133,-3.824813962,-9.399214984,-4.0694557425
411,3.4248630000001867,-7.2940030095,5.2397794725,26.114456150000002,-4.656396866,-1.1812480395,2.8222476245,-3.95998013,-3.819934249,2.590950608
412,3.4331959999999526,-7.2773976325,5.1709485055,26.091938,2.9951756005,0.8416113849999999,6.030013799500001,0.49165242900000006,-7.981414556500001,-3.9670881035
413,3.4415290000001733,-7.2683403495,5.160937548,26.109329199999998,-3.2680687905,0.21080145250000001,2.6971547605,-0.8810016215,-1.5581138154999998,1.537110269
414,3.449861999999939,-7.2365875245,5.09297359,26.103611,1.2437281610000002,-0.408871591,4.3683643345,2.1629877685,-8.1092431545,-2.1261867285
415,3.45819500000016,-7.1904456615,5.0892107485,26.108768450000007,-1.6071655155000002,0.25854307449999997,5.4179091454999995,3.6873680355000005,-0.6309043170000002,0.1848446130000001
416,3.4665279999999257,-7.1360476015,5.0208781955,26.118862150000005,1.1068419215,0.8747077585,5.076330185,4.7040098905,-8.409724474,-0.08571803550000001
417,3.4748610000001463,-7.0759227275,4.9924064875,26.11367415,-1.551254034,-1.046403497,4.243628621,5.461780548,-3.4210817815,-1.4163391589999998
418,3.483193999999912,-6.968455076,4.876351476,26.147384650000006,1.3558568954999999,1.3394593000000001,6.672331333,10.834113596000002,-14.436629295,2.0399692060000003
419,3.491527000000133,-6.8558819295,4.8134735825,26.134864799999995,-1.1002378465,-0.10877800000000004,4.9697997570000005,11.845541955,-7.415969371499999,-2.7679519205000003
420,3.499860000000353,-6.71195817,4.6523298025,26.1905098,0.7920064930000001,-0.6009888055,6.639054059999999,14.98320341,-20.091965675,3.899545729
421,3.50819300000012,-6.5519633294999995,4.521076441,26.1763458,0.16027927399999964,1.1597680595,6.7700908185,17.586583135,-15.552889350000001,-3.866938114
422,3.51652600000034,-6.389648914,4.284604311,26.237335200000004,0.7502558229999998,0.6980487854999999,12.37571621,17.15554142,-29.107845304999998,3.5129766460000003
423,3.524859000000106,-6.1993038655,4.0727922915,26.240978249999998,0.2541925905,-1.425019622,6.608011246,21.109666824999998,-25.411517144999998,-2.7133378385
424,3.5331920000003265,-5.9402832985,3.7602713105000003,26.30039215,-0.32414650899999997,1.677577913,5.9457046985,28.784392355,-38.138977049999994,2.580197692
425,3.5415250000000924,-5.680596113,3.438005209,26.315151199999995,0.5293889045,-0.46003308899999995,5.5133414265,29.365225795,-38.75074196,-2.51105091
426,3.549858000000313,-5.392015219,3.090371847,26.350990299999992,-0.6196441650000002,0.1876165125,14.090967655,32.573272705,-42.0286026,-0.30796064450000005
427,3.558191000000079,-5.1266274455,2.6882698535,26.369152050000004,0.1507660154999999,-0.19940197449999997,11.585726023,30.032168385,-48.3490448,-2.595452666
428,3.5665240000003,-4.805291176,2.3495323065,26.38587189999999,-2.8198968175,-0.21861672399999998,10.5293280475,36.69594574,-40.76603699,-1.9596243089999998
429,3.574857000000065,-4.4541163445,1.9374707939999998,26.38761135,1.7251594665,-1.5485696789999999,6.3032668685,40.37543297,-49.40943718,-4.131752372
430,3.583190000000286,-4.1411764625,1.4901174904999999,26.421031950000007,-2.984369814,0.9265834390000001,9.0677480695,35.681625365,-53.918607715,-0.5996599199999999
431,3.591523000000052,-3.802629113,1.2373728305,26.404808049999993,-1.5661235455,-1.6152220664999999,12.288022045,38.931241990000004,-30.226177215,-4.3845459225
432,3.5998560000002726,-3.4875638485,0.7458072455,26.441230749999995,-0.46623937750000005,-0.721520245,6.7538683415000005,35.96788788,-59.24012756500001,0.016686201000000178
433,3.6081890000000394,-3.175073266,0.5708310305,26.42145155,-4.7362403870000005,-0.9902409615,16.48872614,35.786117555000004,-20.927456855,-3.955260277
434,3.616522000000259,-2.909074426,0.2555148005,26.459262849999995,0.20062899600000006,-1.7450152785,9.743684532,30.144833565,-38.127695085,1.978190899
435,3.624855000000025,-2.6588586569999997,-0.0006366969999999084,26.450698850000002,-2.1809737085,-2.6816824675,9.8193039895,28.264050485,-30.75806141,-2.896391153
436,3.6331880000002457,-2.4911010265,-0.17004713450000003,26.4983444,-2.307135284,-1.7841500639999999,13.72928333,18.37586403,-20.674743655,4.2938001155
437,3.641521000000012,-2.3252801895,-0.3526813685,26.501678500000004,-3.031567514,-1.2990579305,10.4860277165,18.18570328,-22.013546945,-0.897690028
438,3.649854000000232,-2.2300282715,-0.448423624,26.5615654,-1.1999402045,-1.1582911004999998,13.2459588075,9.679383753,-11.88712692,6.192275047
439,3.658186999999998,-2.1496970655,-0.5899169445,26.566627500000003,-0.12898699949999998,-2.4308990240000004,11.31600237,7.948413372,-17.08820248,-0.41804999099999995
440,3.6665200000002183,-2.129761815,-0.620150566,26.635856600000004,-3.3233697415,-2.515946269,18.453338625,0.638287529,-4.0635253785,7.650607107999999
441,3.6748529999999846,-2.1615058185000002,-0.795367256,26.649528500000002,1.273138821,-1.8802838325,10.9880929,-5.4306611725,-21.166940689999997,0.47221112249999964
442,3.683186000000205,-2.1872740985,-0.7977480594999999,26.7012711,-4.315854311000001,-2.74955523,12.8241744035,-4.864290714,-0.6516581994999999,5.727196216499999
443,3.691518999999971,-2.2613419290000003,-0.990922451,26.74510195,3.2907159325,-0.6549923495,9.0688341875,-10.45037842,-23.46474934,3.9864753335
444,3.699852000000192,-2.370320201,-1.032729061,26.778026600000004,-5.119089842,-0.6865115645,18.208876609999997,-14.879345419499998,-5.3062731615,3.2772913575
445,3.7081849999999577,-2.52901721,-1.0716478564999998,26.800003049999994,-0.851136688,-3.2021476030000002,17.916268350000003,-20.644063950000003,-4.873828528,2.070451498
446,3.7165180000001774,-2.6655961274999997,-1.262583032,26.82731625000001,-2.2323911790000004,1.07263653,12.1189489375,-18.184463505,-23.18098545,1.8612473015000002
447,3.724850999999944,-2.815646648,-1.2209315675,26.833721199999992,-2.7692382335,-1.0217095315,18.132185935000003,-19.643686295000002,4.858958544,0.6273443700000001
448,3.733184000000165,-3.0088493825000002,-1.3058248534999999,26.828800200000003,-1.1200235205,-4.498868942,10.634690765,-25.048942564999997,-10.293507576,-1.470900178
449,3.7415169999999303,-3.1544059515,-1.3595843314999998,26.846023549999998,-2.3747448325,2.1185235975,11.51495409,-19.072436330000002,-6.650744915000001,1.3412897590000001
450,3.7498500000001513,-3.303148389,-1.2587618379999999,26.817176849999996,-4.003591418,-0.925231278,18.83921814,-19.784949304999998,12.121103764,-3.1596967575
451,3.758182999999917,-3.4711716175,-1.1532218005,26.805240650000002,-1.665576935,-2.529602289,16.1864419,-21.849588394999998,12.631250856000001,-1.0475840569999997
452,3.766516000000138,-3.5998444555,-1.09390733,26.783580800000003,-3.394985348,1.83787781,14.747092720000001,-17.352093695,7.1110714075,-2.650831163
453,3.7748490000003594,-3.7149996755,-0.8000825349999999,26.76934815,-4.7687759995,0.4636316894999999,16.6224284175,-15.48907089,35.2005682,0.16895294199999977
454,3.783182000000125,-3.8118556740000002,-0.647496447,26.723190349999996,1.852830589,-4.103941798,10.977895021,-13.534894945000001,18.46641922,-4.675054729
455,3.791515000000345,-3.9187333585,-0.41036880000000003,26.740375549999996,-5.375467062,0.9053456785,10.95178604,-14.486393450000001,28.15254879,3.6024731845
456,3.799848000000111,-3.9859175679999996,-0.037312477499999996,26.67866135,-1.0423860624999999,-0.8365676554999999,15.454655169999999,-9.908430574499999,45.00632286,-4.741247773
457,3.808181000000332,-4.086426139,0.25381422,26.705070499999998,-3.524113178,-0.6194932165,19.567605495,-13.7548418055,34.528074265,5.2480622530000005
458,3.8165140000000974,-4.1941764355,0.586743206,26.640365600000003,-0.720562503,-0.6423195005,17.400612835,-14.68951225,40.244005205,-5.3993680479999995
459,3.824847000000318,-4.272077084,1.0566800945000001,26.648815150000004,-5.7005944255,-1.117988348,15.01114559,-11.07819557,56.064971925,4.7923419475
460,3.833180000000084,-4.312629223,1.482116565,26.574291200000005,1.0306186675,-1.5514102875,13.031106945000001,-6.4179740555,51.413623810000004,-5.586843013499999
461,3.8415130000003046,-4.360016346,1.9502200185,26.593315149999995,-3.2908883689999997,0.8183713260000001,13.33630848,-7.518703222500001,55.73734474,6.1477208139999995
462,3.8498460000000714,-4.43143034,2.381964922,26.51602175,-0.9337353259999999,-1.7059820295,14.997178555,-9.949637411000001,52.209350584999996,-5.8317937855
463,3.858179000000291,-4.4897944925,2.9585314985,26.533279400000005,-5.538589001,-0.12006643399999997,15.271142959999999,-8.8876063805,68.715301515,7.0682196610000005
464,3.866512000000057,-4.5673127175,3.463445902,26.460468299999995,1.7559588925,-2.4182620645,14.748337265,-10.518387317,60.932762145,-4.5106639264999995
465,3.8748450000002777,-4.6200399395,4.054916978,26.471336400000006,-5.003071546499999,-0.7048711405,16.219271185,-8.2095856665,70.541502,6.6037555935
466,3.883178000000044,-4.706184625500001,4.5807555915,26.412090300000003,1.6326750515,-0.413468363,12.5933356295,-11.495934965,63.315223689999996,-2.5606539175000003
467,3.891511000000264,-4.790850878,5.1702098845,26.40691375,-5.573598385,-1.1222288985,18.450415135,-11.917157651,70.43943214,4.857650071
468,3.89984400000003,-4.892531395,5.785330057,26.351215349999997,0.4958889485,-2.018280268,18.50240183,-13.2306962,73.956497195,-0.9305217269999999
469,3.9081770000002503,-5.03346467,6.293373584999999,26.344100949999998,-2.5825983285,-1.5266080945,11.965889455500001,-18.653051375,60.706663135,4.046266496
470,3.9165100000000166,-5.1301977635,6.9859879015,26.28594975,-2.26671654,-0.9866277875,17.423096655000002,-12.462320805000001,83.25046158,-0.11895179749999985
471,3.924843000000237,-5.2228999135,7.4962773325,26.2595406,0.182036497,-0.5585954785,13.9365932955,-12.536089895,61.170000075000004,2.01349473
472,3.933176000000003,-5.355162382,8.027350426,26.219421399999995,-0.5293494015,-0.66279532,13.73841047,-16.89145374,63.74822426,0.5582395794999999
473,3.941509000000224,-5.4811565875,8.537775993,26.167957299999998,-2.4774850605000003,-0.8617617040000001,19.31042767,-16.05031586,61.45546341,-0.6822085379999998
474,3.9498419999999896,-5.6176290515,9.0003848075,26.11626055,1.020174682,-0.907434344,16.27898598,-17.0892477,55.705512999999996,-1.323861599
475,3.9581750000002094,-5.748980045,9.404202938000001,26.062004100000003,-0.44485585400000005,-2.1075202825,15.922225475000001,-16.5414238,48.75842094,-1.9805092809999998
476,3.966507999999976,-5.871727228,9.748891353000001,26.00840759999999,0.229997456,0.5167228580000001,12.48181057,-15.31324768,41.660161975,-2.7207869885000004
477,3.974841000000197,-5.964526415,10.0737695715,25.948120099999997,-0.3444796835,-1.4076716304999999,14.290308955,-11.6870942095,39.41477585,-3.450779721
478,3.9831739999999622,-6.03777194,10.336695671000001,25.923332199999997,-0.24880135049999996,0.7436307,16.762465,-9.93185854,31.55550289,-0.14537477450000003
479,3.9915070000001833,-6.1385967735,10.542284014,25.861614200000005,-0.364775896,-1.3144927025,19.584866525000002,-12.550145624999999,25.202433585,-5.0059539675
480,3.999839999999949,-6.2294254305,10.701175214,25.85835265,0.42055724549999995,-2.3251105545,15.097111224999999,-12.480098725,18.892663955,1.0122877359999998
481,4.00817300000017,-6.2918412685,10.815786359499999,25.809902200000003,0.518710397,-0.7266820965,15.911676405,-8.179106950000001,14.193419454999999,-4.554000139
482,4.016505999999936,-6.3261516095,10.892772674,25.826519000000005,-1.4845006465,0.8310325295000001,14.4599514,-6.172141075,8.861380099,2.375073809
483,4.024839000000156,-6.3617579934999995,10.955933093,25.782287599999997,-0.36889029149999997,-2.340403378,14.711259365,-5.02900362,8.008733986,-4.719801426
484,4.033171999999922,-6.3979666235,10.993266105,25.797458649999996,-2.36638093,1.2411740125000001,16.227678775,-6.3783228395,4.1622300145,1.6150354
485,4.041505000000143,-6.4468483925,10.983985903,25.755458850000004,0.06494754549999998,-2.4014265535000003,16.412154200000003,-6.6462352275,-0.6543411314999998,-5.411513567
486,4.049838000000364,-6.4653954505,10.9470462795,25.787326800000002,-0.951797366,-1.3896467685,15.63775873,-4.668046951499999,-4.921551466,2.6327016355
487,4.058171000000129,-6.488014221,10.871627807,25.756462100000007,-0.5731295940000001,-0.33200535200000003,14.140356065,-3.7314248085,-8.683989527000001,-5.0016732215
488,4.06650400000035,-6.4983980655,10.7980098715,25.791587849999992,-1.630023852,-1.009935871,14.420908449999999,-3.774494648,-9.337100029,2.5435384515
489,4.074837000000116,-6.513216734,10.707129002,25.76226045,-1.6757588385000002,-1.7764061094999999,16.442077635,-2.8202108145,-10.545042512999999,-5.035855055
490,4.083170000000337,-6.5362267495,10.61573076,25.7919197,-2.9578425285,1.0711177285,16.27515173,-5.182727337,-11.3815140715,1.6331317185
491,4.091503000000103,-6.5859444145,10.49790716,25.769447300000003,0.11819612950000002,-2.5320169925,15.684924604999999,-7.1514892575,-13.8439393,-4.611107707
492,4.099836000000323,-6.5958850385000005,10.347293856,25.802429200000006,-1.4999812845,-1.344264567,15.841938495,-3.6838209625,-18.483716965,1.194725186
493,4.108169000000089,-6.6005344390000005,10.207221987,25.7932968,-0.746748902,-0.2169009295,15.18183088,-2.0385159555,-16.675506115,-3.362784356
494,4.11650200000031,-6.6112799644999996,10.0564761155,25.81581874999999,-1.3074507414999998,-2.2767423984999997,13.73126888,-3.5397155285,-18.352316855,-0.05439186100000004
495,4.124835000000076,-6.6125068665,9.9188942925,25.822586050000005,-3.016953945,0.24737656100000005,17.286062715,-1.9602770505,-16.59403992,-1.4669143555000002
496,4.133168000000296,-6.6154055595,9.7589826605,25.840862250000008,-1.657931246,0.669808134,15.424425605,-2.5102021695000003,-19.38960552,-0.6463242175
497,4.141501000000062,-6.617729902000001,9.609582422,25.853405000000002,-1.1646821795,-2.713741302,15.553901195000002,-2.197951794,-18.081407544999998,-0.953144193
498,4.149834000000283,-6.6036846635,9.4253916735,25.8793144,-1.3348319530000001,-1.124134421,13.12841654,-0.6120651665000001,-22.38393688,-0.09687316400000001
499,4.158167000000049,-6.5921103955,9.2799744585,25.886352499999994,-1.5435503125,0.16067904249999992,12.85724163,-0.432477243,-17.53259468,-1.5421949625000002
500,4.166500000000269,-6.574806929,9.131745339,25.898380250000002,-2.5085451604999998,-2.345666647,15.410748954999999,0.08702445000000014,-17.904513360000003,-1.2435009165
501,4.174833000000035,-6.551925421,8.9949314595,25.917945850000002,-2.433099687,1.37971643,17.046666145,0.6830931305,-16.67551851,0.060756683500000186
502,4.183166000000256,-6.5357573030000005,8.8455615045,25.930255900000006,-0.895446494,-1.0395416025,16.609822275,-0.043121591000000015,-18.04653168,-1.20534838
503,4.191499000000022,-6.5059752465,8.691217661,25.95955275,-2.0998607875,-3.064094901,14.96057272,1.3311721365,-18.89734936,0.9801034035
504,4.199832000000242,-6.4610509875,8.538327694,25.96793365,-0.8159086035,-0.047060370500000004,13.004834175,3.5004485845,-18.40821838,-1.7295054795
505,4.208165000000008,-6.4251258374999995,8.4320878985,25.983711199999995,-2.5730537174999997,-0.7409074605000001,15.13863039,2.3176596165,-12.979445935,0.061090111999999974
506,4.216498000000229,-6.376944542,8.3137249945,25.994392399999995,-2.0619479419999998,-1.7545803485,17.299985884999998,3.8740447165,-14.320504665000001,-0.9831705985
507,4.224830999999995,-6.3344614505,8.2014906405,26.0177269,-2.064139247,0.494194962,15.467100145,2.960769415,-13.794196605,0.8902933595
508,4.233164000000215,-6.300073147,8.0771327015,26.0238571,-1.4484646614999999,-1.768379688,14.31305313,2.2989425065000004,-14.974553109999999,-1.5881022214999998
509,4.241496999999981,-6.253529072,7.959822416,26.046852100000002,-2.180117488,-1.94467926,13.23221302,3.4787021879999998,-14.393277170000001,0.8067782075000001
510,4.249830000000202,-6.221224785,7.867036104,26.050254799999998,-1.223037213,-0.021612945999999994,12.65132904,2.0948411225,-11.176034925,-1.4762444499999998
511,4.258162999999968,-6.188827753,7.7888326645,26.068103800000003,-2.4461022615,-1.4011588845,14.961330409999999,1.8741420505,-9.660569193499999,0.724729192
512,4.266496000000188,-6.143079757500001,7.701028346999999,26.08225635,-1.2072068155,-1.1955334245,16.731173990000002,3.5343360305,-10.7210884085,-0.12033563099999998
513,4.274828999999954,-6.1111474040000004,7.611261129500001,26.104156449999998,-1.868797302,0.43473419550000003,15.552052974999999,1.742107466,-11.090880395,1.067159563
514,4.283162000000175,-6.086122036000001,7.52195549,26.119514449999997,-1.992421508,-2.5915037395000002,14.38837242,1.0447215735,-10.913656710000001,0.0065572264999999574
515,4.291494999999941,-6.045483828,7.4575412275,26.141685499999994,-2.045936823,-0.760500677,12.326560975,2.787988305,-8.0669033525,1.43141979
516,4.299828000000161,-6.0288181304999995,7.4176402095,26.13798520000001,-1.7261590660000001,-0.45892804849999996,13.18494797,0.303707957,-4.811742901500001,-1.303668648
517,4.308160999999927,-6.0195605755,7.3620123865,26.147933949999995,-0.9091958105,-2.1213808655,14.57181883,-0.7772637010000001,-6.864762068,0.106170986
518,4.316494000000148,-6.028797865,7.293137789,26.139312750000002,-2.4715607165,-0.7793701860000001,13.059411525,-2.715089917,-8.1829230785,-2.4908374550000003
519,4.324826999999914,-6.034080744,7.294438362000001,26.120849650000004,-1.998617947,-0.8248668610000001,12.311074255,-2.0879380705,0.28457391249999997,-2.545139432
520,4.333160000000135,-6.0362775325,7.293186188,26.088333149999997,-2.6839652065,-1.6639781595,7.975452185,-1.5503778755000002,0.16039638199999998,-4.22202611
521,4.341493000000355,-6.059610605,7.3388800624999995,26.042335499999993,-0.9817062915,-0.7853583245,8.7072057725,-3.8187173605,5.9283704754999995,-5.2345187665
522,4.349826000000121,-6.128057956499999,7.31085062,25.996105199999995,-1.201138377,-2.079655051,8.3547525405,-9.268223287,-2.863242507,-6.1595902445
523,4.358159000000342,-6.1843023299999995,7.402711153,25.9422798,-3.0714390275000003,-2.1075775625,7.1366198065,-7.6560261245,11.545178412,-5.5587449074999995
524,4.366492000000108,-6.29562974,7.514508963,25.901714299999995,-1.5621150140000002,-0.90382643,7.906357528999999,-14.45740223,13.777766705,-3.8538742064999996
525,4.374825000000328,-6.443009138,7.570286750999999,25.881935099999993,-0.534244239,-2.351870894,4.9288916584999996,-19.0730629,6.8119347095,-1.9635497629999998
526,4.383158000000094,-6.57217741,7.792461395,25.865161900000004,-3.6456876995,-0.767619103,7.9945077895,-17.006808754999998,26.638090135,0.4532695414999999
527,4.391491000000315,-6.7592060565,7.856195927,25.88265609999999,0.5012610855,-1.318910837,4.5179145929999995,-24.397578235,7.2540893555,2.590983659
528,4.399824000000081,-6.9642467495,8.1332929135,25.857067099999995,-2.651236057,-1.355116427,9.427610636,-25.96588898,33.30481815,0.3378525969999999
529,4.408157000000301,-7.1671762465,8.245803833,25.877204900000002,0.4489778280000001,-1.5725670455,0.383960292,-26.374584195,13.0012793515,3.6708634385
530,4.416490000000067,-7.360590934999999,8.509188413499999,25.849674250000007,-2.6890892685,0.11798995750000002,3.6286522155,-24.52144241,31.690632819999998,0.18797087649999988
531,4.424823000000288,-7.590326071,8.6211030485,25.846107499999995,1.132852912,-0.840625763,7.172693491,-29.18184757,13.268424985,0.964824319
532,4.433156000000054,-7.818876028,8.862101078,25.813713049999997,-1.6009609400000002,-0.37717627,8.4203591345,-28.64179611,29.072081565,-0.30068600150000013
533,4.441489000000274,-8.052239418,9.000173571,25.785705549999996,-0.009224056999999952,-0.6815023125,4.6963655945,-29.175227165000003,16.76592398,-1.3647146225
534,4.44982200000004,-8.249603747999998,9.163051130500001,25.761188500000003,-0.4196119309999997,-0.39761044100000004,0.5555238725,-25.041438104999997,19.661125185,-0.4890151024999998
535,4.458155000000261,-8.421000481,9.2651371935,25.724578850000007,0.28545069700000014,0.155680597,3.452399731,-21.505690575,12.645633460500001,-2.8705508705
536,4.466488000000027,-8.592288017,9.3885335945,25.70156860000001,0.08611106849999972,0.19548383349999998,5.234743357,-21.951996805,14.95040512,-0.8994054794999999
537,4.474821000000247,-8.758729935,9.443492889000002,25.658943149999992,-0.8961098194999999,0.0187529845,7.343376875000001,-20.739697460000002,7.179028719500001,-4.3410908599999996
538,4.483154000000013,-8.8882608415,9.514237883,25.642261499999996,0.8158524040000001,0.061227381000000025,3.991332173,-17.09729624,8.5916006545,-1.035903931
539,4.491487000000234,-8.991145134,9.5183835005,25.612155950000002,-1.9276676175,-0.10076028100000001,1.9560455385,-13.34273243,0.9411952494999998,-3.790740609
540,4.49982,-9.0587010385,9.5229234695,25.610317200000004,2.6492035384999997,0.1285616585,0.0456652045,-9.9527006155,0.47596430749999996,-0.5298693180000003
541,4.50815300000022,-9.1122059825,9.484973907499999,25.601917249999993,-3.6416887639999995,0.9044592455,4.487620830499999,-7.848631622500001,-4.441790821,-2.0494586229999996
542,4.516485999999986,-9.139305591500001,9.439458368499999,25.613750450000005,3.9960238935000003,-0.2500664885,3.72270298,-5.345236778,-5.7192689775,0.13914966599999978
543,4.524819000000207,-9.1432285305,9.35603142,25.631244649999992,-4.673309978,0.796145529,5.5600779055,-2.4318476915,-10.3129384525,0.10628676400000003
544,4.533151999999973,-9.114793777500001,9.270291329500001,25.656448399999995,4.7996261715,-0.6507335085,2.599088907,1.091173023,-10.7389929305,0.958126426
545,4.541485000000193,-9.055735588000001,9.1425230515,25.6930313,-4.8380205035,0.8063664884999999,3.0118265749999997,4.726601839,-15.923075195000001,1.4995989795000002
546,4.549817999999959,-8.9767456055,9.010980369,25.721431750000008,4.570764661,-0.32210079950000003,2.281689018,7.1422054765,-16.222698215,0.5043955445000001
547,4.55815100000018,-8.873414993499999,8.843418837,25.762573249999996,-4.219262480499999,0.655565798,3.7167834045,9.9387698195,-20.72143364,1.3382102255
548,4.566483999999946,-8.760231495,8.688389301499999,25.7783394,2.6346464454999996,-0.29087587449999996,2.384015441,11.519795415,-18.775069235,-1.350453496
549,4.5748170000001664,-8.615752697,8.483094454,25.81631855,-2.4061967579999997,0.4119004905,3.6623339655000002,14.959089755,-25.133864404999997,0.370407909
550,4.583149999999932,-8.458352566,8.3008081915,25.82876205,2.0955140445,0.16967088,2.844280243,16.90828228,-21.954596515,-2.128794074
551,4.591483000000153,-8.2854948045,8.0777125355,25.862564099999993,-2.987773322,-0.8004721404999999,2.8473739625,18.456245420000002,-27.172089579999998,-0.28664907050000005
552,4.599815999999919,-8.095448016999999,7.8786790369999995,25.889041900000002,2.909375958,0.7918745725,2.126414895,20.600669865,-24.19154644,-0.636674434
553,4.60814900000014,-7.905213356,7.6405785085,25.92310715,-4.0021010045,-0.26384097349999996,3.2511039975,20.564545635,-28.958581925,-0.32982198900000004
554,4.61648200000036,-7.699125767,7.425506353499999,25.961311350000003,3.1717499495,-1.146598935,2.83557418,22.390110970000002,-26.28958797,0.6564421054999999
555,4.624815000000126,-7.4856123925,7.189581156,26.002014200000005,-3.6035699845,1.4164996745,2.7441024785,23.273344995000002,-28.80521965,0.6986354290000001
556,4.633148000000347,-7.2738027575,6.9581489565000005,26.050540899999994,2.3256813885,-1.195329824,2.2653518915,22.945622444999998,-28.386078835,1.814366996
557,4.6414810000001125,-7.0387005805000005,6.7284002305,26.091117850000003,-3.8025261165,-1.0868848785,4.154244304,25.925308225000002,-28.05823612,1.005674019
558,4.649814000000333,-6.812877178,6.5020453929999995,26.140918700000007,2.2845036985,2.227112472,2.9590820675,24.662459375,-27.78393078,2.275116503
559,4.658147000000099,-6.596689701000001,6.2711148265,26.167659750000006,-2.6997778415,-2.9422193764999998,3.6486238240000004,23.870965005000002,-27.994450569999998,-0.436185151
560,4.66648000000032,-6.3575236795,6.043282747499999,26.229854600000003,0.6691808105,-0.17333495599999993,3.6465352775,26.14564514,-28.09445572,3.841186404
561,4.674813000000086,-6.143613815,5.8193557264999995,26.240859949999994,-0.9504227045,1.7591912,3.1875475645,23.83538532,-26.95301056,-1.9834980665
562,4.683146000000306,-5.929760456,5.5925300125,26.301067349999997,-0.2355311255,-3.3090174195,2.545201778,23.17589569,-27.92900753,3.9449490305
563,4.691479000000072,-5.7153048515,5.3755278585,26.31431965,-0.8464084565000001,0.44098579899999996,2.5274829865,23.858407975,-26.168225285,-1.436658919
564,4.699812000000293,-5.499572992499999,5.1450383665,26.356895449999996,-0.424465954,1.438551083,3.7488855125000002,23.675052645,-28.127145765,2.0475978255
565,4.708145000000059,-5.294862269999999,4.936674237,26.371047950000005,-0.6771834939999999,-2.860666394,2.845198691,22.70634365,-25.15189075,-1.031543754
566,4.716478000000279,-5.0786890985,4.7091732025,26.406517050000005,0.2175380945,0.5431603195000001,3.197865844,23.831734654999998,-27.66757393,1.318231642
567,4.724811000000045,-4.885759115000001,4.4936834574999995,26.41653065,-1.6927084925,0.5578725339999999,3.5692789554999997,21.335363389999998,-25.965768814999997,-1.419497341
568,4.733144000000266,-4.6960835455000005,4.281188846,26.447471599999993,1.139970541,-2.440933466,3.26421386,20.742996215,-25.82204723,1.2346778065
569,4.741477000000032,-4.4982061390000005,4.063246012,26.460090650000005,-1.7791262865,1.187887177,3.5757343765,21.889606475,-26.293951035,-0.9603746905
570,4.749810000000252,-4.3349549775,3.8607667685000004,26.481262199999996,-0.14453359699999999,-0.6146742105,2.5732017755,17.678685185,-24.51677132,0.23032316550000004
571,4.758143000000018,-4.1377182005,3.6572892665,26.489952049999992,-1.282122642,-2.233941287,5.018466234,21.897047999999998,-24.526594160000002,-1.127372999
572,4.766476000000239,-3.9639321565,3.4729722735,26.50579835,-0.049787282999999904,2.8640999794999997,3.0850925965,18.986330029999998,-22.30249023,-0.009029016
573,4.774809000000005,-3.804063678,3.276918888,26.502155300000005,-0.4365725519999999,-3.1547842025,4.077043294999999,17.494107720000002,-23.536162375,-2.502903104
574,4.783142000000225,-3.6374424695,3.1126344205,26.520610850000004,-1.6402423275,-0.7526347045000001,3.5174350739999998,18.108498570000002,-19.917633055,0.5279480664999999
575,4.791474999999991,-3.4883373975,2.9259898664999997,26.503375999999996,0.5921982525,1.9257753489999998,4.6700009105,16.307358264999998,-22.323659900000003,-3.8179645539999996
576,4.799808000000212,-3.3604742290000003,2.7959406380000003,26.51022720000001,-2.3081157505000003,-2.7464371325,1.8436214925,13.53034687,-15.732455730000002,-0.4882971345
577,4.808140999999978,-3.205601811,2.6168744564999997,26.50276185,1.1644052264999998,-0.30922937400000006,4.9149010185,16.930130005,-21.49959755,-2.4968710245
578,4.816474000000198,-3.0892139675,2.5144644975,26.483398450000003,-3.3757514805,0.8576424715,3.4364560845000005,12.310567855,-12.247622013,-3.378896117
579,4.824806999999964,-2.9771119355,2.3717344405,26.477996800000007,1.2009158134999998,-2.47158736,5.388959646,11.801539895,-17.16567516,-1.9224006235000002
580,4.833140000000185,-2.8850798605000003,2.3160836099999997,26.448665599999998,-1.9343996049999999,-0.2658125760000001,4.2893954515,9.384180069,-6.597722292,-4.2799922825
581,4.841472999999951,-2.8065054414999997,2.1937527655,26.449184449999997,0.040565728999999884,0.46612525,5.0741775035,7.7682936190000005,-14.7581892,-1.04255116
582,4.849806000000172,-2.747955561,2.1762222645,26.427162200000005,-2.324047148,-3.758758545,2.401890099,5.3236050605,-2.0833403765000003,-3.1686605515
583,4.858138999999937,-2.6777690649999997,2.1233952645,26.449207300000005,-0.3501687050000002,2.621378839,6.049027562499999,6.681671618999999,-6.548797845999999,1.9688260555000001
584,4.866472000000158,-2.6679589750000003,2.139952183,26.43238449999999,-0.6783493754999999,-1.9614242020000001,7.5536816125,-0.5563027265,1.9725646970000001,-2.471761227
585,4.874804999999924,-2.6516672375,2.14118582,26.468406700000003,-2.3775510344999997,-1.6511826104999998,8.4164104465,0.13127291200000002,-0.14597535099999992,3.9454188645
586,4.8831380000001445,-2.6320450304999996,2.150378764,26.448181149999996,2.2758906485,1.578559041,6.446788787999999,0.6606550220000003,1.110402644,-2.9314272404999997
587,4.891471000000365,-2.6005117895,2.1639841795,26.47446445,-3.0694954395,-0.8780611155,6.8782681205000005,1.942276366,1.3861142400000002,2.8454533815
588,4.899804000000131,-2.5419631005000003,2.0741711560000002,26.46489715,3.2857072350000003,-0.6804712414999999,6.553184271,5.3520383835,-10.812469719,-2.1949802635
589,4.908137000000352,-2.5080937150000002,2.050315499,26.49053955000001,-1.7460938095,1.282837376,13.423581124999998,2.2151895759999998,-3.097337544,2.5817677975
590,4.916470000000118,-2.438925147,1.9141002595,26.488567349999997,2.483280897,-1.621826172,10.158035517,6.592535257,-16.421271325,-1.4069583865
591,4.924803000000338,-2.403244376,1.7297912835,26.52941895,-0.2072716775,-0.47550284899999995,16.15289974,2.364687741,-22.409965515,3.6081567999999997
592,4.933136000000104,-2.3494979145,1.482468575,26.525604249999994,0.3592323955,-0.547312781,6.39109802,4.7766305209999995,-29.730113025,-2.1529303195000002
593,4.941469000000325,-2.2745747565,1.257280089,26.5344238,-0.31865065,-0.8782613425,15.268761635,7.1923742295,-27.14848423,-0.3899907469999999
594,4.949802000000091,-2.2140761615000004,0.8705714195,26.530742649999993,0.5673863884999999,-0.6558708400000001,10.450255395,5.5569620135,-46.44684982,-2.859381318
595,4.958135000000311,-2.1611047985000003,0.6008245050000001,26.518691999999994,-1.588751316,-1.872753203,14.084881305,4.6251220705,-32.39444065,-3.0395486355
596,4.966468000000077,-2.1176319715,0.11459416150000001,26.5206413,1.3786545995,0.246273935,10.6119685175,3.515876591,-58.408615115,-2.522108216
597,4.974801000000298,-2.0430880785000003,-0.16336894049999995,26.4948578,-3.5203100440000004,-0.8915815055,15.624613765,7.18613863,-33.32596493,-4.662992954
598,4.983134000000064,-1.985402465,-0.6090209485,26.497123749999993,1.5892952679999999,-1.715605557,13.569369553000001,5.2193045614999996,-53.550237655000004,-2.160508573
599,4.991467000000284,-1.9133250115,-0.9963133184999999,26.479591349999993,-5.3531528715,-0.390311599,13.013931753,6.868797302499999,-46.481046675,-4.0670422315
600,4.99980000000005,-1.8342471715,-1.2570671405,26.46490095,-0.33944571049999994,-0.83502952,15.861888885,7.747934580000001,-31.315984730000004,-3.2544637915
601,5.008133000000271,-1.800988853,-1.7054265739999999,26.4657135,-1.5536108615000002,-1.904898554,12.7366290085,2.24973613,-53.883033755,-1.9821307065
602,5.016466000000037,-1.740398407,-1.9046822790000002,26.4681931,-4.0795388814999995,-0.482415706,14.249064446,5.576318383,-24.010854725,-0.924982131
603,5.024799000000257,-1.7006277445,-2.1734799745,26.460002900000006,-0.4386409,-1.581979483,13.6253151905,2.9899458885,-32.315431595,-2.3122956155
604,5.033132000000023,-1.682122111,-2.454951525,26.476314549999998,-3.7907735110000003,-1.265993923,11.41339827,0.573887944,-33.928809165,0.458085239
605,5.041465000000244,-1.643308282,-2.475751877,26.459716799999995,-3.5856081250000003,-0.858216867,13.014230730000001,2.8283557889999997,-2.539721906,-2.4343835115
606,5.04979800000001,-1.6773212549999998,-2.708353877,26.477722149999998,-0.08200430850000001,-0.684337467,14.531839131,-5.696283221,-28.079924585,0.9913101269999999
607,5.05813100000023,-1.6896299125,-2.707877159,26.462207750000005,-6.063071727500001,-1.1677947045,16.845577714999997,-3.306112766,0.00906801200000018,-2.241047442
608,5.066463999999996,-1.7278894185,-2.6601940985,26.476718899999995,-1.598967969,-0.8437889145,14.165455345,-6.2227168079999995,5.5435171125,1.576959759
609,5.074797000000217,-1.800540388,-2.720646918,26.470832800000004,-0.556782246,-2.6874940395,12.52724075,-10.486181497499999,-7.330570698,-1.303220451
610,5.083129999999983,-1.8391842845,-2.5056239365,26.486740150000003,-6.2244000435,-1.4391888755,13.056287291,-6.289817272,25.606598855,2.251037836
611,5.091463000000204,-1.935828984,-2.378344357,26.4747238,1.320217885,-1.95219034,10.03902253,-13.40751362,15.210513115,-1.3042450995000001
612,5.099795999999969,-2.053558409,-2.2054644225,26.499843600000005,-4.562787771,-1.0083762405,15.12623739,-15.70556402,20.505675314999998,3.2607777715
613,5.10812900000019,-2.1422463655,-1.827567965,26.4840546,-3.1845368145000004,-0.6766917109999999,19.166150095,-12.476007463,45.282106395,-0.6092873810000001
614,5.116461999999956,-2.313477874,-1.5465866625,26.509361299999995,-1.9625445005,-1.499570489,14.789949894500001,-22.169041635,33.446071625,3.884845853
615,5.1247950000001765,-2.4602411985,-1.1833436115,26.490047450000006,-3.0792067645000003,-1.7332735060000002,11.960639956,-19.4385252,43.543409345,-0.8761503695
616,5.133127999999942,-2.5861566065,-0.705656543,26.503856650000003,-5.516960859,0.013326279499999996,13.96755314,-16.79646301,57.058706285,3.8027198315
617,5.141461000000163,-2.757125497,-0.208139509,26.471828450000004,1.126995504,-2.0473333595,14.29238367,-22.295663835,59.71495056,-1.420320407
618,5.149793999999929,-2.9563273195,0.28824549900000007,26.485713999999994,-4.906302452,-0.8849795465,16.41289425,-25.631715775,59.27665329,4.149041295
619,5.15812700000015,-3.154809594,0.8586873185,26.472553299999994,-0.8153319355000002,-2.024322033,16.017080305,-25.54866028,68.33760071,1.7017342745000001
620,5.166459999999916,-3.3580727575,1.5135850905,26.471031149999995,-4.759664655,-1.049018696,15.991979599999999,-26.112203595,78.3388443,3.7811398505000002
621,5.174793000000136,-3.569076419,2.1535663605,26.452045400000003,-0.6497140819999999,-1.2793566585,11.622436050000001,-26.99542713,76.694747925,1.999274701
622,5.183126000000357,-3.7875486615,2.8477857115000003,26.443935349999997,-3.981910944,0.3964094595,12.971725939999999,-27.90933514,83.06375885,3.866039872
623,5.191459000000123,-4.011803985,3.5449317689999997,26.40421295,1.321241975,-1.6293541345,16.248179909999998,-28.37987709,83.68721771,0.5725338915
624,5.199792000000343,-4.2697312830000005,4.1913332940000005,26.392932900000005,-3.820273459,-1.625935584,13.703891755,-32.594434735,77.33324051,3.7374402284999997
625,5.208125000000109,-4.5089092255,4.9908845425,26.34896849999999,0.06050765500000005,-2.67127347,17.305433275,-30.020614625,95.966602325,1.7288288475
626,5.21645800000033,-4.7612421515,5.6445679665,26.312408449999992,-0.660036195,0.2952326235,14.308732509999999,-31.607157705,78.420959475,1.3313858805
627,5.224791000000096,-4.986545801,6.345083713499999,26.252262099999996,-2.4246662855,0.7098778785,14.890891555,-28.028972625,84.267837525,-0.3822312635
628,5.233124000000316,-5.190784216,7.066215038499999,26.18067934999999,-1.064544767,-0.9304410665,16.931760785,-25.208966255,86.837551115,-1.4613086285
629,5.241457000000082,-5.4053926465,7.677403927,26.124801649999995,1.38652122,-1.1005269885,16.87857151,-26.638569835,73.5427742,-0.22274258749999998
630,5.249790000000303,-5.6200580595,8.2694261075,26.053680400000005,-0.836452648,-0.9228920785,17.08377266,-26.271684645,71.41970825,-2.2560299035
631,5.258123000000069,-5.813015461,8.809210062,25.990966800000002,1.1095172464999998,-1.2676984670000002,14.31878519,-23.778517725,65.09320068,-1.3243575695
632,5.266456000000289,-5.9754612445,9.331122401,25.925373099999995,-2.16009438,0.21027097099999997,16.01921892,-19.941775319999998,62.995103835,-1.9490393995000002
633,5.274789000000055,-6.1398639675,9.793959619999999,25.8588486,0.08203845450000002,0.28746094,13.270256995,-20.148879049999998,55.961530685,-2.342371106
634,5.283122000000276,-6.298490763,10.208724500999999,25.805801400000007,-0.09519231299999997,-1.1197645065000001,14.923435689999998,-19.57910347,50.06200409,-1.5175452680000001
635,5.291455000000042,-6.4322540759999995,10.559740545,25.76185605,0.15151999900000002,-0.7624899745,19.616251945000002,-16.86128807,42.33739662,-0.8613440990000001
636,5.299788000000262,-6.566236496,10.841243269,25.737327599999993,-0.937854454,0.17400642649999998,16.550293445,-17.208669665000002,33.7981472,0.297663361
637,5.308121000000028,-6.6962435245,11.062713625,25.693847650000002,0.41731897,-1.8762571815,14.601234915,-16.36831188,26.8903265,-2.394427329
638,5.316454000000249,-6.8035173415,11.24363518,25.677932749999997,-1.3585654495,-1.093615651,16.480650425,-14.175199505,21.685170175,0.12141144299999995
639,5.324787000000015,-6.898435593,11.38283348,25.64564895,0.3833650945,0.42991573400000005,15.438141819999998,-12.38714552,16.937337875,-2.156943619
640,5.3331200000002354,-6.9912111755,11.48728323,25.643264750000007,0.09586578600000006,-1.304223686,15.58455372,-12.756422520000001,12.378076075,0.7376130520000002
641,5.341453000000001,-7.0658640865,11.57405615,25.62739945,-0.544971734,-0.912739664,17.09743881,-10.3299474705,10.46180916,-0.952529539
642,5.349786000000222,-7.116732359,11.63253069,25.635955800000005,-1.7831144335,0.34141583750000004,17.22625065,-7.991532564,6.7577199935,1.274429724
643,5.358118999999988,-7.160763979,11.66543722,25.6273689,-0.314228229,-1.245721191,15.31562567,-6.8152372835,3.942498326,-0.883018762
644,5.3664520000002085,-7.195252180000001,11.670365335,25.642745950000005,-2.2964603305,-0.5837898405,13.100225925,-6.2003545765000005,0.2764800785,1.318588734
645,5.374784999999974,-7.2247900959999996,11.642049315,25.64985275,1.013227552,-1.5663514735000001,12.943138600000001,-5.4468095299999995,-3.5775725845,0.030301634
646,5.383118000000195,-7.233267784000001,11.591936109999999,25.668930100000004,-2.1085951925,-0.1537743545,16.558263775,-3.1728413105,-6.325326204,0.8807134329999999
647,5.391450999999961,-7.242258072,11.515953060000001,25.672725649999997,-0.2453436925,-1.0370941165,17.47974682,-2.8992820975,-9.2029590605,-1.0767393410000001
648,5.3997840000001815,-7.2444231509999995,11.409585475,25.698608400000005,-1.7629086374999998,-0.686317116,15.680763725,-2.590707183,-13.12817335,0.8894864025
649,5.408116999999947,-7.2375636100000005,11.27968836,25.711212200000006,-0.010466724999999955,-1.179687202,15.82019138,-1.1838068659999998,-15.751906395,-0.862303451
650,5.416450000000168,-7.2304694650000005,11.1254739765,25.737800600000007,-1.4537572265,-0.848833948,13.34297037,-1.493163049,-18.831162454999998,0.2425540535
651,5.424782999999934,-7.231277943,10.9810524005,25.757881149999996,-0.26235652,-1.8198147415,14.517841815,-2.2538036705,-17.590997695,-0.20137906099999991
652,5.433116000000155,-7.217485428,10.850824832499999,25.78785705,-2.678337574,-0.1611608565,16.629844665,-0.7730249165,-16.032675745,1.077917576
653,5.4414489999999205,-7.207231045,10.699254034500001,25.804950749999996,-0.9074325855,-0.0434840395,16.86068535,-0.8635137675000001,-18.39918995,-0.6546101865
654,5.449782000000141,-7.184805154499999,10.554319860500001,25.837982200000006,-1.4686251875,-1.7848558725,14.872230049999999,0.25342738600000003,-17.81370163,1.1268922685
655,5.458115000000362,-7.1525592805,10.3766560535,25.879138949999998,-0.9220361859999999,-0.966460824,12.84713602,1.2623595520000002,-21.860532759999998,1.7890459
656,5.466448000000128,-7.1193122865,10.2154030775,25.9112358,-1.4432551265,-0.24105802899999998,13.242467405,1.5517555475,-19.74662876,0.8394174130000001
657,5.474781000000348,-7.0912423135000004,10.0614871975,25.943973549999995,-2.152473748,-1.1909583209999999,16.14198494,0.981922209,-18.907440185,1.184069544
658,5.483114000000114,-7.0603179935,9.9370260215,25.973289500000007,-2.3112383784999997,-0.5704602005000001,17.827685355,1.3585404755,-15.315171240000002,1.0034891965000001
659,5.491447000000335,-7.039844989500001,9.796687602,26.006267549999997,-2.894656658,0.1377670405,16.64078045,0.06964512149999999,-17.29239845,1.432072982
660,5.499780000000101,-7.0071468355,9.677309511499999,26.023941050000005,-0.8462547364999999,-1.951606214,14.91065216,1.8368676905,-14.537791729999999,-0.28025816400000003
661,5.508113000000321,-6.9548072815,9.543303012500001,26.063056950000004,-1.827945113,-1.6888802649999999,14.371973515,3.7916567325,-16.62432671,2.2699532215
662,5.516446000000087,-6.9023492335,9.4230656615,26.0732651,-1.1042472735000002,-0.012613191999999995,14.12529659,4.35451746,-14.531836985,-1.1535053495
663,5.524779000000308,-6.851963282,9.296820641,26.098011050000004,-3.1412775515,-0.968523629,16.033431049999997,3.857805371,-15.491933345,0.725958705
664,5.533112000000074,-6.802937269,9.1772012695,26.118003849999994,-0.4440674185,-1.388367981,16.21816778,3.7747508285,-14.595511915,0.0318769325
665,5.541445000000294,-6.759155273499999,9.0447101595,26.150932299999994,-2.1225500705,-0.160220176,14.090855600000001,2.9102451205,-16.349164965,1.6252169905
666,5.54977800000006,-6.7081525325,8.9404246815,26.17033385,-0.812045058,-2.0343370435,12.976891994999999,4.0369769335,-12.757971765,0.1875282375
667,5.558111000000281,-6.640386581,8.8277499675,26.209335349999996,-2.0391437409999997,-0.7985433934999999,12.89529419,5.693641901,-14.0667963,2.6493641135
668,5.566444000000047,-6.58325243,8.729776382499999,26.230636600000004,-0.875571273,0.5400919135,16.149525645,4.7427779435,-12.03211641,0.5352927225
669,5.574777000000267,-6.5476408005,8.606605768,26.255783050000005,-2.1609092949999997,-2.4767302275,16.52428293,2.1005917435,-15.12547207,0.9035743024999999
670,5.583110000000033,-6.5019593234999995,8.495752096,26.2834053,-0.820989728,-1.0931303799999998,15.305459975,3.270227432,-13.647682665000001,1.122358292
671,5.591443000000254,-6.450537205,8.3778965475,26.30433275,-1.821552902,-0.4136600495,13.75088596,4.0749503375,-14.433810715,0.501917444
672,5.59977600000002,-6.3857891559999995,8.2738821505,26.327281950000007,-0.9484468995,-2.2476355435,12.763079645000001,5.641529799000001,-12.7747612,0.7439078985
673,5.6081090000002405,-6.325470686,8.1914131645,26.353351599999996,-2.6457253695,-0.9027937054999999,12.5301919,5.0745966435,-10.2787566165,1.611743957
674,5.616442000000006,-6.2899253365,8.112814665,26.377300299999995,-1.065870464,-0.118545186,13.625540255,2.135708779,-9.745238303,1.1486513315
675,5.624775000000227,-6.2487065795,8.021383047,26.399810800000004,-2.3892351985,-1.42507115,15.102525235,2.852459252,-11.29917717,1.0901995155
676,5.633107999999993,-6.2157471179999995,7.9579346179999995,26.414760600000008,-1.9820213315000001,-0.39416201450000005,12.27423954,1.9335227910000001,-7.8485927585,0.5505012575
677,5.6414410000002135,-6.192027092,7.9163243770000005,26.40696715,-1.714176387,-1.4530460834999999,10.27101803,1.267783046,-4.9643142220000005,-1.8304893075
678,5.649773999999979,-6.1675300595,7.852075815,26.41324615,-0.42071954899999997,-1.8025149105,10.317111015,1.0869144055,-7.8163313865,-0.644479841
679,5.6581070000002,-6.169034958,7.801006793999999,26.40232850000001,-2.312477112,-1.208560705,8.515917301,-1.7223332525,-6.0544178485,-2.3202463985
680,5.666439999999966,-6.180977583000001,7.7575707435,26.384887700000007,-1.4858169855,-0.801386684,7.8034698965,-2.884886265,-5.032217026,-3.1553341154999996
681,5.674773000000187,-6.1913592815000005,7.804741144,26.348392500000003,-3.1071743965,-1.319266856,10.242822649499999,-2.3885337115,5.9930458065,-4.076678634
682,5.6831059999999525,-6.266029358,7.7819321155,26.310726199999998,0.3662700205,-2.207595885,8.075138927000001,-10.1173474805,-2.3315357715,-5.0749042035
683,5.691439000000173,-6.3532516955,7.80911541,26.274105050000003,-3.751404047,-1.1891465485,3.9471339585000003,-11.578552245000001,3.6194331645,-4.338802576
684,5.699771999999939,-6.447239399000001,7.942999125,26.227016449999994,-0.1765443685,-2.2721362115,10.189965725,-12.2406177505,16.51120472,-4.2646245955
685,5.70810500000016,-6.585354327999999,7.9208455085,26.22836685,-1.5494867565,-1.1261658075,1.5706782344999994,-18.32633114,-2.760786504,-0.5141610895
686,5.7164379999999255,-6.7573091985,8.1346037385,26.20005795,-2.8250590559999997,-1.192550957,9.155382635,-21.875084875,25.78926277,-0.8549013884999999
687,5.724771000000146,-6.948595762,8.185175657,26.216686250000002,0.5746991635,-0.9188024024999999,3.950413108,-24.97414303,5.6887080050000005,2.3143563865
688,5.733103999999912,-7.1275732519999995,8.3534834385,26.196582799999995,-2.086299002,-0.460896544,8.326515378,-22.8650465,20.2557621,-0.376888018
689,5.741437000000133,-7.304769993000001,8.5086808205,26.194606800000003,-0.45117652450000006,-1.196747303,1.572234571,-22.976568225,18.40524435,1.7321192325
690,5.749770000000353,-7.4910998345,8.576562642999999,26.16785435,-0.6740875359999999,-0.5674546885,2.76189816,-23.619968415000002,8.390055658,-2.4615741370000004
691,5.758103000000119,-7.685584307,8.744406223,26.148212450000003,-0.5580580235,-0.03170995400000001,6.5699335335,-24.75135994,20.172236445,-0.024614334499999835
692,5.76643600000034,-7.9018414020000005,8.8131067755,26.11397935,0.5017156599999999,-0.4526090625,7.7689967155,-26.996685980000002,8.622686386,-3.2480664255000002
693,5.774769000000106,-8.0798721315,8.9744806275,26.107948299999997,-2.1709636150000002,-0.8394421635,5.177205399,-23.070151324999998,19.17576122,1.5990077260000002
694,5.783102000000326,-8.2226729395,9.00716877,26.0941391,1.6352517605,0.20960664750000002,-0.7428167164999999,-18.52217865,4.015590072,-1.4143925905
695,5.791435000000092,-8.334527016,9.1147563465,26.112522099999993,-1.71094501,0.453356385,1.309250236,-15.60616636,12.365604399999999,3.6253005865
696,5.799768000000313,-8.4635953905,9.137489558,26.1140938,1.1959836480000003,0.3842396435,8.623565672,-17.102880955,2.578598738,0.22756934199999979
697,5.808101000000079,-8.5648059845,9.200749399,26.132221250000008,-1.9680278300000003,0.46769660699999993,8.476792097,-14.39495325,7.083971024,2.8470373135000004
698,5.816434000000299,-8.6239414215,9.1767086995,26.1528206,1.3534941675,-0.347860575,3.4884311555000003,-9.053129670499999,-3.3102879525000004,1.6382241230000005
699,5.824767000000065,-8.6295576095,9.180420875,26.15574265,-1.1877455709999998,-0.335524634,-1.172037452,-2.6709822415,0.28869801799999995,0.005109785000000144
700,5.833100000000286,-8.621697426,9.1107335075,26.201828,0.5684671400000001,1.9018373785,3.5234879255,-1.4597935675000002,-9.180662632,3.8203525525000006
701,5.841433000000052,-8.6111240385,9.061619044,26.173866250000003,-0.14274978650000003,-1.2246612904999998,7.007015705000001,-0.13592124000000005,-5.4418671135,-4.5573630345
702,5.8497660000002725,-8.5785250665,8.973246336999999,26.246051799999996,-1.2564845084999998,1.5587355495,8.340712308499999,1.0189536959999999,-11.84556866,6.5487940315
703,5.858099000000038,-8.519174099,8.8872494685,26.1859932,1.0117307905,-1.848642707,3.3512234089999997,6.325775504,-9.2582993505,-8.9689951525
704,5.866432000000259,-8.415617943,8.750647068500001,26.281654350000004,-1.7568541765,1.5610165,0.452855408,9.0736489275,-17.974933145,8.4803708805
705,5.874765000000025,-8.2971901895,8.620987654,26.199199649999997,1.8068513274999998,-1.545354366,0.360302001,13.854944705,-14.076790335000002,-12.3242123135
706,5.8830980000002455,-8.161276340499999,8.455628395,26.301342000000005,-2.441482723,2.1918413345000003,3.4116197825,12.833283900000001,-21.466348645,8.8174302585
707,5.891431000000011,-8.0351400375,8.306981802,26.202667249999998,1.9796614350000001,-2.078206956,4.5472142694999995,15.0854187,-16.11444521,-14.48261213
708,5.899764000000232,-7.8781814575,8.120229482500001,26.29710004999999,-2.9807192985,1.6949561835,5.101219653999999,15.491713524999998,-23.840013505,7.654864787999999
709,5.908096999999998,-7.723120928,7.9661426545000005,26.20532990000001,2.5054385514999997,-1.724223137,2.782253623,18.437389375000002,-16.94007015,-13.67755747
710,5.916430000000219,-7.5406856535,7.770724058,26.28878785,-4.2453306914999995,0.6677910615,1.498129845,18.729279515,-24.658431055,6.365188121499999
711,5.9247629999999845,-7.3586111065,7.6235556605,26.222480800000007,3.0981879235000003,-0.5820245595,1.8522028325,21.28092861,-16.58473587,-10.467181684
712,5.933096000000205,-7.1699695585,7.4319458009999995,26.2959404,-4.410256863,0.5633918309999999,4.1761398315,19.650996205,-23.99767113,5.2556806505
713,5.941428999999971,-6.9901578425,7.302814245,26.2596245,2.544943571,-1.7581914665,3.9822183845,20.54860401,-14.93488264,-6.552843048500001
714,5.949762000000192,-6.7960567475,7.130092621000001,26.324768049999996,-3.3832734825,1.3751942815,3.4805048705,20.42703056,-21.61581421,4.848113178
715,5.9580949999999575,-6.6202487945,7.017188549,26.317585000000008,1.285642713,-1.933705017,1.8408501739999998,19.62827015,-13.445258615,-2.7916469589999995
716,5.966428000000178,-6.414839506,6.858511448,26.370357499999997,-2.565070033,-0.5732194185,3.1870782374999997,22.001091,-19.727837565,3.5948700884999996
717,5.974760999999944,-6.2462582585,6.7671084404999995,26.3865166,0.764517546,1.5055113435,2.0151384325,18.42802143,-11.201269627,0.34524083149999996
718,5.983094000000165,-6.08122468,6.622750282,26.4198036,-1.671649605,-3.5302907230000002,3.2671000955,17.47504711,-17.74759579,1.5992767810000004
719,5.991426999999931,-5.907488823,6.5431485175,26.452877050000005,-0.05953574149999996,1.1897403485,3.2312835455,18.77070141,-10.002600191500001,2.5579153299999993
720,5.999760000000151,-5.760453462499999,6.420679569,26.464809449999997,-1.3136720510000002,0.04700583250000001,2.345390439,15.6617465,-14.862864015,-0.521903276
721,6.008092999999917,-5.604478121,6.341490984,26.512920400000006,-0.2784450615,-2.5861268045,2.8021494149999997,16.42552233,-10.1184773425,4.4002640565
722,6.016426000000138,-5.453300476,6.2365584375,26.498905199999996,-0.8744478525,0.4686327575000001,2.9352604155,16.540673735,-12.4672918315,-3.3181781170000004
723,6.024759000000358,-5.3193991185,6.157526493,26.5546837,-0.327207066,0.993280262,2.793715358,13.65645647,-10.164518118,5.3590687515
724,6.033092000000124,-5.194110155000001,6.0566875934999995,26.532691950000007,0.23666915300000002,-4.0223127605,3.9080505375000003,13.55138874,-11.9047250745,-4.1457999945
725,6.041425000000345,-5.068730115999999,5.982779026,26.594696000000006,-2.091269255,2.6576703784999998,3.0638239085000003,12.55568695,-9.594333649500001,6.1998181345
726,6.049758000000111,-4.9814236165,5.881974697,26.55970765,1.5796689245,-2.0498374405,2.6284492015,9.182314872500001,-11.778050902,-5.6305804255
727,6.058091000000331,-4.8541457655,5.810366869,26.6314621,-2.1645562275000003,-0.5135737659999999,2.8337478039999997,12.64794779,-9.398730042,7.416802168
728,6.066424000000097,-4.748015642,5.7003786565,26.59970475,1.304484725,1.168282807,3.3707263464999997,11.4273395535,-12.92592621,-5.2865046265
729,6.074757000000318,-4.658623218500001,5.6230728625,26.661727899999995,-2.039602578,-2.6217117905,1.786459242,8.215646981999999,-9.958273412,6.240134716
730,6.083090000000084,-4.5536563395,5.5219278339999995,26.6459694,1.703689754,0.877517253,2.970914483,11.11348772,-12.037341595000001,-3.2472575605
731,6.0914230000003045,-4.479119778,5.424171448,26.692359949999997,-2.2054911775,0.6068385239999999,2.2583910224999997,6.5857088565,-12.240115639999999,4.218255728000001
732,6.09975600000007,-4.391297579,5.327688694,26.683940899999996,1.1604602935,-3.1279187205,3.433757901,9.0293979645,-11.55051851,-2.303091526
733,6.108089000000291,-4.2992842195000005,5.2334058285000005,26.70853805,-2.2570136045,1.8424736335,2.854929924,8.8949484825,-11.616539475,1.6868262290000002
734,6.116422000000057,-4.2393705845,5.14170599,26.703311899999996,1.6211319864999998,-0.2835617064999998,3.307138801,5.652377367,-11.014436723500001,-1.8247969150000003
735,6.1247550000002775,-4.168013095499999,5.0371704105,26.714386000000005,-2.1660487655,-3.476579964,3.6017647979999996,6.573850155000001,-12.71961546,0.01959538450000009
736,6.133088000000043,-4.1273970605,4.954630375000001,26.69651415,0.1957532165,2.381330609,2.864590883,3.4432516394999997,-9.8147673625,-3.2304931879999996
737,6.141421000000264,-4.08586359,4.8585634235,26.6790466,-0.75492993,-1.8657430415,4.1532616615,3.3438046574999998,-11.4560904525,-3.2862044575
738,6.14975400000003,-4.0271166565000005,4.7905762195,26.695598599999997,-0.547761515,-0.20780903099999998,5.220676422,5.224158049,-8.371481657,1.0176154375000002
739,6.1580870000002506,-4.0033712385,4.698570609,26.668907150000003,-0.375185609,-0.269933015,4.3691647055,1.3426598754999999,-10.893998624,-4.3312077525
740,6.166420000000016,-3.9681022165,4.604800463,26.712085749999993,0.50717482,-0.62230289,6.19797945,2.1128350495,-11.673886777,3.873096824
741,6.174753000000237,-3.935336113,4.4989253285,26.69963455,-0.39819871650000005,0.0053322315000000065,8.2164902685,2.3348083495000003,-12.6725225435,-2.727244198
742,6.183086000000003,-3.885593891,4.3355994225,26.757907850000002,0.957809299,-0.12542140499999999,7.0351452825,3.6597052815,-20.121429444999997,5.102018237
743,6.191419000000224,-3.830449462,4.192309022,26.760978699999995,-1.062892817,-0.4142082855,7.8662507535,4.9547356365,-17.274893284999997,-1.1473119259999998
744,6.1997519999999895,-3.7476520535,3.9509556295,26.8116074,2.1544103025,0.3254560975,7.719850301999999,7.6804802415,-29.390563965,3.5338210759999997
745,6.20808500000021,-3.689653635,3.6966189145,26.843261700000006,-0.8033848404999999,-0.187254604,12.314350127,5.0737451909999995,-30.795163154999997,1.4512807129999998
746,6.216417999999976,-3.6008570195000003,3.419983983,26.878807050000006,0.9428510965,-0.691359103,11.267714740999999,8.597588063,-33.491413115,1.5596025585
747,6.224751000000197,-3.5145722624999998,3.004123628,26.899066900000008,0.550918799,-0.35607063,8.7205767615,8.534008743000001,-50.055690765,-1.0254027545
748,6.2330839999999625,-3.3964850904999997,2.6908177735,26.905433649999992,-1.522379309,0.4187390525,12.2991797945,12.334990979,-37.6659317,-2.054609641
749,6.241417000000183,-3.270745158,2.253418446,26.903846700000003,-0.27049696449999994,-0.2174430415,13.231681824999999,13.443505765000001,-52.482185365,-3.59376736
750,6.249749999999949,-3.1018458605,1.8684550225,26.903331750000007,-1.8843262195000001,0.29443660400000005,12.049231055,18.496495245,-46.208694460000004,-3.2552621365
751,6.25808300000017,-2.9471598865,1.4745744615,26.891571049999996,-0.5230884849999999,-0.2050331515,13.440491195,16.913956640000002,-47.223285675,-4.248033285
752,6.266415999999936,-2.731388092,1.030525282,26.892703999999995,-2.4123598335,0.312925443,11.405914783,24.131673815,-53.318502429999995,-3.1051397325
753,6.274749000000156,-2.5112469195,0.7676425575,26.884750349999997,-3.4313321114999997,-0.490685999,16.071436885,24.729457855,-31.567199705,-2.7664370535000002
754,6.283081999999922,-2.3042113779999998,0.342374116,26.888370549999998,0.33787673749999997,-0.993565261,12.404088258,23.108849525,-51.099765774999995,-2.234176099
755,6.291415000000143,-2.077056825,0.10183930399999996,26.894943249999997,-5.072518468,-0.2135137915,12.676012038,25.518875125,-28.975560185,-0.699698597
756,6.299748000000363,-1.8422265649999998,-0.10287636550000001,26.892078399999995,-0.9889145494999999,-1.310851395,14.563491345,26.469082835000002,-24.635742184999998,-1.6739240925
