time,Euler_X,Euler_Y,Euler_Z,Acc_X,Acc_Y,Acc_Z,Gyr_X,Gyr_Y,Gyr_Z
0.0,-4.043456554,17.3956356,-112.4741287,0.085064761,-1.183089614,6.842758656,-23.57395744,45.26151276,3.640571594
0.008333000000220636,-4.208460331,17.66434479,-112.4947662,-2.847220659,1.309517264,-1.82777369,-20.60939217,32.35592651,-0.538949728
0.016665999999986525,-4.429076672,18.11620903,-112.5067139,0.369776189,0.193354338,0.535347998,-27.65401459,54.20265198,2.389495611
0.02499900000020716,-4.702598095,18.50653839,-112.5439224,-4.90343523,-1.165964246,7.752915859,-32.9740448,47.05316544,-0.997062624
0.03333199999997305,-4.867821217,18.89773941,-112.5762482,1.984374285,-1.167722344,10.2118082,-20.21077919,47.11171722,-0.061986588
0.041665000000193686,-4.984613419,19.20493507,-112.6089249,-2.8663764,1.060834527,0.27533406,-14.28974152,37.06996155,-1.028028727
0.049997999999959575,-5.118183613,19.56187057,-112.6161499,1.736989856,-0.510270178,-2.254760981,-17.37719154,42.76224518,2.652295351
0.05833100000018021,-5.286528587,19.96940804,-112.650116,-2.723368406,2.686048269,4.308849812,-20.37917137,49.07657242,0.115482062
0.0666639999999461,-5.444224834,20.33192253,-112.6611557,-0.974585176,-1.358579755,12.26344585,-20.1165638,43.44824982,2.55129838
0.07499700000016674,-5.533863068,20.61800194,-112.6698761,-1.109998465,0.492175728,5.618142128,-11.94600487,34.29036331,1.80604887
0.08332999999993262,-5.627334118,20.87837982,-112.6762924,-0.148809209,-1.108252764,4.472040176,-12.51200199,31.21096039,1.818215132
0.09166300000015326,-5.659210205,21.10547256,-112.6882553,0.978043556,0.28835544,8.614618301,-4.866528034,27.27537537,0.847076118
0.09999599999991915,-5.624108791,21.19890213,-112.6839447,-0.985466123,0.474474192,3.398700714,2.357752323,11.12998772,1.331210375
0.10832900000013979,-5.599266052,21.34171867,-112.7148132,2.700167894,2.998836517,-0.283946007,2.769091606,17.41692734,-2.260610342
0.11666199999990567,-5.57314682,21.38804054,-112.7161942,-2.284385443,-0.116492637,12.38547325,1.502697349,5.565703869,0.190352172
0.12499500000012631,-5.538435459,21.31175804,-112.7260895,1.613108635,1.497528076,3.489573717,3.042727709,-8.983347893,-2.489242077
0.1333279999998922,-5.407222271,21.2440567,-112.7346802,-0.546119392,-1.182389379,10.6567564,14.4116869,-7.976428986,-1.897093177
0.14166100000011284,-5.245568752,21.07105637,-112.7236481,-0.142550111,1.198168993,11.0985508,17.36514473,-20.76606369,-1.198593378
0.14999400000033347,-5.016444206,20.86768723,-112.7535324,-0.304103494,-0.313353479,8.250630379,27.07769585,-23.98148346,-5.698841095
0.15832700000009936,-4.755783558,20.59270287,-112.713501,-0.805754781,1.248642683,2.686800957,28.02334213,-33.24344254,1.164438009
0.16666000000032,-4.503222942,20.34462357,-112.7416458,-1.880954027,1.464638352,7.246785641,29.77153397,-29.38910294,-5.689980507
0.17499300000008589,-4.22354126,20.02161026,-112.6922302,0.065779082,-0.044746041,8.397141457,29.96012688,-39.05654144,2.098438025
0.18332600000030652,-3.917758226,19.77468491,-112.6908569,-3.627646685,-0.171008587,12.81927013,34.91947556,-29.53449631,-2.075038671
0.1916590000000724,-3.584143877,19.47122002,-112.6452866,-0.360402018,-2.019074678,7.625412464,36.64100647,-36.65677261,2.256529808
0.19999200000029305,-3.248589993,19.22042656,-112.6224365,-5.626766682,-1.105427504,8.577184677,37.64727402,-30.15646744,0.658120692
0.20832500000005894,-2.931483746,19.02269173,-112.6037369,-0.404759288,0.449609667,2.662559509,35.76233292,-23.78838921,0.338044435
0.21665800000027957,-2.677897453,18.78084755,-112.5873108,-3.027017832,-2.2336514,8.440146446,28.07738113,-29.0365448,0.327645004
0.22499100000004546,-2.45144248,18.73368263,-112.5876923,-4.333343506,-1.606915593,13.43134975,25.63334465,-5.63149786,-0.797217906
0.2333240000002661,-2.266707182,18.63915253,-112.5924149,-0.446718216,-3.136315107,6.23452282,20.64276314,-11.2651186,-1.120802522
0.24165700000003199,-2.110655308,18.48906898,-112.568161,-2.925652981,-0.611374855,7.127316952,16.24439049,-18.08291817,1.567271709
0.24999000000025262,-2.018263817,18.5244503,-112.5869675,-2.756751776,-1.612413645,3.85329175,10.0938139,4.370083332,-2.088354349
0.2583230000000185,-1.985788465,18.40634537,-112.5554123,-0.177984655,-1.634377718,6.700933456,1.141844273,-14.2700758,2.594094515
0.26665600000023915,-1.994342685,18.50973129,-112.5733414,-5.066710949,-1.618379712,18.15900993,-2.064533234,12.5207386,-1.667922378
0.27498900000000503,-1.995879054,18.53422737,-112.5707703,-0.04895759,-2.722742319,3.658029795,-1.837360144,2.948902607,-0.108553126
0.28332200000022567,-2.07686758,18.49051666,-112.5628815,-1.374276876,-0.963271618,2.681556225,-11.72689056,-5.222308159,0.621747196
0.29165499999999156,-2.170461416,18.64716721,-112.5826569,-5.630597115,0.387870938,11.12698555,-12.03062725,18.89090347,-2.051828861
0.2999880000002122,-2.328395605,18.67439651,-112.5751495,2.730570316,-1.973224044,1.816278219,-20.95383453,3.27940464,0.908729374
0.3083209999999781,-2.518410444,18.75812531,-112.5939865,-6.796832085,0.9943223,11.79998112,-23.63132286,10.15114498,-2.214941263
0.3166540000001987,-2.635910273,18.8951149,-112.5771103,4.095029831,-2.140746593,10.31597233,-16.46796036,16.38206291,2.582671404
0.3249869999999646,-2.798238754,18.91842651,-112.5557175,-6.701476097,-1.14658165,11.09130669,-21.865242,2.70044589,2.055658579
0.33332000000018525,-2.956882238,19.12605095,-112.5681839,0.007474236,0.246465713,7.142552853,-20.2647953,25.00347137,-0.235779226
0.34165299999995113,-3.12087822,19.21379662,-112.5391464,-2.421890259,0.922988355,4.502487183,-22.37799072,10.36243725,3.344362497
0.34998600000017177,-3.302867174,19.31675529,-112.5662384,-0.729216874,0.011467084,13.54216099,-22.47591591,12.55499077,-2.465960741
0.35831899999993766,-3.488122225,19.53644753,-112.5601196,-4.472240925,-1.900953293,10.31345081,-24.03040314,26.29915047,1.754256606
0.3666520000001583,-3.666363955,19.61767387,-112.6003723,2.599990129,1.086480498,6.637019634,-21.49222374,10.05762672,-3.998794079
0.3749849999999242,-3.787007332,19.73911667,-112.5996475,-2.851367474,-2.667414188,12.82495403,-16.06238556,14.56022549,0.528101683
0.3833180000001448,-3.913844347,19.82332802,-112.6335373,-1.309811831,1.897890925,9.151950836,-15.55014992,10.39150524,-3.253162384
0.3916509999999107,-4.022800922,19.93458557,-112.6587372,-2.486869574,0.832496881,5.123432636,-13.60185528,13.53778076,-2.41409111
0.39998400000013135,-4.101355076,19.97601128,-112.6627502,2.178783178,1.332701325,9.179580688,-10.99096489,5.036488056,-0.161958799
0.40831699999989723,-4.154220104,20.09671974,-112.691246,-5.113874435,-0.811813653,14.52356243,-6.727196693,14.70182037,-2.661422014
0.41665000000011787,-4.190141201,20.15496063,-112.7076263,0.297201097,0.736677766,10.00087643,-5.373174667,7.154452324,-1.380376816
0.4249830000003385,-4.161866188,20.19725037,-112.7283859,-2.462995529,1.550908685,8.345009804,2.696525812,5.253492355,-2.463064671
0.4333160000001044,-4.134894371,20.25991821,-112.7363892,-0.495981783,-0.275000662,8.203529358,1.831610203,7.619967461,-0.41528365
0.44164900000032503,-4.110717297,20.32306099,-112.7615128,-1.698091388,0.315036058,11.91120911,2.391818523,7.782565117,-2.77722311
0.4499820000000909,-4.06440258,20.36501503,-112.7745285,-2.653786898,-0.564536512,10.27553749,4.366343021,5.185665607,-1.177204609
0.45831500000031156,-4.003707409,20.43628883,-112.7964172,-2.034539461,1.476150632,3.957168579,6.642629623,8.726527214,-2.35266757
0.46664800000007745,-3.942325115,20.47519112,-112.7965317,-0.436032116,0.248138398,8.336143494,5.633889675,4.718206406,0.236816421
0.4749810000002981,-3.900073051,20.57076836,-112.7930832,-3.568641424,-2.433356524,14.64970398,3.369155884,11.43869114,0.670183718
0.48331400000006397,-3.825423002,20.61286926,-112.8225632,-2.068078518,0.009909652,12.75288391,8.466184616,5.328747272,-3.044380188
0.4916470000002846,-3.723402977,20.66446686,-112.8024368,-1.359788537,0.591017723,5.262806892,9.834982872,6.051863194,2.16308403
0.4999800000000505,-3.692232609,20.74120331,-112.8234558,-0.472694904,0.656700373,6.036449432,2.889605999,9.408070564,-1.827754974
0.5083130000002711,-3.661647797,20.81080818,-112.8318939,-2.124721527,-2.645811796,13.66068268,2.473477125,8.418233871,-0.908562422
0.516646000000037,-3.601594687,20.81394386,-112.8416061,-2.616974354,-0.225389883,11.67288208,5.880887508,0.517548442,-1.139065027
0.5249790000002577,-3.564391375,20.87952423,-112.8683395,-1.9869771,0.636934817,6.274407387,4.049854279,8.063196182,-2.999119997
0.5333120000000235,-3.51738143,20.93568802,-112.8900223,-0.66326201,0.162134081,7.172861099,4.829269886,6.950948238,-2.085050106
0.5416450000002442,-3.452854872,20.92049789,-112.8752975,-1.556022406,-0.134459972,9.607906342,5.556098938,-1.897938251,1.035058498
0.5499780000000101,-3.399775267,20.91147423,-112.893959,-1.690100074,0.106979243,12.43676281,5.42864275,-0.87818414,-2.231230259
0.5583110000002307,-3.314865589,20.9437027,-112.8954468,-2.844094276,-0.972747922,13.12130642,8.696277618,3.891660929,-0.439361036
0.5666439999999966,-3.209103823,20.9099617,-112.8660431,-1.089166641,1.239158034,7.463613987,9.685498238,-4.146790504,2.988348484
0.5749770000002172,-3.129108191,20.85529327,-112.8509064,-0.791031897,-0.408099651,9.12197876,7.39599514,-6.623174667,0.833679318
0.5833099999999831,-3.010443687,20.81222153,-112.8195801,-1.282196879,-1.832669139,10.17204189,11.1597271,-5.261778831,3.149898291
0.5916430000002038,-2.880035162,20.73592949,-112.7760925,-2.843825102,0.973614693,7.105421066,12.2419281,-9.373326302,3.902034521
0.5999759999999696,-2.801435471,20.68793678,-112.7641983,-1.801613212,0.502280295,8.613685608,7.345638752,-5.706468105,0.546953678
0.6083090000001903,-2.704779387,20.66593742,-112.7346344,-2.206653357,-2.562191963,12.01428223,8.790640831,-2.775840998,2.688483477
0.6166419999999562,-2.605376005,20.54103661,-112.7163467,-1.6708951,0.225880861,8.156794548,9.406227112,-14.97446918,1.30259943
0.6249750000001768,-2.556749105,20.50496674,-112.7081604,-2.585889816,-0.538616657,9.287849426,3.935460806,-4.343995094,0.224162996
0.6333079999999427,-2.51054287,20.47787476,-112.6927185,-0.86263901,-0.856042564,10.16345596,3.146644592,-3.229033232,1.538070798
0.6416410000001633,-2.451677084,20.37952995,-112.6811523,-1.959117293,-0.591533303,10.33478451,5.024271488,-11.82619667,0.289197564
0.6499739999999292,-2.421908379,20.32968521,-112.6583405,-1.654790163,-1.878095508,12.11605453,0.880988777,-5.983664513,2.235725641
0.6583070000001499,-2.402665854,20.2773819,-112.668808,-4.096477509,0.11781542,9.65948391,1.188897491,-6.200591564,-1.938792586
0.6666399999999157,-2.39401722,20.19694138,-112.6395264,-0.546093106,-0.123665497,5.913324356,-1.910975695,-9.67908287,2.803235054
0.6749730000001364,-2.417140245,20.18857193,-112.6355133,-2.605125189,-0.304293364,12.98004055,-4.496348381,-1.00141418,-0.08880455
0.6833059999999023,-2.390378475,20.08308601,-112.626564,-1.163831472,-0.549441457,10.29058838,1.100861669,-12.5851469,0.412197173
0.6916390000001229,-2.387072563,19.99484634,-112.6166229,-0.180586755,-0.319265544,6.913039684,-1.569025874,-10.60585785,0.178697735
0.6999719999998888,-2.392062426,19.90591621,-112.5971146,-3.429048777,0.795924067,14.2287035,-3.130342007,-10.64543056,1.674185038
0.7083050000001094,-2.412547588,19.78199196,-112.6043396,-1.116504431,-1.193916321,10.46729946,-3.71934104,-14.802495,-1.936718345
0.7166380000003301,-2.400827885,19.67648125,-112.596344,-2.932644367,-0.035333663,14.32674408,-0.638614237,-12.57490253,0.259613156
0.724971000000096,-2.40075469,19.55779648,-112.5991592,-1.20494163,-0.182697251,11.80334377,-1.433039665,-14.19574356,-1.414034009
0.7333040000003166,-2.351216078,19.41141891,-112.5852203,-2.602993727,0.518482566,15.52694511,3.676168442,-17.4967041,0.713702381
0.7416370000000825,-2.307964563,19.33147049,-112.595047,-4.31103754,-0.401990891,13.68020344,4.026263237,-9.520914078,-2.002751589
0.7499700000003031,-2.253252745,19.10910988,-112.5702209,0.563854873,0.188552275,9.657587051,3.870992661,-26.65460205,1.62341857
0.758303000000069,-2.177216768,19.01334763,-112.5588989,-5.956704617,0.229041681,18.23589706,7.124613285,-11.51237202,0.339478344
0.7666360000002896,-2.104623556,18.89931488,-112.5305252,0.357474744,-1.262239933,9.596237183,5.897204399,-13.66975594,2.570939541
0.7749690000000555,-2.008991718,18.71965599,-112.5006714,-3.642806292,0.482680112,12.09166813,8.765565872,-21.64739609,2.115800858
0.7833020000002762,-1.904951692,18.66987228,-112.4707031,-4.013650417,-2.251299143,20.70213509,9.621156693,-5.956769943,3.077383757
0.791635000000042,-1.793775678,18.56608009,-112.4472809,-1.924680948,0.072627366,8.55145359,10.88729572,-12.51376343,1.761991143
0.7999680000002627,-1.71239531,18.44319916,-112.420433,-0.702522457,-0.464267552,11.83463192,7.042417526,-14.69873142,2.456777096
0.8083010000000286,-1.644695878,18.38001442,-112.4107285,-3.026282549,-0.918572903,12.72347641,6.201552868,-7.590727329,0.381511271
0.8166340000002492,-1.596478581,18.32435417,-112.4261017,-2.395964384,-0.589025915,14.12254143,4.668923855,-6.488854408,-2.090198517
0.8249670000000151,-1.566091895,18.2446003,-112.4166336,-2.530201435,-0.660096228,10.29214287,1.734224558,-9.575549126,0.314043343
0.8333000000002357,-1.531818867,18.17094231,-112.4247055,-3.02705884,-1.07235229,13.62004948,2.720116615,-8.669600487,-1.310296416
0.8416330000000016,-1.526388049,18.16312981,-112.4187164,-3.979383945,0.033825796,11.15063858,-1.128025413,-0.933869362,0.159794405
0.8499660000002223,-1.536822438,18.05597115,-112.424881,0.058201015,-1.253370166,11.39798546,-2.710422277,-12.69308662,-1.215600729
0.8582989999999882,-1.536821485,18.0497818,-112.4138184,-4.815802097,-0.18390137,11.25776958,-1.967480659,-0.754620969,0.742262006
0.8666320000002088,-1.608713031,18.01036835,-112.3983078,0.852817714,-0.75810498,4.362836361,-10.88315678,-4.631054401,1.451238751
0.8749649999999747,-1.657680392,17.94808197,-112.3777084,-5.720638275,-0.934571862,17.00338554,-8.195429802,-7.518085957,1.636967421
0.8832980000001953,-1.714119077,17.98363113,-112.3696136,0.326319158,-1.398717642,8.995217323,-8.750182152,4.384709358,0.858986139
0.8916309999999612,-1.797529697,17.93484116,-112.3562851,-5.435227394,0.049242351,8.484164238,-12.05790234,-5.877289295,0.842055261
0.8999640000001818,-1.917156696,18.00360298,-112.3562469,0.53090483,-1.661426544,9.979136467,-16.03664207,8.391982079,0.089995645
0.9082969999999477,-1.986015677,17.98204231,-112.3431473,-5.438252926,0.160030797,12.87627888,-10.30337811,-2.615418673,0.906218946
0.9166300000001684,-2.087779522,18.06176186,-112.3372726,-0.112969711,0.629146039,4.109062195,-14.10778809,9.684118271,0.818541646
0.9249629999999343,-2.198642492,18.11637306,-112.3438721,-4.263260841,-1.229874134,13.88392067,-14.61225796,6.598650932,-1.006742001
0.9332960000001549,-2.255818844,18.14734077,-112.3130646,1.35167706,-0.256924123,9.795763016,-9.672423363,3.724732637,3.410445929
0.9416289999999208,-2.330916643,18.21453094,-112.3005371,-5.319656849,0.287663758,8.870863914,-11.0367918,8.021548271,1.251447916
0.9499620000001414,-2.441281557,18.21982002,-112.2934189,1.956991673,-0.580884576,9.210720062,-15.17364407,0.749511063,0.602049887
0.9582949999999073,-2.513519764,18.24666023,-112.283783,-5.074737549,0.266818941,16.6830864,-10.58633995,3.191751957,0.737830937
0.9666280000001279,-2.595075369,18.27701187,-112.2740097,2.158370256,-0.874355078,8.921112061,-11.82670975,3.74099803,1.062107325
0.9749609999998938,-2.653628588,18.17006493,-112.2461548,-3.479097605,0.518869281,10.8883276,-9.627036095,-12.94548798,2.081630707
0.9832940000001145,-2.712634325,18.17971039,-112.2536545,-1.163555264,-0.171590596,17.23726654,-8.477185249,1.349012136,-0.993524969
0.9916270000003351,-2.753428698,18.06368446,-112.2336731,-0.679002464,-0.202540323,9.423382759,-7.197114468,-13.99626064,1.115333676
0.999960000000101,-2.782888889,17.93169785,-112.2302475,-1.758285999,0.81138283,15.00622368,-5.339108944,-15.6812439,-0.573067427
1.0082930000003216,-2.7991395,17.87407303,-112.2145538,-4.004382133,0.481247663,12.54805088,-4.085137844,-6.973322392,0.954706788
1.0166260000000875,-2.791702032,17.66210747,-112.2153015,0.802260041,0.646908104,13.71126652,-0.754544616,-25.24466133,-1.530681968
1.0249590000003082,-2.768889904,17.55085754,-112.205162,-5.510043621,0.361905426,14.24368668,0.813162386,-13.36878777,0.012128343
1.033292000000074,-2.753672838,17.39640999,-112.1949921,-0.799007893,-0.51652211,8.352164268,-0.22143513,-18.40708733,0.077188522
1.0416250000002947,-2.736503124,17.20340729,-112.1878586,-3.219363689,-0.178009823,13.504632,0.251262933,-23.15315056,-0.792069376
1.0499580000000606,-2.659366369,17.06566238,-112.1620178,-2.767003775,2.091627836,17.43150711,6.66353178,-16.48796463,1.992928863
1.0582910000002812,-2.581900358,16.93431664,-112.1757736,-2.70148468,-0.732968569,12.50751686,8.221108437,-15.65227318,-2.794692993
1.066624000000047,-2.488947868,16.75441742,-112.1222992,-0.220337376,0.537137568,6.867399216,7.654138088,-21.66619301,4.865643501
1.0749570000002677,-2.41371727,16.62755966,-112.1213913,-3.93909049,-1.104615331,16.35898781,7.440768719,-15.19326401,-1.045393944
1.0832900000000336,-2.305570841,16.52716446,-112.0687103,-1.874205828,-1.372791529,18.70150375,9.519032478,-12.11476612,5.292145252
1.0916230000002543,-2.179395199,16.44341469,-112.0729446,-3.391937017,0.126859739,15.69742489,13.72939968,-10.00169373,-1.378712058
1.0999560000000201,-2.049663067,16.27466011,-112.0241699,-1.456284285,0.086337984,13.5559473,12.25023174,-20.26865578,4.653788567
1.1082890000002408,-1.953259945,16.18818474,-112.023262,-4.315253735,0.001009788,11.11152554,9.980650902,-10.35278797,-0.755850434
1.1166220000000067,-1.857450128,16.09025574,-111.9702606,-0.663268983,0.151552081,14.21425533,8.066781998,-11.770895,5.481997967
1.1249550000002273,-1.788721442,15.98628998,-111.9698639,-4.310388088,0.070296355,16.54545784,6.678208351,-12.45051861,-0.848548591
1.1332879999999932,-1.730094314,15.89509487,-111.9159698,-1.514883757,-2.586216927,16.220438,3.594587803,-10.94742393,5.646262646
1.1416210000002138,-1.64123106,15.81496525,-111.9027023,-3.35394001,-0.996593893,21.15532875,8.672865868,-9.63638401,0.750817358
1.1499539999999797,-1.520593882,15.66559601,-111.8543091,-0.65401721,0.056011874,15.19401646,11.25342751,-17.88366127,4.818693161
1.1582870000002004,-1.427898645,15.47763443,-111.8162842,-2.666253328,0.473305762,8.681962013,8.34234333,-22.64076996,3.315239668
1.1666199999999662,-1.385273814,15.28303337,-111.7818451,-0.368660748,0.817845404,13.84505939,2.374325275,-23.25419807,3.125616789
1.1749530000001869,-1.361432314,15.10600662,-111.7312698,-4.53898859,-1.545180917,18.86114502,-0.284676731,-21.3565197,4.845229626
1.1832859999999528,-1.314171791,14.89767551,-111.7027512,-0.372391969,-1.346538186,18.31192207,3.121569633,-24.87980843,2.515639305
1.1916190000001734,-1.259363174,14.66154957,-111.6531677,-4.254535675,-1.07796216,18.22447777,3.502582788,-28.43768692,4.616085052
1.1999519999999393,-1.237924457,14.37132454,-111.6430817,-0.396546602,-0.635953426,9.877327919,0.606865942,-34.6504364,0.217119277
1.20828500000016,-1.25648129,14.16195869,-111.5947418,-5.645918846,0.583912015,19.21477699,-5.211679935,-25.22047997,4.576203346
1.2166179999999258,-1.291044831,13.91900539,-111.6114044,-0.915238798,-1.253413916,16.27696991,-5.329635143,-28.91024399,-2.751662493
1.2249510000001465,-1.30884254,13.69713497,-111.555954,-4.278123379,-0.791615844,16.55766487,-5.280736446,-26.74422455,5.360691547
1.2332839999999123,-1.338666797,13.40348339,-111.5993347,-1.89508903,0.747571528,14.91558933,-4.015445709,-34.91559601,-6.065406322
1.241617000000133,-1.373482347,13.18033791,-111.5704269,-3.065338373,-0.345584154,15.09461403,-6.530405045,-26.83046913,2.24328351
1.2499499999998989,-1.456148505,12.95757484,-111.6340408,-3.151423693,-0.47360608,14.17903709,-9.855467796,-26.34280014,-8.257881165
1.2582830000001195,-1.483870506,12.74944305,-111.6230316,-3.19963932,-0.138889134,18.89699745,-5.176793575,-24.9799633,0.149241433
1.2666159999998854,-1.518177271,12.51815605,-111.6725845,-4.14056921,-0.267239898,15.89598846,-4.474451065,-27.39587784,-6.694847584
1.274949000000106,-1.532108784,12.35174656,-111.6747894,-3.462828875,1.238307476,15.1899128,-3.170044422,-19.93469429,-1.287551165
1.2832820000003267,-1.610814333,12.23316002,-111.713623,-4.427212238,-1.081377983,13.4086647,-10.11424446,-13.90458965,-5.093443871
1.2916150000000926,-1.64067018,12.11388206,-111.7221298,-2.56427145,-0.325489104,16.27514076,-4.922903061,-14.25908852,-1.90026927
1.2999480000003132,-1.684317112,11.95833015,-111.7530289,-4.582092762,-0.113457687,15.98759937,-6.120369911,-18.3569088,-4.330446243
1.308281000000079,-1.673003793,11.89166927,-111.7710648,-2.006917715,0.207643136,16.78085136,0.248291567,-7.91315937,-2.848687172
1.3166140000002997,-1.700355053,11.84590244,-111.7816772,-3.967297792,0.511454225,9.076499939,-4.668911457,-5.255579948,-1.603528023
1.3249470000000656,-1.720067501,11.84332943,-111.8076248,-3.911695242,-0.684610486,17.55787277,-3.283821821,-0.195436627,-3.551951408
1.3332800000002862,-1.729471326,11.78205013,-111.8129196,-4.55879879,1.075034499,19.01003647,-2.626765728,-7.134820938,-1.131893158
1.3416130000000521,-1.706743717,11.78312874,-111.8349609,-1.488967419,-1.493834853,12.17366982,1.710966945,0.229644433,-3.082212448
1.3499460000002728,-1.701961875,11.79870415,-111.8371658,-4.459347248,1.691595912,13.98906803,-0.989554703,2.074791431,-0.554394484
1.3582790000000386,-1.69153285,11.87935925,-111.8594971,-3.115989447,-0.981071353,18.19725037,0.244884878,9.775429726,-2.834266424
1.3666120000002593,-1.645188332,11.90406227,-111.8383789,-4.663722038,0.545254409,17.22869301,3.430681229,3.091241121,2.165875912
1.3749450000000252,-1.601689577,11.95252419,-111.8682632,-1.978422284,0.03255254,10.15198421,4.403995991,5.935957432,-3.83962512
1.3832780000002458,-1.565772057,12.02744198,-111.8471375,-4.140840054,-0.034428284,15.52065754,2.171562195,9.117143631,2.338490009
1.3916110000000117,-1.501271486,12.11583233,-111.8877258,-2.328675985,1.359100938,17.03411484,7.202431202,10.7531538,-4.973902225
1.3999440000002323,-1.438494682,12.1824007,-111.8673172,-3.876928329,-2.64038825,14.26170349,5.415656567,8.125182152,2.148304224
1.4082769999999982,-1.351700306,12.22694969,-111.9032516,-1.458910942,1.786307693,12.92012215,9.770588875,5.470649719,-4.581208706
1.4166100000002189,-1.285649657,12.29912853,-111.900444,-2.706085682,-1.871274948,13.58333111,6.230086803,8.849090576,0.184076712
1.4249429999999847,-1.179439783,12.40312386,-111.9397278,-4.028707981,0.682258189,16.78847504,12.19692612,12.60027409,-4.83338213
1.4332760000002054,-1.091766477,12.48657513,-111.9462509,-3.391199589,-0.129128784,15.72293568,9.066710472,10.22606277,-0.92370069
1.4416089999999713,-1.010044217,12.56796265,-111.9851074,-4.106405258,-0.043984599,15.93388939,9.262351036,9.870663643,-4.868190289
1.449942000000192,-0.931362033,12.64209366,-111.9916153,-1.503589988,0.031875096,12.54877567,7.974774361,9.105360985,-0.903849483
1.4582749999999578,-0.855467498,12.72898865,-112.0327377,-2.838748455,-1.302208781,14.60487938,8.63372612,10.52482605,-5.148282051
1.4666080000001784,-0.74624753,12.78681946,-112.0422211,-2.823357821,0.426050454,15.09753799,11.73804665,7.154325962,-1.387087941
1.4749409999999443,-0.656323254,12.83243942,-112.0653915,-2.678897619,-1.452295423,11.69979286,9.851608276,5.530024529,-3.14353323
1.483274000000165,-0.591727138,12.875103,-112.0865707,-3.758986712,1.407718897,14.32167435,6.698544502,5.343807697,-2.797100067
1.4916069999999308,-0.543175161,12.9560442,-112.1005325,-1.922158003,-2.570039749,13.93559837,4.644283772,9.752480507,-2.03341198
1.4999400000001515,-0.444815427,13.02486134,-112.1168289,-4.802548409,0.685220778,18.53461838,10.62597847,8.471743584,-2.213480234
1.5082729999999174,-0.369648099,13.0812006,-112.1334381,-1.744301677,-0.522389889,11.76252365,7.914198399,6.798339844,-2.390397549
1.516606000000138,-0.299480349,13.1166687,-112.1405716,-3.884543657,0.043217637,11.49259186,7.012729168,4.456736088,-1.252049327
1.524938999999904,-0.26997757,13.17497921,-112.1642456,-2.566889763,0.161478102,14.54224014,2.629954338,7.03447628,-3.229263544
1.5332720000001245,-0.191953257,13.24354267,-112.167038,-3.588247538,-1.554820418,18.54303551,7.831463337,8.422511101,-0.704314649
1.5416049999998904,-0.110597104,13.27778244,-112.2018967,-3.442033291,0.973935783,13.27346516,9.166067123,4.141501904,-4.558130264
1.549938000000111,-0.056264292,13.335536,-112.2035065,-2.570297241,-1.435210109,11.33484459,4.966894627,7.122153759,-0.639689922
1.5582710000003317,-0.027322708,13.39437771,-112.2346497,-2.865480423,-0.055879511,12.89208698,2.780309916,7.086651802,-4.128067017
1.5666040000000976,0.024221051,13.45800781,-112.2427979,-3.112281084,-2.134618282,16.29688263,4.786903858,7.822934151,-1.286628842
1.5749370000003182,0.094571486,13.4854002,-112.2693405,-3.598922491,1.373006344,13.72486973,7.627957821,3.306913376,-3.601848602
1.583270000000084,0.151433662,13.53058147,-112.2897568,-1.776868105,-0.791520298,9.590857506,5.761218071,5.60066843,-2.688034773
1.5916030000003047,0.169858277,13.59810638,-112.3118973,-4.310435772,0.133981153,14.76700783,1.276805639,8.119853973,-3.102088928
1.5999360000000706,0.205996066,13.66209412,-112.3515854,-1.801813364,-1.025771379,16.72421455,3.842250347,7.842117786,-5.020261765
1.6082690000002913,0.264155209,13.71420956,-112.3636093,-4.178839684,-1.419937134,13.83316803,5.764342308,6.271530151,-1.923321486
1.6166020000000572,0.314580977,13.76276398,-112.414978,-1.190941095,0.682638943,9.602035522,5.911061287,5.971869469,-6.426791668
1.6249350000002778,0.325215757,13.8229332,-112.4265976,-3.852805853,-1.372868657,13.45612621,0.053290419,7.235420227,-1.893148303
1.6332680000000437,0.352222174,13.87129688,-112.4888763,-2.869964123,-0.043527957,16.23659515,3.43915987,5.931783676,-7.754531384
1.6416010000002643,0.37887007,13.91744614,-112.4904861,-3.769785643,-1.778222322,14.92572212,1.688657045,5.560069561,-0.721834838
1.6499340000000302,0.399852395,13.94955349,-112.5632095,-2.872069359,1.359203935,12.39393044,3.026386023,3.960280657,-8.928225517
1.6582670000002508,0.387923717,14.02269077,-112.5555038,-2.819959402,-1.899552226,12.22037792,-3.211974382,8.806904793,0.338991642
1.6666000000000167,0.376112938,14.09598732,-112.6415787,-4.103785038,-0.059587464,14.84079456,-0.512233555,8.888281822,-10.46177769
1.6749330000002374,0.367705882,14.13407135,-112.6338882,-2.083654642,-1.927634358,14.39279938,-2.788877964,4.599714756,0.367372155
1.6832660000000033,0.375818819,14.19016171,-112.7143784,-4.088857651,0.573151588,11.82232189,1.718446612,6.828077316,-9.743528366
1.691599000000224,0.350662202,14.2559824,-112.7097473,-1.531275034,-0.795941532,11.3599577,-4.711072922,7.925186634,-0.007812343
1.6999319999999898,0.30371201,14.34199047,-112.7938843,-4.66736269,-0.854952276,15.64518261,-4.762737274,10.4177599,-10.15479088
1.7082650000002104,0.262004852,14.38722515,-112.7884903,-2.466612577,-0.612728179,13.31680298,-6.720995903,5.454257011,0.103596769
1.7165979999999763,0.2118797,14.43041229,-112.8639297,-2.59522891,-1.279888391,12.95177555,-5.359958649,5.293989182,-9.186982155
1.724931000000197,0.172769457,14.487113,-112.8788147,-1.851526022,0.940535903,11.24671745,-5.80298233,6.820904732,-2.249339819
1.7332639999999628,0.10107974,14.55687714,-112.9474564,-3.388280392,-1.359700799,12.37645245,-8.13725853,8.494923592,-8.385793686
1.7415970000001835,0.048829976,14.58392906,-112.9894104,-3.212713718,-0.30846712,16.80491829,-6.558423042,3.263471365,-5.374763012
1.7499299999999494,-0.007370863,14.61611843,-113.0540161,-2.174880028,-1.351785898,11.32818794,-6.414906979,3.997652531,-7.793209076
1.75826300000017,-0.062652409,14.63648605,-113.1233978,-2.510846853,0.048444424,13.05661011,-6.086788654,2.472248077,-8.551852226
1.7665959999999359,-0.143879071,14.68492603,-113.1794357,-2.26955843,-0.673943937,9.472283363,-9.665302277,5.956962585,-6.791307449
1.7749290000001565,-0.222318977,14.70822525,-113.2605515,-2.55283165,-1.191041946,13.52772808,-8.498342514,2.848674774,-9.904052734
1.7832619999999224,-0.303931892,14.71146297,-113.3130188,-4.294246674,-0.002238791,14.13592052,-9.81673336,0.544059157,-6.383246422
1.791595000000143,-0.378139675,14.69423676,-113.401268,-1.509946108,-0.399872899,10.85645294,-7.772511959,-1.983720422,-10.75408554
1.799927999999909,-0.448899716,14.72001266,-113.4520187,-3.116037846,0.03032203,10.17126751,-8.555667877,3.258655787,-6.193599224
1.8082610000001296,-0.54460007,14.72023392,-113.5466995,-2.78300643,-1.103769541,9.404987335,-10.15130711,0.145194307,-11.4872694
1.8165939999998955,-0.610139549,14.742383,-113.5912552,-2.593075514,0.147673845,11.92428398,-8.124759674,2.82728672,-5.443333149
1.824927000000116,-0.697285473,14.7390604,-113.6927261,-2.528486252,-0.593062043,12.06410694,-8.914011002,-0.24159351,-12.279006
1.8332600000003367,-0.778458476,14.7732687,-113.7486649,-4.198500633,-0.977424204,13.60285568,-9.637766838,4.301207066,-6.784468174
1.8415930000001026,-0.863160491,14.76156902,-113.8481369,-1.245851278,-0.834234297,9.048365593,-8.676362991,-1.21575439,-12.05954456
1.8499260000003233,-0.960775912,14.75908089,-113.9150543,-1.99494195,0.357703835,6.962103844,-11.27546501,-0.066904388,-8.104524612
1.8582590000000891,-1.081104279,14.75989532,-114.0172958,-3.160100937,-1.460939407,12.45159721,-12.86941624,0.331333071,-12.35907841
1.8665920000003098,-1.164770126,14.77340603,-114.0851288,-3.218110085,-1.218229413,12.75924969,-9.584465027,1.876281619,-8.118023872
1.8749250000000757,-1.258701086,14.78836918,-114.1831894,-1.998701215,0.717018604,10.25707245,-9.825442314,2.059551477,-11.83667278
1.8832580000002963,-1.349503279,14.78269482,-114.2521744,-2.338410139,-0.953224421,8.618408203,-10.40967751,-0.403373003,-8.268071175
1.8915910000000622,-1.461590767,14.75580788,-114.3558884,-2.870930195,-0.203614712,10.35655117,-11.83334255,-2.907113552,-12.60878849
1.8999240000002828,-1.576390982,14.75555801,-114.4236984,-2.796417236,-1.079523921,11.26536846,-13.33899975,0.267579138,-8.08390522
1.9082570000000487,-1.694422841,14.76925945,-114.5309372,-3.31477499,0.44201842,10.07167244,-12.44058037,2.023025513,-12.89036655
1.9165900000002694,-1.799474835,14.76226902,-114.60746,-1.988675475,-0.709759593,9.055979729,-11.91989517,-0.486235142,-9.047488213
1.9249230000000352,-1.904733181,14.73444462,-114.7160492,-2.316649199,-0.609658539,5.734317303,-10.871171,-2.906499147,-13.19906998
1.9332560000002559,-1.984473944,14.78239727,-114.7931366,-3.535679102,0.065774702,10.18004513,-8.832994461,6.136570454,-9.009142876
1.9415890000000218,-2.104088545,14.78948593,-114.913208,-2.225310326,-0.739788294,2.982998133,-12.23321056,1.370272398,-14.3883934
1.9499220000002424,-2.189991474,14.89448643,-115.005043,-4.76179409,0.114300191,10.71597195,-9.110549927,13.06747723,-10.43050289
1.9582550000000083,-2.296552181,14.97781086,-115.1213913,-2.243389606,-0.686792433,1.487137556,-10.74368954,10.54324532,-13.58589745
1.966588000000229,-2.426111221,15.14988041,-115.202919,-2.940037727,-0.467129171,3.776570082,-14.62166405,21.09222221,-8.874774933
1.9749209999999948,-2.541026592,15.33764553,-115.3320236,-3.533903122,0.012875741,3.356821299,-11.27355003,23.18470383,-14.45186901
1.9832540000002155,-2.619814396,15.5912199,-115.3811951,-3.526478291,-0.104089066,8.009725571,-9.501889229,30.72146988,-4.58994627
1.9915869999999813,-2.717585564,15.91113377,-115.5198898,-3.504502058,0.927988529,3.3910954,-8.770353317,39.12133408,-14.7113018
1.999920000000202,-2.798377514,16.16533852,-115.5728149,0.306087345,-2.184363127,-0.699742317,-9.573099136,30.82383156,-4.881565571
2.008252999999968,-2.872230053,16.5788002,-115.7036896,-6.974265099,2.704117537,12.12819958,-5.991491318,50.32786179,-13.09182549
2.0165860000001885,-2.888054848,16.94456482,-115.7847366,2.813755512,-1.615719199,-2.906690836,-0.733055055,44.36261368,-7.334674835
2.0249189999999544,-2.940949678,17.26153946,-115.8840485,-6.632231236,1.278372169,8.0420084,-4.398611069,38.5920372,-9.935853004
2.033252000000175,-2.930540562,17.82163048,-116.0041504,1.34936738,-0.167851284,-2.283182621,3.945850611,67.883255,-10.51238155
2.041584999999941,-2.998886347,18.02963638,-116.0500412,-3.773613691,0.191879928,3.875173569,-8.063443184,25.22326279,-4.435491562
2.0499180000001616,-2.999786615,18.61614418,-116.1913528,-1.118362188,-0.604802489,3.707252741,3.560766697,71.17860413,-12.58443546
2.0582509999999274,-3.018593788,18.8875885,-116.2123108,-1.591849804,0.129741266,6.553360462,-3.004577875,32.67896271,-1.163373828
2.066584000000148,-3.058409214,19.32120514,-116.3488693,-0.637558758,-1.088510275,-1.153340101,-1.071138978,52.83146286,-12.92326164
2.074916999999914,-3.025285721,19.68671608,-116.3559341,-0.499204874,-0.908660769,3.017964602,2.70116663,43.86896896,1.034394145
2.0832500000001346,-3.064461708,20.01701355,-116.4697495,-3.678531408,1.445435166,7.20404911,-1.733445883,40.3048172,-10.90881157
2.0915829999999005,-3.069903851,20.30858994,-116.4810333,3.169002533,-1.821002364,-2.76420784,-1.742999434,35.03369522,0.106235161
2.099916000000121,-3.086129427,20.60442352,-116.5500641,-3.307597876,0.405490786,2.225346804,-0.729673564,35.90685654,-6.02257967
2.108248999999887,-3.092796803,20.87477684,-116.5948105,1.003802657,-0.628542781,5.129969597,-0.456266731,32.69187164,-3.759839773
2.1165820000001077,-3.104948997,21.02652168,-116.5949936,-2.146288157,1.823015928,1.487323523,-3.140690088,18.22142029,0.806169748
2.1249150000003283,-3.152456284,21.1852932,-116.6665955,0.694249988,-2.12701726,0.382557482,-4.161110878,19.48648643,-7.463528633
2.133248000000094,-3.145157576,21.28443336,-116.6312485,0.38615483,-0.168422788,3.112535477,-2.336428642,11.69913769,4.398899555
2.141581000000315,-3.150267839,21.36718941,-116.7155838,-1.360071898,0.221376255,2.854139805,1.510433316,10.45835876,-9.365513802
2.1499140000000807,-3.133840799,21.39749718,-116.6778259,0.957047641,-0.717592359,1.916128397,-1.35343051,3.43544507,4.204359055
2.1582470000003013,-3.175372601,21.36519814,-116.7444382,-2.810334921,1.060772538,3.715234995,-3.625413656,-3.437354326,-8.142484665
2.1665800000000672,-3.179523706,21.30042267,-116.7303009,1.428185344,-2.281782389,3.571874619,-2.770153761,-7.813878059,0.897714853
2.174913000000288,-3.191097975,21.18325233,-116.7604752,-2.453022957,0.911430776,1.069105506,-1.63290751,-13.82961369,-4.649829388
2.1832460000000538,-3.17659688,21.08453369,-116.7737122,1.465855956,-1.782166481,-0.100534037,0.752507865,-11.6987648,-2.630812883
2.1915790000002744,-3.185072899,20.94604492,-116.769928,-2.154883862,1.508754492,1.074483633,-2.735242128,-16.59477425,-0.995984077
2.1999120000000403,-3.195363283,20.83848763,-116.8116455,-0.579631746,-1.642221093,3.504363775,-1.009739161,-12.58107662,-5.886409283
2.208245000000261,-3.204305172,20.66256523,-116.7730713,-2.482911587,0.736237526,4.369420528,-4.270176888,-21.29826927,2.647783041
2.216578000000027,-3.208844185,20.50646591,-116.8293915,-1.389499664,-1.371994615,3.658809185,0.217759475,-18.31300545,-7.716060638
2.2249110000002474,-3.173037291,20.30133247,-116.7681122,-1.344526291,0.711553454,-0.12113975,0.176699892,-24.94120979,5.014052868
2.2332440000000133,-3.175149202,20.1594162,-116.8395233,-1.230905771,-0.997619748,-1.452102661,1.101322651,-16.52244186,-9.332241058
2.241577000000234,-3.141175985,20.01309395,-116.7651062,-1.731928825,1.460249662,-0.092940927,-0.546607912,-17.97236252,6.909608364
2.24991,-3.180212736,19.92572021,-116.8607101,-1.944507718,-2.298626184,4.174128056,-2.372339487,-9.84017086,-11.70885754
2.2582430000002205,-3.135802746,19.78325081,-116.7789841,-3.258146524,1.053922176,5.163214684,0.44162792,-17.55671883,7.772576809
2.2665759999999864,-3.144815922,19.68091965,-116.8730927,-0.681854606,-2.486899376,3.751628876,1.129370332,-11.64520741,-11.65855312
2.274909000000207,-3.080429792,19.57232475,-116.7874222,-3.019218206,1.042480946,-0.682935536,2.716658831,-13.5174284,8.462649345
2.283241999999973,-3.111815929,19.57257271,-116.8780365,-1.046389461,0.255637825,-1.725482225,-1.682419896,0.623360932,-10.72040272
2.2915750000001935,-3.113206387,19.58503342,-116.8069763,-2.948911905,-0.983952284,2.325209856,-4.581873894,1.079883456,7.605929852
2.2999079999999594,-3.143517733,19.63574219,-116.8861389,-2.990555525,0.311461091,5.206482887,-2.005056858,6.602491856,-9.099328995
2.30824100000018,-3.108604908,19.6534729,-116.8058929,-1.086137772,-3.945031881,6.245385647,-0.604803324,1.652412772,8.675631523
2.316573999999946,-3.088461876,19.72430229,-116.8607407,-3.91131115,1.450801849,-0.699143291,3.032405853,8.853011131,-6.096214294
2.3249070000001666,-3.076678276,19.80329132,-116.7916031,0.230022177,0.861521244,-4.685285568,-2.948429108,9.068912506,7.809383869
2.3332399999999325,-3.133021116,19.95692635,-116.8400345,-3.638677597,1.403968453,-2.48951149,-6.38394022,18.73567963,-4.840194702
2.341573000000153,-3.18427372,20.13469505,-116.8016891,-0.470161855,-1.934642792,4.71171236,-9.284498215,21.08691406,4.996660233
2.349905999999919,-3.263757706,20.35594368,-116.8200607,-3.099117517,-1.725926518,6.737750053,-10.37574482,26.65195084,-0.943552315
2.3582390000001396,-3.266023159,20.55234337,-116.8131332,-1.75413692,-2.365252972,6.418727398,-2.118580103,23.51115227,1.623520613
2.3665719999999055,-3.23156786,20.80589676,-116.8390732,-4.329369068,1.732116222,3.85219121,3.624045849,30.56995964,-1.537726283
2.374905000000126,-3.200664759,21.0751133,-116.833786,0.882157147,-1.814370036,-1.68612349,1.926051259,32.24744415,1.907916427
2.383237999999892,-3.230271578,21.33398819,-116.8537445,-3.594566345,1.667742729,-2.734328985,-4.244411469,31.17753601,-0.979309976
2.3915710000001127,-3.270811796,21.64265251,-116.8835678,-0.190591037,0.490735173,1.589236259,-5.111044407,37.19509888,-1.718461037
2.3999040000003333,-3.308974504,21.93111992,-116.897789,-2.542193651,-1.390257835,2.55009985,-5.50330162,34.68415833,-0.089906067
2.408237000000099,-3.340191364,22.27692604,-116.9429932,-1.620916724,-0.675472438,4.131315708,-3.261363029,41.74521255,-3.10524416
2.41657000000032,-3.355647087,22.52944756,-116.9417877,0.758412778,-0.403083473,-0.338115394,-3.466223478,30.27449989,1.408924937
2.4249030000000857,-3.365953445,22.83547211,-117.0004883,-2.520812511,-0.086533919,4.341923714,-0.076586641,37.06853867,-4.831234455
2.4332360000003064,-3.380509615,23.11533546,-117.0002975,-1.424386859,-0.316378534,-1.519171238,-3.312026262,33.55640793,1.503954053
2.4415690000000723,-3.418864727,23.4293766,-117.0482254,0.4800497,0.05233654,1.630603552,-3.886632204,37.95856476,-3.535076618
2.449902000000293,-3.459078312,23.64869118,-117.0561676,-1.140877843,-0.957228065,1.065868855,-6.000549316,26.35534096,0.212073222
2.458235000000059,-3.474772453,23.85836792,-117.0935516,1.271609783,-0.649287105,3.140288591,-1.632370353,25.38870239,-3.072378159
2.4665680000002794,-3.501395702,24.03936958,-117.1079559,-1.886061668,0.465758055,0.353571534,-4.050124168,21.80664825,-0.751240253
2.4749010000000453,-3.521883488,24.20793915,-117.1398239,-0.9484303,-0.771281481,0.377828419,-2.451795578,20.42834663,-2.741082907
2.483234000000266,-3.524273396,24.35009193,-117.1501617,0.335517436,1.517365098,-1.306122184,-1.333528757,17.1273098,-0.574245751
2.491567000000032,-3.545844555,24.43432426,-117.1763382,-1.51498723,-0.548866868,1.053392172,-2.847073793,10.28827953,-2.727916479
2.4999000000002525,-3.544496059,24.50009727,-117.1722488,0.285401553,-1.583921313,3.72349143,-1.597611308,7.878389359,0.438759118
2.5082330000000184,-3.563527107,24.53716087,-117.1867294,-1.297545791,0.580050111,4.331105709,-3.119096518,4.559679031,-1.796761513
2.516566000000239,-3.573765039,24.57485962,-117.184639,-1.872591019,-1.352741003,3.680366755,-2.888107538,4.527712822,0.014279936
2.524899000000005,-3.586315632,24.56824684,-117.1961136,0.988809288,0.132222116,0.599414825,-2.490344286,-0.690303564,-1.79376483
2.5332320000002255,-3.610264778,24.54810333,-117.2023315,-2.287883043,-0.092839196,2.273396015,-4.120716095,-2.341346264,-1.325972199
2.5415649999999914,-3.63660717,24.47955132,-117.2061691,1.232159734,-2.152391434,2.927269459,-4.524678707,-8.160747528,-1.434474111
2.549898000000212,-3.656663418,24.42523575,-117.2149429,-2.60325408,0.566278696,4.658158779,-3.528898716,-6.416339874,-1.864818573
2.558230999999978,-3.669110537,24.32319832,-117.2132721,-0.386479884,-0.815804958,4.17168808,-3.133313179,-12.20974541,-1.096033454
2.5665640000001986,-3.66156745,24.27596474,-117.2262268,-2.237384319,0.98015517,1.466275454,-0.00955411,-5.540025711,-2.270497084
2.5748969999999645,-3.677433252,24.15931129,-117.2167053,-0.832699656,0.663852692,-0.734363794,-3.928429842,-14.01406097,-0.35234943
2.583230000000185,-3.71856451,24.09161377,-117.2235031,-1.024935007,0.805636942,-0.445492893,-6.158917904,-8.03195858,-1.76156795
2.591562999999951,-3.792906046,23.96200752,-117.2092972,-1.924522638,-1.23112464,6.60695076,-11.17165279,-15.59953594,0.038818382
2.5998960000001716,-3.803213358,23.84812737,-117.2048187,-0.099277586,-2.016410589,10.46573162,-3.010954142,-13.64247894,-0.911969543
2.6082289999999375,-3.743530989,23.72279549,-117.1899109,-3.761416197,-0.407845318,6.292956352,4.884596825,-15.09421444,0.146987304
2.616562000000158,-3.687563181,23.57863045,-117.1850128,1.604141235,1.523447752,-0.214901641,4.923172474,-17.27168274,-1.080793023
2.624894999999924,-3.741087198,23.41365433,-117.1590118,-4.770584106,0.279111564,0.391258657,-9.222922325,-19.92009926,1.077399254
2.6332280000001447,-3.75672102,23.30994606,-117.157196,2.105289459,-0.942728102,6.443069935,-3.519396067,-12.40648651,-1.11245203
2.6415609999999106,-3.764648438,23.16612816,-117.1362305,-6.19708252,0.266175985,10.88763237,-3.499417305,-17.35175133,0.678072929
2.649894000000131,-3.746820688,22.98025322,-117.1241684,2.853279352,-1.561911821,3.459164858,0.015868023,-22.31797028,-0.625909686
2.658226999999897,-3.695315123,22.92820358,-117.1114502,-8.104825974,1.106207371,7.582583427,4.029029369,-6.301793575,0.501411498
2.6665600000001177,-3.705800295,22.68240356,-117.101738,3.883298635,-0.50289619,2.091952562,-3.266381025,-29.48044586,-1.328995705
2.6748930000003384,-3.664647579,22.72644424,-117.0965347,-7.977307796,0.126126945,9.748971939,3.141137838,5.260793209,0.418011546
2.6832260000001042,-3.679643631,22.47024536,-117.0811386,2.973252773,-0.224871665,1.934426546,-4.066211224,-30.76641083,-0.764252484
2.691559000000325,-3.636263371,22.58768463,-117.0808334,-8.010847092,-0.783747315,9.859937668,3.635697842,14.08579445,0.436120808
2.6998920000000908,-3.62269187,22.31586075,-117.0666275,3.136680126,0.185697928,7.618581772,-0.5797019,-32.62864685,-0.986251354
2.7082250000003114,-3.546471834,22.48134232,-117.0651169,-7.627116203,-0.016993593,9.256117821,7.51927948,19.83391762,0.915260971
2.7165580000000773,-3.556923628,22.17346001,-117.0549088,4.345541,-0.333218247,-1.704569101,-3.275065184,-36.92203903,-1.656295061
2.724891000000298,-3.488250971,22.42251968,-117.0608215,-9.684214592,-0.544338405,15.13260174,6.953233242,29.89682007,0.683042645
2.733224000000064,-3.494158268,22.10714722,-117.0610962,6.493154049,-0.603776813,-1.993234873,-2.252288103,-37.75058746,-2.832246304
2.7415570000002845,-3.42128849,22.37626266,-117.0643311,-12.26979351,-0.109688714,20.99597549,7.334553242,32.28268814,1.094689369
2.7498900000000503,-3.426650763,22.08364105,-117.0641174,8.040950775,-0.90011555,-11.05546856,-2.369882822,-35.05232239,-2.17757082
2.758223000000271,-3.362149239,22.32004166,-117.0706329,-13.35955429,0.557675123,25.56747627,6.479650497,28.38601112,0.460813224
2.766556000000037,-3.349369049,22.20766449,-117.0747986,7.327478886,0.128611013,-10.84331703,0.166633412,-13.41023159,-1.748120427
2.7748890000002575,-3.310329914,22.29332161,-117.0837708,-10.4100008,-1.307211995,20.6033287,3.53592968,10.34373283,-0.894449055
2.7832220000000234,-3.291109324,22.37564278,-117.0844727,3.251636505,0.821864963,-1.23060596,0.780324817,9.894740105,0.001344747
2.791555000000244,-3.279918194,22.31973648,-117.1038132,-6.162138462,-1.315717816,10.15856266,0.671080172,-6.552403927,-3.027807713
2.79988800000001,-3.243133783,22.55856705,-117.1008911,-1.550535202,1.22392416,8.321534157,2.723089695,28.62417221,1.45984602
2.8082210000002306,-3.257127047,22.48566628,-117.144165,-1.827996731,-2.499546766,4.192513466,-1.246593595,-8.43994236,-5.780134201
2.8165539999999964,-3.224016666,22.6981945,-117.1090317,-3.046162367,1.591474056,11.65415001,0.796820819,25.27246284,4.834138393
2.824887000000217,-3.291205883,22.68354988,-117.1787262,-1.738780379,-3.168855906,3.328496695,-6.392596722,-1.292827368,-8.299909592
2.833219999999983,-3.258396864,22.89426804,-117.1161194,-2.724107027,1.608698726,8.52659893,-0.529087842,24.87784958,7.863739491
2.8415530000002036,-3.337744474,22.89188004,-117.2158585,-1.300150394,-2.536082029,7.307688713,-6.421463013,0.370420277,-11.52036095
2.8498859999999695,-3.287517548,23.15983391,-117.1206131,-3.141937733,2.196404934,12.37501335,0.000781235,31.52350998,11.86510181
2.85821900000019,-3.393646955,23.09142303,-117.2418137,1.519359946,-3.12428236,-5.068874359,-8.579566002,-7.394088745,-14.32814407
2.866551999999956,-3.368364811,23.32142258,-117.0980225,-6.65525198,2.532368422,20.41205406,-5.323385239,26.64644623,16.96681595
2.8748850000001767,-3.451427698,23.32033157,-117.2515793,1.767567873,-0.509964764,-3.331643581,-4.228296757,0.899456978,-17.39642525
2.8832179999999425,-3.403942585,23.37171936,-117.0728836,-3.046432257,-0.628444552,19.40955353,-4.529571056,4.981854439,19.92809868
2.891551000000163,-3.46694541,23.50801468,-117.2338867,-2.235051632,1.296515942,1.680701017,-1.431016803,17.41416931,-17.20908737
2.899883999999929,-3.433149576,23.30739784,-117.0577087,3.510187387,-3.349924326,7.654840946,-6.060948372,-25.19595146,17.79720879
2.9082170000001497,-3.433389664,23.47042656,-117.1817169,-8.570989609,3.357981682,16.52620506,4.323288441,20.37128067,-12.95870972
2.9165499999999156,-3.372728109,23.2995472,-117.0760422,5.024443626,-1.991775155,2.789365292,0.510684013,-21.16085243,10.31571484
2.9248830000001362,-3.379071236,23.1952877,-117.145462,-5.485546589,1.482554674,13.55323792,0.969588697,-12.0158968,-8.87297821
2.933215999999902,-3.305197716,23.03990936,-117.0665894,3.202271223,-1.47914052,9.830521584,3.592256546,-19.0941391,7.108887672
2.9415490000001228,-3.267363548,22.85229301,-117.140274,-6.503304958,2.453728437,12.69544888,6.430316448,-21.98826981,-9.915788651
2.9498819999998886,-3.174944162,22.58587837,-117.0662994,3.614688635,-3.41144824,9.297634125,5.979687214,-32.37117767,6.183039665
2.9582150000001093,-3.148402214,22.350811,-117.1120224,-6.686211586,1.686033607,12.70712662,3.726246119,-27.86574554,-7.115485191
2.96654800000033,-3.070259333,22.05840683,-117.0980606,0.46293354,-2.227834225,12.44193268,7.035457611,-35.11474609,-0.483750969
2.974881000000096,-3.009643316,21.73749352,-117.0892258,-3.771994591,1.472272873,8.634462357,5.321581364,-38.48748398,-1.555528879
2.9832140000003164,-2.955826521,21.4800396,-117.0877457,-0.232286811,-1.976962805,12.83191776,4.72146368,-30.84973526,-1.646510124
2.9915470000000823,-2.898001194,21.12366486,-117.0678558,-5.91499567,1.045315027,11.7566309,4.515041351,-42.80514145,-0.458239377
2.999880000000303,-2.857609272,20.837677,-117.0740509,1.085119247,-1.874296546,11.87164593,3.438215017,-34.22890091,-2.606020212
3.008213000000069,-2.780811787,20.56585693,-117.009964,-7.50304985,1.63221693,15.87520695,4.940824032,-32.91281128,5.085314751
3.0165460000002895,-2.764773607,20.228508,-117.0470963,-0.908088624,-2.359110594,11.67463303,1.816833138,-40.21986008,-6.346473217
3.0248790000000554,-2.696480989,20.04045486,-116.9634247,-5.777406216,1.203899145,15.63022423,3.182301044,-22.97001076,7.843838215
3.033212000000276,-2.669634819,19.7446022,-117.0146637,-0.738021791,-1.843647361,12.81542206,3.648149967,-35.17829895,-7.633511543
3.041545000000042,-2.605383873,19.59988022,-116.9323883,-4.610095024,0.523492515,11.26842308,2.829848289,-17.75527763,7.993550777
3.0498780000002625,-2.616843939,19.36351204,-117.0361557,-1.959425926,-1.832277894,15.42339039,1.111082435,-27.78634453,-13.20922089
3.0582110000000284,-2.516386032,19.31797028,-116.9781647,-6.427816391,1.595694065,25.5495472,8.193520546,-5.731441975,5.819618702
3.066544000000249,-2.444414139,19.07752037,-117.0521088,-0.736623228,0.790478647,9.63388443,9.88301754,-28.45036888,-9.789180756
3.074877000000015,-2.355488777,19.03689384,-117.0031509,-6.193190575,-0.496855736,9.971873283,7.194718838,-5.080788612,4.848454475
3.0832100000002356,-2.304760456,18.83918762,-117.0853195,-0.306319505,-0.599469125,16.21406364,7.624914169,-23.31045151,-10.46977425
3.0915430000000015,-2.164623499,18.73917389,-117.0135345,-4.170392513,2.738137484,18.82398605,12.48480606,-12.28815174,7.18624258
3.099876000000222,-2.147700787,18.66826057,-117.0808105,-2.32734704,-1.8999753,4.807155609,3.013809919,-8.189282417,-8.320274353
3.108208999999988,-2.080471754,18.47623634,-117.0129166,-2.965933561,-2.762526035,25.56114769,3.916508198,-23.29223824,6.372119904
3.1165420000002086,-1.959662676,18.38859558,-117.0455399,-3.921025991,0.751985192,23.4282856,14.1171751,-10.35586357,-4.399835587
3.1248749999999745,-1.831327438,18.22604942,-117.0072632,-1.424168229,-2.298933744,7.680403233,12.40125084,-19.61717987,3.215855122
3.133208000000195,-1.761444926,18.01699448,-117.038147,-5.17592144,1.149163127,18.73064423,7.958795071,-24.93688011,-4.737099171
3.141540999999961,-1.663345218,17.87603188,-117.0085068,-1.706867814,-1.145073771,13.50928497,9.118453026,-16.98711014,2.383110762
3.1498740000001817,-1.611687899,17.69498253,-117.0305939,-4.545396805,1.066865325,10.92345619,5.419398308,-21.61916924,-3.543807983
3.1582069999999476,-1.615873098,17.5230751,-117.0048294,-2.037225723,-0.459823728,17.45414352,-2.994100571,-20.68301582,1.869494081
3.166540000000168,-1.579564095,17.33605576,-117.0162354,-3.622581482,-4.152220249,19.14248085,3.180661917,-22.36961174,-2.338683367
3.174872999999934,-1.439625978,17.19528198,-116.9925613,-3.123425722,1.187973976,19.75882149,14.39211845,-16.93795586,1.77377367
3.1832060000001547,-1.350060344,17.01179123,-116.9982605,-3.934897184,0.325062126,14.08929539,9.37183094,-21.96757317,-1.617104173
3.1915389999999206,-1.274668455,16.80254364,-116.9958572,-2.777994156,-1.390909791,14.55822849,7.407140255,-25.0890274,-0.795450449
3.1998720000001413,-1.206524611,16.58642387,-116.9903107,-2.521952152,1.446834803,12.71288204,6.411976814,-25.91434669,-0.363543034
3.208204999999907,-1.194849253,16.41774368,-117.0399094,-2.968819857,-0.980782568,16.86771584,1.534920812,-20.09662819,-6.624918938
3.216538000000128,-1.202049136,16.26642036,-117.0594025,-4.496966362,-0.89867264,13.52894211,-1.781367898,-18.08011627,-3.053422451
3.2248709999998937,-1.191409945,16.06505775,-117.1121597,-0.69157958,-3.850541115,19.27495575,1.48200202,-24.00974655,-7.079650402
3.2332040000001143,-1.121241331,15.85059261,-117.1544113,-5.805445671,2.95562768,23.1595974,8.232638359,-25.6043911,-5.79868269
3.241537000000335,-1.07907939,15.69438457,-117.2148209,-2.287279606,-3.579095602,10.13176346,5.473238468,-18.58725739,-7.830479622
3.249870000000101,-1.006907582,15.50538158,-117.2499237,-3.907571077,2.560879469,9.654836655,8.222775459,-22.57293701,-4.919523239
3.2582030000003215,-1.013240576,15.33578491,-117.3235016,-1.240692616,0.001608668,18.86162949,0.03105727,-20.17810631,-9.363619804
3.2665360000000874,-0.989654839,15.19925213,-117.3423615,-5.646073341,-1.914017081,17.43483734,1.882506013,-16.3112278,-3.014360905
3.274869000000308,-0.962069929,15.06702042,-117.4108582,-2.243595839,-0.365387321,15.81828117,3.90039587,-15.709548,-8.69882679
3.283202000000074,-0.915667772,14.89297009,-117.4339828,-4.785020351,-1.81383729,19.29219055,4.728299618,-20.80931854,-3.518116236
3.2915350000002945,-0.864234924,14.74207592,-117.5182571,-2.830210924,0.706208467,13.21413708,7.200791836,-17.93297005,-10.55306911
3.2998680000000604,-0.876684964,14.58058643,-117.5346756,-1.089224696,-1.592547655,7.659759045,-2.541803598,-19.31777382,-2.729504585
3.308201000000281,-0.926255941,14.39487457,-117.6197968,-4.473509312,-0.508093059,20.67621231,-4.949491978,-22.10606575,-10.7357502
3.316534000000047,-0.930681884,14.28471851,-117.6673889,-2.768976212,-3.964130878,20.26489449,-0.65157491,-13.09637928,-6.324717999
3.3248670000002676,-0.92973423,14.16342068,-117.7416611,-5.608241081,1.577624083,13.8887043,0.748409748,-14.39235973,-9.372404099
3.3332000000000335,-0.966075182,13.98651123,-117.8118286,-1.440855503,-1.683900952,13.38673878,-3.846850157,-21.05985451,-9.100305557
3.341533000000254,-1.008070946,13.8480587,-117.8905563,-4.033949375,2.094092131,17.35057831,-4.324324608,-16.43253517,-9.949263573
3.34986600000002,-1.09549737,13.71866608,-117.9634094,-2.11499691,-2.229012966,9.767261505,-9.931846619,-15.33704185,-9.407035828
3.3581990000002406,-1.133844137,13.5850153,-118.0269852,-3.790427208,-1.324719429,20.51394463,-4.357495308,-15.86948204,-8.219816208
3.3665320000000065,-1.146734595,13.47730923,-118.0928268,-4.680426598,-0.016835695,22.024086,-1.229252815,-12.73749924,-8.539940834
3.374865000000227,-1.137385249,13.37714481,-118.1625214,-4.043268681,-1.425829172,14.38184166,1.506744862,-11.83283234,-8.868598938
3.383197999999993,-1.155616641,13.22807312,-118.2240067,-2.21213007,2.008701801,8.086089134,-2.031926632,-17.71196747,-8.089490891
3.3915310000002137,-1.223804116,13.12506199,-118.299057,-2.869395018,-2.594750643,14.46476936,-7.686192989,-12.15469933,-9.518354416
3.3998639999999796,-1.238792777,13.03153706,-118.3472214,-2.637126446,0.464951396,19.86663246,-2.029518604,-11.06829643,-6.438215733
3.4081970000002,-1.268105626,12.93463898,-118.4087372,-4.293529034,-2.096723557,15.69573116,-3.415812254,-11.44492817,-7.941617966
3.416529999999966,-1.299492598,12.79622746,-118.4475021,-3.681346893,-0.316207081,18.53955269,-4.258982658,-16.47179985,-5.524530411
3.4248630000001867,-1.327402711,12.72612858,-118.510643,-3.349661827,-0.369583726,13.25469112,-3.231876612,-8.218712807,-8.075349808
3.4331959999999526,-1.402191758,12.61327648,-118.5694656,-2.25006485,-0.904180884,8.575161934,-8.955661774,-13.34266376,-7.820361137
3.4415290000001733,-1.502685666,12.55126572,-118.6307144,-4.157979488,-1.459964991,16.41980743,-12.01448727,-7.234357834,-7.856091976
3.449861999999939,-1.568030715,12.52717876,-118.7095871,-5.352852345,-0.150370553,23.94968987,-7.312378407,-2.609834909,-9.941859245
3.45819500000016,-1.62117517,12.51077271,-118.7578659,-3.427154064,-1.45995748,11.25951576,-6.67686367,-1.787412882,-6.206534386
3.4665279999999257,-1.653944135,12.49670124,-118.83535,-3.545716763,0.665023446,10.22955227,-3.436047554,-1.395361304,-9.792938232
3.4748610000001463,-1.730169058,12.55455112,-118.863678,-3.658069372,1.636068344,15.09570408,-9.965886116,7.060680389,-3.608892679
3.483193999999912,-1.786916018,12.6244669,-118.9263687,-3.256378174,-2.994581699,16.14575386,-6.676018238,8.648712158,-7.795412064
3.491527000000133,-1.801551461,12.65061569,-118.939888,-2.983308315,1.347307801,15.53318119,-2.956548691,3.208708048,-1.982490659
3.4998599999998987,-1.813578486,12.68826962,-118.9829636,-4.171824455,-3.685878277,15.7403059,-1.814794302,4.712980747,-5.62598753
3.5081930000001194,-1.774456978,12.74241352,-119.0025787,-1.429680467,2.505034924,14.07391834,3.657290459,6.590300083,-2.587832451
3.5165259999998852,-1.81400013,12.82861805,-119.0375061,-4.296422958,-0.890518904,10.70545864,-5.312110901,10.50477028,-4.521348476
3.524859000000106,-1.867022038,12.8824892,-119.0682449,-2.128242731,-1.332614541,14.63274479,-7.099216938,6.600878239,-3.881376743
3.5331920000003265,-1.899758458,12.94728661,-119.1001816,-3.66150403,-1.133006692,17.87237549,-4.563662529,7.931640148,-4.256087303
3.5415250000000924,-1.935126424,12.9848156,-119.1387711,-3.367371321,-1.282788634,17.57556343,-4.76224947,4.67596817,-4.855638504
3.549858000000313,-1.949238658,13.0445261,-119.1533356,-1.912510276,-0.495697349,10.713974,-2.78900671,7.257295609,-2.24747014
3.558191000000079,-2.01243639,13.05221367,-119.2111206,-2.034458876,-0.301121175,9.901488304,-7.574335575,1.179010749,-7.216786385
3.5665240000002996,-2.116761208,13.09979534,-119.2181015,-4.24408102,-0.871875107,14.18466949,-13.81634521,5.774896622,-1.403685927
3.5748570000000655,-2.163315058,13.14310074,-119.2987518,-2.378170013,-2.579228163,23.18903542,-4.945058346,5.568342686,-9.721959114
3.583190000000286,-2.177862644,13.22221851,-119.3061295,-4.70264101,1.360605597,11.9060173,-3.013054132,9.563960075,-1.372743964
3.591523000000052,-2.243689537,13.23815155,-119.3876343,-1.051657319,-2.087162018,8.808144569,-7.216094971,2.300376415,-9.936096191
3.5998560000002726,-2.320216656,13.29225254,-119.3921738,-4.640845776,2.379445076,13.31472683,-10.54087353,6.549547672,-1.079332709
3.6081890000000385,-2.432751656,13.32598877,-119.4640808,-1.107945561,-4.850427151,16.62707138,-13.07483959,4.416497231,-8.719010353
3.616522000000259,-2.461992979,13.37545395,-119.463356,-4.306112766,1.340843678,17.78420448,-4.997952461,5.971562862,-0.521915734
3.624855000000025,-2.538092613,13.3752718,-119.523613,-2.77894187,-2.137480259,12.24262142,-9.014316559,0.307434916,-7.524335384
3.6331880000002457,-2.569525719,13.38650036,-119.5222626,-2.697981358,-0.106589042,15.91292,-5.286675453,1.384129167,-0.612897396
3.6415210000000116,-2.645553589,13.33644485,-119.5810013,-2.061037779,0.906061113,11.39278316,-9.05122757,-5.666126251,-7.619340897
3.649854000000232,-2.708004951,13.33495712,-119.5838547,-2.89872694,-2.815303087,12.39426136,-8.888498306,-0.118875667,-1.179663658
3.658186999999998,-2.74980855,13.27960777,-119.6305466,-2.842813969,1.144818187,16.6923542,-5.282398701,-6.352023602,-6.257353306
3.6665200000002187,-2.787121773,13.23873425,-119.6313553,-4.124995232,-2.067443132,16.45787239,-5.939071178,-4.852720261,-1.131150484
3.6748529999999846,-2.819380999,13.16232491,-119.6671677,-2.346781015,1.864143729,11.34580231,-4.446938515,-8.930941582,-5.123487473
3.6831860000002052,-2.916848898,13.10054684,-119.6832199,-2.512103558,-3.380485296,10.82045555,-12.73867989,-7.267170429,-3.062746286
3.691518999999971,-2.955477476,13.03458118,-119.7082596,-2.359215975,-0.250578403,15.35585403,-5.512208939,-7.733424664,-3.825511694
3.6998520000001918,-3.004096508,12.97716904,-119.7357559,-2.972800255,-1.339117169,16.16802597,-6.58324337,-6.670818806,-4.347018242
3.7081849999999577,-3.048245907,12.87106514,-119.7547302,-4.3595047,0.084062308,11.71130943,-6.344620228,-12.57592487,-3.385049582
3.7165180000001783,-3.133577347,12.80887222,-119.7971344,-1.500329494,-1.285964966,11.46100044,-10.60654926,-7.143836975,-6.109380722
3.724850999999944,-3.207778215,12.74625874,-119.8077927,-3.988944292,-1.399825454,15.54326057,-10.17776775,-7.409379959,-2.156898499
3.733184000000165,-3.250313759,12.74768448,-119.8513947,-2.624017239,-0.306210518,16.28903389,-5.434419632,0.501693308,-5.888303757
3.7415169999999307,-3.312922478,12.67865562,-119.8538284,-4.147324562,-1.868283868,10.28039265,-9.005965233,-8.231492996,-1.256429434
3.7498500000001513,-3.38637352,12.65958214,-119.8994217,-1.79357934,1.571786404,11.52414703,-9.097075462,-1.924320698,-6.292675495
3.7581829999999172,-3.48216033,12.60162449,-119.9036713,-3.827845573,-2.903740168,14.07978916,-12.9391861,-6.890767574,-1.40686202
3.766516000000138,-3.514780045,12.6221447,-119.9566345,-1.948005199,-0.148756966,16.19832039,-3.99740839,2.887735844,-6.912103176
3.7748489999999038,-3.558568478,12.58750916,-119.9449158,-5.1203022,-0.811616838,11.79864311,-7.119169235,-4.210774899,0.618878305
3.7831820000001244,-3.603532791,12.56493759,-119.9946747,-1.305735588,0.65734601,13.39427567,-5.568150997,-2.290117741,-6.850835323
3.7915149999998903,-3.65387845,12.50302219,-119.9774933,-3.444339037,-1.002038956,13.67811584,-8.045456886,-7.51928854,1.042153597
3.799848000000111,-3.683823824,12.51041603,-120.0372543,-1.107696056,-2.147076607,14.66667271,-3.519985199,1.38295114,-7.776456356
3.8081810000003316,-3.683523178,12.44127369,-120.0222549,-4.11358881,0.636906385,12.50460243,-1.909720659,-8.371014595,0.724357784
3.8165140000000974,-3.709317446,12.40399933,-120.072197,-1.583200455,-1.494851708,12.85997295,-3.287843466,-4.036445141,-6.968122959
3.824847000000318,-3.722138166,12.30373287,-120.0558929,-4.213243008,1.805037498,13.80947495,-3.513197422,-12.10872173,0.63048172
3.833180000000084,-3.74727273,12.28073788,-120.1014709,-1.012623787,-3.049047232,12.69887161,-3.328134537,-2.355971813,-6.363549709
3.8415130000003046,-3.710230827,12.20951653,-120.0922699,-5.492902756,0.250395358,16.27748871,2.654492855,-8.576517105,0.026805297
3.8498460000000705,-3.694297314,12.17212677,-120.1281128,-1.08177793,-1.915697336,11.40232086,1.33743453,-4.158496857,-5.317643166
3.858179000000291,-3.659638405,12.10962296,-120.1231689,-5.827382565,2.109772444,16.26236153,2.479086876,-7.499362469,-0.399249166
3.866512000000057,-3.667630196,12.09430122,-120.1753082,-0.107546106,-2.378861427,11.11751842,-1.127513051,-1.394900203,-7.081696033
3.8748450000002777,-3.62072897,12.05179882,-120.1833649,-4.431071758,-1.598099589,16.26000214,4.274029255,-5.006942272,-1.76620388
3.8831780000000435,-3.595848799,12.00687504,-120.2505493,-1.312747717,-0.151518047,12.72328568,3.183376074,-4.835942745,-9.046616554
3.891511000000264,-3.558911562,11.92127991,-120.2566681,-2.732136488,-0.713838696,11.1958704,3.028409719,-10.1845026,-1.855136871
3.89984400000003,-3.58678627,11.84650135,-120.3466949,-2.345031023,-0.125489146,13.48850346,-2.607145071,-8.251010895,-11.93723392
3.9081770000002507,-3.556257248,11.75992012,-120.3491516,-2.026632309,-1.859384418,14.84477425,2.167976379,-10.32942963,-1.432553291
3.9165100000000166,-3.522062063,11.65462685,-120.4384308,-4.473711491,0.561356783,15.87409496,4.788005352,-11.91904831,-12.06648254
3.9248430000002372,-3.461369038,11.53939724,-120.4353638,-1.243108749,-0.857159853,11.34362125,5.651590347,-13.80164528,-0.977618754
3.933176000000003,-3.429457903,11.42736626,-120.4975281,-4.78411293,0.730273962,13.97454739,3.828829527,-12.93362808,-8.954916954
3.9415090000002238,-3.383507013,11.32741356,-120.5101242,-1.1836555,-1.733109713,14.31334972,4.255357265,-11.86223507,-2.688265324
3.9498419999999896,-3.307552099,11.22265625,-120.5477982,-4.769713402,-1.02423346,16.06097603,8.513213158,-12.24560356,-6.011021614
3.9581750000002103,-3.23529911,11.0916996,-120.5687561,-1.38964963,-0.270921469,10.48519039,7.601397038,-15.52740383,-3.854584455
3.966507999999976,-3.197710991,11.00772858,-120.6005707,-4.374073029,-0.916891098,12.25153065,3.741100073,-9.80984211,-5.092110157
3.974841000000197,-3.187679529,10.90598965,-120.6253204,-2.541088343,-0.626969099,13.43846321,0.21273905,-12.00488186,-4.091208458
3.9831739999999627,-3.148229599,10.86743736,-120.6353378,-4.815756321,-2.14119482,17.8536129,3.465439796,-4.510923386,-2.255845785
3.9915070000001833,-3.103380919,10.78529072,-120.6650848,-3.462827682,-0.17908445,10.54300594,4.495951653,-9.628442764,-4.536025047
3.999839999999949,-3.063927174,10.78111458,-120.6622314,-2.113963127,0.21942991,7.635520935,3.162397146,-0.480958462,-0.437183738
4.00817300000017,-3.08856988,10.74432182,-120.7228699,-3.920124531,-0.717422426,9.301336288,-3.156263351,-4.002071381,-7.87048769
4.016505999999936,-3.100919962,10.75709438,-120.7324066,-3.02000618,-2.132588625,14.3601284,-2.795537233,1.623801351,-1.690846682
4.024839000000156,-3.092956543,10.80041885,-120.8261566,-3.026493311,-1.105953693,10.49969578,1.503440619,5.812421322,-11.25120926
4.033171999999922,-3.086047173,10.864398,-120.8794022,-2.030843258,-0.959098816,7.551483154,0.505484223,8.038709641,-6.520079613
4.041505000000143,-3.127468824,10.93308067,-121.0033569,-4.100946903,-1.002595663,3.735008478,-3.714448929,9.045604706,-14.63861561
4.049837999999909,-3.199009657,11.12832451,-121.0858994,-4.043961048,-0.358873159,6.995836258,-8.191028595,23.97144318,-9.187473297
4.058171000000129,-3.315731049,11.27063465,-121.1999893,-2.863608122,-0.865082681,2.560047865,-12.90335464,17.83869553,-12.93691063
4.066503999999895,-3.424022436,11.56504154,-121.2598343,-3.916129827,-1.434894562,9.655661583,-13.07408524,35.72376633,-5.725659847
4.074837000000116,-3.53531909,11.80000401,-121.3353043,-4.790902615,-0.444040567,4.723557949,-13.07817936,28.70803642,-7.63947773
4.083170000000337,-3.675012827,12.17434502,-121.3583374,-2.696038008,0.256246477,6.42838192,-17.70047188,45.04222488,-0.577320397
4.0915030000001025,-3.780995131,12.57014847,-121.4433365,-2.623155594,-0.672240853,3.787578821,-12.08810329,48.07166672,-7.351071358
4.099836000000323,-3.878201485,12.91480255,-121.4313965,-0.444890618,-1.926444769,2.834035635,-13.47182846,41.21820068,3.376614809
4.108169000000089,-3.98577404,13.38560963,-121.5627823,-6.691529274,1.380624771,9.784710884,-10.87719536,57.44536209,-11.94016361
4.11650200000031,-4.071001053,13.78883266,-121.5523148,3.53599596,-1.776738763,-7.339473248,-12.01031017,48.22787476,3.838723421
4.1248350000000755,-4.250888348,14.20619869,-121.6825409,-8.163620949,2.156702042,10.95920467,-19.36292648,51.08049011,-11.98470211
4.133168000000296,-4.333823681,14.74776649,-121.682106,4.271705151,-3.154719353,-1.192269325,-11.45452499,64.84890747,4.156424999
4.141501000000062,-4.462962151,15.11813736,-121.7943878,-7.608847618,2.66258955,11.76557064,-13.58074665,45.3400383,-10.07089806
4.149834000000283,-4.526635647,15.63585854,-121.8096466,4.587450504,-3.645750999,-2.764001131,-8.638532639,62.1221199,2.349153757
4.158167000000049,-4.569449902,16.0181942,-121.8862839,-6.198031902,3.15530777,4.909150124,-4.18516922,46.46473694,-5.677944183
4.166500000000269,-4.637946606,16.4884491,-121.9456787,2.864995241,-1.529093981,1.404769778,-7.701583862,56.84818649,-3.056299686
4.174833000000035,-4.70981741,16.84876823,-121.9758987,-3.252022266,1.176815867,3.410713196,-9.140148163,43.4044075,-0.436390489
4.183166000000256,-4.734405994,17.25384521,-122.0673828,-0.036506426,-2.074073315,4.240467548,-1.224875331,49.35201263,-7.161831856
4.191499000000022,-4.735902309,17.55743217,-122.0582123,-0.745717287,2.091884375,-1.615819693,-2.065713644,36.24591446,3.557296276
4.199832000000242,-4.804719448,17.88899994,-122.17556,0.42930454,-0.503024518,2.183582306,-5.471439838,40.80746841,-10.72390175
4.208165000000008,-4.814165115,18.19035721,-122.1481781,-2.522484779,-0.600085378,7.490022659,-3.707459688,35.80034637,5.648931026
4.216498000000229,-4.81193924,18.39702988,-122.2659302,0.410383612,-1.459263921,7.042344093,3.186835766,25.87409782,-11.90476227
4.224830999999995,-4.671404839,18.58824348,-122.2225723,-0.3462345,0.752581239,-0.95124346,13.6583004,22.48453522,6.317358017
4.233164000000215,-4.641334534,18.71261787,-122.3333359,1.672304034,1.807948232,-5.389205933,6.301756859,15.92118645,-11.83736706
4.241496999999981,-4.596893787,18.83570099,-122.3055191,0.194040582,-0.620625556,0.669109464,2.703262568,14.49280643,3.841943979
4.249830000000202,-4.600708961,18.89343643,-122.3850632,-0.281681001,-0.109354228,6.007153988,1.082701206,7.656005859,-8.976765633
4.258162999999968,-4.517021179,18.88994598,-122.3692169,-0.699665189,-2.736722469,8.827198982,7.869423866,-0.536951303,1.262922883
4.266496000000188,-4.402424335,18.85812187,-122.3885345,-1.622974992,-0.10159526,4.230111599,12.95912743,-3.610634327,-3.018561363
4.274828999999954,-4.279952049,18.743536,-122.3903503,0.181166872,-0.532486856,0.161050528,13.21112156,-13.67416191,-1.743228316
4.283162000000175,-4.172605991,18.64631844,-122.3550644,-1.264578104,1.021635175,-3.584941387,9.988567352,-11.90293694,2.580365658
4.291494999999941,-4.132074833,18.50315857,-122.3866348,-0.012840408,-0.332201064,-0.905883849,4.514855385,-16.85158348,-5.325764179
4.299828000000161,-4.089195251,18.39655304,-122.3202896,-0.942257285,-1.002708316,1.787314653,1.068561912,-13.27908707,6.120227814
4.308160999999927,-4.091811657,18.25688744,-122.3877869,-2.230365992,-1.732287049,6.166090488,0.677304566,-16.14757729,-9.362313271
4.316494000000148,-4.018471718,18.133461,-122.312027,-0.114956304,-2.410797119,7.105443001,4.432685852,-15.3584795,6.992086411
4.324826999999914,-3.936103582,17.96934891,-122.3905182,-4.994005203,-0.164289907,3.186435461,11.24612713,-19.00274849,-10.79894066
4.3331600000001345,-3.818930387,17.86809921,-122.3194962,2.7117939,-1.109710455,-2.137750626,9.883602142,-12.6496706,6.772982121
4.3414929999999,-3.800501823,17.74913788,-122.3929214,-7.169651031,2.401933193,-2.69699502,3.349920034,-13.66440487,-9.816197395
4.349826000000121,-3.839348316,17.69480705,-122.3385086,4.196197987,-2.771939039,0.751795769,-8.184134483,-6.895737648,5.217607975
4.358158999999887,-3.900096178,17.5906353,-122.381897,-8.019534111,0.330879509,6.139903545,-7.268910885,-12.1141777,-6.290626526
4.3664920000001075,-3.852002621,17.52854919,-122.3306961,5.224731445,-3.600379229,5.33685112,2.360364914,-7.807552814,4.841052055
4.374825000000328,-3.780035496,17.46990967,-122.3440857,-7.467155933,1.667395473,2.343267202,7.564178467,-6.895968437,-2.495825529
4.383158000000094,-3.723143339,17.48913383,-122.3079681,1.659855604,-1.842832208,-0.158689082,3.96724844,2.053941488,3.782569408
4.391491000000315,-3.719880819,17.53957176,-122.3091583,-6.419435978,2.363960505,2.153688669,-1.121596098,6.072047234,-0.239902958
4.399824000000081,-3.712311506,17.57349205,-122.2957916,1.301247478,-2.573856592,2.594822884,-1.12477231,3.986740589,1.273270845
4.408157000000301,-3.648058176,17.62069702,-122.2767639,-4.378686428,-1.150115728,3.993053198,5.463683605,5.537529945,2.037523031
4.416490000000067,-3.620663643,17.72603226,-122.2661896,0.440768987,1.0377599,-2.061748743,1.3627671,12.56436062,1.458462
4.424823000000288,-3.651622772,17.84194374,-122.2428589,-4.084444046,-1.205376387,0.511666417,-6.12628603,13.73623753,3.047364712
4.433156000000054,-3.696959019,18.00618172,-122.2584305,-1.388790131,-1.100608468,6.660567284,-6.407787323,19.80965996,-1.045470953
4.441489000000274,-3.740772247,18.21030235,-122.2285843,-3.255227327,-1.056143641,5.456322193,-7.927841663,24.24764252,4.49008894
4.44982200000004,-3.729902744,18.36579895,-122.2349625,0.708307207,-4.745666981,0.604827762,-0.001178255,18.69052124,-0.028892864
4.458155000000261,-3.697856665,18.59159279,-122.2071915,-3.741889238,2.528701305,0.049020503,1.232570648,26.85960388,4.412682056
4.466488000000027,-3.746626377,18.84546471,-122.2198563,-0.060983755,0.928754926,-4.572847843,-6.919512272,30.5204792,0.046451461
4.474821000000247,-3.821610451,19.12405586,-122.2167587,-2.376740456,-1.79217732,-0.094507538,-10.67543602,33.35942078,2.062524796
4.483154000000013,-3.93944788,19.4265976,-122.2311935,-1.09333539,-0.367486954,5.119479656,-15.12263966,36.35862732,0.327901095
4.491487000000234,-4.035727501,19.70331001,-122.2417679,-1.278636575,-1.843467951,4.518807888,-12.68525696,33.2334137,0.619749844
4.49982,-4.077817917,19.98338318,-122.2676697,-2.616826296,-1.465064883,5.241071701,-5.550815105,33.75681686,-1.03566134
4.50815300000022,-4.14431572,20.33248329,-122.2991409,-2.499908924,0.704135895,-2.175519228,-8.234862328,42.06528854,-1.030257463
4.516485999999986,-4.226895809,20.60277748,-122.3269653,0.665032506,-1.130585551,0.195732564,-10.2974968,32.60176849,-1.249899149
4.524819000000207,-4.34321785,20.96961021,-122.3525925,-3.189997435,1.010897279,2.321010828,-14.42255974,44.13880539,-0.074255817
4.533151999999973,-4.458220959,21.25208664,-122.3961563,-0.959905446,-1.457654357,1.018682003,-13.47351456,34.19690323,-2.756223202
4.541485000000193,-4.565201759,21.62017059,-122.4264145,-1.275748014,-1.984843373,4.023728848,-13.0667696,44.32632828,-0.392308414
4.549817999999959,-4.674364567,21.87464142,-122.4472198,-0.030270629,0.548732817,3.452763557,-13.72883415,30.647192,-0.34784162
4.55815100000018,-4.795096874,22.1679821,-122.4634094,-0.624526083,-2.33384037,3.303739548,-15.31482124,35.25684738,0.612731636
4.566483999999946,-4.916113853,22.44608116,-122.4861145,-2.465389013,0.475970954,-1.576966763,-15.04241276,33.49009705,-0.181272149
4.5748170000001664,-5.048800945,22.70774651,-122.4921341,2.355727434,1.14041698,-2.406995773,-17.20028496,31.36511421,1.563994169
4.583149999999932,-5.162913322,22.90501595,-122.5050278,-3.200353861,-2.624238014,4.350328922,-14.64884186,23.73051643,0.193118647
4.591483000000153,-5.236569405,23.16994858,-122.5221634,-0.615683138,1.63266933,0.478089541,-9.589413643,31.85876465,0.499209076
4.599815999999919,-5.352452278,23.35695648,-122.5702972,-0.780796647,0.926551878,1.234145641,-13.17870903,22.85803795,-3.710095644
4.6081490000001395,-5.420207977,23.54761314,-122.5790024,0.535008967,-3.750668049,7.092128754,-9.272076607,22.89305687,0.698897541
4.616481999999905,-5.484914303,23.66026688,-122.6274948,-0.675211906,2.693398237,2.996067047,-6.98879385,13.98815441,-4.519862652
4.624815000000126,-5.550308704,23.79071999,-122.6274261,0.300140709,-1.108147621,-0.817544162,-9.406521797,15.60587215,1.014874578
4.633147999999892,-5.585393429,23.82510567,-122.651947,-0.556837678,-0.906950653,0.8359887,-4.577238083,4.388832569,-2.773791075
4.6414810000001125,-5.596082687,23.86725235,-122.6424103,-0.121005967,2.574532509,3.117963076,-3.302238464,4.956162453,1.037824869
4.649814000000333,-5.593045712,23.83925247,-122.6475601,-0.290273428,-2.295889854,3.18359971,-0.940221548,-3.267453671,-1.389674425
4.658147000000099,-5.552384853,23.7992382,-122.6338882,-1.030205011,0.606706738,2.107117891,2.659897327,-4.902256966,0.531149566
4.66648000000032,-5.518689632,23.69400787,-122.6255264,1.183283448,0.830878019,3.37258625,2.084653139,-12.63619614,-0.802570999
4.674813000000086,-5.477977276,23.57522202,-122.6198578,-3.007120132,0.158388287,3.259387255,3.057533264,-14.22714615,-1.245082498
4.683146000000306,-5.448845863,23.42996788,-122.6165237,2.043314695,-0.465657741,4.427538872,1.779126644,-17.36561012,-1.786567569
4.691479000000072,-5.434151649,23.26199913,-122.6177826,-4.547261238,0.617711067,7.097295284,0.267656028,-20.03172493,-2.548335791
4.699812000000293,-5.354465008,23.09264565,-122.6116486,1.667268038,-3.616194963,10.09003353,7.71778965,-20.27459717,-1.73480165
4.708145000000059,-5.196084976,22.8509388,-122.6094513,-4.975362301,0.313636661,5.65814352,17.34660339,-28.8836689,-2.922766209
4.716478000000279,-5.053339958,22.65464783,-122.5903168,2.631719589,1.755943656,-2.504244804,14.68517685,-23.63032722,-0.491050839
4.724811000000045,-4.993599415,22.45627594,-122.599205,-6.471523762,-0.779607773,4.905460358,6.022332668,-23.60588646,-3.56634903
4.733144000000266,-4.887227058,22.29323959,-122.5797958,2.830733061,-1.829274058,8.247472763,10.3231678,-19.65619278,-0.034809761
4.741477000000032,-4.794434547,22.09713364,-122.572052,-9.097043037,0.460647553,7.70587635,9.227162361,-23.50097275,-1.625121713
4.749810000000252,-4.658272266,21.97321701,-122.5592346,5.69762373,-3.214985132,3.863891602,14.20475101,-14.91502094,-0.301325977
4.758143000000018,-4.541433811,21.84855652,-122.5584183,-10.21285629,0.71270138,8.938529015,12.42771149,-14.8973484,-1.608395219
4.766476000000239,-4.459013939,21.69137383,-122.5463028,7.329220295,-2.073661566,-3.130427599,7.795477867,-18.88804626,-0.630007982
4.774809000000005,-4.379232883,21.70296669,-122.5437164,-13.5048914,0.817176223,14.10812378,7.902697086,1.386665106,-0.102047123
4.783142000000225,-4.338995934,21.53323746,-122.5484161,9.18196106,-3.020443678,-5.021092415,3.480706692,-20.24824142,-2.566675425
4.791474999999991,-4.261521816,21.61995316,-122.5382156,-14.25256252,0.781443119,21.79851151,7.290132523,10.31604481,1.417274237
4.799808000000212,-4.215160847,21.46278763,-122.5352783,8.463910103,-0.65671283,-8.743377686,3.880161047,-18.81245613,-1.561623573
4.808140999999978,-4.156549454,21.58399773,-122.5147476,-12.06936646,-0.936805367,16.97424126,4.573076248,14.36447906,2.85026288
4.816474000000198,-4.13279295,21.53436089,-122.5190735,5.506251812,0.17794843,0.437622339,1.485843539,-5.884794235,-1.411446929
4.824806999999964,-4.096184731,21.6022625,-122.4796677,-6.973592281,-2.778595448,12.12289524,1.09822309,7.836201668,4.472412109
4.833140000000185,-4.091974735,21.6348877,-122.4844971,-0.196098387,0.082700379,6.10401392,-0.836586475,3.966197729,-0.753442764
4.841472999999951,-4.074309826,21.7541008,-122.4695435,-2.635139704,-1.945515275,3.104515553,-0.100407802,14.17600727,2.186085463
4.8498060000001715,-4.05992794,21.68486404,-122.4510193,-1.421436429,0.333541721,15.23628139,-0.652829945,-8.411867142,0.972918332
4.858138999999937,-4.072219849,21.91663361,-122.4721527,-3.703043938,-1.094051838,3.190563202,-2.089149475,27.93591499,-0.872856855
4.866472000000158,-4.155123711,21.75662613,-122.4549942,2.710739613,-1.805756211,-1.287790537,-12.26986504,-19.26667595,0.031697631
4.874804999999924,-4.147772789,22.01841354,-122.4652252,-7.364557743,-0.328427106,21.96673012,-0.216312394,31.44200134,0.640446067
4.8831380000001445,-4.184335232,21.8338871,-122.4568787,2.657684565,-1.205785394,3.712133884,-6.316114426,-22.12948036,-1.178997993
4.89147099999991,-4.226447105,21.96086121,-122.4874802,-5.081728458,-1.641542196,16.44805908,-5.240930557,15.46899414,-2.778709888
4.899804000000131,-4.222751141,21.84980011,-122.4412537,2.8910079,1.465955377,1.490741611,-3.180084467,-13.64652252,3.653935194
4.908136999999897,-4.288505077,21.78840637,-122.4553757,-2.617218018,-2.335434198,12.76164818,-8.815779686,-7.208640575,-2.612601042
4.916470000000118,-4.302200794,21.64387894,-122.3899002,-1.813828945,-0.374083757,12.69953537,-5.985280991,-17.79501152,5.178471088
4.924803000000338,-4.341783524,21.55366325,-122.4028397,-1.174712062,-1.650052667,10.74322987,-5.73554039,-10.66313076,-2.752301216
4.933136000000104,-4.330905914,21.2712307,-122.3224335,-0.709851682,-0.143172666,13.36663055,-3.684073925,-34.43704605,5.681794643
4.941469000000325,-4.32749176,21.1671772,-122.3524017,-4.498902798,-0.912961304,15.06582546,0.154543519,-12.17555046,-4.781077385
4.949802000000091,-4.328301907,20.89016914,-122.2963562,0.016778238,-0.438460499,9.219138145,-4.014881134,-33.58861923,3.125746727
4.958135000000311,-4.311068058,20.66654015,-122.3296738,-3.859348774,-0.880254924,18.63254356,1.931404233,-26.45688629,-6.246394157
4.966468000000077,-4.245313644,20.44268799,-122.2907562,-3.002690792,0.205316827,18.586689,4.747024536,-27.07997322,1.718856931
4.974801000000298,-4.177642345,20.24992561,-122.3457794,-3.880227089,0.370400965,12.70106697,8.861185074,-22.59399414,-8.372170448
4.983134000000064,-4.085234165,19.96212959,-122.2912216,-0.070025183,-2.483238935,9.683694839,7.290421009,-34.86544037,3.126541138
4.991467000000284,-4.019467354,19.77934647,-122.3424072,-4.93457222,0.33036238,14.66601658,8.424668312,-21.44985771,-7.810936928
4.99980000000005,-3.915976763,19.50961304,-122.2686081,-2.135617971,-0.853995383,16.70380974,7.885209084,-32.84549713,5.584126472
5.008133000000271,-3.876045704,19.33511162,-122.3112183,-3.153257608,-1.067149401,11.27001572,4.93557024,-20.54295731,-6.734164238
5.016466000000037,-3.833722115,19.11197853,-122.2503052,-2.172370911,-0.931358814,14.02480221,1.137695313,-27.15038681,4.532556534
5.024799000000257,-3.821651459,18.88817406,-122.2845154,-3.298379421,-1.441180825,20.96066856,1.22808814,-26.51782036,-6.163045406
5.033132000000023,-3.738840818,18.68512726,-122.2503204,-2.04047966,-2.465789795,14.01380062,7.074386597,-24.54178047,1.735250115
5.041465000000244,-3.673050404,18.49045372,-122.2815628,-4.382112026,-0.879593492,16.43661308,7.532625675,-23.06002235,-5.554142952
5.04979800000001,-3.581499338,18.33646011,-122.27845,-1.625350833,-0.677300394,15.84867477,9.347982407,-18.43254662,-1.424254417
5.05813100000023,-3.542513609,18.13435555,-122.307518,-2.948471308,-0.594417691,12.2402401,4.214196682,-23.9798317,-5.310832977
5.066463999999996,-3.550639629,17.91895103,-122.319603,-4.312884331,-1.33854115,17.30088234,-2.040738583,-25.68138695,-3.597854614
5.074797000000217,-3.544530392,17.74161339,-122.3395615,-1.095822453,-1.919403553,11.02909756,-0.090341449,-21.07647705,-4.090236664
5.083129999999983,-3.53526783,17.49391365,-122.3564911,-2.436709881,-0.706964791,17.12900925,0.183052272,-29.52160835,-4.305346489
5.0914630000002035,-3.546532154,17.38207436,-122.3733444,-2.926051855,-0.143922627,12.35236073,-2.300722361,-13.25375557,-3.252112389
5.099795999999969,-3.572502136,17.16442871,-122.3992462,-3.903701067,-2.709051371,17.2585392,-3.751129627,-25.85848045,-5.08191824
5.10812900000019,-3.598151922,17.00534058,-122.408577,-3.134544373,-1.747363687,19.24831772,-4.303935051,-18.96491241,-2.760088205
5.116461999999956,-3.577704668,16.85942459,-122.4283829,-2.647739172,-1.601688266,17.24811363,1.649646997,-17.29425049,-4.060984135
5.1247950000001765,-3.575098038,16.64154053,-122.4455643,-2.826831341,1.32286036,13.04607391,-0.647784352,-25.95176697,-4.099740028
5.133127999999942,-3.617321253,16.50222588,-122.4697876,-4.336328506,-2.5963974,10.30812931,-5.727677822,-16.47029114,-4.545938969
5.141461000000163,-3.652681112,16.3103466,-122.4643478,0.08583986,1.698469877,12.2887001,-5.983694077,-22.99711418,-1.333836436
5.149793999999929,-3.723755598,16.10969543,-122.5036087,-3.830021858,-1.730193257,21.01457214,-8.698675156,-23.69717407,-6.79466629
5.15812700000015,-3.769572496,16.03085136,-122.4958344,-3.697885752,-2.140998363,14.09943295,-7.313223839,-9.477806091,-0.220974043
5.1664599999999155,-3.830438375,15.84668827,-122.5404282,-4.255672455,-2.587017536,16.79815674,-7.339557648,-21.6721096,-7.266069889
5.174793000000136,-3.856249332,15.7659483,-122.5318298,-2.983535767,0.007028544,23.58774376,-4.933558941,-9.712459564,-0.15860337
5.183125999999902,-3.906302691,15.60929489,-122.5756989,-3.685369253,-0.996297419,7.868645668,-6.103464603,-18.37719536,-6.947812557
5.191459000000123,-3.951531172,15.46754742,-122.5521622,-1.598671317,-1.560165763,12.8382082,-7.740188122,-17.13438988,1.050042987
5.1997919999998885,-4.025161743,15.39776707,-122.6036453,-4.14661932,1.573980689,15.69205093,-8.712120056,-7.904374599,-7.138483524
5.208125000000109,-4.130380154,15.30217171,-122.6008606,-0.82744354,-2.089300871,10.45315933,-14.27066422,-11.44323826,-0.990937948
5.21645800000033,-4.271752357,15.22492695,-122.636673,-6.145029068,-1.17893815,18.95200157,-17.3564167,-8.905637741,-5.42788887
5.224791000000096,-4.349761009,15.18851757,-122.659996,-0.152521431,-2.585548162,20.48619843,-10.18301582,-4.131371021,-3.517961264
5.233124000000316,-4.383059978,15.09335709,-122.6973267,-6.109452724,0.010668114,16.7978096,-4.381648064,-11.03013039,-5.679265022
5.241457000000082,-4.467605591,15.04918671,-122.7199249,-2.15555048,-2.15545392,9.650193214,-10.99662876,-5.058454037,-3.518961191
5.249790000000303,-4.556090355,15.05032349,-122.7500839,-3.774592876,2.574629545,12.95783424,-11.18783855,0.45164305,-4.139158726
5.258123000000069,-4.700348854,14.99514389,-122.7820663,-2.258431435,-0.940606594,14.55982971,-17.8731842,-6.277718544,-4.726032734
5.266456000000289,-4.801105499,15.02887726,-122.810173,-4.075911522,-2.843562603,18.06987381,-12.72600079,4.346518993,-3.582817554
5.274789000000055,-4.852248192,15.06225586,-122.8507996,-1.431233883,1.086108565,16.77094078,-6.42732954,4.410938263,-4.854282379
5.283122000000276,-4.874983311,15.03851223,-122.8646698,-4.344706059,-1.927239537,18.2012291,-3.811347246,-2.662548542,-2.490497828
5.291455000000042,-4.873589993,15.03789616,-122.9041901,-2.496654987,2.320270061,13.92953014,-0.157655612,0.338043898,-5.067725182
5.299788000000262,-4.912677288,15.07443428,-122.905571,-3.457172871,-1.290648341,11.64279461,-6.166678905,4.423155308,-0.418843985
5.308121000000028,-4.936365128,15.10064316,-122.9528351,-2.678294659,-1.168667555,14.79134846,-2.921764374,3.626399279,-5.684233665
5.316454000000249,-4.932160378,15.11519814,-122.9483948,-3.471054077,-0.479473591,17.80506706,-1.151154995,1.737144589,0.01755856
5.324787000000015,-4.961184502,15.14084435,-122.9962158,-5.13574934,-2.303371668,19.18940735,-3.540655851,3.567743063,-5.753879547
5.3331200000002354,-4.937262058,15.12873459,-122.9731445,0.4134188,0.012061696,10.3462019,0.629918098,-1.637851119,1.894083142
5.341453000000001,-4.964184761,15.13190651,-123.0346832,-4.255876541,-0.557213306,11.6060667,-2.858855963,1.018486023,-7.570261478
5.349786000000222,-5.004930019,15.16259861,-123.0138397,-1.62594676,-1.133579254,13.85471821,-7.060486794,3.498276711,2.095692635
5.358118999999988,-5.058955669,15.22088337,-123.0928802,-4.624093056,-2.014217854,20.24881172,-5.553449154,7.793760777,-9.002355576
5.3664520000002085,-5.102239132,15.24585533,-123.0625763,-2.171494246,-0.324931026,13.183218,-7.65827179,2.717298746,3.091113091
5.374784999999974,-5.182363033,15.24521446,-123.1222382,-2.516835213,-2.970866442,9.798551559,-9.288952827,0.565523982,-7.38338089
5.383118000000195,-5.244967937,15.28729343,-123.0988617,-2.199537516,1.50277245,17.40339279,-9.758485794,4.827630043,2.483133554
5.391450999999961,-5.356459618,15.3459425,-123.1571655,-3.77474165,-1.929792643,12.0055027,-13.08690643,7.654573441,-6.565289497
5.3997840000001815,-5.437721729,15.39458084,-123.1285706,-1.703541994,0.101547338,16.54463005,-12.17119408,5.543983936,3.177715063
5.408116999999947,-5.545790195,15.37752247,-123.1639404,-3.795473099,-1.553275704,16.57314301,-13.39808941,-1.621637344,-4.767090797
5.416450000000168,-5.572552681,15.38476372,-123.1202927,0.271121144,0.295558929,14.16376877,-6.112914562,0.419599622,4.447028637
5.424782999999934,-5.672071457,15.36701202,-123.1384354,-4.582943916,-0.134398058,11.46285534,-12.92002583,-1.891483188,-2.797637939
5.433116000000155,-5.741219997,15.35890484,-123.0986176,-0.210767224,-2.061230898,16.05456734,-11.06734848,-1.377482414,3.796760559
5.4414489999999205,-5.793601036,15.29961681,-123.0982361,-5.765722752,2.183335543,20.90367699,-7.854196072,-7.059898376,-1.170775652
5.449782000000141,-5.811388493,15.20824146,-123.0640106,0.979358315,-2.825157881,12.73991108,-4.713737011,-11.26088905,2.130271912
5.458114999999907,-5.803985119,15.1289854,-123.0537262,-4.6002388,1.151170254,12.69187069,-0.989964843,-9.56023407,-0.276095927
5.466448000000128,-5.828956127,15.02648258,-123.0353851,-0.411986053,-0.918828368,12.12855339,-5.071362495,-12.40213203,0.156925619
5.4747809999998935,-5.797837257,14.93397999,-123.0233459,-4.430608749,-0.21690391,17.94384193,1.804996848,-11.16278744,-0.235471711
5.483114000000114,-5.772017479,14.76307011,-123.0005188,-2.121809006,-0.974351048,15.3133316,0.900123,-20.62133598,-0.16231747
5.491447000000335,-5.698444366,14.61705399,-122.9833374,-2.540203094,0.232360512,12.74953556,6.749494076,-17.6118927,-0.262955815
5.499780000000101,-5.611577988,14.46285534,-122.9658203,-3.019259691,0.13731274,15.33690643,8.339932442,-18.58659172,-0.29966104
5.508113000000321,-5.479419231,14.32678604,-122.9581451,-2.683178902,0.411798745,15.6022501,14.07380962,-16.31670952,-1.186374903
5.516446000000087,-5.322168827,14.15553093,-122.9380493,-2.614802599,-1.210783124,16.00219345,16.78421021,-20.62751389,-0.357984722
5.524779000000308,-5.142297745,13.9562664,-122.9325333,-2.794546127,0.621676207,13.01817417,19.86668777,-23.84889984,-2.039817095
5.533112000000074,-4.948287487,13.77869511,-122.9226303,-2.082409382,-1.616480231,14.59911346,21.5161438,-21.2731781,-1.529145598
5.541445000000294,-4.713525295,13.61169624,-122.927803,-3.836408854,0.756121516,15.87021446,26.76089478,-19.89695168,-2.788368464
5.54977800000006,-4.480953217,13.44767666,-122.9259338,-4.007615566,-2.360385656,17.49350929,26.38159561,-19.58064079,-2.192554712
5.558111000000281,-4.254834175,13.2658844,-122.9456177,-2.871360064,-0.310364276,13.40823555,26.1225872,-21.5561142,-4.45037508
5.566444000000047,-4.055783272,13.08386993,-122.9598694,-2.374794722,-1.868692756,12.98698139,22.79621506,-21.61036301,-4.078711987
5.574777000000267,-3.859753132,12.94994926,-123.0092239,-3.101365328,-1.945425153,14.55781841,23.30268097,-15.61301327,-7.365429401
5.583110000000033,-3.651642799,12.78842163,-123.0492172,-4.488640308,-0.471057653,17.58077812,24.56467438,-18.98262405,-6.801225662
5.591443000000254,-3.449989319,12.67713737,-123.0942154,-3.648935556,-1.302020073,14.08567429,23.83282089,-12.98032951,-6.583298683
5.59977600000002,-3.235818863,12.52726841,-123.1354446,-3.102528572,1.80952394,11.1825428,25.30664444,-17.62238121,-6.740469456
5.6081090000002405,-3.056294441,12.47151279,-123.1728973,-3.167391539,-4.365168571,14.40626526,20.96004486,-6.417879105,-5.247000694
5.616442000000006,-2.825200796,12.39329243,-123.2090607,-4.366559505,0.304210782,18.03780937,27.1871624,-9.109786034,-5.574173927
5.624775000000227,-2.609037638,12.3713932,-123.2225952,-2.771142483,-2.401064634,12.95651722,24.73156929,-2.527178526,-2.207051754
5.633107999999993,-2.385285378,12.27264404,-123.2573624,-4.151047707,0.026582876,13.25502682,26.26763535,-11.61570549,-5.475098133
5.6414410000002135,-2.212964535,12.22734547,-123.2764435,-1.761239529,-1.947560072,10.82318115,19.60817719,-5.319003105,-2.949762106
5.649773999999979,-2.070444584,12.19250298,-123.321701,-4.013262749,-2.400231361,15.11288071,16.77626419,-3.937907934,-6.342522144
5.6581070000002,-1.911993265,12.16680813,-123.3449783,-0.438161761,-1.602068543,13.77264023,18.04729652,-2.962517738,-3.33561492
5.666439999999966,-1.810830235,12.10038376,-123.3856354,-5.504817963,-3.294359684,14.72610855,11.68917179,-7.77197504,-5.905106544
5.674773000000187,-1.770161629,12.04405212,-123.4122696,-2.380208254,-2.82099247,12.57138252,3.9921453,-6.636366844,-3.83237648
5.6831059999999525,-1.750748873,12.0300827,-123.4545746,-2.959944725,-1.773245573,12.97528744,1.911987424,-1.483807087,-5.883385181
5.691439000000173,-1.796390772,11.97531319,-123.5007248,-1.691164494,-0.357320279,8.471782684,-5.881156445,-6.378866673,-6.116270065
5.699771999999939,-1.91681087,11.96170235,-123.5261993,-4.63803196,-4.497905254,11.60967541,-15.28849888,-1.49502635,-3.932938337
5.70810500000016,-2.045757055,11.92607212,-123.5632858,-2.327466488,-0.115941733,18.50001907,-16.10820961,-4.100430489,-4.997620583
5.7164379999999255,-2.142804861,11.88620758,-123.5938187,-2.839518309,-3.385458231,14.78541279,-12.37065411,-4.607566833,-4.612535954
5.724771000000146,-2.27163887,11.86392879,-123.6336212,-4.484341621,-2.148995399,11.24337578,-16.03310394,-2.467803717,-5.272460938
5.733103999999912,-2.471651793,11.86258316,-123.6901627,-3.954604149,0.256372452,4.198405266,-24.09025192,0.155337602,-7.476056099
5.741437000000133,-2.730628014,11.85639763,-123.7450256,-0.897937775,-2.843754768,8.565350533,-31.28117371,-0.425478339,-6.968332291
5.749769999999899,-3.024363041,11.90407085,-123.80513,-3.710541725,-1.387624979,6.439400673,-35.24151993,6.114548683,-7.618477821
5.758103000000119,-3.386346817,12.03499317,-123.8972168,-3.486479282,-0.811671138,9.933039665,-42.70121765,16.31390381,-10.41251469
5.766435999999885,-3.710583925,12.07216835,-123.9683838,-2.411392212,-2.24328208,9.955769539,-38.67949677,4.996588707,-8.559828758
5.774769000000106,-4.006891251,12.24970341,-124.0779953,-5.193282127,-0.513896406,11.52846241,-34.34213257,22.14619255,-11.89511585
5.783102000000326,-4.316496849,12.38351345,-124.1314774,-1.312307239,0.825675905,-3.078098059,-37.33674622,16.49767876,-5.585217953
5.791435000000092,-4.633907795,12.62326336,-124.231514,-4.791988373,-0.626633644,9.659174919,-37.04620361,29.62283516,-9.938831329
5.799768000000313,-4.870862961,12.95060158,-124.2538071,-4.107779503,0.531993747,8.488019943,-29.33146286,39.41584396,-0.134551853
5.808101000000079,-5.114944935,13.17989826,-124.3584442,-1.868002534,-0.405807406,-1.829960465,-28.00618362,28.50178337,-10.29117489
5.816434000000299,-5.346268654,13.59803677,-124.3814468,-5.069215298,0.050340891,5.052192688,-28.60918427,50.26610565,1.135725617
5.824767000000065,-5.576421738,14.06527042,-124.5214386,-1.485329747,0.452743143,3.79817152,-25.15721321,57.39413452,-11.39922142
5.833100000000286,-5.800583363,14.34674931,-124.5441742,-2.111072779,-1.931942225,5.23340559,-27.71675301,33.92943192,-0.050357673
5.841433000000052,-5.967810631,15.02117252,-124.7122192,-5.157054424,1.116622925,8.336447716,-16.50952911,82.53439331,-11.60534477
5.8497660000002725,-6.160970688,15.24330902,-124.7308655,3.232600927,-3.284698248,-4.456044674,-24.07484627,26.79224968,-0.108143419
5.858099000000038,-6.247770309,15.89710522,-124.8631134,-7.494586468,3.938169241,12.50061798,-7.712746143,79.67819977,-7.214828014
5.866432000000259,-6.376074791,16.19538116,-124.9086838,3.483757973,-2.00216651,-5.597763538,-15.43889809,36.1810379,-1.789694786
5.874765000000025,-6.46826458,16.7327137,-124.9772568,-5.440718174,1.974439025,12.46427536,-10.28753567,64.98874664,-1.12649262
5.8830980000002455,-6.498939514,17.03305817,-125.0385513,2.673589945,-2.01738596,-1.231307387,-3.036366463,36.65487289,-3.621755123
5.891431000000011,-6.494377613,17.41672707,-125.0443344,-2.277458191,2.337888002,1.386018991,-0.80254668,45.84704208,4.05221796
5.899764000000232,-6.532420635,17.75219154,-125.1585464,0.891303957,-0.203794003,2.308883667,-1.980060339,41.50463867,-8.911820412
5.908096999999998,-6.524755478,18.02503586,-125.1165695,-3.066700935,0.075609893,9.012684822,-2.183871746,32.01161194,7.985693455
5.916430000000219,-6.524983406,18.17656708,-125.2571182,1.288800597,-1.596693873,4.477393627,3.655831814,19.91332054,-14.35965538
5.9247629999999845,-6.425395012,18.29691315,-125.1690063,0.471949697,0.283234775,-0.3902511,7.085424423,13.2425251,11.10545158
5.933096000000205,-6.402083397,18.37414742,-125.3237381,-0.641768754,0.317166865,0.718663692,7.083786011,11.20363331,-16.97410011
5.941428999999971,-6.296453476,18.42474747,-125.2196655,1.012304068,-1.124270916,2.588279963,7.176814556,4.74950695,11.95146275
5.949762000000192,-6.266368866,18.4024086,-125.3512955,-2.89389348,1.458115578,3.102714062,7.043391705,-1.002285242,-15.69051552
5.9580949999999575,-6.166674614,18.33255196,-125.2478561,3.001449347,-2.013228178,2.531147957,6.495707035,-9.586462975,10.30403233
5.966428000000178,-6.147928238,18.215271,-125.336937,-4.474811554,1.696638942,3.14167428,4.045909882,-12.87909603,-12.09998798
5.974760999999944,-6.072366714,18.05032539,-125.2655487,4.226766586,-3.637716055,4.590294838,4.845408916,-20.52715492,5.487609863
5.983094000000165,-6.028587341,17.83374786,-125.3171844,-6.411384583,1.130380511,5.763284206,5.60720253,-25.20170593,-9.098591805
5.991426999999931,-5.931143761,17.62084007,-125.2988663,4.892066002,-3.536554813,2.583779573,9.468090057,-25.60646439,-1.07795012
5.999760000000151,-5.843011856,17.33510971,-125.3112183,-7.038966656,2.034926653,2.676701069,9.465661049,-33.9407959,-5.422974586
6.008092999999917,-5.75061655,17.12418175,-125.326149,4.055584908,-2.942387819,1.122117519,10.06085396,-24.98757172,-4.759844303
6.016426000000138,-5.670681,16.8657856,-125.2935638,-8.173088074,1.763655066,-0.364244223,6.895653725,-31.20541763,0.136050135
6.024758999999904,-5.618888855,16.68431854,-125.3210068,4.67047596,-1.743105054,-1.721545815,5.610607624,-21.33927727,-5.779854298
6.033092000000124,-5.56673193,16.42506218,-125.246521,-6.961951733,1.557639003,2.801808119,2.153915644,-31.77617836,4.995228291
6.04142499999989,-5.544362545,16.23724747,-125.2852707,2.550462008,-2.900512218,6.58912468,2.435364246,-21.97694588,-7.124397755
6.049758000000111,-5.518415928,15.98481846,-125.1841736,-6.151216984,1.035860777,6.046983242,-1.807572603,-31.25323868,8.183461189
6.058091000000331,-5.505443096,15.82788467,-125.2431717,-1.482902646,-2.615332127,5.894157887,1.940675974,-18.06956863,-9.086139679
6.066424000000097,-5.409440517,15.62522793,-125.155159,-2.457578897,0.763243616,1.311690807,7.099131584,-25.15196609,7.309731007
6.074757000000318,-5.397561073,15.46642399,-125.2057724,-1.151150584,-0.865647972,-1.699116468,1.497703314,-18.3999157,-8.117665291
6.083090000000084,-5.377739429,15.3203907,-125.1197662,-1.548930168,-1.727990389,-1.246042967,-1.915843129,-18.35872841,7.761641026
6.0914230000003045,-5.38187027,15.18758965,-125.180687,-2.665608644,2.17062068,1.922697783,-0.127738208,-15.18258381,-9.016083717
6.09975600000007,-5.395431519,15.16712856,-125.121048,-2.000098467,-1.960423112,2.626119137,-5.057479858,-3.06953311,6.149375916
6.108089000000291,-5.415225029,15.07080269,-125.1576843,-0.537171483,-2.45661521,1.684875488,-2.784395933,-11.08686733,-5.813151836
6.116422000000057,-5.406802654,15.03654861,-125.1248016,-3.722166777,1.572100043,7.391940117,-1.568436623,-4.428957462,2.905768394
6.1247550000002775,-5.415940762,15.03793526,-125.1600494,-1.968530178,-0.809881747,-1.341189146,-1.555475831,0.574514508,-4.550881386
6.133088000000043,-5.409446716,15.026124,-125.147438,-0.915058255,-2.903690338,2.605493069,-1.170416832,-1.525302052,0.823715329
6.141421000000264,-5.429313183,15.04422283,-125.1618805,-3.556716919,3.686360836,3.731575966,-3.489888668,2.343075037,-1.960590482
6.14975400000003,-5.431452274,15.12811947,-125.1947708,-1.904078603,-2.558738947,1.228999972,-0.748678565,10.4205761,-3.474494457
6.1580870000002506,-5.423651218,15.16295147,-125.17173,-1.418681264,-1.17789948,0.741192102,-1.342006803,3.931797981,2.553905964
6.166420000000016,-5.434527397,15.29372787,-125.2221451,-3.636557341,2.569959879,4.508115292,-1.226179123,16.21572113,-4.990601063
6.174753000000237,-5.398866653,15.37586212,-125.2126541,-1.249587655,-2.680839062,0.348795891,2.4225564,9.731938362,1.524495482
6.183086000000003,-5.412766933,15.53508091,-125.2446594,-1.548443913,-0.205735981,2.003072977,-2.199878931,19.39375687,-2.38614583
6.191419000000224,-5.3907094,15.64498901,-125.2478867,-2.508922577,1.191745996,3.477254629,1.195250034,13.18950176,0.371905953
6.1997519999999895,-5.419241428,15.81650829,-125.2874451,-0.428932786,-3.835541487,0.483907759,-3.636018753,20.9635582,-3.300421476
6.20808500000021,-5.428369522,15.9353199,-125.2684708,-2.499881744,0.858352244,-0.285809845,-3.27367878,14.01202488,3.025592089
6.216417999999976,-5.476222992,16.12800026,-125.3207321,-1.111164927,-0.755212307,1.718490005,-5.496100426,23.6372509,-4.542635441
6.224751000000197,-5.50800848,16.27215004,-125.2816772,-2.908510923,-1.284380436,0.049633272,-6.677837372,16.81274033,5.635146141
6.2330839999999625,-5.520479679,16.49956512,-125.347084,-3.017329216,0.938689888,3.652499199,-0.836254299,27.91025543,-5.369721413
6.241417000000183,-5.54084444,16.69409561,-125.3022003,0.984021544,0.119672447,2.376864433,-5.538543701,22.7636528,6.890656471
6.249749999999949,-5.551260471,16.86543846,-125.3536301,-2.714460611,-1.547962785,3.821303844,-1.022367001,21.05779076,-4.393022537
6.25808300000017,-5.582575321,17.06301308,-125.3169785,0.819185674,-1.069879413,-4.010950565,-6.596949577,23.21553993,5.988009453
6.266415999999936,-5.637410164,17.16819763,-125.3421249,-3.348371506,0.392984271,-0.4110443,-7.247011662,12.86486816,-2.135151863
6.274749000000156,-5.654606342,17.43475723,-125.3307343,-2.209399939,-0.425457388,5.74692297,-4.026202679,31.73026276,3.946555138
6.283081999999922,-5.703519344,17.58969688,-125.3560867,-0.977311134,-0.073881969,3.012136221,-6.407966614,18.84515572,-1.867637157
6.291415000000143,-5.693297863,17.7859211,-125.370079,-1.35761261,-0.715179682,5.551370621,0.181131139,23.61447716,0.247420803
6.299747999999909,-5.71232605,17.95286942,-125.388382,0.590320587,0.01425045,-0.426528245,-3.162334204,20.16492653,-0.590792477
6.308081000000129,-5.745483398,18.07087708,-125.3945694,-0.987625122,-1.221542358,-0.621853173,-5.304683685,14.18556309,0.211150989
6.316413999999895,-5.751460552,18.1362381,-125.3914795,0.02776419,1.431275606,3.86480689,-2.388322592,7.791196823,0.638473153
6.324747000000116,-5.722716331,18.23893166,-125.4112625,-2.202053785,-0.099755913,4.277942181,2.635026455,12.51141548,-1.512725711
6.333080000000336,-5.698448181,18.29285812,-125.3932571,-0.792213738,-0.231674016,1.003754616,0.678508222,6.25746727,2.187673092
6.341413000000102,-5.670883656,18.33467293,-125.3886414,-0.265523851,-2.102356434,7.130941391,1.577952147,4.965332031,0.522748113
6.349746000000323,-5.633615017,18.31621933,-125.3815689,-3.425382614,0.823293209,9.573390007,2.650164127,-2.261634588,0.085692436
6.358079000000089,-5.575352192,18.25892639,-125.3544464,0.651844501,-1.347523451,4.72888279,4.415266991,-7.121910572,1.903995991
6.3664120000003095,-5.512896061,18.1241436,-125.3475266,-2.707077742,0.055389959,1.336987495,5.679509163,-16.1531601,-1.273386359
6.374745000000075,-5.452625275,17.99631119,-125.2906418,2.197314978,1.041001558,0.001581454,3.560392141,-15.86858368,4.495439529
6.383078000000296,-5.436523438,17.92373466,-125.3014603,-4.678821564,-0.340668529,6.971373558,0.878786027,-8.501083374,-2.867103815
6.391411000000062,-5.39693737,17.7550354,-125.2343445,0.447993934,-1.839318871,12.4626236,0.726791441,-20.85486412,5.220913887
6.3997440000002825,-5.300055027,17.59000778,-125.2466965,-4.596766472,-0.372481674,3.772311926,10.52121639,-19.56487656,-3.752460718
6.408077000000048,-5.212840557,17.44792366,-125.187233,0.949416757,-0.030257732,3.649035215,6.761813641,-17.58033562,4.716619492
6.416410000000269,-5.151639938,17.3154068,-125.2022858,-6.230985641,-0.154377654,7.898421288,6.326730251,-15.66105843,-3.651258707
6.424743000000035,-5.089241505,17.14932823,-125.1364288,1.951473236,0.112846948,0.810116768,3.59128356,-20.50292397,5.239483356
6.433076000000256,-5.062559605,17.09293365,-125.1720581,-6.792413235,-1.384542584,10.30104351,2.905205011,-6.357555866,-5.167953968
6.4414090000000215,-4.963101864,16.94394112,-125.1051102,1.016541243,0.473310411,7.086718082,8.0269804,-18.46093178,5.591449261
6.449742000000242,-4.914746284,16.91001892,-125.1420822,-4.859529495,-1.500093341,7.511101723,5.539833546,-3.669162273,-5.079865932
6.458075000000008,-4.813897133,16.82141304,-125.0848923,-2.570252657,0.181910485,5.736657143,8.554759979,-11.12808228,5.143583298
6.466408000000229,-4.786923409,16.81940842,-125.1149673,-2.2178936,-0.917605817,2.428270578,2.725700855,0.069657922,-3.959704876
6.4747409999999945,-4.70428896,16.83926392,-125.0645523,-5.190757275,-0.486083239,18.79936218,6.608101845,1.919082522,5.469548702
6.483074000000215,-4.662551403,16.88203239,-125.0912247,0.970385909,-1.589174628,-6.701296806,4.383197784,5.386994362,-3.137027264
6.491406999999981,-4.621800423,16.93008995,-125.0340347,-8.916326523,0.175809592,15.79735756,1.338202834,5.239916801,6.512995243
6.499740000000202,-4.60499382,17.08747292,-125.0717468,3.358200312,-1.930523038,-6.67129755,1.78394258,19.19740486,-3.292404175
6.508072999999968,-4.570338249,17.09845352,-125.0142365,-8.727895737,0.433938324,21.73126984,0.573259413,0.80914098,6.181343079
6.516406000000188,-4.540260315,17.42568398,-125.060463,2.641906261,-0.17857784,-2.85436821,3.756089211,39.60438919,-2.842031479
6.524738999999954,-4.530887604,17.3157177,-124.9900742,-6.615530491,-1.001413465,6.132751942,-2.953040123,-13.77034378,6.493017673
6.533072000000175,-4.499074936,17.76130676,-125.0523529,-2.092388391,0.183890164,13.69099522,4.514457226,53.89248276,-3.393152952
6.541404999999941,-4.479794979,17.64386559,-124.998024,-0.892484844,-1.914081454,0.938108921,-1.225846291,-14.5138998,4.590058804
6.549738000000161,-4.463991165,18.03907967,-125.0621567,-4.914810181,1.132304072,13.39570713,2.69991231,47.87898254,-4.104791641
6.558070999999927,-4.48699522,18.02907944,-125.0197601,1.282818794,-3.71537447,4.738454342,-5.891940594,-1.551403046,4.232560158
6.566404000000148,-4.467068672,18.25525665,-125.0457077,-4.778654099,2.454205513,14.78522682,1.895723701,27.33574677,-1.601607919
6.574736999999914,-4.409984112,18.35406494,-125.0434418,-0.206512421,-2.277628183,2.558586121,5.208616734,11.82569695,0.676331162
6.583070000000134,-4.411193848,18.41823006,-125.0159302,-2.579051018,0.96962148,12.12616825,-2.648947239,7.47960043,2.938016891
6.5914029999999,-4.421515465,18.5620327,-125.0487137,-2.538616657,-1.550507903,14.80043316,-1.546767116,17.51872063,-2.890925646
6.599736000000121,-4.361596584,18.55210304,-124.9786224,-0.403031677,-0.385188818,8.777967453,3.091651201,-1.746942401,6.964704037
6.608068999999887,-4.342549324,18.53263855,-124.9950027,-0.201166332,-0.417958796,8.755215645,1.35528779,-2.164556742,-2.535912037
6.616402000000107,-4.296855927,18.48757362,-124.9290771,-2.199966669,-1.185698986,15.32728767,1.529822826,-5.909306049,6.232339859
6.624735000000328,-4.282104969,18.36216164,-124.9773941,-1.793617606,-0.243848085,12.36537838,2.04705143,-14.57383633,-7.108233452
6.633068000000094,-4.229659081,18.22831535,-124.9249115,-2.198904514,-0.521332622,15.65193176,2.873494864,-16.41450119,3.928264141
6.6414010000003145,-4.205389977,18.06941986,-125.0015335,-3.997453451,-0.931064904,13.76789188,4.221239567,-18.35235023,-10.61897373
6.64973400000008,-4.121246815,17.81868362,-124.9632874,-0.48698616,1.02813971,15.08789539,7.241291523,-30.27973747,1.32391119
6.658067000000301,-4.027021885,17.62559319,-125.0303879,-6.627076626,0.468243688,13.52169609,12.2024889,-22.54551125,-9.798936844
6.666400000000067,-3.954089642,17.43173599,-125.0162582,0.556796134,-1.839490175,9.32740593,6.780693054,-23.27648544,-0.805183768
6.674733000000288,-3.868470669,17.19137192,-125.0676346,-5.151307583,0.089770593,18.39586449,10.55521297,-28.35500908,-8.34041214
6.6830660000000535,-3.74840951,17.00689697,-125.0896835,-3.186745882,-0.628801942,19.63079071,13.62750912,-21.89833832,-4.493456364
6.691399000000274,-3.668800831,16.84928513,-125.1664581,-6.300467968,-0.401030064,9.9758358,10.67946243,-18.28122139,-10.51782417
6.69973200000004,-3.531945467,16.613451,-125.18927,1.179289579,-3.846137285,16.83610725,15.65403938,-28.05752373,-4.89334774
6.708065000000261,-3.326406717,16.49572754,-125.2816772,-6.538887501,1.665978551,23.94194412,26.26948357,-13.44361687,-11.9568882
6.7163980000000265,-3.140449524,16.33368301,-125.3181686,-1.475099683,-0.095028237,5.320605278,22.0639534,-19.14237976,-6.024908543
6.724731000000247,-3.042757034,16.17710876,-125.4101563,-6.573511124,-1.785363436,16.74438477,13.2563076,-18.16782951,-12.09548283
6.733064000000013,-2.886240005,16.01029015,-125.4465332,0.285767525,0.6910218,14.98357391,18.43745804,-19.75199127,-5.72642374
6.741397000000234,-2.784470797,15.82048416,-125.5247574,-4.126738548,-2.217078447,14.99740505,13.2301321,-22.2811718,-10.64315701
6.74973,-2.67725563,15.75454903,-125.5583725,-5.185451031,-2.002073526,17.02615356,12.47676086,-7.681147099,-5.003203869
6.75806300000022,-2.550705671,15.57335949,-125.6394043,-3.015352964,-1.732467532,18.14372826,16.25522804,-21.27243233,-10.84492111
6.766395999999986,-2.428133249,15.44168186,-125.6600571,-1.938357472,-2.383549213,16.15849686,13.897995,-15.64638424,-3.868160725
6.774729000000207,-2.339428663,15.3037529,-125.7325974,-5.886958122,0.241265252,10.44173336,11.39643097,-16.16499901,-9.573633194
6.783061999999973,-2.291446209,15.17365646,-125.7393036,-2.916810989,-3.5300107,16.45632744,4.497309208,-15.53244972,-2.212736845
6.791395000000193,-2.196253538,15.12041664,-125.8191605,-5.539252281,2.004164696,16.48551178,12.37110043,-5.998624325,-9.994265556
6.799727999999959,-2.165644169,14.97585392,-125.8410873,-0.387819111,-0.939941645,9.749448776,2.801134825,-17.21510124,-3.698696136
6.80806100000018,-2.195809126,14.95050049,-125.9194565,-6.544720173,-2.341771126,15.0006218,-2.749150276,-2.670668364,-9.69237709
6.816393999999946,-2.2108078,14.85184193,-125.9286118,-1.900251627,-3.280089378,18.99422073,-2.998351574,-11.75590992,-2.289298058
6.824727000000166,-2.175209045,14.87070656,-126.0157928,-6.379165649,-1.663415313,25.16588783,5.399519444,2.672551155,-10.51643753
6.833059999999932,-2.10172987,14.78701973,-126.038681,-1.126944304,0.818030834,7.314589977,8.020470619,-9.904539108,-3.730098724
6.841393000000153,-2.114027023,14.76683807,-126.1100082,-5.937285423,-2.797852755,12.87605858,-0.849112034,-2.092273474,-8.859761238
6.849725999999919,-2.113758326,14.74157333,-126.133667,-1.703234434,0.650515378,13.96239853,-0.746168315,-2.896150589,-3.553283453
6.858059000000139,-2.193258047,14.71040249,-126.2167587,-4.124247074,-1.362862349,15.08565235,-8.560663223,-3.35285306,-10.27960873
6.866391999999905,-2.264453411,14.74615002,-126.25457,-3.742917776,-2.064468384,14.06622601,-8.896849632,4.48944521,-4.895188332
6.874725000000126,-2.370500565,14.67706203,-126.3460159,-2.803581476,-1.824741125,17.75841522,-11.49562073,-7.832042217,-11.43906403
6.883057999999892,-2.405616999,14.71781635,-126.3792496,-3.617176771,-2.899785042,19.71077919,-4.714299679,5.079008102,-4.310286522
6.891391000000112,-2.478803873,14.72676182,-126.4604187,-4.693389416,1.117221475,11.47756481,-7.862495422,1.498266459,-9.8676548
6.899724000000333,-2.545372486,14.75097847,-126.500351,-3.300988197,-3.27601099,19.29756927,-8.284694672,3.137987614,-5.153866768
6.908057000000099,-2.595597982,14.79157543,-126.5821381,-4.188485146,1.636377215,10.03132629,-5.081249714,5.316914082,-9.761227608
6.91639000000032,-2.736765623,14.77224064,-126.6322021,-0.391815931,-2.643865347,7.783941746,-16.92412186,-2.017198324,-6.546256542
6.9247230000000854,-2.919408083,14.89691257,-126.7019501,-7.683544636,1.377631068,16.1645298,-21.33042145,15.36666775,-7.843596458
6.933056000000306,-3.059681416,14.93378162,-126.7737732,-1.464971066,-5.804598808,21.82732964,-16.13310432,4.884366989,-8.723697662
6.941389000000072,-3.133886337,15.04052448,-126.8458481,-6.134450912,1.646262527,16.91505814,-8.223451614,13.26741886,-8.151936531
6.949722000000293,-3.221997976,15.13664532,-126.9081573,0.240513384,-2.850718498,8.198295593,-10.14815903,11.949543,-7.192044258
6.9580550000000585,-3.316078424,15.14802074,-126.9773178,-7.384251118,1.30824101,19.9505291,-10.67634869,1.842957258,-8.42168045
6.966388000000279,-3.431128025,15.28580666,-127.0496597,-0.765981436,-4.171359539,9.475601196,-13.04771614,17.03343391,-8.015721321
6.974721000000045,-3.555301666,15.35517883,-127.1149139,-4.986065865,2.650067568,8.59333992,-14.38682747,8.794098854,-7.532585621
6.983054000000266,-3.727073669,15.45802116,-127.1894608,-1.772389174,-1.760102987,19.86561775,-19.75498772,12.89732456,-8.450960159
6.9913870000000315,-3.863823652,15.55530167,-127.251442,-5.47141552,-2.74611783,16.47938347,-15.97568321,12.14605808,-6.879499912
6.999720000000252,-3.980608702,15.60891914,-127.3083649,-0.65072906,-0.732953906,12.53460693,-13.70233631,6.904637814,-6.742512226
7.008053000000018,-4.077542782,15.68499851,-127.3838501,-5.117565155,-1.120553613,18.82331467,-10.7432003,9.743976593,-8.560380936
7.016386000000239,-4.16437006,15.77876854,-127.4522095,-2.579615593,-0.705245197,13.09835625,-9.71217823,11.82452011,-7.689959049
7.024719000000005,-4.264794827,15.84794426,-127.5122681,-4.413014889,-0.417366803,9.082157135,-11.6423378,8.812566757,-6.807752132
7.033052000000225,-4.395083427,15.8798933,-127.5971451,-0.834427834,1.157105684,12.10572529,-14.37099838,4.597769737,-10.0980835
7.041384999999991,-4.544714928,15.97011662,-127.6402817,-5.175244808,-2.20668149,13.76706696,-18.0895977,11.20639801,-4.619400978
7.049718000000212,-4.657696724,16.04719925,-127.7171783,-1.670018435,-1.731208324,16.1966362,-12.53373909,9.967460632,-8.718984604
7.058050999999978,-4.725551605,16.1374588,-127.7608337,-4.773972988,-1.084446549,17.50111389,-8.24568367,11.23098469,-4.631515026
7.066384000000198,-4.803778172,16.20116425,-127.83255,-3.450665474,-0.947599649,18.11611176,-8.509048462,8.342236519,-8.229956627
7.074716999999964,-4.879587173,16.26081657,-127.8735046,-3.52449894,0.743993878,9.30867672,-9.279859543,7.554394245,-4.596551895
7.083050000000185,-4.943052292,16.26041794,-127.9154434,-0.364180356,-2.810803413,7.714964867,-7.722538948,0.400952488,-5.443640232
7.091382999999951,-5.026108742,16.33899117,-127.9519043,-4.146746159,3.960752249,14.06272507,-10.29405499,9.782832146,-3.865546942
7.099716000000171,-5.146134377,16.42111969,-128.0061951,-4.203083038,-3.743931532,17.45339394,-14.08311844,10.40820599,-5.977390766
7.108048999999937,-5.211333752,16.5102253,-128.04422,-3.392718315,-0.438665807,16.26929855,-8.08603096,11.06823254,-3.891238213
7.116382000000158,-5.241213322,16.55288315,-128.0837555,-2.73603344,-2.825713158,15.49449158,-3.750896931,5.551207066,-4.699878693
7.124714999999924,-5.243535995,16.57794762,-128.1223907,-4.69418478,0.994002879,15.58792496,-0.512643278,3.424866438,-4.64985466
7.133048000000144,-5.262182236,16.62160301,-128.1612396,-1.817610502,-0.76521796,8.154695511,-2.41803503,5.664550304,-4.608820915
7.14138099999991,-5.332867622,16.66201019,-128.1917725,-3.728139877,1.111783981,8.090348244,-8.988495827,5.175343037,-3.548570395
7.149714000000131,-5.447393417,16.70106125,-128.2238464,-2.198009014,-1.915067911,16.36549187,-14.150177,5.051063538,-3.872924328
7.158046999999897,-5.452939034,16.76732826,-128.2544708,-3.598328829,-1.888721824,21.23634338,-1.163321733,8.275076866,-3.247372627
7.166380000000117,-5.422065258,16.80054283,-128.2739105,-4.053506374,1.030582309,13.54633427,2.872316122,4.222262859,-2.511655092
7.174713000000338,-5.395914078,16.83136368,-128.30159,-4.13820219,-2.255464077,13.1305542,2.544403315,4.005772114,-3.318426847
7.183046000000104,-5.33892107,16.84556961,-128.3074341,-1.540376306,2.409089088,12.30649662,5.532482147,1.79992497,-1.161605597
7.191379000000325,-5.350075245,16.84094238,-128.3338623,-2.277501583,-1.939848661,8.583815575,-1.974703789,-0.247126117,-3.575004339
7.1997120000000905,-5.315761089,16.84705544,-128.3301086,-3.20498848,-0.880599797,14.46087837,2.482390881,0.732707977,-0.168183073
7.208045000000311,-5.260192394,16.84056473,-128.3790894,-2.429409027,-0.087996021,18.02970695,6.816268444,-0.23408851,-6.173364162
7.216378000000077,-5.179998875,16.81464005,-128.3749237,-5.294791698,-1.878577471,16.0715065,7.980333328,-3.098836184,-0.497377276
7.224711000000298,-5.116537571,16.75421143,-128.4277191,-1.202052236,-0.270502657,9.083319664,7.889583111,-6.654400826,-7.192965508
7.2330440000000635,-5.045802593,16.72846222,-128.4174042,-3.302371025,-0.48546192,11.92069912,6.577031136,-3.156493425,0.406203359
7.241377000000284,-5.012965202,16.68963242,-128.488327,-3.114341497,-1.135582089,13.29757214,4.831446648,-3.904915571,-9.029940605
7.24971000000005,-4.933535576,16.65148544,-128.4628601,-2.944821835,-1.486697078,14.5481348,7.160857201,-4.770215988,1.819571376
7.258043000000271,-4.902136326,16.5620575,-128.5328522,-4.99698925,-0.173463657,16.60376549,4.613085747,-9.979998589,-9.440972328
7.266376000000037,-4.823690891,16.48875046,-128.489151,-2.18581152,-3.580508471,12.39953136,6.432592392,-9.146560669,3.539618254
7.274709000000257,-4.754819393,16.40212631,-128.5391693,-2.468559742,2.392035484,10.83200169,8.408296585,-9.8560009,-7.103289604
7.283042000000023,-4.727263451,16.3559227,-128.519104,-2.876983643,-1.960656881,10.13479042,1.069663286,-5.688743114,1.343658686
7.291375000000244,-4.68083477,16.27688408,-128.5584106,-4.065060616,-1.528317571,17.46468163,5.340299129,-9.05850029,-5.789739132
7.29970800000001,-4.611343861,16.19882584,-128.5393524,-3.140562773,0.302286059,16.17458153,6.218432426,-9.468558311,0.677304447
7.30804100000023,-4.525196552,16.09574127,-128.5733948,-4.246602058,-3.117813826,14.04430771,9.917898178,-11.99494553,-5.397740841
7.316373999999996,-4.41425705,16.03318024,-128.5591278,-1.567731142,1.539456367,8.214036942,11.36656189,-7.56301403,0.265299499
7.324707000000217,-4.394077301,15.94300365,-128.59198,-3.903688908,-1.940722585,10.99424076,1.952637315,-10.47581291,-5.111448765
7.333039999999983,-4.35793972,15.87349319,-128.5944672,-3.137974739,-1.472734451,16.87049866,2.862582922,-8.270248413,-1.423767209
7.341373000000203,-4.30313921,15.76097393,-128.6265564,-3.222122431,-2.017727375,17.2979393,6.069383621,-13.16210651,-5.21426487
7.349705999999969,-4.237025261,15.6574831,-128.638443,-5.30034256,-1.962078333,15.24787712,6.859940529,-12.23108006,-3.125859261
7.35803900000019,-4.17491436,15.56033039,-128.6578369,-1.385523081,0.382302493,8.601933479,6.523473263,-11.44001102,-3.593370199
7.366371999999956,-4.181157589,15.43583488,-128.6830444,-3.847508669,-1.075856805,8.574015617,-1.497843981,-14.66184616,-4.492660999
7.374705000000176,-4.216229439,15.33992672,-128.6878815,-3.178477049,-2.048732996,12.08981514,-5.609339237,-11.41419125,-1.903189063
7.383037999999942,-4.194807053,15.24705505,-128.7218933,-2.767076015,-2.197374582,18.80163956,2.183805704,-10.77573109,-5.58154726
7.391371000000163,-4.142865181,15.17881966,-128.7075195,-5.004726887,1.162673593,14.19412327,4.223826408,-8.264409065,0.565523922
7.399703999999929,-4.116119385,15.08104038,-128.7314301,-1.314527273,-3.901115417,7.277334213,2.513205051,-11.44897556,-4.516020775
7.408037000000149,-4.104336739,15.00636101,-128.7004547,-4.546117306,3.086282969,10.37017345,-1.105510473,-9.174277306,2.438795805
7.416369999999915,-4.143148422,14.9201746,-128.7259674,-2.691427469,-3.608554602,13.33012295,-5.320768833,-10.05025864,-4.574420929
7.424703000000136,-4.114582539,14.87827969,-128.7012634,-5.350335598,-0.870706677,17.33595276,1.110210419,-5.197410107,1.993773699
7.433035999999902,-4.114895344,14.86764145,-128.7394257,-1.464697838,-1.272603989,7.699563503,-0.418177992,-0.930206597,-5.005098343
7.4413690000001225,-4.12994051,14.79190731,-128.7336273,-3.860352755,-1.571307659,9.852011681,-3.537991762,-9.090799332,-0.484390765
7.449701999999888,-4.181646347,14.76720238,-128.797287,-5.082863808,-0.944437683,12.98937607,-5.813382149,-2.394239664,-8.08246994
7.458035000000109,-4.216584682,14.80230713,-128.8142395,-3.672028065,-1.577405453,8.418029785,-5.228633881,4.368008137,-2.153260469
7.46636800000033,-4.301552773,14.81952667,-128.8944397,-1.837801337,-1.191313267,4.473042011,-9.290770531,2.778056145,-9.628110886
7.4747010000000955,-4.356319427,14.86911392,-128.9228516,-4.731225014,-0.596923649,8.289956093,-7.25484848,6.206009865,-3.336792707
7.483034000000316,-4.445207596,15.05586338,-129.0258331,-2.335465431,-1.739339352,5.891903877,-9.029074669,23.28700447,-10.68460178
7.491367000000082,-4.533849239,15.14461136,-129.0508728,-4.232441902,-0.238957211,5.124274254,-11.41029835,10.8682375,-2.559758902
7.499700000000303,-4.666840076,15.409585,-129.1452179,-3.421041012,-1.463354111,9.779263496,-14.53089619,32.5978775,-8.835486412
7.508033000000069,-4.772320747,15.59670258,-129.1628876,-3.82824707,-3.10007143,5.681913376,-13.64706707,22.57208252,-0.689509988
7.516366000000289,-4.919097424,15.82960224,-129.2403412,-2.607614517,0.86002177,1.676420331,-16.65098381,28.63063431,-7.055063725
7.524699000000055,-5.035621643,16.1448288,-129.2691803,-2.560026169,-0.718097448,2.081686735,-14.58486843,38.00044632,-0.533519626
7.533032000000276,-5.202147484,16.42631912,-129.3128052,-1.888522983,-1.651183486,3.42417407,-20.07098198,34.11927032,-2.490347385
7.541365000000042,-5.353399277,16.79319763,-129.3886566,-4.760438919,-0.649280369,8.720074654,-17.10401726,44.66940689,-5.136612415
7.549698000000262,-5.467071533,17.10626984,-129.4051819,0.735750437,-1.243079185,-0.750033021,-14.6165266,37.60765839,1.154345512
7.558031000000028,-5.63415575,17.4505043,-129.5127716,-6.566569805,0.418197066,7.781019211,-17.77049828,42.33332443,-8.776120186
7.566364000000249,-5.769839764,17.82376862,-129.5007477,2.039966106,-0.567355335,-3.942037344,-18.27556229,44.46181107,5.321612358
7.574697000000015,-5.945694447,18.1696434,-129.6280518,-6.460149765,-0.397096902,11.54016209,-17.93619919,42.79828644,-10.72144794
7.583030000000235,-6.090078831,18.49824333,-129.5867157,3.182563066,-1.372716784,-3.961539268,-20.44024467,38.74860382,8.316302299
7.591363000000001,-6.203585625,18.85845375,-129.71875,-5.958683014,-0.057144508,7.529562473,-10.10099316,44.61115646,-10.7954216
7.599696000000222,-6.297808647,19.16893196,-129.6663971,1.612297416,-0.019016568,2.821646452,-14.90978432,36.41569519,9.463588715
7.608028999999988,-6.445606709,19.42282867,-129.7769928,-3.215233326,-0.270318359,1.869431257,-14.90514469,31.69594765,-9.567414284
7.616362000000208,-6.482518673,19.7549324,-129.7346497,0.686255574,-1.454815984,2.999956131,-7.68932724,39.08703232,8.746159554
7.624694999999974,-6.561618328,19.93714523,-129.8286285,-3.256065369,0.847917318,2.166728735,-7.2171731,22.954813,-8.558181763
7.633028000000195,-6.634951591,20.16757774,-129.7839813,2.533523083,0.000993622,-1.194401026,-12.19425488,26.91567802,7.679986
