time,Euler_X,Euler_Y,Euler_Z,Acc_X,Acc_Y,Acc_Z,Gyr_X,Gyr_Y,Gyr_Z
0.0,-0.8290658,5.956495762,-115.9524384,-1.540131807,1.537447929,8.763641357,53.5318985,42.83355331,5.827877045
0.008332999999765889,-0.326962292,6.352594852,-115.8820953,-1.789957643,0.610421717,8.59043026,60.79388046,46.15311813,8.748457909
0.016665999999986525,0.26875785,6.73767662,-115.8162537,-2.295567036,0.779320717,11.93495369,72.02404785,44.92498398,7.637264729
0.024998999999752414,0.894603252,7.20186615,-115.7435684,-2.11116004,1.701259136,5.645816326,75.48760223,54.49718857,7.970673561
0.03333199999997305,1.549914837,7.691432476,-115.6690216,-1.522035718,-0.255987406,12.2590971,78.91738892,57.64460373,7.380548
0.04166499999973894,2.304847479,8.137187958,-115.5801315,-0.875855446,0.444925487,12.57313156,90.5670166,52.52528763,8.62524128
0.049997999999959575,3.074858665,8.645360947,-115.5000153,-1.5610075,1.1635741,7.066986084,92.43904114,60.08124161,6.403831959
0.058330999999725464,3.842208147,9.149682999,-115.3951035,-1.156190038,-1.690337777,11.14703178,91.57378387,59.87308502,8.63974762
0.0666639999999461,4.674498558,9.632889748,-115.2982101,-2.272331476,-1.088461161,14.24929142,99.41877747,57.39617157,6.898275375
0.07499699999971199,5.507037163,10.17350388,-115.1877289,-2.212076664,-0.149652749,7.946873665,99.06549835,64.49367523,7.120049953
0.08332999999993262,6.321847916,10.72185802,-115.0732422,-1.536473989,-0.762250543,7.626363754,96.72642517,65.56509399,6.423718452
0.09166299999969851,7.163910389,11.21771908,-114.9530792,0.788026154,0.036728326,13.6445961,99.7427597,59.47497177,6.945203781
0.09999599999991915,8.036963463,11.76123238,-114.8363266,-3.007302761,-0.98428005,8.794380188,103.415596,65.18476105,4.749223709
0.10832899999968504,8.899986267,12.26007843,-114.6993713,0.399740517,-0.085533313,10.59331894,101.5832214,60.30026245,6.953197479
0.11666199999990567,9.700583458,12.83346176,-114.5828934,-2.897460222,-0.699110627,7.830163002,94.47576141,68.82764435,2.108384371
0.12499499999967156,10.48468018,13.34803486,-114.4227219,-1.262517095,-3.095731497,12.04695034,91.17673492,62.80243683,7.48719883
0.1333279999998922,11.25163841,13.9490881,-114.2993393,-2.36874938,-3.147153139,9.487208366,89.98015594,72.26641846,0.294669658
0.1416609999996581,12.02348804,14.4484148,-114.1410446,-0.03333823,-1.339886546,8.513438225,89.40549469,61.13269424,5.816617489
0.14999399999987872,12.67370319,15.05565262,-114.0031433,-1.668653965,-2.750178814,7.805009365,75.25235748,73.32465363,-0.188586622
0.1583269999996446,13.28273773,15.56302834,-113.8540802,-1.518957138,-1.887061954,9.650824547,69.82719421,61.91842651,2.916356564
0.16665999999986525,13.79027462,16.21964836,-113.6894531,-2.279803753,-2.613714457,3.896006107,56.93304062,79.77285004,-0.205696851
0.17499299999963114,14.29635429,16.73953438,-113.5479965,-0.186754078,-1.527881861,13.41614437,57.35230637,63.21121597,0.541027367
0.18332599999985177,14.74585915,17.36111069,-113.3761368,-1.588265538,-3.156555891,10.17053699,49.36843872,75.8663559,0.162600338
0.19165899999961766,15.18582249,17.79660225,-113.2564621,0.240652025,-2.147003651,12.34905243,49.89463043,52.74233627,-0.504256964
0.1999919999998383,15.57778358,18.42677498,-113.0693817,-1.879781246,-1.675014973,3.584214449,41.49454498,77.290802,0.278864026
0.20832500000005894,15.88840294,18.86062241,-112.9571457,2.051300764,-0.287911832,9.877812386,34.40615463,52.32211304,-1.93212676
0.21665799999982482,16.125103,19.40562248,-112.7959595,-3.661307812,-3.051532507,4.372534275,23.49865341,66.62389374,-0.703792632
0.22499100000004546,16.32901382,19.84531975,-112.6701202,2.039364576,-1.378990054,17.29129982,20.87901688,53.35599136,-1.30846858
0.23332399999981135,16.52911758,20.28587723,-112.5310211,-2.824719191,-1.696606994,2.728401661,19.76930237,53.86745071,-0.128750324
0.24165700000003199,16.69555092,20.76818275,-112.3879929,0.177959457,-0.962333143,12.27452946,15.39061737,58.77440643,-1.381239295
0.24998999999979787,16.81396294,21.03778267,-112.2945404,0.178944647,-1.791508913,14.497962,11.64424419,32.71773911,0.470687717
0.2583230000000185,16.91844559,21.45554733,-112.1879044,-2.741492033,-2.952734947,6.438796997,9.390174866,50.15932083,-3.349722147
0.2666559999997844,16.97724915,21.71122169,-112.1082916,1.544112563,-0.337360889,9.675009727,4.9765172,30.65760231,-0.679533422
0.27498900000000503,17.01013947,22.00473785,-112.0084305,-2.77059865,-0.463373631,3.988109589,0.976390064,35.66163635,0.127789557
0.2833219999997709,17.03930664,22.33272362,-111.9163818,0.739641428,-1.24097991,13.7062788,0.825138092,39.35807037,-1.95545733
0.29165499999999156,17.05061531,22.47378159,-111.8694,0.331798255,-0.663518667,11.19320679,0.644121289,16.42861748,-0.213609979
0.29998799999975745,17.05260658,22.70272064,-111.8044891,-0.852693796,-0.573267579,6.880281925,-1.318147779,27.09345055,-1.413817048
0.3083209999999781,17.04344368,22.86387062,-111.7413101,-0.923281848,-0.572757781,10.39611053,-2.536924362,19.27100372,0.800829351
0.316653999999744,17.04143143,22.94475174,-111.7172165,-0.434985489,-0.313968956,11.24578762,0.069388963,8.779074669,-0.534300148
0.3249869999999646,17.04159164,23.16400719,-111.6323776,-2.645754576,-0.345488161,6.238273621,-2.470481634,26.63848686,1.03532815
0.3333199999997305,17.0275898,23.2013092,-111.6254807,1.277516484,0.046257939,15.8204689,-0.502973974,3.240585327,-0.794207871
0.34165299999995113,17.04435539,23.35636902,-111.5515366,-3.774845839,-0.757902801,2.925995588,-0.05946346,18.89710999,2.104517221
0.349985999999717,17.04140854,23.43033218,-111.5386887,0.731463969,0.242303178,13.20144081,0.470379859,7.619468212,-1.482283235
0.35831899999993766,17.0700264,23.46012878,-111.4911041,-1.144738078,0.335968256,9.262662888,2.66464901,3.697773218,3.750154257
0.36665199999970355,17.08211136,23.56641388,-111.4656219,-2.816521645,-1.417759776,8.837070465,1.668076158,11.73349857,-1.300217152
0.3749849999999242,17.11999512,23.5744381,-111.437645,1.045075893,0.407138914,16.66046524,4.710868359,0.570710838,2.44828558
0.3833179999996901,17.14406776,23.60422134,-111.4478912,-3.831781626,-0.241713017,4.644860744,4.890423298,1.834338069,-2.338361979
0.3916509999999107,17.19638443,23.69745064,-111.3934326,-0.336787283,-1.0322541,12.905756,5.093545437,11.17587757,2.179592609
0.3999839999996766,17.22805977,23.64308929,-111.4030609,-1.468511224,-0.211860612,8.204810143,5.69809103,-7.825725079,0.687229872
0.40831699999989723,17.27110481,23.76529503,-111.3474503,-2.097579479,-0.26204133,10.42610264,3.998203278,14.56722832,1.276588082
0.4166499999996631,17.30046654,23.7127018,-111.3725052,0.107196383,-0.187015444,14.86477757,6.169342995,-8.124899864,-0.986929476
0.42498299999988376,17.36578941,23.75938416,-111.3400803,-2.811014652,0.088055953,4.75548172,7.791621208,5.161140919,1.521665096
0.43331599999964965,17.41063881,23.78259087,-111.3370056,-1.533690333,-0.216745943,12.1066227,6.7532444,1.516721249,-0.718594551
0.4416489999998703,17.48962402,23.7650528,-111.3199463,-0.358313859,-0.307503968,11.81766701,10.08737373,-2.726443768,2.185253143
0.4499819999996362,17.56868172,23.81566811,-111.2931137,-3.392384291,0.018004972,6.614898682,9.625523567,5.396637917,0.743760645
0.4583149999998568,17.63926125,23.80742645,-111.2875366,0.690869212,0.037173383,15.84797859,9.721676826,-1.99438858,0.67683059
0.4666479999996227,17.72867393,23.82106209,-111.2553787,-3.720719576,-1.053409338,5.251319408,10.60951996,1.349690914,2.629967451
0.47498099999984333,17.81313324,23.9128418,-111.219902,-0.058133949,0.549410582,12.51572132,9.938323021,10.44059277,0.138854772
0.4833139999996092,17.88321877,23.81894875,-111.2197342,-1.429388404,-0.562070429,7.633805275,9.930232048,-11.95172024,3.266276836
0.49164699999982986,17.96847343,23.93078423,-111.166481,-2.394035339,-0.435315043,8.942501068,9.080606461,13.28474903,1.194315195
0.4999800000000505,18.0460968,23.84739494,-111.1734161,0.531299651,0.263780475,16.54567337,11.08796883,-11.03191185,2.134050369
0.5083129999998164,18.13717461,23.88923264,-111.1554184,-3.336776257,-0.014193688,4.986392975,11.58852196,4.15414238,0.111063331
0.516646000000037,18.221138,23.88602638,-111.153923,-0.401887178,-1.134449959,12.26113892,11.43980408,-1.597085953,0.040086281
0.5249789999998029,18.31308365,23.86794853,-111.1525726,-1.805943727,1.242249489,8.523358345,12.50164413,-3.2406497,0.615766346
0.5333120000000235,18.41989136,23.88236809,-111.1294022,-2.180012941,-0.772070289,9.438186646,13.22939587,1.217188597,1.660878539
0.5416449999997894,18.52128792,23.91147614,-111.1193008,-0.389076889,-0.034398157,14.82891178,13.11244106,2.384685755,-0.290119678
0.5499780000000101,18.64181709,23.85169983,-111.1192627,-3.096177578,-0.509809613,7.573093414,15.8985033,-8.081279755,2.053570747
0.558310999999776,18.73890686,23.95898628,-111.0785675,-1.593564034,-0.008129952,7.173045635,11.2161417,12.40597534,-0.10331504
0.5666439999999966,18.85474396,23.83511353,-111.0808258,-0.342545629,-0.254524082,14.8793602,15.44382668,-15.43346691,4.321071625
0.5749769999997625,18.9504528,23.94449806,-111.0272827,-3.035287619,-1.141835093,3.631556749,10.42778778,13.10278511,1.100490212
0.5833099999999831,19.06965256,23.89401817,-111.0190048,-0.253947407,0.350663334,21.03182411,15.44935894,-6.649418831,2.625767231
0.591642999999749,19.15407753,23.90973854,-111.0041351,-2.2829597,-0.517479062,0.339644313,10.84325027,1.035865426,0.689099848
0.5999759999999696,19.24951172,23.9598484,-110.9775543,-1.450521827,-0.663503051,13.86264801,11.59502792,5.35575819,0.540255547
0.6083089999997355,19.30611992,23.85710716,-111.0026474,-0.389688075,0.092807122,8.903427124,9.564356804,-13.7600832,1.265573978
0.6166419999999562,19.39278984,23.92281532,-110.9633179,-3.631403923,-0.557074726,10.35347366,9.926285744,7.587858677,1.223848224
0.6249749999997221,19.460186,23.88152695,-110.9867706,0.476549357,-0.397353619,13.08291721,10.78174973,-6.737172604,-0.982037127
0.6333079999999427,19.52835655,23.87410545,-110.9860382,-2.928444862,0.337937862,7.725902557,9.701313972,-2.01662159,0.169361338
0.6416409999997086,19.59958649,23.85350227,-110.9897232,-0.906882703,-0.679908276,9.272220612,10.16426659,-3.748400211,0.211727291
0.6499739999999292,19.6529541,23.87831688,-110.9788132,-2.067186117,-0.10225825,11.24536228,7.309841156,1.925934076,-0.10759259
0.6583069999996951,19.71978378,23.7906208,-110.9987411,-0.900568545,0.461260259,10.09325027,10.54620266,-11.85049152,1.282684207
0.6666399999999157,19.7653904,23.85367775,-110.9881287,-3.473276377,-1.469240069,7.214076519,6.393799782,6.23330164,-1.69705832
0.6749729999996816,19.8274498,23.75679779,-111.01548,1.731754661,0.89208883,18.06009293,10.33493614,-13.15576839,0.908204079
0.6833059999999023,19.86636734,23.7714119,-111.0109406,-4.535796642,-1.199709177,1.818718553,6.014709473,0.620812237,-0.331332952
0.6916389999996682,19.90950394,23.7539463,-111.0224609,0.58406055,-0.700770617,15.04557991,7.168811321,-3.683724642,-0.711704373
0.6999719999998888,19.93150711,23.64699745,-111.0470734,-2.438545465,0.841395736,6.313390732,5.264187336,-14.26804066,1.595459819
0.7083049999996547,19.9383564,23.70048141,-111.0467072,-1.63900876,-1.045464158,9.907517433,2.368778706,4.850286007,-2.355805159
0.7166379999998753,19.9541378,23.55514336,-111.0956497,0.324764222,-0.590738654,16.48357201,5.686130524,-19.51224899,0.65449512
0.7249709999996412,19.9397068,23.57102203,-111.1121674,-3.610294104,-0.031075936,4.19577837,0.625935018,-0.025831955,-2.561666727
0.7333039999998618,19.91999435,23.51959229,-111.1387253,-0.869721949,-0.704255939,11.32082367,0.472019225,-7.993704319,-0.846127927
0.7416369999996277,19.86643791,23.46880913,-111.1844864,-2.475095272,-0.83160013,8.428055763,-2.801570177,-8.726987839,-2.899032116
0.7499699999998484,19.84403992,23.40024948,-111.2014923,-0.729055166,0.802429914,12.68234444,-0.439655513,-9.65458107,0.798728704
0.7583029999996143,19.79652023,23.38023949,-111.2467651,-3.101104021,-0.989255548,11.63749409,-1.976637602,-5.146117687,-4.083357334
0.7666359999998349,19.75217438,23.29927063,-111.2753296,0.148505956,-0.458054066,10.20431137,-2.52790761,-11.49094582,0.090623185
0.7749690000000555,19.68086243,23.28603363,-111.3141251,-5.098097324,0.163605109,4.881803513,-5.150984764,-4.129745007,-3.692151546
0.7833019999998214,19.602211,23.25861931,-111.3268204,0.761429608,-0.335279822,13.27139854,-7.270741463,-4.766437531,-0.416679561
0.791635000000042,19.54044342,23.15074539,-111.3844681,-2.474804878,0.00727746,10.15962982,-3.250459671,-15.60799885,-1.889319181
0.7999679999998079,19.47697258,23.2340374,-111.3588486,-2.565927029,-0.385757595,10.45770645,-7.392589569,9.08406353,-0.909497559
0.8083010000000286,19.39837456,23.09045219,-111.4335098,-0.148539335,0.107804045,12.24830723,-4.340218067,-20.18408775,-2.240516424
0.8166339999997945,19.30207634,23.18499374,-111.426178,-4.864095211,-1.247271061,1.604150772,-10.46696281,9.689635277,-3.229763269
0.8249670000000151,19.23377609,23.08581924,-111.4610062,2.719956636,1.415549159,19.46033859,-4.990972042,-13.69638062,0.094567761
0.833299999999781,19.13134003,23.06131935,-111.5051575,-5.298370361,-0.778769672,2.591913462,-8.653193474,-5.57318449,-3.84606719
0.8416330000000016,19.06267357,23.11217117,-111.4889297,-0.686952055,-0.555911243,15.441679,-7.567942619,5.070388794,-0.538526535
0.8499659999997675,18.95361519,22.99887276,-111.587532,-1.649579167,0.607233763,8.931294441,-7.019033432,-17.68062973,-6.099994183
0.8582989999999882,18.86844826,23.1398716,-111.5430832,-3.80491066,-0.924755812,6.540618896,-10.748106,16.39892769,-1.048839092
0.866631999999754,18.76672173,22.9919796,-111.6433487,1.707632542,-0.349512845,16.48202515,-6.058115482,-21.65099335,-4.988669395
0.8749649999999747,18.67984009,23.08923912,-111.610733,-6.023324966,0.141734794,1.12795186,-10.39777946,11.00979424,-0.543521345
0.8832979999997406,18.56654167,23.07561302,-111.6704483,1.751462817,0.52104485,18.86436272,-9.23079586,-4.855960846,-5.931399345
0.8916309999999612,18.44895172,23.10008621,-111.6865387,-4.760104179,-1.468905807,2.184092522,-11.91857147,0.940528989,-2.852413893
0.8999639999997271,18.34558868,23.19348335,-111.6928329,0.218937621,1.640855312,13.45514393,-10.67180061,9.133524895,-4.431096554
0.9082969999999477,18.22165298,23.09293747,-111.7492294,-2.774375677,-0.418705672,9.211812019,-10.66047955,-14.61063194,-2.330677986
0.9166299999997136,18.11743355,23.23194695,-111.7240829,-2.401452541,-1.014050126,7.549843311,-12.25932121,15.43381023,-2.799751759
0.9249629999999343,17.99713135,23.10162163,-111.8084335,0.021858715,1.006095767,16.31012917,-8.902141571,-18.95714188,-4.21081543
0.9332959999997001,17.90607643,23.26088142,-111.779213,-4.609414577,-0.514534056,2.967247725,-10.75766277,17.97348976,-3.033456564
0.9416289999999208,17.82678986,23.20296097,-111.8174591,1.758031011,1.391391516,17.01972198,-6.270403862,-9.192450523,-2.115902662
0.9499619999996867,17.73121834,23.24821472,-111.8165054,-5.297018528,-1.040851951,-0.004678109,-10.07798481,3.92256403,-1.793931484
0.9582949999999073,17.649189,23.2818203,-111.8191757,1.479315281,0.646435976,18.64755249,-8.170595169,2.547975779,-1.714578509
0.9666279999996732,17.55102348,23.24404335,-111.8714905,-4.324092388,-0.191185474,4.044116497,-7.866093159,-7.346149445,-4.361758709
0.9749609999998938,17.47508621,23.33054924,-111.8505859,-0.032494023,0.619408071,12.81707191,-8.562109947,9.387003899,-1.135645747
0.9832939999996597,17.40363693,23.19909096,-111.9216919,-1.728270411,-0.34150818,9.784039497,-3.664898634,-18.60829926,-2.962889194
0.9916269999998804,17.32928658,23.35625076,-111.8742447,-3.154769897,-0.384231448,6.32672596,-9.735679626,18.28022003,-0.87233144
0.9999599999996462,17.25034904,23.21658707,-111.9571686,0.378847361,0.969753921,16.29148483,-4.104080677,-20.00099945,-3.981132507
1.0082929999998669,17.18792534,23.31841278,-111.9338608,-5.270149231,-1.251195431,3.057430029,-7.058297634,11.21995831,-1.375087619
1.0166259999996328,17.12194443,23.23510933,-111.9830856,2.040239811,1.543988466,15.78849792,-4.14859724,-12.43377876,-2.470070839
1.0249589999998534,17.07484818,23.24522781,-111.9853668,-5.127204418,-0.690787435,4.415158749,-4.010407925,-0.12582992,-0.80888474
1.0332919999996193,16.99645424,23.22314835,-112.0222168,0.774001658,-0.053944509,15.80873489,-6.132829189,-4.938796043,-3.321282387
1.04162499999984,16.95469093,23.18664742,-112.0435715,-4.18757391,0.672521174,4.533840179,-2.565329552,-6.158519745,-1.210772038
1.0499579999996058,16.87912941,23.1629734,-112.0872803,0.142024636,-0.30383119,13.25012398,-5.567266941,-5.40366888,-4.022011757
1.0582909999998265,16.82766914,23.05338287,-112.1185303,-3.050659895,-0.383310735,5.158699989,-3.178919315,-14.80004883,0.299917132
1.066624000000047,16.76039124,23.05260277,-112.1575089,-1.584686995,0.346290976,14.96396828,-4.807830334,-2.614534855,-4.326512814
1.074956999999813,16.71055222,22.9276886,-112.1929855,-2.203191757,-0.54754138,7.729829788,-2.790146351,-16.70328903,0.348481715
1.0832900000000336,16.65659332,22.96193123,-112.214241,-2.518571854,0.188442975,10.3609972,-3.959051371,2.042607307,-3.645174265
1.0916229999997995,16.59254456,22.80071831,-112.2588501,-0.926018596,-0.036872882,9.222131729,-4.170140266,-21.22794724,0.574963033
1.0999560000000201,16.52306747,22.87549591,-112.2523193,-3.891765356,-0.265368164,7.177841663,-7.206066608,7.52469492,-2.099560738
1.108288999999786,16.46591377,22.68650055,-112.314621,-0.294651628,0.157621294,15.36852169,-2.443125248,-24.92556763,-0.386147588
1.1166220000000067,16.41679764,22.77886391,-112.2973633,-4.722295761,-0.156547219,6.255094051,-5.258923054,9.891628265,-1.539787054
1.1249549999997726,16.37167931,22.59495544,-112.3617325,0.313362926,-0.038729135,13.84851933,-0.916029632,-24.4076786,-0.825380862
1.1332879999999932,16.2936039,22.71825409,-112.326889,-5.587098122,-0.502164066,0.886195719,-9.465754509,14.06265163,-0.674179554
1.141620999999759,16.22881699,22.57678795,-112.3939819,1.082540274,0.915408552,19.85879517,-3.238908529,-19.65943527,-2.613255024
1.1499539999999797,16.17448044,22.64192009,-112.3675613,-4.933589458,-1.188336849,3.650442362,-6.304087162,7.041739464,0.394766659
1.1582869999997456,16.11930466,22.54893875,-112.4157181,0.414420158,1.610642791,15.090168,-2.88540554,-13.42891884,-2.24136138
1.1666199999999662,16.03932381,22.56781197,-112.4050522,-5.763187408,-1.631020904,0.161561638,-8.654806137,1.222234249,0.275199324
1.1749529999997321,15.94219112,22.54701042,-112.4466934,1.572909713,0.552423418,16.85128021,-8.228587151,-4.899300098,-3.967838049
1.1832859999999528,15.88082886,22.49176979,-112.4507904,-4.891374111,0.133734599,7.171586514,-5.668699265,-7.727058887,1.16252768
1.1916189999997187,15.79925919,22.48132515,-112.4796219,0.151169032,0.030702194,11.32043076,-7.029403687,-3.359959841,-2.968882084
1.1999519999999393,15.71726227,22.42651939,-112.4932098,-5.25642252,-0.731879711,4.37488842,-7.782104015,-8.019779205,0.101739749
1.2082849999997052,15.60436821,22.43510437,-112.5266571,0.445314199,0.443687558,11.47424412,-10.51135349,-1.238896608,-4.070166111
1.2166179999999258,15.53382587,22.39712715,-112.5288544,-3.554912567,0.026658067,10.44642639,-6.929561138,-5.736372471,0.752956092
1.2249509999996917,15.42950153,22.3701992,-112.570137,0.606310606,0.245653585,11.16801834,-9.127620697,-5.570546627,-3.771504164
1.2332839999999123,15.32069683,22.33358765,-112.5834732,-4.510064602,-0.112859309,4.174004555,-10.94912624,-5.862112999,-0.480330974
1.2416169999996782,15.17176819,22.24543381,-112.6599884,-0.069221392,-0.398802012,12.17407513,-12.95446682,-13.72148418,-5.649796963
1.2499499999998989,15.05362129,22.24459648,-112.6510696,-3.989094019,0.569947004,7.11350441,-13.14554691,-1.121583343,0.746065915
1.2582829999996648,14.91221237,22.11345863,-112.7240601,1.20513773,0.08120364,15.05026913,-12.16252708,-18.53396797,-3.987740755
1.2666159999998854,14.7736311,22.14350891,-112.6994171,-5.587857246,-0.651081741,3.017912149,-16.31031799,2.906960487,1.489980459
1.2749489999996513,14.61162567,22.0144825,-112.7925949,0.535845697,0.963779747,15.78076935,-13.74046803,-18.83939362,-6.31571722
1.283281999999872,14.47421932,22.0411644,-112.7743912,-4.946655273,-0.259366035,4.123628139,-15.81324577,2.370213747,0.934305012
1.2916149999996378,14.35749817,21.88557053,-112.8633194,0.532561302,1.395926595,16.78537178,-8.580145836,-21.82847595,-5.172554493
1.2999479999998584,14.22851467,21.9052887,-112.8394547,-4.814496517,-0.270438313,3.306471825,-15.11223412,1.668229699,1.757111192
1.3082809999996243,14.12136269,21.81332588,-112.9124069,-0.369481027,1.230882883,13.33238316,-8.106484413,-13.92816353,-5.398571968
1.316613999999845,14.01322365,21.77493095,-112.9017334,-2.661154747,-0.038673464,9.517411232,-12.01629162,-5.460404396,2.0381248
1.3249469999996109,13.93382931,21.73110008,-112.9305573,-2.418540239,0.371193081,8.523690224,-6.755177975,-7.120103836,-2.068695307
1.3332799999998315,13.85301113,21.63117599,-112.951355,-1.662974238,0.782466114,12.34630299,-7.286418438,-13.43959904,0.4050892
1.3416130000000521,13.76346779,21.65961266,-112.9601135,-2.795989037,-0.586359501,6.426183701,-8.922783852,1.800680995,-1.997590423
1.349945999999818,13.71247005,21.53319359,-112.9954529,-1.572867393,0.737424076,14.37692928,-3.122363567,-16.95484924,-0.463886768
1.3582790000000386,13.62292194,21.57392883,-113.0131073,-3.825354338,0.786991894,4.619756222,-8.478582382,3.040691853,-3.292031765
1.3666119999998045,13.58497238,21.51649284,-113.0476227,-1.50237751,0.588534832,11.92081928,-1.597931504,-8.885079384,-2.358187675
1.3749450000000252,13.52742863,21.50698662,-113.0607834,-2.304011345,-0.044227432,8.87066555,-4.839976311,-2.696372032,-1.384692788
1.383277999999791,13.50953674,21.53072739,-113.0734253,-3.180132866,0.479730755,12.47183418,-0.105978891,1.195954204,-2.259290695
1.3916110000000117,13.49690056,21.48632813,-113.0993652,-3.542372942,0.514568388,5.670611382,1.062196732,-7.139725208,-1.80809629
1.3999439999997776,13.48062515,21.56395912,-113.1015854,-0.943370163,0.954135895,12.43874645,-0.420675397,7.72146225,-2.64793539
1.4082769999999982,13.48987007,21.53909874,-113.0942841,-4.139445305,-0.084912442,8.028262138,2.269318819,-3.957591772,1.265625
1.4166099999997641,13.49970341,21.63833618,-113.1158905,-0.905378282,1.247524142,10.10340881,3.572622538,9.734664917,-5.360611439
1.4249429999999847,13.49002075,21.59915924,-113.1229858,-2.43241787,0.354473144,8.644151688,0.63164705,-6.001402378,0.105940469
1.4332759999997506,13.486763,21.6875267,-113.1575394,-2.774876356,0.49898842,6.053291321,2.617774963,8.163180351,-6.44647646
1.4416089999999713,13.47012234,21.62963486,-113.1730423,-0.75410217,-0.000553832,13.59459972,0.126098871,-8.439390182,-0.293884903
1.4499419999997372,13.44904137,21.76161194,-113.1904373,-3.250546455,1.045389533,5.479665756,-0.321958214,13.6705265,-5.808912754
1.4582749999999578,13.47112656,21.66293907,-113.2113571,-1.248287559,0.01645894,12.18009758,5.059094429,-13.30945396,0.262725264
1.4666079999997237,13.46104717,21.75993156,-113.2176285,-2.693949699,1.385293126,4.228898048,0.50572747,9.875620842,-3.625477791
1.4749409999999443,13.46988583,21.7450161,-113.2119064,-2.155444622,-0.608446717,15.03176212,2.28161335,-2.840759277,0.813405633
1.4832739999997102,13.51240349,21.79890823,-113.1882324,-4.431360722,0.500704646,6.695574284,5.527066231,5.65267849,0.828236461
1.4916069999999308,13.51771832,21.80515099,-113.1733093,-2.098083258,0.038369995,11.70496845,1.40893662,-0.163534075,1.206660986
1.4999399999996967,13.52426434,21.91887665,-113.138504,-4.041447163,-0.843037486,5.858388901,0.665790915,12.89446449,0.344076097
1.5082729999999174,13.55967522,21.90633583,-113.0901947,-2.412214994,0.360654175,13.04151058,3.564604998,-1.456591964,5.353989601
1.5166059999996833,13.55916119,22.05330658,-113.0653305,-2.694481373,0.471044362,5.803239346,0.257243782,16.51270866,-1.681203485
1.524938999999904,13.57846546,22.08372307,-113.0195541,-0.933409631,0.277451634,11.78603649,1.728755951,3.489273548,3.868056536
1.5332719999996698,13.60438442,22.16397858,-113.0107574,-2.447891474,0.738455415,3.680003643,4.185520649,8.338767052,-1.537149072
1.5416049999998904,13.60835648,22.19692993,-112.9751282,-1.148681045,0.771341503,9.872537613,0.298047274,3.494396687,2.683962107
1.5499379999996563,13.61571789,22.30524254,-112.9607468,-2.607698679,0.738103211,8.430783272,1.666949153,11.72653198,-1.741627455
1.558270999999877,13.64861298,22.29383659,-112.9428482,-1.233261228,-0.212493226,8.34363842,4.605669975,-2.115159512,2.028288841
1.5666039999996428,13.64339828,22.39610863,-112.9264526,-2.376357079,1.041192532,6.725233555,0.060756974,11.07439327,-1.36007762
1.5749369999998635,13.65927124,22.39430428,-112.921669,-1.924371839,-0.521948993,10.50407028,3.157646179,-1.340456963,0.340464413
1.5832699999996294,13.68227482,22.44832611,-112.9034653,-2.314898968,0.449869692,8.535227776,3.397292614,5.522762299,0.202967197
1.59160299999985,13.68576336,22.43255806,-112.906105,-1.656495333,0.159178555,10.9298687,1.977905393,-3.189189672,-0.071630202
1.5999359999996159,13.70267487,22.46987534,-112.9075165,-3.299940586,0.460912913,4.486161709,3.529974699,3.032418013,-1.44813931
1.6082689999998365,13.72855663,22.4010334,-112.900177,0.584488392,1.225159287,14.07611656,4.237952232,-9.085895538,2.522746086
1.6166020000000572,13.73135567,22.42617607,-112.8999634,-4.392209053,0.264000058,5.923175812,1.76359129,1.655473709,-0.927350581
1.624934999999823,13.76203823,22.33726692,-112.9117966,0.933833539,0.942713678,14.89270115,5.690458775,-11.93038177,1.033995509
1.6332680000000437,13.74633789,22.35711098,-112.9200363,-4.53565073,-0.361953706,3.401912689,-0.041379802,0.842324197,-1.681152105
1.6416009999998096,13.79192066,22.22210312,-112.929657,0.855528474,1.584157109,15.05184078,7.345318794,-17.2715416,2.584195137
1.6499340000000302,13.75745773,22.19854355,-112.9429703,-4.307376385,-1.245631814,3.416645765,-2.096845388,-4.378023624,-0.998430133
1.658266999999796,13.76670647,22.12109566,-112.9642029,-0.409892112,1.778518915,14.72502327,3.539785385,-10.8456707,-0.307998419
1.6666000000000167,13.7409029,22.00795555,-112.9862442,-3.677954912,-0.043169539,6.999054432,-0.666008711,-15.05137539,0.610438585
1.6749329999997826,13.72320557,22.01099014,-112.9799881,-2.38899231,0.267037094,9.365224838,-0.939030528,-0.736165881,0.365387052
1.6832660000000033,13.6952486,21.84373093,-113.0037994,-3.404922247,0.483440399,9.806747437,-0.81961751,-21.38549995,1.954648852
1.6915989999997691,13.65136528,21.90048218,-112.9718475,-2.446604252,0.743457675,10.04140854,-5.258590221,6.176360607,1.610904813
1.6999319999999898,13.60445118,21.80016518,-112.9886551,-3.142813683,-0.89092046,9.839547157,-3.444667339,-13.42082596,0.784154415
1.7082649999997557,13.55969334,21.86174583,-112.9677887,-3.333056211,2.174601793,6.157332897,-4.836954117,6.472231865,0.29689464
1.7165979999999763,13.45723724,21.83091354,-112.976387,-1.488315344,-0.546333134,14.56595325,-10.47631168,-5.102291584,-0.300314099
1.7249309999997422,13.40277195,21.89702606,-112.9601288,-4.554234028,0.555392265,7.588536739,-5.796156406,6.879676342,-0.313044369
1.7332639999999628,13.28064442,21.9269619,-112.9666824,-2.447422028,0.643446326,7.05414772,-12.89744663,2.066735983,-1.765730262
1.7415969999997287,13.15174103,22.03749847,-112.9442978,-2.521713257,-0.077595584,9.661140442,-15.03792858,12.20201015,-0.842388332
1.7499299999999494,13.04340839,22.06664467,-112.9161453,-3.008161545,1.144521952,10.01126099,-12.83225918,2.833856583,2.021193981
1.7582629999997152,12.95798874,22.15139961,-112.9169693,-1.308780193,1.635566235,9.882156372,-8.749479294,8.630923271,-2.602214575
1.7665959999999359,12.86023521,22.18655014,-112.8826675,-0.874898672,1.651220798,9.443428993,-11.84841633,3.683173656,2.537935495
1.7749289999997018,12.79626656,22.2591629,-112.8886871,-2.667100906,1.74155283,10.49678516,-5.939364433,7.088483334,-2.814555883
1.7832619999999224,12.73320293,22.2697773,-112.8703995,-2.44532156,0.173885301,4.907749176,-6.936936378,0.433264762,1.471717119
1.7915949999996883,12.7043829,22.34583092,-112.8503265,-2.932702303,1.468949914,14.93803406,-2.935480833,8.110260963,-0.072091259
1.799927999999909,12.67544842,22.38790894,-112.8340912,-2.668518782,1.397565722,6.78764534,-2.778439999,4.041721821,0.413183242
1.8082609999996748,12.71035004,22.45468712,-112.8254547,-0.879831135,1.394455194,10.87760735,5.255708218,6.767690659,-1.053295732
1.8165939999998955,12.74611187,22.42152977,-112.798378,-0.947607756,1.449695468,6.249355316,4.487306118,-4.49966526,3.570957184
1.8249269999996613,12.77296829,22.50531387,-112.7906342,-3.550761938,1.602119565,13.0924015,4.330035686,8.735607147,-1.611301899
1.833259999999882,12.79952431,22.49047089,-112.7848129,-1.471989512,-0.574745834,6.526239395,4.378983974,-2.853233576,0.795091391
1.8415929999996479,12.88832092,22.57745743,-112.7599258,-4.970618725,1.313345432,10.96940613,10.9480114,9.510334969,0.135627374
1.8499259999998685,12.93603706,22.59915543,-112.7520065,-1.447759867,0.753926873,7.979296207,6.797685623,1.452813745,0.036910117
1.8582589999996344,13.00117493,22.71484947,-112.7235489,-2.61367631,0.536778808,10.94662094,7.962417126,12.97630215,-0.269884437
1.866591999999855,13.07841492,22.73359299,-112.7048416,-1.38496089,2.120523453,6.886944294,9.838324547,1.377789617,1.273898244
1.874924999999621,13.17768669,22.82185555,-112.691658,-1.959750056,0.666745722,7.6962533,12.76378059,9.384237289,-1.216561198
1.8832579999998416,13.22525978,22.82497978,-112.6633148,-0.724421799,0.405172497,8.096292496,5.849957943,-0.179440513,2.739621401
1.8915909999996074,13.28141499,22.91665459,-112.6495972,-4.194336414,-0.340111673,12.20188808,7.533941269,9.775493622,-1.28195405
1.899923999999828,13.34442043,22.92164993,-112.6431274,-1.144190431,1.284276843,2.665096283,8.696314812,-0.532891393,0.322278321
1.9082570000000487,13.4272604,22.95903206,-112.6260757,-0.888856351,1.816260457,11.05517769,10.60526752,3.538401842,0.567585766
1.9165899999998146,13.4884758,22.96853638,-112.6060333,-1.573412895,1.303749919,5.450907707,7.841901779,0.343922347,1.653834581
1.9249230000000352,13.60252571,23.00429535,-112.6003799,-2.718050718,1.35005939,13.37008667,14.88223076,3.057700157,-0.625896692
1.9332559999998011,13.70109653,22.9842453,-112.5874863,-2.995567799,0.209817395,5.250815868,12.68414593,-3.262139797,1.722531796
1.9415890000000218,13.80692863,23.07191849,-112.5635681,-2.316541195,0.900999784,11.32402611,13.0141077,9.566740036,-0.171448916
1.9499219999997877,13.88189697,23.0920887,-112.5542679,-2.784105539,-0.104357578,6.333339691,9.995314598,1.313958883,0.182552636
1.9582550000000083,14.01004601,23.14583969,-112.5321503,-0.707711577,0.752210021,11.47243023,15.79366302,5.589590549,0.586130679
1.9665879999997742,14.07151413,23.12206268,-112.5333862,-1.978809834,0.969883144,5.022511005,8.872412682,-4.082511902,0.324224979
1.9749209999999948,14.1736393,23.19917679,-112.5003586,-1.3021065,0.537114501,11.15825653,12.15623665,8.601185799,1.045650244
1.9832539999997607,14.24521542,23.065979,-112.5170746,-1.810697794,-0.696866512,9.46936512,10.83551502,-17.20788956,1.907261848
1.9915869999999813,14.3124876,23.13391876,-112.4877472,-2.948184967,0.635959446,10.69331551,8.128012657,7.418907166,0.891836464
1.9999199999997472,14.35033035,23.01577377,-112.5273285,-1.946679473,-0.054540206,8.83171463,7.839699745,-16.09920311,-0.959368587
2.008252999999968,14.39907169,23.02234459,-112.5138626,-2.090034008,1.346168399,7.021627426,6.674762726,-0.127571702,1.015758157
2.0165859999997338,14.414114,22.87723732,-112.5720673,-0.527859032,0.422821611,12.96470928,5.986945629,-19.72505569,-2.127147675
2.0249189999999544,14.44354534,22.84571266,-112.5794525,-3.423989058,0.965855241,4.31417942,5.311034679,-5.147654533,-0.082260117
2.0332519999997203,14.44581223,22.68135262,-112.6430283,0.578165412,1.450366497,15.42036343,4.65930891,-22.13653564,-2.126712561
2.041584999999941,14.42273045,22.64644432,-112.6474304,-5.558145046,-0.410970479,2.549065351,-1.107521176,-5.438043118,0.341591448
2.049917999999707,14.42904758,22.50208282,-112.7014389,0.467203707,2.263257742,15.29091358,4.684153557,-19.55069923,-1.714681387
2.0582509999999274,14.38906193,22.42222404,-112.7014999,-3.716728926,-0.094867185,5.678226948,-3.33834219,-10.54201412,2.147267103
2.0665839999996933,14.38286209,22.3377285,-112.7446594,-2.635792017,1.027081132,13.93683624,2.686165571,-12.27084732,-2.349786282
2.074916999999914,14.32219505,22.18769646,-112.7760925,-4.395686626,-0.642781436,2.461621523,-4.417701721,-19.58791733,0.84829247
2.08324999999968,14.24332523,22.1807518,-112.7962952,-1.24507761,1.434905052,14.48513412,-7.110628128,-2.643120289,-2.207063675
2.0915829999999005,14.15738583,22.08497047,-112.8130035,-4.752944469,-0.463839561,7.887381077,-8.10159111,-12.85769463,0.789277136
2.0999159999996664,14.08739376,22.0948391,-112.8405762,-2.614334345,0.776266515,10.24769688,-5.719235897,-0.880988777,-3.49584341
2.108248999999887,13.94377327,22.02061844,-112.8460617,-1.046600461,0.859624088,7.078680992,-15.52928734,-10.04983711,1.332990766
2.116581999999653,13.82773113,22.03273582,-112.8643341,-4.218607426,0.571192801,9.237244606,-11.64529514,-0.336609483,-2.552420378
2.1249149999998735,13.6818409,21.98488617,-112.8628998,-0.334445357,1.406785846,5.779861927,-16.13672638,-6.819726467,1.286219001
2.1332479999996394,13.53838825,21.99048805,-112.8724289,-4.353571415,1.030982733,14.42372227,-15.35113907,-0.879067957,-1.425009966
2.14158099999986,13.38148785,21.99422646,-112.8727417,-1.687897563,0.974493086,6.217477322,-17.3574276,-0.83191222,-0.368166327
2.149913999999626,13.26165295,22.00853348,-112.8817902,-4.75587368,0.437323481,9.855510712,-12.53831196,0.158065483,-1.60976541
2.1582469999998466,13.11973286,22.00566864,-112.8770218,-0.509383023,1.54292047,7.550909042,-15.78763103,-1.475367427,0.364388168
2.1665799999996125,12.98657513,22.01774979,-112.8922882,-4.050168991,1.032287598,11.11961555,-13.8353672,-0.232846275,-2.213595629
2.174912999999833,12.85955906,22.03220367,-112.8987503,0.289418012,1.765656948,5.907883167,-13.51761913,0.248893544,-1.322552681
2.1832460000000538,12.75696659,21.9720211,-112.910881,-3.609183073,0.876451135,9.992268562,-10.32956886,-8.62309742,0.050331976
2.1915789999998196,12.59023476,22.02047539,-112.9278183,-1.445713282,1.266759515,7.059660435,-17.79058838,3.997639656,-3.345283747
2.1999120000000403,12.46325302,21.9828949,-112.964859,-3.304703712,0.795216084,14.77500057,-12.13696098,-6.577391148,-3.282068014
2.208244999999806,12.31759834,21.96482849,-112.9954987,-2.335414171,0.473121434,2.916810513,-14.64764309,-4.109868526,-3.092419863
2.216578000000027,12.15603828,21.93615341,-113.0381241,-2.017691135,1.204671979,11.66954517,-16.01641846,-5.629459858,-4.137967587
2.2249109999997927,11.98439598,21.9270668,-113.0785751,-1.853066325,1.603751421,5.644086838,-17.35181999,-3.288164616,-4.409991741
2.2332440000000133,11.80900478,21.82713318,-113.1446457,-1.214769006,-0.164754957,11.43522453,-16.65729141,-14.53179646,-4.962311745
2.241576999999779,11.59593296,21.82905197,-113.1939774,-2.927575588,1.778605342,6.457519054,-21.91015816,-2.152583122,-5.659455776
2.24991,11.37143993,21.74450111,-113.2729797,-2.923788071,-0.786341965,8.245495796,-21.98623657,-12.97783279,-6.841092587
2.2582429999997657,11.13309765,21.68939018,-113.3398361,-1.545732498,1.11070919,9.931301117,-24.17709732,-9.199549675,-6.249812603
2.2665759999999864,10.85708141,21.62499809,-113.422966,-3.211290121,0.353907645,8.117635727,-27.98494339,-10.61555958,-7.857262611
2.2749089999997523,10.58896542,21.54829788,-113.5223846,-1.310234427,1.088354707,6.976898193,-26.35160065,-12.38757896,-9.421678543
2.283241999999973,10.27453709,21.45131302,-113.5926285,-1.491333723,0.529724658,9.105582237,-33.20898819,-14.1483345,-5.839476109
2.291574999999739,9.93248558,21.38503456,-113.7082825,-3.50431776,-0.062345456,11.44127178,-34.52361679,-11.3584547,-11.55806541
2.2999079999999594,9.588726997,21.296175,-113.7976913,-2.623350143,1.200957894,6.887276649,-35.91339493,-13.48436356,-8.27536869
2.3082409999997253,9.18735981,21.22465897,-113.9091873,-1.761053562,-0.372280955,11.29024887,-41.85945511,-11.76126957,-11.12898064
2.316573999999946,8.768839836,21.19354248,-114.0095444,-4.148740768,-1.023399353,9.44468689,-44.41223526,-6.703475952,-10.73810959
2.324906999999712,8.328659058,21.13139915,-114.1454697,-2.861125469,1.694293976,8.149888992,-45.50048828,-10.91543865,-14.16829872
2.3332399999999325,7.849423409,21.11495209,-114.2510605,-1.791436672,-0.515210867,11.68029499,-51.50882339,-4.898362637,-11.65828323
2.3415729999996984,7.377429008,21.06211662,-114.3828125,-3.498562574,0.197065085,8.581748009,-49.49920273,-9.500483513,-14.01036739
2.349905999999919,6.881791115,20.99814796,-114.5125732,-1.742621183,1.038851738,6.950596809,-52.45521927,-10.70295048,-13.70597172
2.358238999999685,6.340618134,20.97014236,-114.6472931,-1.516211867,0.363163859,9.197022438,-57.69755936,-6.337121964,-14.83830738
2.3665719999999055,5.820988178,20.90387535,-114.7558823,-3.618880033,0.311125129,5.71858263,-56.24753571,-10.45841312,-11.48577785
2.3749049999996714,5.239172459,20.83411407,-114.9182358,-1.707206011,0.4680233,9.949952126,-61.44548035,-11.36742115,-17.54964256
2.383237999999892,4.653700352,20.82205582,-115.0246048,-3.262871742,-0.168665066,8.220493317,-64.28643799,-3.7519238,-11.99579525
2.391570999999658,4.023657322,20.72742462,-115.1892014,-2.237229109,0.01771253,9.414703369,-67.14815521,-13.98188686,-17.78477097
2.3999039999998786,3.355547428,20.65435982,-115.3190155,-2.327763081,-1.273972273,11.00756741,-73.23860168,-10.9687233,-14.21449757
2.4082369999996445,2.633682728,20.57110023,-115.5192947,-2.166980982,-0.397985011,7.144676685,-76.71157074,-12.41479111,-22.16879845
2.416569999999865,1.915386319,20.40268707,-115.6355286,-1.545260906,0.24140206,8.837030411,-79.86257172,-21.97511292,-12.48349476
2.424902999999631,1.09965682,20.31019402,-115.8495483,-1.906363606,0.110094182,6.684267521,-87.5241394,-13.00958061,-24.012537
2.4332359999998516,0.291980535,20.13228416,-115.9888,-1.866653323,-0.387215227,5.534410477,-89.7153244,-22.81940269,-15.65389061
2.4415689999996175,-0.628673911,19.98173141,-116.1963577,-0.67050159,-0.67282182,13.09368134,-100.4867401,-19.26049042,-23.68003845
2.449901999999838,-1.560780644,19.75321198,-116.3503036,-3.413606405,-1.925207973,11.0900631,-104.1448441,-28.36649323,-18.13149834
2.458235000000059,-2.558803558,19.49646187,-116.571785,-2.013298512,0.621446848,9.792284966,-109.3885651,-31.15206337,-26.35035896
2.4665679999998247,-3.581645727,19.27888489,-116.7284393,-2.007979631,-0.784135103,5.573574543,-115.0533524,-26.38375282,-19.33419037
2.4749010000000453,-4.604477882,18.93901443,-116.9283066,-2.525926828,0.747711718,9.621716499,-113.4590454,-40.34571457,-25.75070572
2.483233999999811,-5.676869869,18.67446518,-117.0803146,-0.706950724,0.258254856,10.14315605,-121.3782959,-31.35379219,-20.278759
2.491567000000032,-6.770184994,18.27659416,-117.2805939,-3.227594852,-0.416595578,11.28039074,-122.1348343,-46.25484467,-28.06343269
2.4998999999997977,-7.868466854,17.88497734,-117.3987961,-0.162707865,0.752328277,13.69764614,-125.9628448,-46.17582321,-19.59783173
2.5082330000000184,-9.016149521,17.50578499,-117.6005173,-4.653389454,-0.546158493,9.220537186,-128.9165802,-42.88671494,-29.71918106
2.5165659999997843,-10.09048748,17.06188011,-117.6982346,-1.604870677,1.251611114,6.383011341,-123.9916611,-51.93364716,-20.10567093
2.524899000000005,-11.22743797,16.63549805,-117.8488617,-1.716393948,1.449304342,9.692811966,-129.7667847,-48.36604691,-26.70275879
2.533231999999771,-12.35490417,16.21188164,-117.9422836,-2.974057198,-0.018946379,12.37553406,-130.6975708,-48.84614563,-21.14934349
2.5415649999999914,-13.43706131,15.73355961,-118.0709839,-2.050918102,0.58254981,10.61394405,-124.1636581,-53.89980316,-27.50847054
2.5498979999997573,-14.5290041,15.2214098,-118.1070557,-1.588896513,1.758364439,10.23002148,-128.4492645,-59.91157913,-19.13582802
2.558230999999978,-15.66837215,14.74946785,-118.2232513,-4.025528431,-0.27974689,15.47439003,-131.674057,-52.43429184,-27.98141479
2.566563999999744,-16.74777412,14.26930904,-118.2734451,-1.694524407,0.849303901,13.16736317,-126.5757141,-54.96477509,-21.90814018
2.5748969999999645,-17.76546288,13.77520275,-118.3360367,-5.117122173,0.147167698,9.596167564,-118.8738708,-55.74468613,-24.78256035
2.5832299999997304,-18.77044296,13.30993938,-118.3790359,-1.871167302,2.48456955,6.617166519,-117.959198,-52.72594833,-22.50097275
2.591562999999951,-19.76668358,12.84349346,-118.4065628,-2.454265356,3.165181875,11.3582592,-117.3597031,-53.04158401,-21.73675728
2.599895999999717,-20.74052048,12.40119934,-118.4418182,-3.459886551,1.595643878,12.12115574,-114.5065384,-49.64635468,-22.48112488
2.6082289999999375,-21.6499176,11.96713161,-118.4369431,-1.924558401,0.894055486,12.48462391,-107.8085709,-50.03572083,-18.52379417
2.6165619999997034,-22.45840836,11.51404572,-118.4399185,-3.454569578,3.488570213,13.86853027,-95.50540161,-51.5262413,-20.96126366
2.624894999999924,-23.17454529,11.05311871,-118.3786545,-0.709692299,3.775564671,10.30230808,-85.94585419,-55.06020355,-15.03992271
2.63322799999969,-23.8579483,10.64968014,-118.3473282,-5.710875511,1.328901291,10.68166161,-81.28401947,-47.1464653,-16.16728592
2.6415609999999106,-24.4729023,10.24709988,-118.2837143,-0.457581967,3.002507448,15.57696438,-73.73943329,-48.4152298,-13.15578079
2.6498939999996765,-25.0117588,9.846686363,-118.2279358,-5.247076035,3.253128767,8.888870239,-64.39762878,-47.67750549,-14.35951519
2.658226999999897,-25.4599514,9.457422256,-118.1429443,0.856259286,2.097046137,15.43901157,-54.05303192,-47.80656433,-11.0483036
2.666559999999663,-25.82905388,9.113915443,-118.0858459,-8.819121361,1.629704237,11.59100914,-43.96367264,-41.3521843,-11.96671677
2.6748929999998836,-26.13903809,8.785705566,-118.0165863,1.8067168,3.99907732,9.461042404,-37.05540085,-40.28114319,-10.1103611
2.6832259999996495,-26.3861351,8.463142395,-117.9438171,-8.478219986,1.178770542,8.924860954,-29.52724648,-39.81399918,-9.620433807
2.69155899999987,-26.58069038,8.192095757,-117.8769226,2.536565304,2.846621752,9.020368576,-23.14376259,-34.13792419,-7.187173367
2.699891999999636,-26.7320919,7.953603268,-117.8546829,-10.01515102,1.907446861,12.59073448,-17.10762215,-28.04309464,-10.71258831
2.7082249999998567,-26.80835342,7.731987,-117.7930756,3.821739674,1.48069036,12.30911922,-8.725354195,-28.30945015,-5.668319225
2.7165579999996226,-26.82866287,7.540920734,-117.7872162,-8.207816124,2.406934738,8.286223412,-1.094355941,-22.05690193,-9.957602501
2.724890999999843,-26.83953667,7.360943794,-117.745903,3.259076834,1.637540698,10.49064255,-0.579970539,-22.98108673,-5.14991045
2.733223999999609,-26.85993004,7.282534599,-117.8090439,-9.927682877,-0.273631841,9.743732452,-0.046835639,-6.280368805,-11.18920994
2.7415569999998297,-26.85695839,7.105345726,-117.7732697,4.306977749,0.841996253,11.60411835,1.189371943,-22.38220215,-5.595292091
2.7498900000000503,-26.81454086,7.003717899,-117.8249435,-6.307129383,1.087572455,12.86068916,7.287685394,-9.385556221,-11.23239422
2.7582229999998162,-26.76499748,6.817757607,-117.742218,2.748314619,1.105207443,10.99614716,6.116016865,-25.8646698,-1.021534681
2.766556000000037,-26.7603569,6.725735664,-117.8182755,-8.059601784,-0.101446271,11.01985741,3.063783169,-7.046349525,-13.28979492
2.7748889999998028,-26.71286583,6.574923515,-117.7389221,1.055469275,-0.166481018,10.29123783,6.029912949,-21.69903183,0.071527787
2.7832220000000234,-26.67609024,6.501069546,-117.8202744,-5.519568443,1.288705111,5.58415556,6.962334633,-4.8412323,-12.88330936
2.7915549999997893,-26.60985756,6.345846176,-117.735672,2.588083029,1.457413077,10.33021355,8.181292534,-22.67333412,0.901006639
2.79988800000001,-26.5938549,6.284246445,-117.7924042,-6.320039749,-0.033778556,11.65000248,4.104399681,-4.859930038,-9.594388008
2.808220999999776,-26.60810089,6.106710434,-117.7344589,0.81975919,-0.481364191,15.53378773,-1.092819095,-23.64557648,-3.124284983
2.8165539999999964,-26.63757706,6.04174614,-117.7871323,-7.001746655,-1.060836077,10.17247868,-1.431951165,-5.433612347,-9.346776962
2.8248869999997623,-26.64544868,5.911698818,-117.7757797,2.140249491,0.340193838,7.602829933,0.28180787,-16.05660629,-5.553385258
2.833219999999983,-26.65245438,5.838983536,-117.7932358,-4.145024776,1.391181469,8.394059181,0.808795214,-8.144162178,-6.012929916
2.841552999999749,-26.69762611,5.712658405,-117.7942886,1.723083377,-0.531893313,10.81822491,-4.039685726,-15.00153065,-6.66281414
2.8498859999999695,-26.79514503,5.603559971,-117.7719269,-4.183969498,-0.427280158,12.98661613,-10.53205204,-14.17411518,-3.742074251
2.8582189999997354,-26.93247032,5.48246336,-117.7918015,-2.383553505,-0.095757611,9.390404701,-14.88324833,-13.40625286,-8.426459312
2.866551999999956,-27.05311394,5.397406578,-117.7615356,-3.626984835,-1.222688675,9.461778641,-13.38760471,-12.01775455,-1.643755555
2.874884999999722,-27.1554718,5.284557343,-117.8025665,-2.229218721,0.76512897,7.814812183,-10.45392609,-11.33367443,-10.29014969
2.8832179999999425,-27.26847076,5.207326889,-117.7340088,0.296042204,1.394606948,8.766017914,-12.87823868,-13.26813889,2.812546492
2.8915509999997084,-27.39115524,5.080137253,-117.7731705,-4.491719723,0.030009922,13.50779915,-12.93430996,-12.93502712,-10.90350914
2.899883999999929,-27.51410866,4.996091843,-117.6806107,-0.406559974,0.599259198,13.62250328,-14.29588795,-15.33185577,4.935097218
2.908216999999695,-27.65038681,4.894520283,-117.7444992,-6.641375542,-0.588319957,10.26817036,-14.3249321,-8.794099808,-12.1542778
2.9165499999999156,-27.74118042,4.865480423,-117.689064,1.672790647,0.471434206,8.988606453,-10.02506638,-7.447481155,4.013136387
2.9248829999996815,-27.82460022,4.793723106,-117.7316437,-5.582760811,0.473855942,4.617849827,-8.213039398,-6.769677162,-8.26239872
2.933215999999902,-27.91046524,4.746512413,-117.6846771,3.919476032,2.831718922,13.16858864,-9.337042809,-8.915561676,2.083077908
2.941548999999668,-28.01583481,4.675206184,-117.6949005,-7.089906693,-1.103695989,11.82181931,-11.17947674,-8.524688721,-4.81789875
2.9498819999998886,-28.1449585,4.645377636,-117.6957016,1.651953101,-0.462808698,12.95960331,-14.05219173,-4.393623829,-2.004404068
2.9582149999996545,-28.23768044,4.589855671,-117.6900101,-8.129265785,-0.939555228,12.17386818,-9.817515373,-7.72913456,-2.287415504
2.966547999999875,-28.32106972,4.580496788,-117.732399,2.246154308,0.767981827,5.598473549,-8.163089752,0.132399976,-5.231975555
2.974880999999641,-28.38194084,4.570987225,-117.7326431,-5.467478752,0.696443975,7.65712595,-5.941747189,-2.54209733,-0.285790801
2.9832139999998617,-28.46568489,4.56346035,-117.7753143,2.051236391,2.424283743,7.94798708,-8.204893112,0.355269432,-5.152982712
2.9915469999996276,-28.5710125,4.52344656,-117.7579117,-5.71360302,-0.457752615,12.48887825,-11.44506931,-6.761991978,-0.185869724
2.9998799999998482,-28.65304756,4.514716148,-117.805809,-1.578254104,-2.596812487,17.0903511,-7.955794811,0.543047428,-5.766187191
3.008212999999614,-28.70964813,4.495120525,-117.7968826,-3.995824575,0.854297161,12.89913654,-5.516857624,-4.124544621,0.076817088
3.0165459999998347,-28.79047775,4.507531643,-117.8583145,-2.075785875,0.548782468,5.669215679,-7.683465004,3.560097218,-5.96067667
3.0248790000000554,-28.8503437,4.544329166,-117.8762665,-0.883351147,0.101536088,7.025593281,-5.658683777,3.353799343,0.515973151
3.0332119999998213,-28.88463783,4.548138142,-117.9133682,-2.162027359,2.843343735,8.73959446,-2.326835632,1.262730598,-3.90054822
3.041545000000042,-28.92163086,4.588032246,-117.9438553,-1.142020941,-0.053645391,9.049828529,-2.791631222,4.392123699,-0.59241873
3.049877999999808,-28.9827137,4.583535671,-117.9412918,-2.491438627,-1.015330672,13.32048893,-5.920820713,-1.900179625,-0.228210047
3.0582110000000284,-29.03519249,4.590475082,-117.966629,-2.686722755,-0.167279527,13.46896172,-4.701966286,0.631160319,-1.952534676
3.0665439999997943,-29.05916595,4.591961384,-117.9789124,-1.916958809,-1.016617179,13.98805714,-1.322398901,-0.413067937,-1.431361794
3.074877000000015,-29.05978203,4.594679832,-117.9839249,-3.228256941,0.011129824,7.231166363,1.323026419,-0.992948592,-0.070682481
3.083209999999781,-29.06054688,4.583479881,-118.0009995,-1.651521206,0.937377095,5.910558224,1.507858872,-1.462329626,-2.67380619
3.0915430000000015,-29.03991508,4.592309952,-117.9962311,-0.698561668,2.286697626,10.99995327,3.777638197,-0.920357764,1.308630943
3.0998759999997674,-29.04846764,4.588389874,-118.0045776,-2.572309971,0.217981026,7.708707333,0.49066627,-1.206596851,-1.334975481
3.108208999999988,-29.052742,4.574127197,-118.0022278,-0.118218377,-0.858543754,15.18411446,0.808743894,-3.201689959,-0.29070878
3.116541999999754,-29.00558281,4.535060883,-117.9803848,-4.416285992,-0.821606755,14.83612919,6.885440826,-6.648650169,-0.222600549
3.1248749999999745,-28.96958542,4.510475636,-117.9831467,-2.576904535,0.351297498,7.946324825,5.686641693,-4.005028725,-1.397960901
3.1332079999997404,-28.96153831,4.470242977,-117.9534454,-2.872363091,0.881460607,10.71142006,2.123932362,-7.225198746,0.537796438
3.141540999999961,-28.96102715,4.453997135,-117.9596634,-2.057496548,-1.009335041,11.4201622,1.462521672,-2.916142464,-1.299653649
3.149873999999727,-28.91137505,4.467748642,-117.9680099,-2.397660732,-0.931825459,10.6092701,7.471903324,0.647271752,-0.309125394
3.1582069999999476,-28.8574543,4.423212051,-117.9473801,-2.24501276,1.408633351,5.955562115,7.618288994,-7.445866585,-0.119554445
3.1665399999997135,-28.83357239,4.407098293,-117.9461975,-0.746644974,0.32234472,9.00584507,4.290512562,-3.041831255,-1.043101311
3.174872999999934,-28.82088852,4.341773987,-117.9137115,-1.035098553,-0.701401651,14.10254002,2.562115192,-10.31156254,-0.08172223
3.1832059999997,-28.77607155,4.313820362,-117.9079056,-2.725587606,0.202869996,12.20802784,6.764002323,-4.555632591,-1.240433335
3.1915389999999206,-28.73243713,4.238865852,-117.868248,-0.894806206,-0.013536159,9.724287033,6.214628696,-11.7387619,0.138573021
3.1998719999996865,-28.70181084,4.166009903,-117.8170624,-2.660033226,-0.193547547,11.89772797,4.662508965,-11.89116764,0.934894025
3.208204999999907,-28.67813492,4.123230934,-117.8027191,-2.100503206,0.190514892,12.48532581,4.050763607,-6.904280186,-0.648744643
3.216537999999673,-28.67014694,4.089088917,-117.7623672,-2.078472614,-1.126938105,7.427257061,2.047422886,-7.193900108,2.038739681
3.2248709999998937,-28.62626648,4.041131973,-117.7361526,-3.984113455,-0.489189833,11.80417347,6.378611088,-8.13140583,0.304578871
3.2332039999996596,-28.56922913,4.003144264,-117.7106323,-2.029088736,1.318697214,9.254700661,8.066153526,-6.744266987,0.265414715
3.24153699999988,-28.56934166,3.966346502,-117.681076,-2.023503304,-0.669714332,8.415916443,1.071827769,-7.151072502,1.312627196
3.249869999999646,-28.57629967,3.958049536,-117.6877365,-3.806204319,-0.397227913,15.71199989,0.656057417,-1.772492409,-1.41284287
3.2582029999998667,-28.55219841,3.948125124,-117.6780701,-1.726746082,-1.168995142,11.29872513,4.144690514,-3.185322285,0.770988524
3.2665359999996326,-28.51491737,3.910247564,-117.6616211,-3.642465353,-0.444911957,8.648722649,5.7742939,-6.213513851,-0.676074982
3.2748689999998533,-28.49913788,3.9118433,-117.6704712,-2.236899853,1.110802293,10.2813921,3.297858238,-0.903068185,-0.52966392
3.283201999999619,-28.53882408,3.944788933,-117.6801682,-1.046176672,0.312168777,7.604701519,-3.247744322,2.746716976,0.634874463
3.29153499999984,-28.57392502,4.010867119,-117.7234879,-3.66868186,-1.200676203,10.82744503,-2.520991325,7.871971607,-0.466448039
3.2998679999996057,-28.57369995,4.079069614,-117.7607117,-1.185048223,-0.025544126,9.905281067,1.778421879,8.037362099,-0.232820585
3.3082009999998263,-28.57407379,4.134848595,-117.7802734,-2.732206345,0.418251365,11.97080708,1.447665453,5.414926529,1.461445928
3.316534000000047,-28.61746216,4.245266438,-117.843689,-3.165389538,-1.113881588,10.70218563,-3.214292288,13.98375988,-0.552204549
3.324866999999813,-28.70902061,4.36469841,-117.9045181,-2.753170729,-1.068183661,11.24802494,-9.116786957,14.4808569,0.804466486
3.3332000000000335,-28.76214218,4.453975201,-117.9596252,-3.622951984,-1.558784127,11.73594761,-4.431787491,11.28422356,-0.86428833
3.3415329999997994,-28.77730179,4.546356201,-118.0243301,-2.073245525,0.99259764,4.867532253,0.11062789,11.85736847,-1.138079047
3.34986600000002,-28.84240723,4.674291134,-118.0852127,-0.249146208,1.11391902,6.755395412,-5.788728237,15.68183136,0.78266865
3.358198999999786,-28.88077927,4.777091503,-118.1533966,-2.335246325,0.353537112,13.46157837,-2.614176512,13.15821457,-0.886060596
3.3665320000000065,-28.87555313,4.829887867,-118.1877365,-0.554209948,-0.258968174,11.58180809,2.408096552,6.248771667,-0.768772781
3.3748649999997724,-28.89575386,4.870087624,-118.1881332,-2.129508257,0.317956835,10.58707142,-1.102936029,2.658116817,2.602252483
3.383197999999993,-28.94737625,4.911624908,-118.2350998,-1.435843468,-1.094235182,13.69188786,-4.278205395,5.797680378,-2.737355471
3.391530999999759,-28.94228172,4.933829308,-118.2367249,-3.60133481,-0.053007133,8.458966255,1.940098763,0.826955557,1.447178721
3.3998639999999796,-28.95465088,4.951657772,-118.2499847,-1.259186506,0.07482589,7.240980148,0.088420331,1.359987855,-0.586501956
3.4081969999997455,-28.99895477,4.962203979,-118.2618408,-2.759672403,-0.616703153,8.423635483,-3.877802849,0.210164785,-0.327977479
3.416529999999966,-28.99856949,4.952267647,-118.2692337,-2.023916721,-1.015979648,11.77268505,1.559189677,-1.895158768,-1.584509492
3.424862999999732,-29.01564789,4.912829399,-118.242363,-1.463953137,0.684694827,10.87883186,-1.012415409,-7.287031651,0.820423841
3.4331959999999526,-29.06523514,4.884699345,-118.2402496,-2.434596062,-1.509469986,11.60770321,-4.535397053,-4.354791164,-1.65143919
3.4415289999997185,-29.06437492,4.827003479,-118.2280655,-2.484882593,-0.047290105,11.07063675,1.294107914,-8.346231461,-1.788987875
3.449861999999939,-29.07487869,4.768463612,-118.16819,-1.479977727,0.283094823,9.100979805,-0.42648986,-10.89810181,2.610500574
3.458194999999705,-29.11484528,4.711161137,-118.1726532,-2.490548611,-0.337555707,11.16765404,-3.438902617,-7.359187603,-3.467514277
3.4665279999999257,-29.09513092,4.665124416,-118.1196671,-2.743531227,0.423102915,9.197370529,3.283848047,-9.190247536,2.615418673
3.4748609999996916,-29.09789276,4.60680151,-118.1001892,-2.326804399,0.667465925,9.386514664,0.796064734,-8.856722832,-1.029372096
3.483193999999912,-29.1250782,4.580235481,-118.0632782,-2.826825142,-1.14556253,11.64869308,-2.181859016,-6.21505022,2.073651552
3.491526999999678,-29.09717369,4.544827938,-118.0682602,-3.564187288,-0.295108676,11.30190277,4.714837551,-5.025551319,-2.259213686
3.4998599999998987,-29.09015083,4.524103165,-117.9982834,-3.05072403,0.488597512,10.4115057,1.614106536,-7.524731636,5.871857643
3.5081929999996646,-29.11831284,4.517851353,-118.0253983,-3.223697901,-1.442598343,12.85288715,-1.804945588,-0.680301368,-2.871445417
3.5165259999998852,-29.09123802,4.544011593,-117.9952774,-3.191460609,-0.841027915,10.63966465,4.399501324,-0.290939301,4.441431522
3.524858999999651,-29.07350731,4.551303387,-118.0009613,-4.211793423,0.310488969,7.921419621,3.496599436,-0.505151212,0.154505089
3.5331919999998718,-29.0798645,4.582999706,-117.9892349,-1.442924261,-0.307941794,13.42339516,0.562770426,1.361729622,2.84066987
3.5415249999996377,-29.02552414,4.628813744,-118.0280457,-3.535624266,-1.042333841,8.699995995,8.210721016,5.448608875,-1.0455091
3.5498579999998583,-28.98167419,4.671400547,-118.0015717,-2.594899416,0.937448084,7.086098671,6.440545082,1.653321981,5.013013363
3.558190999999624,-28.9569912,4.711868763,-118.0436478,-2.796964645,-0.971091986,11.54390717,4.692195415,5.081710815,-1.723364353
3.566523999999845,-28.87930298,4.776500702,-118.0481262,-2.661977053,-0.285829961,9.060130119,10.80206203,5.768224239,3.046941757
3.5748569999996107,-28.8262291,4.811448097,-118.0623245,-2.076310873,0.158259183,8.450425148,7.827121258,2.882241726,0.881052792
3.5831899999998313,-28.78698349,4.865736485,-118.0705414,-2.509585619,-0.88868922,14.9192276,6.226717472,4.902077675,2.043887854
3.591523000000052,-28.70411873,4.908119678,-118.1195984,-2.541739464,-0.544618845,8.560743332,11.76180077,5.669480324,-2.352193832
3.599855999999818,-28.63469887,4.928266525,-118.074585,-1.085420251,0.375611007,9.660829544,9.304089546,-1.742318869,5.648579597
3.6081890000000385,-28.59723473,4.951665878,-118.1277924,-3.622696877,-1.529674768,13.29764938,6.3607831,3.903430223,-3.897884369
3.6165219999998044,-28.5010376,4.99750185,-118.1103668,-1.891352296,0.093240716,8.229498863,12.79810429,2.555942774,4.227374554
3.624855000000025,-28.44459724,5.017971039,-118.1193085,-2.593992233,-0.370164812,9.405286789,8.182031631,1.066448689,0.567713916
3.633187999999791,-28.3896637,5.086772919,-118.1261292,-2.653938055,-1.189495325,11.25941944,8.100579262,6.368109226,2.978884697
3.6415210000000116,-28.28563118,5.143079281,-118.1488037,-2.994660854,0.606114507,6.497163296,14.04177666,5.630496502,1.161298394
3.6498539999997774,-28.25086594,5.208037853,-118.1336441,-1.644971848,0.174637333,10.62174225,5.44248724,4.727081776,5.05561018
3.658186999999998,-28.20726395,5.298431873,-118.1878357,-3.996258497,-2.682594538,11.40538406,7.142659664,11.01422691,-0.229439557
3.666519999999764,-28.12327766,5.354124546,-118.1800613,-1.693894744,0.870565176,12.03780651,11.42779255,4.17361021,3.739166498
3.6748529999999846,-28.09408951,5.459485054,-118.2163391,-3.88708353,-1.315912008,11.25211525,5.222896576,11.5925684,2.475155115
3.6831859999997505,-28.01609612,5.531192303,-118.2434998,-1.50555563,-1.437312603,11.72396564,11.10794735,7.838903904,0.950774908
3.691518999999971,-27.92355347,5.616345406,-118.2595901,-4.021313667,0.228944704,7.931149483,12.60310173,8.322784424,3.440069199
3.699851999999737,-27.89693832,5.729176044,-118.3033066,-0.5013749,-0.352967739,8.918377876,5.147386551,13.12870693,1.491389155
3.7081849999999577,-27.81552124,5.789216518,-118.3125229,-4.238893509,-1.483733773,9.092939377,11.19022083,5.274150848,2.754068613
3.7165179999997235,-27.76083183,5.904251099,-118.3744354,-0.834976137,0.204491735,9.489255905,8.756048203,14.37773418,-0.335456878
3.724850999999944,-27.74683189,6.000338554,-118.4083405,-4.10525322,-1.687480092,4.864523411,3.407589436,10.48285675,2.140581846
3.73318399999971,-27.71750832,6.027116299,-118.4361801,-0.342960745,-0.695583642,15.71232986,5.306321144,3.108671188,-1.677950025
3.7415169999999307,-27.70483398,6.145300388,-118.4788132,-4.187997818,-1.556532502,11.98801994,3.373908043,13.32762909,2.428025246
3.7498499999996966,-27.6601181,6.160428047,-118.5001907,-2.417986631,-0.55726546,7.636583328,7.07641983,1.511752248,-1.647597313
3.7581829999999172,-27.62204361,6.238900661,-118.5163651,-2.324630499,-0.6611619,13.15411758,6.080871105,7.622642994,3.031906128
3.766515999999683,-27.54368401,6.296648026,-118.5392151,-2.994118452,-0.574444175,4.04046154,11.13796806,6.124979973,0.558006227
3.7748489999999038,-27.47982788,6.360945225,-118.5368576,-2.356011629,0.015744604,8.058887482,8.936807632,5.108990192,4.173788548
3.7831819999996696,-27.43962097,6.418766022,-118.5673981,-1.654488325,-0.325087637,11.63593674,6.670331955,6.555631638,-0.264198065
3.7915149999998903,-27.34284019,6.462355137,-118.5387802,-3.229610682,-1.483778954,10.50451565,12.53394508,1.46992445,5.794684887
3.799847999999656,-27.33007622,6.533053875,-118.5882874,-2.647299051,-0.901793718,10.97350788,3.638553143,8.967748642,-1.581205249
3.808180999999877,-27.27573013,6.568502903,-118.569519,-3.774533987,-2.737821102,11.19205856,7.569544315,1.154126167,4.296813488
3.8165139999996427,-27.21159744,6.612867355,-118.5987778,-1.97367835,0.655883074,12.29476547,9.534784317,5.048118114,-0.896933734
3.8248469999998633,-27.18889046,6.714511871,-118.6065063,-2.312587261,-2.10191679,2.508901834,4.135597229,9.662791252,5.126970768
3.833179999999629,-27.14193344,6.719844341,-118.6323242,-1.879676104,-0.220079198,12.54732037,7.433047295,0.693992198,-2.67903161
3.84151299999985,-27.10351181,6.833577156,-118.6333084,-1.325578451,-0.498783946,9.2178936,5.929645538,10.61008453,6.461140633
3.8498459999996157,-27.05949974,6.818781853,-118.6398697,-3.665244579,-1.877367854,9.248627663,6.810031891,-2.506673336,-1.738758445
3.8581789999998364,-27.06611061,6.90060091,-118.6324387,-1.197194099,-1.912656784,13.04211712,0.40757376,6.746994972,5.60375452
3.866512000000057,-27.02537918,6.870833397,-118.6223297,-3.893855095,-1.329012394,9.271419525,6.178872108,-5.008749008,-0.783501148
3.874844999999823,-27.03819466,6.972834587,-118.6237183,-1.693879128,0.310542166,10.90140057,-0.213712409,9.377167702,5.779980659
3.8831780000000435,-27.02033615,6.967727184,-118.6341019,-4.041917801,-2.672670364,4.870987892,3.727178812,-1.264997602,-1.612454534
3.8915109999998094,-26.99595451,7.052244186,-118.6343079,-0.768209279,0.596707046,11.26234627,4.233649254,7.443753719,4.95205164
3.89984400000003,-27.00472832,7.106374741,-118.6692276,-4.20332098,-0.78501147,5.017255306,0.899059653,6.39525938,-0.988824725
3.908176999999796,-26.99828911,7.138451099,-118.6565781,-0.912089109,-0.759129405,15.19720268,1.888358235,1.14195931,3.458126545
3.9165100000000166,-26.99978447,7.23887682,-118.7065735,-4.6151824,-3.750095844,11.34138203,2.004672527,12.15938473,-0.065713324
3.9248429999997825,-26.98282623,7.251540184,-118.6995621,-0.96719116,1.061695814,8.54691124,3.228775978,-0.628099322,1.804317594
3.933176000000003,-27.0176239,7.350955963,-118.7631531,-3.75557971,-2.585180044,11.75130081,-1.769726276,12.7860651,-1.560662866
3.941508999999769,-26.96172333,7.36409235,-118.7436295,-2.065930128,-0.930584729,5.984194279,7.71080637,-1.246299028,3.143660784
3.9498419999999896,-26.96701622,7.48585844,-118.8166504,-2.672778368,-0.08344692,8.554300308,1.933516383,15.68178177,-1.348935485
3.9581749999997555,-26.94425392,7.501824856,-118.8230133,-1.800186515,-1.322322369,4.746873379,4.133574009,0.455677181,0.551730573
3.966507999999976,-26.94214439,7.593952179,-118.8570099,-1.677020192,-1.119544268,16.86749268,2.224212408,10.40709019,1.171723247
3.974840999999742,-26.92064285,7.631272316,-118.8831482,-3.738856077,-2.619710922,6.215400219,4.298658371,3.805020332,-0.385660738
3.9831739999999627,-26.90416908,7.686043739,-118.8962173,-1.415597916,0.52319169,15.94159126,3.621494055,5.284754276,1.355300426
3.9915069999997286,-26.89463997,7.758313656,-118.9477081,-4.216533184,-3.099725723,3.683430433,3.273474216,8.907659531,-1.175373435
3.999839999999949,-26.81389618,7.817235947,-118.9492111,-1.228123784,0.453166068,12.32193375,11.14987755,5.106633663,2.802018404
4.008172999999715,-26.77973557,7.903669834,-119.0117035,-3.87116456,-0.071985148,1.183612108,6.423205853,11.00403118,-1.57910502
4.016505999999936,-26.7308445,7.942382336,-119.0061569,-0.737098634,-2.630966902,14.39328098,7.212944508,2.570721865,2.448413849
4.024838999999702,-26.69871712,8.045120239,-119.0754013,-4.198383331,-1.579336405,11.82581043,6.310221195,13.11279869,-1.438329101
4.033171999999922,-26.6157074,8.031413078,-119.0309067,-0.234047666,-0.331919968,12.55215454,10.65042591,-5.121502399,3.752818346
4.041504999999688,-26.61135674,8.14842701,-119.1054993,-4.910614491,-3.550720692,3.91963625,3.078677893,14.92613411,-1.261309147
4.049837999999909,-26.54323578,8.134853363,-119.077507,0.125372648,-0.179988652,12.29000187,9.134703636,-4.223672867,2.01112771
4.058170999999675,-26.55262756,8.26096344,-119.1561508,-4.622178078,-2.252687931,0.368268102,1.52240777,16.12777328,-1.24701643
4.066503999999895,-26.52886009,8.243519783,-119.1241989,0.608343065,-2.60784173,17.8721981,3.737833977,-4.84912014,2.227003813
4.074836999999661,-26.57471275,8.335217476,-119.190834,-5.550462723,-1.888930678,4.996543884,-3.047568798,11.80278301,-1.821799517
4.083169999999882,-26.59242821,8.280716896,-119.1507645,1.061144471,-1.002862096,15.92139339,-1.386485815,-9.258433342,1.095264792
4.091502999999648,-26.66318893,8.349660873,-119.1952438,-5.706979275,-2.795644522,1.571240187,-6.421041489,8.169995308,-0.652228236
4.099835999999868,-26.66644859,8.309968948,-119.1727066,0.623910427,0.331634015,14.88912868,0.651933491,-6.738221169,0.022361226
4.108168999999634,-26.72024155,8.374703407,-119.2084656,-7.245344639,-2.528154612,0.334245145,-4.537574291,7.242347717,0.08291328
4.116501999999855,-26.76768303,8.318387985,-119.1825943,3.048086166,-0.947008967,20.34933662,-4.707986355,-8.698683739,-0.529228568
4.124834999999621,-26.83675957,8.301552773,-119.1772003,-6.324344158,-2.549828291,5.277990341,-6.987602711,-3.394693613,-0.554279327
4.133167999999841,-26.89319801,8.273665428,-119.1600113,1.613453269,-0.404184043,17.65622711,-5.635632038,-5.187895298,0.074793577
4.141500999999607,-26.95907021,8.239730835,-119.1275864,-6.079538345,-2.975780249,-2.045268536,-7.167645931,-6.982248783,1.975242019
4.149833999999828,-27.03110313,8.226142883,-119.1504898,1.28245461,0.987371802,16.91912651,-6.81670475,-1.498932362,-3.39635849
4.158167000000049,-27.10430336,8.151856422,-119.0953064,-4.582676411,-2.54429388,0.695651054,-8.427660942,-12.53021717,2.166606188
4.1664999999998145,-27.1974678,8.17845726,-119.1073685,1.192645907,-0.879192352,20.47704697,-9.541007996,2.213095427,-0.05060092
4.174833000000035,-27.27030182,8.056096077,-119.0265961,-4.295992374,-1.664520979,4.512936115,-8.805395126,-19.04622459,2.177390099
4.183165999999801,-27.39844513,8.069249153,-119.0455933,-1.216121554,-1.684972405,17.06529999,-13.62153816,1.157456398,-1.514582872
4.191499000000022,-27.45539474,7.93985939,-118.950531,-4.169646263,-2.209617138,4.659293652,-7.117339611,-20.58431053,3.233721256
4.1998319999997875,-27.55796242,8.01927948,-118.9969406,-1.780072331,0.82144928,11.21115685,-10.10134792,9.720246315,-0.722564995
4.208165000000008,-27.62896919,7.916741848,-118.9149628,-3.350256205,-1.327189803,2.619961262,-8.581553459,-17.02403259,3.299959898
4.216497999999774,-27.7540226,8.008234978,-118.959343,-1.758752346,-1.750035644,12.44988346,-12.83428383,10.89253235,0.199714229
4.224830999999995,-27.82801819,7.955921173,-118.924057,-3.604242563,-0.097765654,9.467814445,-8.167085648,-9.138429642,1.18780899
4.233163999999761,-27.909729,8.010843277,-118.9334259,-2.058420897,-1.394513726,12.81087208,-8.214114189,5.067238808,1.86218071
4.241496999999981,-27.98180389,8.032230377,-118.9428864,-4.191432953,-2.665572643,9.169380188,-7.090442657,1.497203231,-0.016021704
4.249829999999747,-28.02296448,8.075118065,-118.9629059,-1.777729034,0.92991358,12.63604641,-3.168519258,4.380956173,0.082196087
4.258162999999968,-28.0791893,8.144493103,-119.022438,-3.251407146,-2.375664949,6.390467167,-4.436116695,9.066057205,-1.969235301
4.266495999999734,-28.08973503,8.179105759,-119.0201035,-1.533620477,-0.110136159,10.1835165,0.130017862,2.25433445,1.967019558
4.274828999999954,-28.15038872,8.30676651,-119.107193,-3.298781157,-2.405237913,5.710545063,-4.472848892,16.78404045,-1.557358742
4.28316199999972,-28.16443443,8.318601608,-119.10009,-0.316584945,-0.534002781,7.525012493,-0.374339193,-0.426643491,1.181943178
4.291494999999941,-28.24801064,8.45179081,-119.1678162,-3.397745132,-0.849897802,12.70932198,-7.541332245,16.28015709,0.816633344
4.299827999999707,-28.23291206,8.432351112,-119.1408234,-1.419954658,-1.664339423,12.35280609,2.770947695,-4.851399899,1.486675739
4.308160999999927,-28.28428841,8.57290554,-119.2216797,-4.237863541,-2.363103151,5.975327969,-3.426122904,17.79749489,-0.124728568
4.316493999999693,-28.27375984,8.550134659,-119.1781006,-0.803438783,-0.346760482,10.5254631,1.920837045,-6.137055397,3.026834011
4.324826999999914,-28.28805733,8.688467979,-119.2671814,-2.997552156,-1.300281048,9.168903351,1.191881776,18.03473091,-1.12145555
4.33315999999968,-28.23339272,8.665297508,-119.212822,-1.13051188,-0.18499431,5.157313347,7.010719299,-6.78291893,4.1293993
4.3414929999999,-28.25646782,8.804334641,-119.2867279,-3.566643,-1.77803266,10.96570396,-0.118273757,17.25337029,0.501501262
4.349825999999666,-28.21187592,8.74266243,-119.2396851,-0.705839097,-0.801649034,11.72465992,5.924855709,-10.44009495,1.182071567
4.358158999999887,-28.20545197,8.866254807,-119.317627,-4.266815186,-0.96548295,11.36434269,3.503950596,15.83884716,-0.794412792
4.366491999999653,-28.11215973,8.791960716,-119.2489319,-0.256920308,-2.05018425,11.27585983,11.3664484,-12.98492336,2.742875814
4.374824999999873,-28.0947628,8.941473961,-119.3404846,-4.798649788,-1.279591084,3.827177286,5.079022408,19.33324623,-0.76902926
4.383157999999639,-28.02649879,8.812193871,-119.2700348,1.511319876,-0.809561551,10.91248608,8.320685387,-18.9000721,-0.158821121
4.39149099999986,-28.00654221,8.972935677,-119.3540344,-5.31341362,-2.788975477,7.829647541,5.356015205,20.41311646,0.039778918
4.399823999999626,-27.92818642,8.85688591,-119.2739944,0.942896187,-0.250408709,10.66501236,9.320534706,-18.03761292,1.608958602
4.4081569999998464,-27.9233284,8.952091217,-119.3326569,-6.529629707,-2.161704302,5.316056252,3.107058287,12.06965923,-1.025786161
4.416489999999612,-27.83540154,8.854026794,-119.2672653,2.229117155,-0.610149205,21.4023838,10.77388668,-15.30854416,1.11772871
4.424822999999833,-27.8177166,8.919351578,-119.302803,-6.684566021,-2.744161129,-1.652261257,4.182061672,7.612550735,-0.30561623
4.433156000000054,-27.77002525,8.84900856,-119.262619,1.812774539,-1.041660547,20.78778267,6.413548946,-10.96984959,0.046592299
4.4414889999998195,-27.71420479,8.851914406,-119.2557449,-7.249356747,-3.019649744,-3.653471708,7.976504326,-1.359334826,0.641559839
4.44982200000004,-27.71064377,8.866778374,-119.2636414,1.471751213,-0.344449788,13.88229752,1.977393389,0.726547778,-0.240299955
4.458154999999806,-27.6635437,8.791276932,-119.2330856,-5.328275681,-0.948773742,8.218160629,6.524228573,-10.98680496,-1.233184814
4.466488000000027,-27.64095879,8.906575203,-119.2918472,-0.855468631,-1.843477368,12.61760235,5.231349468,14.2087822,0.017571367
4.4748209999997925,-27.61574745,8.794815063,-119.2350922,-2.241616964,-1.841095567,6.862821579,3.270554066,-16.6200676,0.129377529
4.483154000000013,-27.64618874,8.909561157,-119.3162308,-3.903594494,-2.578830004,12.25132656,-0.718825221,15.38096619,-2.371071815
4.491486999999779,-27.60281944,8.782059669,-119.2451172,-0.745153904,-0.798564315,7.975730419,5.295821667,-18.74892235,0.12960808
4.49982,-27.63764191,8.934515953,-119.3344955,-3.809963942,-1.030418515,6.005759716,-1.090923429,19.84148026,-1.138283968
4.508152999999766,-27.57826805,8.822405815,-119.2892151,0.314603984,0.384908319,13.94069195,7.582686424,-16.02033615,-1.10122025
4.516485999999986,-27.58494759,8.981646538,-119.3725586,-5.928735733,-3.405166864,0.293255925,2.180924654,20.23140907,-0.14101921
4.524818999999752,-27.54647446,8.877101898,-119.3211365,2.487439156,-0.733495951,19.67172623,5.061578274,-15.23395348,-0.637167037
4.533151999999973,-27.54955101,8.987119675,-119.3913498,-6.685382843,-2.338898659,2.814563751,2.373876333,14.27463436,-1.505156517
4.541484999999739,-27.52165222,8.941934586,-119.3631134,1.831974626,-1.210479975,18.09896469,4.224005222,-7.643005848,0.220705047
4.549817999999959,-27.52493095,9.01802063,-119.3992767,-6.730289936,-2.342434645,-3.116762161,1.685852051,8.794750214,0.170923769
4.558150999999725,-27.52368164,9.043700218,-119.4144974,2.569280386,-0.20206359,19.19932365,1.873553157,2.285660505,-0.407791436
4.566483999999946,-27.49720764,9.037080765,-119.4155197,-6.486329556,-2.201846838,0.290373355,4.630259037,-1.929020643,-0.706402063
4.574816999999712,-27.49540901,9.139263153,-119.4653244,2.280417442,-0.543748498,15.66467857,2.562218189,12.31565952,0.185062885
4.583149999999932,-27.49490166,9.097472191,-119.4470978,-5.048285007,-1.80108285,3.789087534,1.150130391,-6.726234436,-0.631096423
4.591482999999698,-27.5249176,9.21614933,-119.52285,-0.930841506,-4.021396637,16.93553162,-0.857833743,15.18704224,-1.041641474
4.599815999999919,-27.48231316,9.099829674,-119.461525,-2.248049974,0.129816607,8.952312469,5.343847752,-17.02459717,-0.240300015
4.608148999999685,-27.50489998,9.245048523,-119.5382309,-3.843618393,-1.416453719,5.62519455,0.192311734,18.37296867,-0.247318327
4.616481999999905,-27.43836021,9.102388382,-119.4723053,0.609966457,-2.077835798,12.7705946,8.159750938,-20.07435417,-1.200347543
4.624814999999671,-27.44688606,9.263935089,-119.5345306,-6.021191597,-0.979358673,-0.422074497,1.571664453,19.31354904,2.151596546
4.633147999999892,-27.43369675,9.178534508,-119.493721,1.57166779,-3.252204657,19.13559914,2.234509468,-12.60316658,-0.665214598
4.641480999999658,-27.44437981,9.256100655,-119.5300903,-6.087692261,-1.587800503,0.946358979,0.818733454,8.95086956,0.241260514
4.649813999999878,-27.45726204,9.268343925,-119.5365601,-0.818607092,-0.61503005,18.65957832,-0.01830137,0.368896216,-0.243834689
4.658146999999644,-27.42445374,9.251422882,-119.4997787,-4.501448154,-3.82255435,2.690763712,4.661407471,-5.089972019,2.699433327
4.666479999999865,-27.46947289,9.394407272,-119.5810852,-3.074425459,-0.65881604,10.42037106,-2.387234688,18.38436699,-0.867695272
4.674812999999631,-27.4440937,9.295649529,-119.5134735,-0.327671289,-1.797160149,9.789308548,3.133569002,-15.49442291,1.395719767
4.6831459999998515,-27.47507286,9.470406532,-119.602417,-6.74296999,-3.154382944,1.167814374,-0.54249686,22.18426704,0.093568839
4.691478999999617,-27.47066307,9.437727928,-119.5540085,2.719379425,1.323936224,18.58794785,0.979667783,-7.409674644,3.035287142
4.699811999999838,-27.47650528,9.556207657,-119.6107559,-6.944028378,-2.719613791,2.47261095,1.857544422,14.4309845,0.369306028
4.708145000000059,-27.48850441,9.562539101,-119.6019287,2.06968689,-2.250556469,16.60062218,-0.322880268,-1.396628857,1.612748981
4.7164779999998245,-27.49200058,9.564148903,-119.5726395,-5.788772583,-2.115793705,4.616410255,0.433341563,-2.70748806,2.929217815
4.724811000000045,-27.52863121,9.67388916,-119.6401596,-0.838442206,-1.501856327,7.921597004,-1.741012931,13.80328465,-0.708707631
4.733143999999811,-27.53755188,9.62562561,-119.5784607,-1.242332697,-0.522571027,9.157729149,-0.878043234,-9.789851189,3.563452959
4.741477000000032,-27.56305885,9.766485214,-119.6341629,-3.412570238,-2.290485859,5.085131168,-0.53240478,16.74256706,1.744303823
4.749809999999798,-27.57474518,9.771776199,-119.5969009,0.356830895,-0.911753058,13.48644257,-0.754684985,-2.765325785,3.955478191
4.758143000000018,-27.57483864,9.755785942,-119.5907822,-1.520554781,-0.672398567,9.030462265,1.299205303,-3.316569805,-0.477846384
4.766475999999784,-27.61093712,9.825842857,-119.6039047,-3.917577267,-3.966773272,4.587865353,-2.629211664,6.889845371,2.286122084
4.774809000000005,-27.62651634,9.795111656,-119.5844574,-1.208693862,-0.859058499,17.46525764,-0.864954233,-5.622567654,0.08931683
4.783141999999771,-27.64051628,9.835916519,-119.5717392,-2.382972002,-2.097549915,6.422789574,-0.504075348,2.359481096,3.370910168
4.791474999999991,-27.64583397,9.842451096,-119.6026764,-3.402765274,-1.728006721,6.192058086,1.276664734,0.783129692,-2.502190828
4.799807999999757,-27.66655159,9.826488495,-119.5734863,-0.82267493,-1.198672295,10.78920078,-1.679461241,-4.586702824,1.925601363
4.808140999999978,-27.65972519,9.726486206,-119.539238,-2.914860725,-2.877883911,10.02557945,1.556628704,-13.7906189,-2.214978933
4.816473999999744,-27.68190575,9.740247726,-119.5213013,-4.68247366,-2.888789177,2.998717546,-1.590375185,-0.802942276,2.412886381
4.824806999999964,-27.66738319,9.658141136,-119.5051041,-1.102278113,0.182252854,16.84292603,2.816285372,-10.9011507,-3.124924183
4.83313999999973,-27.66049385,9.623779297,-119.4572372,-1.705706477,-1.25254035,5.026010036,1.301382542,-7.562563896,2.868742943
4.841472999999951,-27.63968658,9.598163605,-119.4539719,-4.065752983,-1.939610243,7.848466873,3.834323168,-4.188734531,-1.325856924
4.849805999999717,-27.63227844,9.591493607,-119.4292297,-0.046227023,-0.213773757,10.3975029,1.828728557,-3.347896099,1.989662766
4.858138999999937,-27.59849548,9.469321251,-119.3885498,-2.065742731,-1.733882189,12.4123621,4.537920952,-16.81793785,-2.185419559
4.866471999999703,-27.59888268,9.499972343,-119.3743591,-2.877625227,-3.203068018,2.000363588,1.107841372,1.201179624,2.961671591
4.874804999999924,-27.60864067,9.469262123,-119.3706818,-4.12302351,-2.00965023,17.13810539,0.155580848,-4.758497715,-1.555027366
4.88313799999969,-27.57474709,9.435201645,-119.3204041,-1.027295947,-1.437555909,12.03766537,4.512639999,-7.660462856,3.150269508
4.89147099999991,-27.54521179,9.418828011,-119.3318787,-5.742976189,-3.209671497,4.035887241,5.170285225,-2.400220394,-2.354242802
4.899803999999676,-27.52998543,9.475787163,-119.3471756,-2.210877657,-1.710134625,12.00768566,3.530973434,5.613078117,1.307171226
4.908136999999897,-27.49507141,9.38166523,-119.2859192,-1.149449468,-1.800161839,11.5909853,4.421350479,-14.64805317,0.981921852
4.916469999999663,-27.46951675,9.410820007,-119.2929306,-4.947237968,-1.625426531,6.750603676,4.638456345,2.205257416,0.647066832
4.9248029999998835,-27.45166779,9.392234802,-119.2814941,-1.548542738,-1.952967048,12.53847599,3.318887472,-3.892787457,-0.06929931
4.933135999999649,-27.41476059,9.414149284,-119.2580414,-1.791434646,-1.55830586,9.418750763,5.404450417,-0.224803358,3.442707062
4.94146899999987,-27.39701843,9.48002243,-119.2771683,-4.575944424,-1.423964024,4.601815701,3.791317225,6.453225613,2.0011127
4.949801999999636,-27.36353874,9.50860405,-119.2922592,-0.230360344,-2.103545189,12.76655197,5.751318455,2.586833,-0.241964892
4.9581349999998565,-27.34398079,9.526480675,-119.2979584,-2.162958384,-1.785561085,5.114222527,3.747311115,0.615356326,0.745809734
4.966467999999622,-27.30918694,9.586940765,-119.329895,-3.706976175,-2.727413654,8.440989494,6.248465061,6.900322437,-0.26038155
4.974800999999843,-27.30266571,9.678717613,-119.3713303,-2.768218279,-1.598218322,8.121747017,2.897969961,10.43560123,1.05456388
4.983133999999609,-27.25993729,9.664496422,-119.3713913,-2.051201344,-1.721832871,13.92963696,6.565286636,-2.793475389,-1.020586252
4.99146699999983,-27.23381805,9.760725021,-119.4055481,-3.317472219,-1.905533195,3.164994955,5.114318371,10.52709293,2.034718275
4.99980000000005,-27.22903061,9.80939579,-119.4217758,-2.363874912,-2.771262646,10.53553104,2.338605165,4.79065609,0.73456496
5.008132999999816,-27.21093178,9.851675034,-119.4222107,-0.014564767,-0.612863362,11.69586945,3.472445011,2.955370426,2.596617222
5.016466000000037,-27.19018173,9.842727661,-119.4223785,-2.789664984,-2.812080145,11.42382717,3.929198265,-2.227247477,-0.74103266
5.024798999999803,-27.19074631,9.939531326,-119.4568024,-3.122230053,-3.64165163,5.580506325,1.924218178,10.59455967,2.048626661
5.033132000000023,-27.21552849,9.954637527,-119.4790421,-3.474563837,-1.961768985,15.26880169,-1.079883456,1.5324229,-1.741908789
5.041464999999789,-27.2089119,9.991500854,-119.480545,-1.56072104,-1.825910926,11.83639526,2.221881151,2.720334291,1.635238409
5.04979800000001,-27.21249962,10.00272083,-119.4996414,-3.788118601,-2.274343252,1.374958754,1.364521384,0.93097496,-1.615707397
5.058130999999776,-27.23324203,10.06454849,-119.5296478,-4.250360489,-1.947878599,11.73261452,-0.428718239,6.940355778,0.00852954
5.066463999999996,-27.25168228,10.00823212,-119.5156479,0.54946816,-3.668232441,11.3627634,-1.069663286,-8.047082901,-1.855405569
5.074796999999762,-27.24757957,9.993819237,-119.4992828,-3.462091684,-0.83695662,8.135401726,1.549405098,-3.711694717,0.685513735
5.083129999999983,-27.2712841,10.0255785,-119.5288315,-3.400448799,-0.772327363,5.563829422,-0.792952597,3.707276106,-1.591963172
5.091462999999749,-27.26868439,10.03377438,-119.538147,-1.453821778,-1.833732605,13.63214302,1.785081625,-0.224700868,-0.165608823
5.099795999999969,-27.26951599,10.03747082,-119.5375214,-1.991873622,-0.241236776,6.127046585,1.286602974,-0.92455852,0.017161537
5.108128999999735,-27.29381561,10.11164093,-119.5922012,-5.959590435,-3.755662918,7.034368992,-0.333151519,9.59084034,-1.893621922
5.116461999999956,-27.32875443,10.31450367,-119.7011185,-4.537772655,-2.653143406,9.641918182,-0.43955332,26.25099373,-0.490474463
5.124794999999722,-27.35114479,10.43030834,-119.7550888,-3.104203463,-1.169678926,10.6287365,-0.125573814,13.97994614,0.480036527
5.133127999999942,-27.39401436,10.71946239,-119.8897781,-4.229476452,-2.140386343,5.003940582,-0.743082762,36.84016037,1.611470461
5.141460999999708,-27.38107491,10.95060349,-119.9779587,-2.047708988,-0.245746598,15.31445313,4.9379673,28.11658859,3.291867256
5.149793999999929,-27.35320473,11.19151306,-120.0444412,-0.971216381,-0.941766143,3.120360136,6.274416447,27.98190689,6.092478275
5.158126999999695,-27.33686638,11.53373051,-120.1708527,-5.17691946,-2.396712542,7.122253418,6.383948326,42.02859116,5.42087698
5.1664599999999155,-27.29101944,11.86103725,-120.2604675,2.180759192,-1.507950544,14.23403931,9.116477013,38.45073318,8.434625626
5.174792999999681,-27.19253349,12.10339355,-120.3156433,-4.94575119,0.632897556,3.886009932,14.59070015,27.53025246,7.308362484
5.183125999999902,-27.10445976,12.51083851,-120.4365616,-1.259656549,-2.234294891,7.825726032,15.09698963,48.69549179,9.464738846
5.191458999999668,-26.90187263,12.77501106,-120.4782715,0.467598975,0.294202268,13.92364025,26.80451202,29.17209435,9.796537399
5.1997919999998885,-26.67798805,13.08044529,-120.5194244,-3.03587985,-0.606815457,3.501607895,29.3691349,33.59802628,11.97926235
5.208124999999654,-26.41556168,13.40871048,-120.5816116,-1.900929689,-1.25863862,9.247451782,34.63734055,37.20537949,10.87557411
5.216457999999875,-26.09061241,13.63696575,-120.5599289,-0.582836449,0.588371217,9.825730324,39.82273483,22.1662693,14.15276432
5.224790999999641,-25.71120071,13.91022968,-120.5597687,-4.324803829,-0.911428034,10.74616814,46.9239006,28.20117569,14.0947094
5.2331239999998616,-25.25804329,14.18194008,-120.5320511,-3.498430967,-0.50020808,12.10884285,55.00899506,26.76420403,16.70899391
5.241456999999627,-24.75650978,14.49034023,-120.5090485,-3.359185457,-1.034102798,9.690307617,60.89949036,31.1186161,17.82359123
5.249789999999848,-24.2043457,14.77305698,-120.4400482,-0.466748357,-0.245736763,11.4613781,65.56587982,26.26659966,21.10218048
5.258122999999614,-23.60370255,15.1113739,-120.3981628,-3.082268476,-2.449206114,7.122755051,72.22013855,33.86787415,20.65789986
5.266455999999835,-22.98518181,15.46517944,-120.3490295,-3.90522337,-1.956557155,8.502328873,74.10736847,35.46666718,21.78384209
5.274789000000055,-22.34480095,15.78439331,-120.2713928,-1.363896012,-1.340782642,14.12642097,75.73402405,30.60264206,22.79340172
5.283121999999821,-21.66863632,16.10260582,-120.1894989,-1.4575001,-0.024092264,12.59676552,79.88027954,30.58140373,22.83934402
5.291455000000042,-20.97232056,16.46899223,-120.1168137,-2.656132936,-2.23069787,10.55276871,82.5094223,36.62425232,23.53714752
5.299787999999808,-20.25299263,16.8186245,-120.079834,-3.79005909,-2.618626833,12.71534252,86.44477081,36.48526001,18.50277138
5.308121000000028,-19.49517059,17.19305992,-120.0135727,-2.587087154,-2.407527208,10.9321537,90.05335999,38.39088058,22.19444656
5.316453999999794,-18.68648338,17.54584122,-119.9660416,-3.308834314,-0.393794656,7.46167469,96.7802124,36.94515228,18.75861168
5.324787000000015,-17.84758568,17.91949463,-119.8872375,-0.981862724,-1.140284538,9.798509598,99.18715668,38.46752167,22.35974312
5.333119999999781,-16.99299431,18.30064392,-119.8296738,-3.100016117,-0.909683704,10.52738667,101.8435364,40.39385986,19.72640419
5.341453000000001,-16.07563782,18.66537094,-119.6989594,1.139415503,-0.432262897,10.49102688,106.5079117,36.43601227,26.46960258
5.349785999999767,-15.16176987,19.06649208,-119.6091385,-7.048420429,-2.527458429,7.266629696,107.575264,42.32611847,22.53240204
5.358118999999988,-14.25105953,19.54071808,-119.4671097,-0.240412012,-2.782690763,11.30669212,105.0935593,49.67961502,29.77346802
5.366451999999754,-13.31218624,19.94335747,-119.3419418,-4.564705372,-2.642695904,9.807133675,109.0324707,42.27657318,25.01120758
5.374784999999974,-12.42197323,20.47125626,-119.1975937,-2.95371604,-3.415796518,5.757069111,102.2420959,56.84998322,29.70387459
5.38311799999974,-11.53512955,20.92619133,-119.1104431,-2.155475616,-1.613544226,15.19240761,104.1644669,50.0935173,20.66724968
5.391450999999961,-10.64774609,21.31589699,-118.9558563,0.315256804,-3.016908407,5.901669502,101.1997757,41.27457047,25.73081017
5.399783999999727,-9.793584824,21.80882072,-118.8700867,-4.198674679,-2.955620527,10.79691696,100.1156235,55.22763062,19.66978645
5.408116999999947,-8.936663628,22.17249107,-118.7079926,0.253014445,-3.103652954,14.41746616,96.98944092,38.84512711,24.66519737
5.416449999999713,-8.088311195,22.63011169,-118.581398,-2.633329391,-3.004514217,11.35654068,97.45433044,50.95009613,21.78793907
5.424782999999934,-7.263234138,22.93821716,-118.4235306,-1.682141423,-2.286584854,2.940520525,93.0727005,33.02365494,21.99619293
5.4331159999997,-6.463682652,23.4088707,-118.2837296,-3.775809526,-2.734935045,10.73287106,90.78432465,52.95046234,21.83161926
5.4414489999999205,-5.678257942,23.64749527,-118.1155548,2.319281101,-2.986120701,12.00289536,87.59725952,25.22913933,21.178936
5.449781999999686,-4.894861698,24.0548172,-117.9438324,-5.706624985,-2.70934844,5.547912121,87.07629395,45.65194321,23.02363777
5.458114999999907,-4.105632782,24.35956001,-117.7736206,-0.625458002,-2.173756123,12.08291245,87.77407837,33.71398544,21.20991135
5.466447999999673,-3.302495956,24.69664955,-117.5775146,-4.241593838,-1.869732499,8.758388519,88.04782867,37.70481491,23.74539566
5.4747809999998935,-2.520566225,25.03849411,-117.3971939,-2.396684885,-3.179808855,9.929186821,86.13549042,38.68470383,21.44133949
5.483113999999659,-1.727813125,25.38333893,-117.2081528,-2.729626179,-2.7424438,11.4433279,86.90692902,39.31297684,21.81605721
5.49144699999988,-0.943282306,25.65359306,-117.0155792,-1.176149368,-2.241210461,9.30393219,85.59420776,30.65166283,21.35549545
5.499779999999646,-0.133931547,25.98544121,-116.798996,-3.348954439,-1.864708066,8.966984749,87.20722198,38.31643677,23.51965332
5.508112999999867,0.674700797,26.297369,-116.6214142,-1.58999455,-1.911830544,11.7955265,89.08802795,36.24196243,18.72093773
5.5164459999996325,1.543860316,26.52318573,-116.3858337,-1.83555603,-2.814080477,9.211352348,93.16615295,26.30274963,24.55958366
5.524778999999853,2.40770483,26.87685204,-116.1842346,-2.193219423,-2.027868986,8.32566452,94.20018005,41.87973022,19.88851929
5.533111999999619,3.254037142,27.07023048,-115.9580612,0.621444583,-2.626359463,8.51359272,90.69166565,23.08944702,22.78166389
5.54144499999984,4.110289574,27.22207832,-115.7784576,-0.75893271,-2.49669385,13.26675797,94.32426453,18.13485146,17.72051048
5.54977800000006,4.94763279,27.36962318,-115.5764771,-1.91782856,-3.312095881,7.600751877,90.77565002,18.0729847,19.82877541
5.558110999999826,5.75904274,27.41965485,-115.4140625,-0.521086574,-2.731138706,17.5402565,89.84413147,6.309447765,16.43621254
5.566444000000047,6.563817501,27.43151283,-115.2202072,-0.894436896,-3.806410551,5.73788023,87.29927826,2.351531267,20.14494324
5.574776999999813,7.351119041,27.47224808,-115.0601654,-2.07130456,-2.140358925,7.135352612,87.03338623,5.638115883,16.08067513
5.583110000000033,8.100758553,27.42372704,-114.8736343,-1.70884192,-4.198320866,12.44493484,81.0798645,-4.380022526,20.23708344
5.591442999999799,8.780800819,27.27074623,-114.7417831,-0.592421114,-3.885798216,15.71644783,75.74964142,-17.37501526,16.34827614
5.59977600000002,9.452383041,27.10795593,-114.5896988,-2.618175745,-1.520749688,8.47716713,73.66326141,-17.98929024,18.87953186
5.608108999999786,10.07226276,27.04542351,-114.475174,-3.496030331,-4.012593269,5.006620884,69.57026672,-6.602316856,13.10074139
5.616442000000006,10.67536831,26.86410522,-114.3202209,0.457612932,-3.222571373,15.48532104,65.38376617,-19.69729233,19.99012756
5.624774999999772,11.23812485,26.63472176,-114.2419815,-3.077960968,-1.35915494,9.726007462,64.71791077,-26.70658112,13.22094917
5.633107999999993,11.76316929,26.47931862,-114.1337433,-2.748989344,-5.067316532,8.931248665,58.63710785,-17.23650551,14.87285328
5.641440999999759,12.26678276,26.18871117,-114.056694,-1.198980689,-2.261030912,10.27861309,57.75218582,-33.66114807,15.11655903
5.649773999999979,12.77252865,26.08654785,-113.940033,-4.985012054,-2.412164211,3.186006069,55.93935394,-10.51361179,14.68545341
5.658106999999745,13.23996353,25.84201431,-113.8690872,0.217295453,-2.068872452,23.72178841,53.8024292,-28.14872169,13.83127308
5.666439999999966,13.68523312,25.62640762,-113.7932816,-5.318192005,-5.189206123,6.34926796,50.92032623,-24.53593445,13.76172352
5.674772999999732,14.09924603,25.57234573,-113.7013092,-0.426825792,-2.271420717,5.012896061,46.33456039,-5.178043842,10.97841167
5.6831059999999525,14.43966389,25.30797195,-113.6429596,-1.452477574,-1.694655657,7.381769657,39.27962112,-30.46819305,13.71614742
5.691438999999718,14.72670078,25.23657417,-113.5848541,-3.399774075,-5.598412514,15.24775219,32.89044952,-7.975037575,8.019515991
5.699771999999939,15.04292297,24.90454674,-113.5577087,-2.967668533,-2.120397329,9.727638245,37.99295807,-39.01934052,12.84601116
5.708104999999705,15.34104919,24.99972534,-113.452919,-4.367177963,-1.966932178,1.906301141,31.90665817,12.72949219,7.779716969
5.7164379999999255,15.62315083,24.75009727,-113.4177551,0.007774632,-3.335307121,20.85465431,33.5135994,-29.12719154,11.45383739
5.724770999999691,15.81735039,24.79630089,-113.3388443,-4.548744678,-3.431185246,4.593744755,20.7616291,6.396824837,6.532810688
5.733103999999912,16.05111122,24.60243225,-113.2947464,-1.97527647,-1.012990713,11.08231354,27.27688789,-22.33214569,10.77817726
5.741436999999678,16.25364494,24.69135475,-113.1457901,-4.13731575,-4.334806442,-0.031853914,18.27940559,13.50117016,12.39517021
5.749769999999899,16.41337395,24.47414398,-113.1476974,0.825683355,-1.396790504,19.80039406,20.69089317,-26.33779907,6.894513607
5.7581029999996645,16.55142975,24.49763107,-113.036026,-4.719745159,-3.309109211,6.273042202,12.45013428,4.881357193,10.6643858
5.766435999999885,16.77570343,24.38417053,-112.9932175,-2.614289761,-1.123296857,7.857476234,26.22282028,-12.98349285,8.15301609
5.774768999999651,16.9467411,24.50821304,-112.8586807,-2.523742676,-0.919395268,9.853162766,15.27595234,17.2414875,9.510929108
5.783101999999872,17.10271835,24.34043694,-112.8377609,-0.241706043,-2.866618395,17.21393013,19.11778641,-19.86253357,7.847387791
5.7914349999996375,17.25944138,24.39393806,-112.7465515,-2.103546858,-0.532420516,4.703540802,15.72412014,7.813828945,7.395009995
5.799767999999858,17.43605614,24.3162384,-112.6915283,-2.869300842,-1.100246191,5.708337307,19.90974998,-8.371338844,8.283699989
5.808100999999624,17.5572567,24.36408806,-112.6294327,-1.059221506,-3.917036772,16.57879448,12.90755272,6.238425255,4.520503044
5.816433999999845,17.68791199,24.26108551,-112.6117325,-2.661246777,-2.843978167,6.73822546,16.23920059,-12.47563648,5.353838444
5.824766999999611,17.79567528,24.31261444,-112.5493851,-1.766088843,0.710728467,10.63264656,11.29541874,6.704476357,4.375706673
5.833099999999831,17.97836685,24.25408745,-112.5161591,-3.854523897,-2.69407773,6.89068079,21.71998215,-6.848493576,5.383628368
5.841433000000052,18.09448242,24.32026672,-112.4375381,-0.781308472,-1.593622565,13.10099411,11.49467087,8.951024055,5.483496189
5.849765999999818,18.16612434,24.17750931,-112.485199,-4.639819622,-3.429461241,13.13017654,12.38768864,-19.16159248,0.142056599
5.858099000000038,18.31712914,24.25112152,-112.3915329,-1.917081594,-3.343611002,10.4213047,14.94726849,10.31641769,6.73887682
5.866431999999804,18.43789101,24.20253181,-112.3796539,-2.526134968,-1.190700173,-0.215701655,15.3407259,-6.403086185,2.841899872
5.874765000000025,18.53096199,24.21394348,-112.3031921,-0.326318324,-0.368767083,18.42105103,8.857250214,2.69031477,7.267655373
5.883097999999791,18.54737854,24.12646294,-112.3246002,-3.912539005,-5.769050598,4.489468575,4.456774712,-11.97917747,0.884510934
5.891431000000011,18.6270256,24.10645676,-112.2676926,-1.605492949,0.655090034,13.12075138,8.215101242,-1.54639554,6.441366196
5.899763999999777,18.71168137,24.12664795,-112.2218475,-3.815830231,-1.532222629,4.672415257,9.36231041,2.645079851,3.749616861
5.908096999999998,18.77597809,24.04561996,-112.2230606,0.918599308,-2.077733517,18.26613045,9.208703995,-10.53133297,2.768745661
5.916429999999764,18.82500267,23.99340248,-112.2157364,-5.066023827,-3.372399569,9.260497093,6.961693287,-6.954149723,2.546490669
5.9247629999999845,18.93544388,23.91804504,-112.1993713,1.087580919,2.498774052,7.289186954,13.90679073,-9.23079586,4.39504528
5.93309599999975,18.97774696,23.94953156,-112.1562881,-4.795971394,-3.909678459,5.508878708,4.413691044,3.827919722,3.011209488
5.941428999999971,19.03477287,23.85239601,-112.1575394,1.184623599,-1.765396953,14.41118717,8.362306595,-12.32192135,3.435689211
5.949761999999737,19.04929924,23.85558701,-112.1408539,-5.576390743,-0.32824108,13.60801888,2.390474319,-0.292091936,1.376150489
5.9580949999999575,19.15666199,23.79806137,-112.1119614,-1.687746167,-2.7165277,7.978170395,12.92018032,-6.764374733,5.023003101
5.966427999999723,19.23618889,23.852005,-112.0833969,-2.756251335,-0.343305051,7.829427719,9.594068527,5.862407684,0.601627231
5.974760999999944,19.34014893,23.80932999,-112.0684204,-2.608265638,-2.047500849,10.89662457,13.20908356,-5.543061733,3.015026331
5.98309399999971,19.41360474,23.79932594,-112.0455551,-1.37124002,-2.422768831,16.77332115,9.143590927,-1.579566002,2.53414464
5.991426999999931,19.46749496,23.81094551,-112.0384903,-5.483606815,-3.678165913,6.536324024,7.588089466,0.320869535,0.03844697
5.9997599999996964,19.55040169,23.8423748,-111.9772949,-1.556044579,-0.198690712,10.53452969,8.449753761,4.548730373,4.845932007
6.008092999999917,19.62130547,23.93651009,-111.9480209,-2.841612816,-2.03613019,5.234212399,8.52180481,10.43772411,-0.994101286
6.016425999999683,19.74729729,23.90574265,-111.896965,-2.559359789,-2.907923698,18.01349449,14.07151604,-2.870062828,6.285606384
6.024758999999904,19.78169632,23.9923439,-111.8901215,-2.30220294,-2.142963886,4.064670563,5.263700485,8.781226158,-3.032892227
6.0330919999996695,19.87905121,23.95309448,-111.8496933,-2.36617589,-0.542237878,10.1202755,11.14757347,-4.206383705,5.536210537
6.04142499999989,19.94330406,24.10344696,-111.7970963,-0.792937875,-0.58797884,6.139591217,6.61480093,17.6781311,-0.949737728
6.049757999999656,20.058424,24.08380699,-111.7604599,-2.408249855,-1.11243701,16.06048775,13.49591064,-2.08949399,4.352550507
6.058090999999877,20.10327721,24.16537094,-111.7142944,-0.761646092,-3.169835091,10.50033283,4.554595947,9.646578789,1.156201005
6.0664239999996425,20.18824387,24.0889225,-111.7264633,-2.153945446,-0.357508034,7.046857357,12.22803307,-10.3523159,1.676554441
6.074756999999863,20.28116608,24.16541672,-111.6660156,-0.341862977,-0.275424898,11.32112217,9.663971901,9.657824516,2.812418461
6.083089999999629,20.34606743,24.0213604,-111.7117538,-2.278604269,-3.622009516,8.673846245,11.46432114,-19.23192978,1.070649624
6.09142299999985,20.37629318,24.07060814,-111.6683044,-3.425073385,-1.917461872,14.08598518,2.980523348,5.955155849,2.184176922
6.099755999999616,20.42968941,23.94493103,-111.7119904,-3.318852425,-0.572323024,4.686510086,10.02295494,-17.04593277,0.548016727
6.108088999999836,20.51352692,24.05788612,-111.6445313,-1.63867259,-0.594646871,10.87787628,8.205751419,14.00289536,1.954340816
6.116422000000057,20.59713173,23.95659256,-111.661438,-3.423986197,-3.273415089,11.89276218,12.29260635,-13.31342411,2.301567316
6.124754999999823,20.64813995,23.99085999,-111.629364,-1.844995022,-2.197996616,15.44372654,6.043910027,3.845542192,1.621458054
6.133088000000043,20.7033329,23.80035019,-111.6763458,-3.044002771,-2.75308013,9.719016075,10.34239578,-24.49097633,3.018101931
6.141420999999809,20.74981117,23.84696579,-111.6493912,-0.215418383,-0.914744914,8.822623253,5.761462212,5.040165424,0.565101326
6.14975400000003,20.77525711,23.70013046,-111.6785812,-3.756745815,-1.929128647,3.62133956,5.956976891,-18.85033035,3.03124094
6.158086999999796,20.75890541,23.74015045,-111.6425858,0.938940167,-1.895768881,16.60311317,-2.264438868,4.612534523,1.762387276
6.166420000000016,20.73215675,23.48097801,-111.7545319,-3.731747627,-1.677215576,10.69900894,3.605514288,-34.72652054,-0.725459933
6.174752999999782,20.69236565,23.45835114,-111.7415924,-0.676322162,-2.382036686,10.97265434,-3.897039652,-3.27246213,2.069784164
6.183086000000003,20.72553635,23.26696014,-111.8002701,-4.907806873,-1.887269258,7.575359344,8.270072937,-25.00128555,1.856904984
6.191418999999769,20.70387459,23.23712158,-111.8095779,-0.668221414,0.881312251,9.839205742,-0.72335875,-4.992508888,0.075049706
6.1997519999999895,20.6870575,23.11004829,-111.8429947,-4.124597549,-4.574239731,15.02135086,0.994831443,-16.84964752,1.709750533
6.208084999999755,20.69614601,23.00833893,-111.8699493,-1.056263566,1.113531709,13.62253857,3.8602705,-13.70211887,1.309963226
6.216417999999976,20.64779854,22.94582939,-111.8653641,-4.422149658,-2.728800535,5.519451618,-4.58214283,-8.122004509,2.890822649
6.224750999999742,20.64536285,22.89316368,-111.8781967,-2.235497475,-0.856850028,8.924325943,1.813769937,-7.644813061,0.682260871
6.2330839999999625,20.62172699,22.88997841,-111.809906,-1.910680532,-0.536248088,10.33458805,-4.515392303,1.071750879,6.983336449
6.241416999999728,20.61510658,22.88280678,-111.8153763,-4.95795536,-2.588862658,11.28249359,0.895601749,-2.299863577,-0.494777352
6.249749999999949,20.61851692,22.86630821,-111.7257156,-0.948847234,-3.240614414,15.95860958,-2.334878445,0.356114745,9.743962288
6.258082999999715,20.55032158,22.93167496,-111.7502289,-6.000209808,-1.650750279,5.859769344,-5.526950836,5.160474777,-5.510787964
6.266415999999936,20.58101273,22.93901253,-111.6337051,-1.877414703,-1.496928215,6.922499657,-0.330308378,4.067540646,11.51685143
6.2747489999997015,20.55384254,23.0779953,-111.6406326,-3.233914375,0.075337447,7.253633022,-1.421833754,14.11782646,-6.791603088
6.283081999999922,20.55074501,23.13301277,-111.5251846,-1.400546908,-2.679559469,9.229444504,-4.291627884,9.426733017,9.401554108
6.291414999999688,20.51770782,23.1474247,-111.5743332,-1.145583868,-1.071614027,15.87038326,-0.211996228,-1.56401813,-5.917926311
6.299747999999909,20.50601006,23.1980648,-111.4788895,-1.661519766,-1.663068056,10.47016525,-4.474640369,8.100374222,7.500769615
6.3080809999996745,20.4872303,23.2018261,-111.5288467,-2.785634756,-1.151252151,5.383453846,1.631472826,-2.732206345,-5.531534672
6.316413999999895,20.49531746,23.29225349,-111.4216995,0.051695406,-0.116389595,10.74389553,-2.669631004,13.01982021,7.036768913
6.324746999999661,20.49411201,23.30385971,-111.4363174,-6.04204464,-2.907776833,8.199262619,2.074881315,-0.486529648,-2.208395481
6.333079999999882,20.45990753,23.38628006,-111.3685379,-0.271504313,-0.403445721,14.56295109,-5.800664425,10.65380764,3.329082966
6.341412999999648,20.45185852,23.44051361,-111.3552017,-6.095257759,-3.103950024,10.49856377,-0.167094469,5.330142975,-1.130573988
6.349745999999868,20.48346329,23.47913361,-111.3172073,1.906426191,1.275383234,10.90014172,3.414070606,4.522833824,2.066274643
6.358078999999634,20.55367279,23.59161758,-111.2469101,-6.504088402,-2.322501898,2.247300386,6.588852882,14.12976265,2.304154634
6.366411999999855,20.62533379,23.59083176,-111.2753906,3.17630887,1.880735755,13.80514526,11.40392017,-2.471274853,-3.131891489
6.374744999999621,20.73291206,23.69816589,-111.2123489,-6.974144459,-2.055310965,9.371450424,11.40763378,13.27383614,1.727424145
6.383077999999841,20.83353233,23.67371368,-111.2385788,2.561620712,0.414950877,15.8308363,14.87236977,-4.98718214,-1.857583046
6.391410999999607,20.91650581,23.80409813,-111.2004089,-9.028069496,-2.819892883,8.232876778,9.54947567,14.83212948,-1.889677882
6.399743999999828,21.01854897,23.81187439,-111.215271,2.796105385,-0.987221777,15.7223196,14.40078449,-0.993665755,-2.08969903
6.408077000000048,21.1312542,23.96586037,-111.1683578,-7.251114845,-3.022380352,-0.478129178,12.78199482,17.87100792,-2.047564268
6.416409999999814,21.28750992,23.99571419,-111.1651459,2.469592094,-0.58021903,19.42807579,20.03174591,2.186815977,-1.19960463
6.424743000000035,21.40509415,24.08945847,-111.115036,-5.077372551,-2.338962078,-0.214947611,13.19817448,11.2564621,0.81302166
6.433075999999801,21.44519997,24.10440445,-111.1433563,3.36921978,-1.300219297,17.93932533,7.736676693,-0.685321689,-3.747580051
6.4414090000000215,21.48449326,24.06077194,-111.1266479,-5.403768063,-2.939058304,4.190630913,5.334215641,-5.482842445,3.387636185
6.449741999999787,21.49873352,24.09718513,-111.1851501,1.640050888,0.384577274,16.43363953,6.008203506,0.435493261,-7.7990098
6.458075000000008,21.56759644,23.94226265,-111.1982346,-5.123977661,-2.628483772,0.291595399,10.44200516,-19.03772354,5.285781384
6.466407999999774,21.57662964,24.06820107,-111.2116394,-0.960987449,0.192676693,10.74074936,3.174346685,12.23364067,-7.155272961
6.4747409999999945,21.56861496,23.86646652,-111.2857056,-1.306060433,-1.227908373,15.98193836,4.188980103,-26.71903038,1.142677188
6.48307399999976,21.55113983,23.99287415,-111.3053818,-4.420767307,-3.558463097,5.788256168,0.400734752,12.09852695,-7.787662983
6.491406999999981,21.545084,23.80370903,-111.3771057,0.796448588,0.146560982,20.13155937,4.194896698,-25.28345299,0.78822726
6.499739999999747,21.53820992,23.81313133,-111.4202271,-5.310576439,-2.252390623,-3.628115892,2.699586868,-1.96918416,-5.050320625
6.508072999999968,21.49316788,23.73818016,-111.4471893,0.812783778,-1.360531569,15.04862022,-2.559797287,-10.66759968,0.339337409
6.5164059999997335,21.40328598,23.58699226,-111.5923996,-2.005493879,-1.425147772,5.592396259,-2.356933355,-24.00366211,-8.45230484
6.524738999999954,21.31036758,23.59226227,-111.5968933,-4.41230917,-3.768761635,11.7723856,-9.392011642,-0.809807062,-0.900199652
6.53307199999972,21.15230179,23.37355614,-111.751152,-0.0435078,-1.401950002,14.56639576,-10.0504837,-31.83117867,-6.525039673
6.541404999999941,21.02082634,23.32826042,-111.7930145,-5.63637352,-1.982567787,2.603852272,-12.35191727,-8.011072159,-2.579162359
6.5497379999997065,20.86904907,23.17947197,-111.9205322,1.08956337,-2.460254431,18.03126335,-10.73842812,-22.98093796,-6.979203701
6.558070999999927,20.71847153,23.00299835,-112.0052338,-4.820236206,-0.804845273,0.266194224,-12.54113483,-24.33795929,-1.42949295
6.566403999999693,20.52116966,22.94392014,-112.1028671,-1.944223881,-1.486321211,11.34547043,-17.67033386,-11.7147913,-7.82936573
6.574736999999914,20.34757042,22.67229652,-112.2233353,-2.189432144,-1.730309367,13.14353657,-13.6882,-36.41781616,-1.315331221
6.58306999999968,20.16367531,22.65612793,-112.2991104,-5.292070866,-2.639448881,9.34781456,-17.0222683,-5.946744442,-7.40639782
6.5914029999999,19.97372818,22.39680862,-112.4318466,0.472706705,-1.006515026,16.83503914,-15.25858688,-35.56068802,-3.372643232
6.599735999999666,19.79525375,22.30583382,-112.5157623,-6.761252403,-3.343347788,2.980477333,-16.15302277,-14.71493626,-5.276828766
6.608068999999887,19.62429237,22.13315392,-112.622139,-0.648506105,0.956149936,18.49254799,-14.1467123,-24.71308136,-4.344061852
6.616401999999653,19.44690895,21.94975471,-112.7477646,-5.490756989,-2.947852135,5.080782413,-14.19499874,-26.69621849,-6.040520668
6.624734999999873,19.27223015,21.91220665,-112.8087616,-1.993886113,-1.892726779,15.13051033,-16.68935585,-7.722399712,-5.117789745
6.633067999999639,19.10089493,21.64618301,-112.956665,-3.307522535,0.201123491,5.847570896,-12.43525314,-36.79272842,-5.280752659
6.64140099999986,18.92951202,21.69176483,-112.9880295,-2.68693161,-1.403414011,11.92647648,-17.7415657,2.750278234,-5.321653366
6.649733999999626,18.78030968,21.46489334,-113.1125107,-3.126736879,-0.339531958,8.772681236,-10.97556973,-31.53426743,-4.57935524
6.658066999999846,18.61675262,21.58250046,-113.1075516,-3.510093212,-2.677066803,8.358795166,-18.30971527,12.32088661,-4.206998825
6.666399999999612,18.45896149,21.39079285,-113.2404633,-0.926746368,-0.429101974,12.27427578,-11.65734386,-27.81123161,-6.989529133
6.674732999999833,18.30156326,21.53028488,-113.2027512,-5.366759777,-2.945540667,6.266180515,-19.00826836,15.98782349,-1.487329721
6.6830660000000535,18.13728905,21.36890221,-113.3382034,-1.823892355,-1.352932572,13.5092268,-12.23158836,-24.35619736,-8.520876884
6.691398999999819,17.95673752,21.50677109,-113.3050537,-6.054096699,-1.988518596,4.668922901,-21.68596268,15.59615993,-1.836836576
6.69973200000004,17.7714386,21.36499596,-113.4205093,0.603256881,-0.691092014,16.61428261,-15.73781776,-21.4295845,-7.288188457
6.708064999999806,17.57259178,21.48043633,-113.4039001,-5.572640896,-1.953404427,6.788032532,-23.05719185,12.53269386,-2.640662909
6.7163980000000265,17.403162,21.35872459,-113.4814224,-1.033768892,-1.321008921,13.26812267,-15.49998569,-17.81346512,-4.104003906
6.724730999999792,17.17094612,21.47831535,-113.4741974,-4.052592278,-1.736013055,3.084250212,-26.65051651,12.71086788,-3.699889183
6.733064000000013,16.99671364,21.37863922,-113.5427704,-2.780712366,0.417921335,15.93598366,-16.36884499,-14.91907978,-4.016479969
6.741396999999779,16.82421112,21.50911713,-113.5369034,-2.084513426,-1.158600807,7.145822048,-19.52216721,13.89086342,-4.159177303
6.74973,16.66721153,21.45625877,-113.5771103,-3.697624207,-0.257246405,7.792069435,-15.63791847,-8.648918152,-2.70467186
6.7580629999997655,16.49962234,21.60012817,-113.5727692,-1.262450337,-0.075563915,10.43150425,-18.77274704,15.45123196,-4.665878773
6.766395999999986,16.33541489,21.55010223,-113.6254349,-3.471542835,-1.995641708,5.963528633,-15.94556999,-8.699326515,-4.174954891
6.774728999999752,16.19154167,21.65079498,-113.6051407,-0.854659021,0.544691741,17.12416267,-16.63321114,10.99821949,-1.414252162
6.783061999999973,16.05384064,21.6296711,-113.6496964,-5.913745403,-2.542737722,5.278557777,-13.02682495,-5.049014568,-4.275208473
6.7913949999997385,15.89779854,21.70425224,-113.6569519,-0.60296011,0.230075493,14.43594933,-16.96875572,7.100036621,-3.472612619
6.799727999999959,15.78540421,21.71567154,-113.6928635,-5.11102438,-2.559254885,10.17827797,-10.45910072,-1.054781437,-4.456531048
6.808060999999725,15.69745159,21.73592949,-113.6866531,-0.872772515,0.919724941,9.887693405,-9.303105354,1.291470051,-0.201366335
6.816393999999946,15.58518696,21.73798943,-113.7237244,-6.002463818,-2.847610712,7.870075703,-10.38935184,-2.15796113,-4.276898861
6.8247269999997116,15.49860477,21.73214531,-113.7339096,0.341765463,0.256852984,11.6132555,-8.412727356,-2.216463566,-1.113489151
6.833059999999932,15.37676048,21.74596596,-113.7551651,-5.641120911,-2.361569643,6.379211426,-12.15460968,-0.269986898,-2.933124781
6.841392999999698,15.3017807,21.719347,-113.7803574,-1.132724285,0.465082288,13.68727493,-6.442428112,-5.104545116,-2.096870899
6.849725999999919,15.19564629,21.73214531,-113.7891006,-4.947659969,-1.76302135,3.185758829,-10.91242123,-0.055211488,-1.575160265
6.858058999999685,15.1127243,21.69825172,-113.8385315,-1.315772295,-0.528517902,13.87085152,-6.235773087,-6.606180668,-4.461679935
6.866391999999905,15.01407433,21.760149,-113.8109741,-4.046741486,-0.582810402,6.051161289,-11.62644291,6.689234734,0.803544164
6.874724999999671,14.97357845,21.70461082,-113.8704224,-1.961660743,-0.580523431,14.21539688,-0.697539806,-9.393241882,-4.884417534
6.883057999999892,14.90943241,21.76428604,-113.8407516,-2.865612745,-0.287504017,4.185266972,-7.500398159,6.530374527,1.145238042
6.891390999999658,14.85543442,21.71540642,-113.8914108,-3.152178049,-0.397776276,11.52263832,-2.7920928,-8.401789665,-4.182740688
6.899723999999878,14.83479023,21.72048378,-113.8566971,-0.897961199,-0.680272341,12.04135132,-2.583772182,0.299123049,3.353646517
6.908056999999644,14.78223038,21.73050499,-113.8964691,-5.656430721,-0.674683094,8.598527908,-3.025156498,-1.212513924,-4.802041531
6.916389999999865,14.78493023,21.68907738,-113.8702011,-0.076090664,-0.777342081,14.14263248,0.59381479,-5.340145111,3.86902976
6.924722999999631,14.7233305,21.75863838,-113.8864365,-4.944828033,-1.64789319,3.268399715,-5.158054352,6.367033482,-4.084254265
6.933055999999851,14.74196625,21.68314362,-113.8565979,-1.316473484,0.459701657,15.59390831,2.42579627,-9.160714149,5.312393188
6.941388999999617,14.69474888,21.81733322,-113.8765717,-3.729900599,-0.393732011,6.403997421,-3.344745636,13.72925663,-6.475932598
6.949721999999838,14.71908474,21.73014069,-113.8547974,-2.267668962,-1.131666064,10.3899498,3.386944771,-10.78509235,4.772572517
6.9580550000000585,14.70707417,21.87166977,-113.8636093,-2.667558432,-0.577584743,10.42429638,0.464053184,14.93102741,-5.470829487
6.966387999999824,14.76046276,21.76624489,-113.8599625,-2.841439486,-0.461916476,7.216585636,7.679866314,-13.41175652,3.377570629
6.974721000000045,14.76800251,21.87625122,-113.8779297,-2.781734943,-0.391929626,8.674625397,3.216815472,11.00677109,-5.508482933
6.983053999999811,14.81711006,21.78322029,-113.8734131,-3.226890326,-1.098159909,8.416959763,7.199547768,-11.91452789,3.126192331
6.9913870000000315,14.86044407,21.83297729,-113.8943481,-2.469174623,-0.222904548,12.06999588,7.570288181,3.893440962,-4.016427994
6.999719999999797,14.94027042,21.78421402,-113.8684845,-4.148139477,-1.106432319,6.257398605,9.862070084,-6.195020676,4.058422089
7.008053000000018,14.995718,21.79645157,-113.892952,-1.475224733,-0.533054233,10.75483894,9.251247406,-0.535529613,-3.223205805
7.016385999999784,15.05640793,21.83193207,-113.8299637,-5.319050789,-0.888248801,7.586947918,5.909435272,4.651264191,5.442308903
7.024719000000005,15.12348175,21.78249168,-113.879158,-0.205560982,-0.749165237,14.30116177,11.74643612,-8.401741028,-3.958515167
7.0330519999997705,15.1751709,21.87039566,-113.8070984,-6.864560604,-1.422091722,0.193689197,4.490790844,11.02895355,4.781282425
7.041384999999991,15.23254108,21.80056,-113.8717422,1.170232534,0.417900562,18.56407738,11.20495129,-11.25590992,-4.98213625
7.049717999999757,15.28693867,21.85670853,-113.8177414,-6.462620735,-1.214832783,3.057243824,5.554242611,6.802655697,3.797439337
7.058050999999978,15.36266804,21.75927925,-113.8849106,1.166589141,0.003148973,17.78748322,13.5858717,-14.50553799,-4.338860512
7.0663839999997435,15.41675949,21.81129837,-113.8431778,-5.975078583,-0.770830572,1.56774652,6.067807674,5.972702026,2.595925808
7.074716999999964,15.46027184,21.71283722,-113.9028778,0.013554325,-1.325318694,13.13666344,9.377295494,-14.41250324,-3.480244875
7.08304999999973,15.52852726,21.75934982,-113.8540421,-4.033959389,0.074344933,11.62654686,7.521082401,5.57883215,3.540092468
7.091382999999951,15.58676815,21.65330505,-113.9075928,-1.045533061,-0.027455356,8.946451187,10.80116749,-15.14192295,-2.570017576
7.099715999999717,15.65469646,21.70778847,-113.8522644,-4.261281013,-1.50824368,11.1186676,7.134795189,6.678195477,3.950227976
7.108048999999937,15.69876003,21.62423325,-113.9054031,-1.489008307,-0.994521379,7.808618069,9.139315605,-12.50760174,-3.210809231
7.116381999999703,15.75737095,21.64301682,-113.8630295,-3.606166363,-1.422044277,16.83679199,6.594846725,2.16921854,3.70725131
7.124714999999924,15.79557419,21.57599068,-113.9168015,-2.3098557,-1.316778541,4.034613132,8.456209183,-10.62328911,-3.799194098
7.13304799999969,15.7774744,21.58611488,-113.8972321,-4.255745888,-2.666906595,11.2119379,-1.540939331,0.509006023,1.556756258
7.14138099999991,15.74409866,21.5507431,-113.9533463,-2.31151557,-0.877427995,9.309771538,-0.094734244,-7.065494537,-5.104903698
7.149713999999676,15.72126865,21.49615669,-113.9675064,-2.870364189,-0.515676022,12.57977581,-0.681607664,-8.01406765,0.024640899
7.158046999999897,15.66678905,21.47050476,-114.0084229,-4.126819134,-1.614340901,4.680338383,-3.242083311,-5.455332756,-3.783721685
7.166379999999663,15.63266754,21.39636993,-114.011116,-2.60480547,-1.875310898,10.75560284,-2.541790485,-9.927809715,1.879496098
7.174712999999883,15.56103039,21.35281754,-114.0341492,-2.649648666,0.837912619,9.953836441,-6.097123623,-6.981020451,-1.284771681
7.183045999999649,15.57213688,21.28321838,-114.0169601,-4.442545414,-0.628859103,10.58133316,2.076904535,-8.78659153,3.877431393
7.19137899999987,15.53754997,21.23614502,-114.0167465,-1.318839192,0.371353865,10.05084896,-2.724112272,-6.716424465,1.304968596
7.199711999999636,15.53098679,21.21290207,-114.0065536,-5.478186607,-1.789088607,6.653402328,0.205323711,-3.662899494,1.614209056
7.208044999999856,15.53040791,21.1465416,-114.0204086,-0.26706925,0.944719672,12.64047241,2.022116184,-9.342549324,0.424632818
7.216377999999622,15.53391266,21.17373466,-113.9923782,-5.014564037,-1.264557719,7.628134251,0.643403947,2.702096701,1.916380167
7.224710999999843,15.54489803,21.15557289,-114.0127106,-2.53557229,0.112961918,10.05318165,3.689577818,-3.966813087,-1.82284987
7.233043999999609,15.57445717,21.17015266,-113.9779205,-1.937687993,-0.291289419,12.1115427,3.532280207,1.47228086,3.065460443
7.241376999999829,15.59260845,21.20807648,-113.9888306,-4.743790627,-2.139245272,6.636754513,4.086008549,2.775865793,-2.629851818
7.24971000000005,15.60916996,21.22750473,-113.9519119,-2.414629698,1.140764356,10.33455563,1.819942594,2.073651552,3.11958313
7.258042999999816,15.57754898,21.30152321,-113.9634399,-2.949213505,-2.588341951,10.52978325,-1.800949931,6.950706005,-3.845913887
7.266376000000037,15.60147572,21.34919739,-113.9105835,-3.875614643,-0.857980192,7.235969067,2.001240492,5.817044258,3.921283484
7.2747089999998025,15.54892445,21.42313194,-113.920372,-2.770081043,0.0707931,8.965893745,-4.389550686,6.993736744,-3.648632765
7.283042000000023,15.50208569,21.49848938,-113.8815002,-2.291212559,-1.300597906,8.521900177,-5.838675976,8.613633156,1.549072266
7.291374999999789,15.4794035,21.55845833,-113.8858643,-4.2902565,-0.255701721,6.624146461,-1.094278574,5.523761272,-2.623499632
7.29970800000001,15.41786289,21.6238842,-113.8496857,-0.920462251,0.828002155,9.734463692,-7.545865059,7.361660957,1.566874266
7.3080409999997755,15.38240433,21.68730164,-113.8638,-4.778459549,-0.778875887,7.523210526,-2.142207861,5.65782547,-3.75254941
7.316373999999996,15.34627438,21.69293594,-113.8456726,0.661049545,0.606475472,10.62174606,-3.704624653,-0.09432441,1.538313866
7.324706999999762,15.29426765,21.73659515,-113.8443375,-6.02986145,-0.749196529,6.996575356,-4.812979221,3.831274748,-1.455669641
7.333039999999983,15.25696754,21.69656754,-113.8427658,0.995773792,0.810121775,11.2060461,-3.061246872,-5.848049641,1.220466971
7.341372999999749,15.21472168,21.68853378,-113.8343506,-4.828497887,-0.724974573,10.76904106,-4.006771088,-1.964240551,0.92585212
7.349705999999969,15.17901611,21.6394558,-113.8441467,-1.82866776,0.794553041,7.543381691,-2.414871931,-7.250302315,0.257756114
7.358038999999735,15.13988304,21.59559631,-113.8356628,-3.732683897,-0.865623415,10.69511509,-3.586338997,-6.093101978,2.072422266
7.366371999999956,15.08548737,21.59730721,-113.8580017,-1.996694684,0.056961533,8.33425045,-4.106742859,-1.732866883,-2.6901474
7.374704999999722,15.0959959,21.4910717,-113.8516769,-3.756099701,-0.39617011,11.92556572,2.467317343,-13.38726997,3.784503698
7.383037999999942,15.03115177,21.525877,-113.8926239,-2.276217937,1.016343474,6.260834217,-4.494337559,1.581653476,-5.719005585
7.391370999999708,15.03320599,21.43563461,-113.8805923,-4.217630386,-1.280273914,10.21160221,1.15251267,-11.39089489,3.876535892
7.399703999999929,15.01020527,21.43243408,-113.9262085,-1.430454016,0.886465847,9.043204308,0.676062167,-2.972314119,-5.054162502
7.408036999999695,15.01931286,21.37622833,-113.9033737,-4.33805418,-0.336019129,11.69305229,1.574583769,-7.115109444,3.998254061
7.416369999999915,15.03679276,21.37893677,-113.9637756,-2.365309238,0.770337999,5.79138279,6.177846909,-2.717017412,-6.836349964
7.424702999999681,15.08146095,21.30293274,-113.899559,-2.819436312,-0.048198942,10.64698982,4.039262295,-8.204790115,9.08283329
7.433035999999902,15.10903645,21.33922195,-113.9521713,-3.724805593,0.803102374,10.39887524,7.086715698,1.408424377,-7.028942585
7.441368999999668,15.20023823,21.24912262,-113.8838272,-3.054403067,-0.543477058,4.593259811,9.402730942,-9.718823433,9.969573975
7.449701999999888,15.24964905,21.25664711,-113.9295807,-1.858175159,1.62768507,14.17516327,9.355343819,-1.753844976,-5.40610218
7.458034999999654,15.34700871,21.22226143,-113.8259125,-4.570355892,-1.303201675,3.465951681,8.657869339,-2.182628155,12.05618858
7.466367999999875,15.41786003,21.21008873,-113.9064865,-2.722280264,0.861238539,12.82848454,13.43694878,-5.08041811,-8.534472466
7.474700999999641,15.54749966,21.190382,-113.7894669,-2.547571898,0.590024233,9.829493523,11.96125984,-0.049448289,13.03249931
7.483033999999861,15.64177704,21.20686722,-113.8588867,-4.564680099,-1.242111802,6.306701183,15.80547333,-1.446961284,-8.232711792
7.491366999999627,15.77700996,21.18789673,-113.7547913,-1.913918138,0.87789315,9.807620049,13.1487875,-0.319115013,11.59510517
7.499699999999848,15.83819485,21.23097992,-113.8311234,-3.940205574,-1.502715468,8.044485092,12.09169006,1.368492126,-9.857269287
7.508032999999614,16.01172829,21.21269035,-113.7214508,-2.67495656,0.671814144,11.11689091,17.54091644,-0.008260595,12.18507957
7.5163659999998345,16.07753754,21.28507614,-113.7890244,-4.087836742,-0.744211137,7.254603863,12.27050114,4.979254723,-9.896330833
7.524699000000055,16.20614433,21.30144119,-113.7011185,-1.59136045,-0.398640305,9.576453209,13.08395863,3.354389429,8.678207397
7.533031999999821,16.30252075,21.32906151,-113.7559357,-4.513792038,-0.301612139,8.520964622,15.43431854,0.202762306,-7.02220726
7.541365000000042,16.39556503,21.38538742,-113.6668625,-2.001567841,-0.728616297,9.317631721,8.709686279,8.006422043,7.416807652
7.5496979999998075,16.47669792,21.42905045,-113.7145157,-4.397492886,-0.590089083,9.008263588,13.25849438,2.238530636,-6.820162773
7.558031000000028,16.54938507,21.45237541,-113.6487808,-1.022332072,0.374518424,10.43287468,7.317681313,3.507997751,6.03041172
7.566363999999794,16.61127663,21.50905418,-113.684082,-5.031411171,-1.417324305,8.882415771,10.41431427,4.11254549,-5.951173782
7.574697000000015,16.66769028,21.50271225,-113.6482544,-0.544700325,1.017146707,8.123167038,6.674712181,-0.84950906,3.834605217
7.583029999999781,16.69262314,21.56017685,-113.6858978,-4.449498653,-1.274062872,12.37216377,6.126489162,4.13557148,-6.221479416
7.591363000000001,16.76689148,21.49586296,-113.6746979,-1.377269268,0.513159454,7.504762173,9.856282234,-8.312678337,3.187000513
7.599695999999767,16.79300308,21.54304886,-113.704277,-3.989214182,-1.46069634,11.91731071,5.869117737,3.18774271,-5.027420998
7.608028999999988,16.84796906,21.48681259,-113.7083206,-2.257526875,1.077648401,6.285804272,8.256877899,-7.856975079,1.301638722
7.616361999999754,16.86527824,21.48855209,-113.7359695,-3.6750772,-1.279368758,12.21624947,4.726979733,-1.975690246,-3.246591806
7.624694999999974,16.91311455,21.46769142,-113.7419662,-2.710161686,0.133577555,5.806352139,7.484223366,-3.855954409,-0.131721213
7.63302799999974,16.92254257,21.43524933,-113.7632599,-4.302575111,0.062962808,9.018154144,3.542499781,-5.680660725,-1.355902314
7.641360999999961,16.93271446,21.4591198,-113.7865829,-1.460693002,-0.196468145,11.71753693,3.681738853,0.701266527,-3.559469223
7.649693999999727,16.98111916,21.38909531,-113.7972565,-5.000017643,-0.645278752,5.193269253,7.710807323,-9.666954994,1.080101132
7.658026999999947,16.97947884,21.42054558,-113.838913,-1.188016295,0.733534694,11.46790123,3.107339859,0.985891819,-5.769081593
7.666359999999713,17.0058136,21.36166,-113.8227386,-4.938857555,-1.526661158,3.965323448,3.887063265,-7.510645866,3.562659025
7.674692999999934,16.97388077,21.35866165,-113.8876038,-0.334528476,1.016294241,13.63000107,0.482111216,-3.726884604,-7.045055866
7.6830259999997,16.99877739,21.32953072,-113.8283539,-6.62822485,-1.726291299,5.085504055,1.879419208,-2.674830914,7.136203766
7.69135899999992,16.94281769,21.32239914,-113.9057922,-1.259098172,0.11818625,9.92827034,-1.901152492,-4.62545681,-8.260680199
