time,Euler_X,Euler_Y,Euler_Z,Acc_X,Acc_Y,Acc_Z,Gyr_X,Gyr_Y,Gyr_Z
0.0,-1.067353129,8.317347527,-136.2376404,-1.868614793,1.603631854,5.353569508,0.288365722,51.62912369,-4.013772488
0.008332999999993262,-1.042910099,8.827719688,-136.2663574,-1.186766505,-3.046524048,10.43561459,2.425061226,60.74638367,-1.714020729
0.016665999999986525,-0.979811549,9.391192436,-136.2235107,-1.271755934,1.633334637,-1.091835499,5.911968708,67.00029755,5.703288555
0.024998999999979787,-0.999814212,9.931585312,-136.2819672,-3.61026597,0.330047607,9.018349648,-2.073851109,64.42241669,-6.361868858
0.03333199999997305,-0.997419775,10.53477955,-136.22995,-0.000801535,-3.437977791,5.172342777,-1.667532682,71.74866486,6.836880207
0.04166499999996631,-0.950023055,11.16682339,-136.250824,-0.812721431,3.634380341,1.720252514,5.311368465,75.3411026,-1.736513019
0.049997999999959575,-0.926265955,11.77785587,-136.2515869,-0.116271317,-1.572062492,0.285656333,2.022202015,72.79983521,0.543613434
0.05833099999995284,-0.969340265,12.31429958,-136.2241516,0.646931171,0.615980625,6.632815361,-6.704974174,63.7750473,3.714027166
0.0666639999999461,-0.990297616,12.9752512,-136.2714081,-3.121044159,-3.298907042,10.54720592,-2.119807243,78.88152313,-4.742975235
0.07499699999993936,-0.906912625,13.63080406,-136.2311554,2.348452806,-0.598872721,1.327515006,8.048522949,78.04307556,5.433807373
0.08332999999993262,-0.858273923,14.23542786,-136.2694092,-2.775904894,5.034257412,-0.811218202,6.096343994,72.09869385,-3.902359486
0.09166299999992589,-0.906117558,14.80358315,-136.2604828,0.811385393,-5.101583958,2.279328108,-6.860660553,67.61952972,1.514447927
0.09999599999991915,-0.930752456,15.39839172,-136.2441254,-0.943938673,0.886438906,6.042645931,-4.313519955,70.82054138,2.473448992
0.10832899999991241,-0.903054953,15.9948864,-136.2891693,1.721076131,2.135804176,3.292285204,3.937821865,71.12098694,-4.627603531
0.11666199999990567,-0.821754158,16.54302597,-136.2424469,-1.755073667,-2.816067219,0.498253673,7.339787006,65.17220306,5.806563854
0.12499500000001262,-0.886638165,17.1165123,-136.2766876,-1.994867206,2.981532574,-2.022496223,-7.443028927,68.33668518,-3.478184462
0.1333280000000059,-0.89430666,17.60472679,-136.2959137,4.59859848,-0.185389861,9.016654015,-1.077837467,58.09677124,-1.857613802
0.14166099999999915,-0.783577502,18.12915993,-136.2609558,-3.93324399,-3.847252131,3.592758656,11.15222073,62.33617401,4.342652321
0.1499939999999924,-0.851308465,18.63716698,-136.30896,3.105159044,2.695322752,-4.151436329,-7.15637064,60.51647949,-5.162808418
0.15832699999998567,-0.862366438,19.04574394,-136.2633972,0.109084733,-0.529800177,8.314401627,-3.943101645,48.41640472,5.341526508
0.16665999999997894,-0.787224591,19.4875679,-136.2661133,-2.313811064,-1.054059029,1.401343822,8.279771805,52.49986649,-0.111409396
0.1749929999999722,-0.844923735,19.90565491,-136.3005676,4.238140583,1.178709626,-2.360207081,-6.380058765,49.69250488,-3.743605375
0.18332599999996546,-0.787091732,20.26753616,-136.2355804,-2.000053883,-0.526971042,9.503403664,3.416777849,42.7996254,7.373312473
0.19165899999995872,-0.752107918,20.62960243,-136.276413,-0.013360851,-0.335487783,-2.193767309,5.061548233,42.97900391,-4.574249268
0.19999199999995199,-0.832654834,20.94203186,-136.2556305,3.277482033,-0.707145333,1.792072296,-11.39806747,36.93801498,2.284344196
0.20832499999994525,-0.74581331,21.25119781,-136.2461243,-3.567565441,1.130723238,9.564907074,9.164568901,36.55698395,1.003298163
0.2166579999999385,-0.714663148,21.56557465,-136.2948761,1.479900956,0.169764698,-4.32318449,5.028605938,37.27297592,-5.532221317
0.22499099999993177,-0.770338714,21.81880379,-136.2650299,1.868330956,-1.752614856,5.342288494,-8.854029655,29.81669998,3.153768301
0.23332399999992504,-0.682119191,22.04194641,-136.3020477,-1.771984458,2.012921095,10.25615406,11.39894485,26.31048584,-4.345201969
0.2416569999999183,-0.676123381,22.25865364,-136.3005829,2.213012457,-3.49326539,-2.746259212,-0.194232866,25.4803772,-0.096949942
0.24998999999991156,-0.747061133,22.49723244,-136.2899475,-3.586537361,0.690710008,6.444311619,-9.844786644,28.09490585,0.968077838
0.2583229999999048,-0.685134232,22.66589355,-136.3342285,3.096742392,2.910067081,7.128669739,8.623944283,19.7774353,-5.217647076
0.2666560000000118,-0.63682574,22.8280983,-136.2948914,-1.441688538,-4.446462631,0.457492679,3.126999617,18.89448929,4.011485577
0.27498900000000503,-0.722892046,22.97958374,-136.3254242,1.117051601,3.557506323,4.376725197,-9.747322083,17.69956017,-3.728409529
0.2833219999999983,-0.717896521,23.07214165,-136.3197021,0.054651227,-2.277358055,10.22774601,-0.51594758,10.58002472,0.206181794
0.29165499999999156,-0.722666562,23.19228745,-136.322052,-1.748309493,-1.972719789,4.594655037,-1.307658195,13.90480518,-0.64422375
0.2999879999999848,-0.697217226,23.35538483,-136.3641815,1.742581964,1.244380355,6.699219227,4.205180168,19.11010933,-4.96624279
0.3083209999999781,-0.613817155,23.5014801,-136.3393097,-4.283545017,1.411347151,4.972408772,7.97623682,16.9889164,2.371430635
0.31665399999997135,-0.761023343,23.52706909,-136.3897552,1.974310279,-0.836568296,2.740587473,-16.0966835,2.618428946,-6.079412937
0.3249869999999646,-0.761234641,23.65623283,-136.4001312,-0.265028626,-2.505119801,13.06144142,-0.374685079,15.0043478,-1.501737237
0.33331999999995787,-0.603361249,23.7778492,-136.3816223,-0.441240549,3.006428957,7.501673698,17.20653343,14.05014229,1.641219735
0.34165299999995113,-0.715021431,23.79238319,-136.4453583,-2.244176865,-0.747443557,-2.472886801,-11.16329861,1.321118236,-7.544929504
0.3499859999999444,-0.673957527,23.86351013,-136.3851929,3.688610077,-0.96080482,12.3464489,1.165204406,7.935688019,6.142152786
0.35831899999993766,-0.686556458,23.86746407,-136.4454803,-5.677395344,0.530085206,13.00215912,0.569391727,0.052240234,-7.176955223
0.3666519999999309,-0.644468784,23.947855,-136.4272919,4.80674839,-2.487529039,-5.265015125,3.319976568,9.104797363,1.542758346
0.3749849999999242,-0.678460777,23.99388313,-136.445694,-6.138257027,3.776443481,19.10520744,-4.028939724,5.047502518,-2.515522718
0.38331799999991745,-0.736000657,23.94629288,-136.4588623,4.011340141,-5.124223709,-4.337001324,-7.108435631,-6.211195469,-2.082052708
0.3916509999999107,-0.69207108,24.08178139,-136.4415131,-5.621165752,4.580301285,24.25868607,3.57773304,15.73770905,1.54391098
0.39998399999990397,-0.777646959,24.04321671,-136.4621582,2.267051458,-6.06425333,-9.019269943,-10.10566139,-5.11677599,-2.887211084
0.4083170000000109,-0.75410372,24.08905792,-136.4401398,-3.370191336,5.00603056,29.26221466,0.902094901,4.974348068,1.927919269
0.4166500000000042,-0.784040272,24.06711769,-136.4649353,2.86252737,-2.596951723,-3.661968946,-3.223705053,-3.115382433,-3.321858644
0.42498299999999745,-0.837868333,24.04619789,-136.4196625,-2.372577906,-2.128988266,26.21970749,-9.522323608,-3.06740737,4.367650509
0.4333159999999907,-0.876178205,23.98742676,-136.4649811,-1.968061805,2.051800251,3.54103446,-3.230185747,-7.495698929,-5.639614105
0.44164899999998397,-0.988724411,23.9132309,-136.483551,1.817522287,-2.709814787,18.23202133,-13.44832325,-9.350837708,-2.744719744
0.44998199999997723,-0.971349359,23.76535606,-136.4524078,-0.852459133,1.610116601,11.85585213,-0.271280438,-18.31894875,2.546478271
0.4583149999999705,-0.993484199,23.67108917,-136.5099792,-1.293361902,-0.492062926,20.92703629,-0.723269284,-11.67440796,-7.079750061
0.46664799999996376,-1.084183574,23.49334145,-136.492218,-0.100421481,-1.302511454,7.597651482,-12.58435726,-21.8810482,1.00112009
0.474980999999957,-1.025186062,23.30518723,-136.5419617,-2.447180986,4.825057983,22.97869682,8.605171204,-22.93984032,-6.448002815
0.4833139999999503,-1.058626771,23.20421982,-136.572937,0.209123522,-3.456828833,9.691515923,-3.390659094,-12.57136536,-4.199633121
0.49164699999994355,-1.07548058,22.96731377,-136.5826416,-2.69074297,2.285050154,8.380442619,-2.414297104,-28.8613224,-2.162150383
0.4999799999999368,-1.024947286,22.85099602,-136.6404266,-2.398854733,0.219848529,28.01993942,7.917708397,-14.35862732,-7.207309723
0.5083129999999301,-1.044280767,22.70277786,-136.6516266,-2.176376581,-2.209605932,11.77690601,-2.649818659,-18.21195602,-2.117298603
0.5166459999999233,-1.049182057,22.59049034,-136.7179718,-0.937794387,1.835083246,10.24585152,1.6318959,-13.85807228,-8.160286903
0.5249789999999166,-0.951063514,22.53752327,-136.7416382,-4.840740681,-1.104313016,23.80473137,12.01503849,-6.757548809,-3.291147709
0.5333119999999099,-0.881139815,22.56662369,-136.7895203,-2.165937901,0.39495638,17.46911049,9.748638153,3.057635784,-5.815354824
0.5416449999999031,-0.849733293,22.55362701,-136.8163605,-0.73215723,-0.214709803,7.631402493,4.153642654,-1.956799507,-3.55499959
0.5499780000000101,-0.783209443,22.57539368,-136.8049316,-4.523273945,0.059237219,21.4088707,6.610918999,2.074535608,0.736780703
0.5583110000000033,-0.796254039,22.58419228,-136.8422394,-0.395226955,-0.898171067,12.65988922,-0.697450042,0.673385501,-4.673829556
0.5666439999999966,-0.779957473,22.63424301,-136.8479156,-1.330796361,-0.311070442,20.49015617,1.371962547,5.494983673,-1.111042976
0.5749769999999899,-0.709883332,22.67250633,-136.8456268,-1.681036115,-1.198197484,18.07095146,7.452474117,4.154641628,-0.244974524
0.5833099999999831,-0.697517991,22.71976662,-136.8636322,0.9564569,-1.439224005,14.48125267,1.472165465,5.175881386,-2.488064528
0.5916429999999764,-0.724405766,22.75294304,-136.8607635,-3.969736099,-0.940740764,16.32566071,-4.209443092,3.548890591,-0.191082194
0.5999759999999696,-0.790037513,22.70570374,-136.869278,-1.203021407,1.887898326,16.26595879,-8.328418732,-6.174594402,-1.580910802
0.6083089999999629,-0.798339784,22.66254997,-136.8899536,1.787143588,0.212486893,15.07370377,-0.889428675,-5.57260704,-2.924684525
0.6166419999999562,-0.839774907,22.60782051,-136.8653564,-3.942988396,-1.427049637,19.31253052,-6.953958035,-7.125905991,2.065135002
0.6249749999999494,-0.834369242,22.57602692,-136.9019165,0.158541143,-0.292273164,19.74666977,1.483077049,-4.175606728,-4.661483765
0.6333079999999427,-0.820227861,22.51050758,-136.8813629,0.187780157,-1.213911533,17.45460892,-0.092877217,-8.414506912,1.596752882
0.641640999999936,-0.883362472,22.43151093,-136.9019165,-4.367778301,0.053329799,12.14814377,-7.484762192,-9.860279083,-2.975580454
0.6499739999999292,-0.951807499,22.25222206,-136.9049377,3.387808084,0.414169073,17.66415977,-8.92128849,-22.02581787,-1.246158838
0.6583069999999225,-0.972082794,22.11457253,-136.9063263,-3.365345955,-1.518490911,17.20743752,-3.220529795,-16.92640305,-0.987582743
0.6666399999999157,-0.980561793,21.93141937,-136.9273987,0.779959261,0.871367574,19.91616631,-0.915299594,-22.4543705,-3.285462856
0.674972999999909,-0.889667511,21.78252792,-136.9122162,-1.674933672,1.651358008,17.47890472,9.379922867,-18.30181122,0.840313673
0.6833059999999023,-0.912216187,21.55133057,-136.9307556,-3.429728746,-1.020014286,13.12995815,-2.73014617,-28.22864532,-3.068228483
0.6916390000000092,-0.961483181,21.29489517,-136.9200745,0.154482037,0.984642386,18.49961472,-7.232518196,-31.19811249,0.137638181
0.6999720000000025,-0.977538288,21.01536369,-136.9248962,-2.521405458,-1.346263409,19.51135254,-2.56332159,-34.05011368,-1.671586633
0.7083049999999957,-0.983510852,20.76112556,-136.9326935,-0.311258048,-2.424267054,18.18754196,-1.2346071,-30.89665794,-1.949398518
0.716637999999989,-0.914435208,20.48260307,-136.9181519,-0.091768622,3.188937426,17.31608009,6.830542088,-33.96615219,0.509582937
0.7249709999999823,-0.918136239,20.13969803,-136.9347534,-3.4909091,-0.707516789,12.8263464,-0.60534209,-41.51891708,-3.075275183
0.7333039999999755,-0.969891131,19.75569344,-136.9205017,2.34561491,0.084138557,18.57478333,-7.637770176,-46.62284088,0.279490262
0.7416369999999688,-0.976084709,19.34150124,-136.9191742,-3.191981077,-0.505395293,18.27017593,-1.646729827,-50.10504532,-1.245738149
0.7499699999999621,-0.947490811,18.96121788,-136.9338989,0.78582406,-3.031541824,20.03788948,3.164362669,-46.11914063,-3.001187086
0.7583029999999553,-0.914114654,18.52743149,-136.9253387,-0.899708271,0.916646361,14.86953068,2.827306271,-52.46862411,-0.429795116
0.7666359999999486,-0.926296592,18.09461212,-136.9684143,-3.338063478,-0.991547704,16.12174416,-0.684196353,-52.37408066,-6.307277203
0.7749689999999418,-1.00100708,17.57242775,-136.9804688,0.818367243,-1.01996541,16.83909225,-9.371524811,-63.03742218,-2.985977173
0.7833019999999351,-1.033159971,17.11905289,-137.0288391,-2.80173111,-0.597712278,18.87620735,-2.973577261,-54.81881714,-7.070430279
0.7916349999999284,-1.016036034,16.63737869,-137.0769348,-0.420691103,-0.68245399,19.85185814,2.882557869,-58.10172272,-7.110341072
0.7999679999999216,-0.959733248,16.20965195,-137.1252594,-3.839308262,2.366377831,12.97570324,7.548764229,-51.74271774,-7.010851383
0.8083009999999149,-0.996533334,15.70807457,-137.1855316,-1.89814651,1.997243524,16.51217651,-3.278030396,-60.4729538,-8.537085533
0.8166339999999082,-1.027311921,15.22856426,-137.2429504,-2.546900749,-0.559436977,17.90529823,-2.701195478,-57.9358902,-8.223922729
0.8249669999999014,-1.008688331,14.7600317,-137.294632,-1.579425693,-1.741134644,20.62683868,2.988651752,-56.5222702,-7.543093681
0.8333000000000084,-0.98229146,14.35567665,-137.3604736,-2.184497595,-0.079808839,18.12540817,4.308938026,-48.90355682,-9.058095932
0.8416330000000016,-0.976685286,13.90511703,-137.3881378,-1.49868834,-1.346736193,13.11871052,0.633083105,-54.41995621,-4.697164059
0.8499659999999949,-1.068187475,13.41382599,-137.4480438,-4.186134338,0.245206922,16.07591629,-10.12955475,-59.34068298,-8.602352142
0.8582989999999882,-1.139462948,12.93174267,-137.4686127,2.796770573,-1.515777707,14.66545391,-8.840356827,-58.21406555,-4.068692684
0.8666319999999814,-1.135692358,12.4765892,-137.4946747,-6.195132732,-1.05004859,23.22934723,0.294999957,-55.06795502,-4.702978611
0.8749649999999747,-1.093125105,12.10054684,-137.5175476,1.440193653,0.289381683,10.53918743,4.842968941,-45.48570251,-4.112001419
0.8832979999999679,-1.142952204,11.67919827,-137.5093384,-8.299119949,1.852397323,20.5019474,-7.02829361,-51.09128189,-0.589244008
0.8916309999999612,-1.232396603,11.27596378,-137.5519409,0.537523031,-1.307957768,12.81896591,-10.5663681,-48.70181656,-6.570026398
0.8999639999999545,-1.327179193,10.87020779,-137.5568695,-2.420354366,-1.578352571,20.06182861,-12.10660744,-49.18557739,-2.23339963
0.9082969999999477,-1.334608793,10.56661892,-137.6241608,-2.937176943,-0.028322654,17.53286934,-1.100657821,-36.75740051,-4.753277302
0.916629999999941,-1.305621743,10.26106071,-137.647583,-0.13739866,0.178328708,15.4285078,3.140949488,-37.11342239,-4.174651623
0.9249629999999343,-1.391802549,9.973783493,-137.6999359,-8.149766922,0.761626422,14.86136913,-10.98973656,-34.85441971,-2.451733351
0.9332959999999275,-1.474981904,9.666884422,-137.7258148,3.149545193,-0.800315499,13.81509686,-10.29961109,-37.25875854,-4.545674324
0.9416289999999208,-1.489683509,9.42675972,-137.7510834,-8.566135406,-0.315933228,22.66290474,-2.111446619,-29.16570663,-4.285277367
0.949961999999914,-1.404334664,9.239526749,-137.7601013,3.815206528,0.893194973,12.37820244,9.571378708,-22.95265961,-2.200584173
0.9582949999999073,-1.349201679,9.055616379,-137.8174896,-10.59232235,2.718432426,21.61547279,5.975188732,-22.45599556,-2.332190037
0.9666279999999006,-1.329660296,8.857855797,-137.8378906,4.16361475,-1.370173693,10.09584618,1.880316138,-24.18759727,-3.537263155
0.9749610000000075,-1.395265937,8.666024208,-137.8245087,-5.504276752,-2.072488308,20.1222744,-8.96809864,-23.49619102,0.472070545
0.9832940000000008,-1.373147607,8.553120613,-137.8601837,0.627963305,-1.622576952,17.99806213,2.448516369,-13.96046352,-5.124986172
0.991626999999994,-1.277330875,8.393594742,-137.8562164,-1.72944653,0.564867198,14.01707554,10.57988644,-19.59780312,-0.534530818
0.9999599999999873,-1.261873722,8.291492462,-137.855957,-5.794023037,1.748942971,12.18610954,1.003617287,-12.7686348,-0.805631876
1.0082929999999806,-1.273971438,8.11828804,-137.9232941,1.967204213,-0.023739874,15.86552429,-1.929687738,-21.16022491,-3.547073603
1.0166259999999738,-1.226794362,8.047018051,-137.9171448,-8.059316635,-1.829424739,22.80866814,4.712148666,-9.08502388,-0.021067711
1.024958999999967,-1.185680509,7.990026474,-137.9459076,2.480215788,-0.299367726,13.98194981,4.56558466,-7.223483562,-4.122061253
1.0332919999999604,-1.074414015,7.961337566,-137.9442291,-8.483898163,1.675245881,19.41274071,12.47943687,-3.965199709,-0.43432793
1.0416249999999536,-1.054323435,7.860778809,-137.9537964,2.535576582,-0.688261032,6.821447849,1.718766809,-12.50583172,-1.916367769
1.0499579999999469,-1.036109924,7.805167198,-137.9469147,-3.001852036,0.00762709,21.41051483,1.227126718,-7.205758095,0.131657183
1.0582909999999401,-0.945714831,7.763286114,-137.9491577,-0.628041744,-2.572188377,16.37532997,10.03422356,-5.483354568,-0.923918188
1.0666239999999334,-0.848603189,7.785958767,-137.9471436,-1.788882136,-1.328718543,15.99148273,10.77511501,2.19905901,-0.283203781
1.0749569999999267,-0.831763625,7.755561352,-137.9521637,-6.443356991,1.198454499,14.24167442,1.254021764,-4.105232239,-1.204419613
1.08328999999992,-0.781481564,7.723549843,-137.9502258,2.377883911,0.983320832,12.9076376,5.156964779,-4.363141537,-0.390015155
1.0916229999999132,-0.780503809,7.695612431,-137.9535522,-6.694043159,-0.438213468,17.34061432,-0.678277731,-3.815765142,-1.003322363
1.0999559999999065,-0.68384254,7.742768288,-137.9576263,1.628778696,-0.378041208,18.09885216,10.81901932,5.14669466,-0.977554619
1.1082889999998997,-0.571885943,7.764816284,-137.9311829,-5.588608265,-0.487553537,16.047472,12.15933418,2.138430357,2.612729073
1.1166220000000067,-0.55368346,7.821411133,-137.9432068,-0.627522945,-0.863970995,10.51307011,1.533370495,6.287269592,-1.930019617
1.124955,-0.608787417,7.813747406,-137.8947601,-0.914644659,-1.159974694,14.78471947,-8.250152588,-1.454081655,5.190237522
1.1332879999999932,-0.629030228,7.91337347,-137.9207458,-5.222185612,-2.851692915,13.27080059,-2.849109888,11.46984959,-3.526119471
1.1416209999999865,-0.664691567,7.980392933,-137.9312744,-0.802022994,-0.493067116,9.894022942,-5.675461769,7.535887718,3.510712624
1.1499539999999797,-0.629182756,8.197290421,-137.9190674,-3.633829832,0.666913509,15.32092094,3.208850622,25.49227333,1.180458307
1.158286999999973,-0.744755089,8.361746788,-137.9999237,-2.505256414,-2.895808697,6.04929924,-14.02632523,19.3244648,-5.021148682
1.1666199999999662,-0.778857231,8.691822052,-137.9747009,-5.546300411,1.512547493,10.0965929,-5.387180328,39.04890442,2.956911564
1.1749529999999595,-0.945268333,8.941398621,-138.0346222,-1.695525289,-3.113202095,8.367833138,-20.45727921,29.51124001,-2.382958889
1.1832859999999528,-1.009070635,9.374643326,-138.027832,-2.944129705,-1.763564587,5.326786518,-8.632083893,51.45241547,1.129565001
1.191618999999946,-1.133341432,9.821551323,-138.0886383,-3.353925467,2.22422266,-1.660567999,-15.27463913,53.20082474,-2.386573792
1.1999519999999393,-1.213430643,10.29992104,-138.0609283,-2.783949852,2.359981775,11.66114902,-11.03824329,56.8093605,3.883487701
1.2082849999999326,-1.385102749,10.76159286,-138.0927887,-2.274451971,-3.105447531,-1.362169743,-20.75006676,54.98225021,-3.061691999
1.2166179999999258,-1.467013001,11.34910202,-138.0943909,0.453137517,1.207030654,19.85421753,-10.63836765,69.9679184,1.002519965
1.224950999999919,-1.467456818,11.87946033,-138.1064148,-2.365157843,-1.243497014,-16.0967865,-0.610479116,63.16962051,-0.342322677
1.2332839999999123,-1.63231802,12.46643829,-138.1520844,-3.26071763,3.367866993,22.34271049,-19.4739151,70.0405426,-4.015420914
1.2416169999999056,-1.747899294,12.92978859,-138.146759,1.785199404,-3.062359333,-6.447887897,-14.85730934,55.06594086,1.696563601
1.2499500000000126,-1.732297182,13.50403595,-138.1523895,-0.056693733,0.995505631,6.985378265,1.181948185,68.38219452,0.868351758
1.2582830000000058,-1.772431374,14.07378292,-138.1668549,-2.945909977,-0.194108695,-1.099153638,-5.250619411,67.89596558,-0.147833139
1.266615999999999,-1.860037446,14.52617359,-138.1343689,1.8537637,1.660208702,9.754684448,-12.32177448,53.62347031,4.934647083
1.2749489999999923,-1.944986939,14.98681355,-138.1582642,-3.206887722,-1.07660377,2.731021166,-10.31023121,54.84262848,-1.501318336
1.2832819999999856,-2.015898466,15.40085888,-138.1260223,4.080774307,-1.611244678,3.648237467,-10.3694725,49.010746,4.883851528
1.2916149999999789,-1.99269557,15.81743431,-138.1407928,-2.774139881,0.753402352,3.604997158,2.413865089,49.52225876,-0.51621753
1.2999479999999721,-1.969070792,16.17211723,-138.115921,2.106305122,0.166591078,0.862823069,1.166781306,41.92113876,3.775108337
1.3082809999999654,-1.978261471,16.47049332,-138.1224976,-0.98781544,0.948734105,4.087115288,-1.726823807,35.31212997,-0.083617762
1.3166139999999587,-1.976037741,16.72484779,-138.094986,0.298099846,0.351427883,4.361845493,-1.524035454,29.87851524,3.650466681
1.324946999999952,-1.981727362,16.90858459,-138.1017609,1.380164027,0.205281988,3.091819763,-1.294402957,21.56460571,-0.574002385
1.3332799999999452,-1.99471879,17.06194305,-138.0708618,-0.915598392,-0.235763535,2.276112318,-3.487929821,17.75159264,3.619343758
1.3416129999999384,-1.967038989,17.16133881,-138.0775604,2.247189522,0.527846098,4.193298817,2.710729122,11.44700146,-0.923277974
1.3499459999999317,-1.927668691,17.20829582,-138.047821,-1.565148711,-0.306912929,2.419019222,2.825300932,4.997567177,3.032853127
1.358278999999925,-1.88252306,17.23958206,-138.0296478,1.847941995,0.332750082,3.184806347,3.924280643,3.182261467,1.644229054
1.3666119999999182,-1.831171989,17.19332123,-137.9844513,-1.40127492,0.32084924,3.220988989,3.710453033,-6.234492779,4.435796261
1.3749449999999115,-1.755837202,17.17280006,-137.9294739,0.222258955,-0.856337905,2.871286869,6.244264603,-3.160860777,5.660182953
1.3832779999999048,-1.716173172,17.0744381,-137.8531342,-0.055094395,1.182989001,0.958785534,1.216241002,-12.58172894,7.826047897
1.3916110000000117,-1.625752091,17.01795006,-137.7553558,-0.762552023,-1.521211028,4.766126633,6.564058304,-7.605750561,10.45931721
1.399944000000005,-1.559247851,16.88639832,-137.6631165,1.065446734,1.336842895,0.11558108,3.907094479,-16.59274101,9.581647873
1.4082769999999982,-1.496068358,16.81517792,-137.5478668,-3.554447889,-1.449880481,4.123536587,2.724945307,-9.399722099,12.43891525
1.4166099999999915,-1.44271493,16.74349213,-137.4650574,-0.330348104,-0.132163584,2.29020977,2.68777895,-9.361990929,8.726924896
1.4249429999999847,-1.410056233,16.74915695,-137.3571777,-4.23373127,0.520474553,2.625316381,-0.656684995,-0.132643327,11.84812164
1.433275999999978,-1.366647005,16.72031784,-137.2601318,2.699079037,-2.46220994,3.668846846,1.008227706,-4.248493195,10.50032616
1.4416089999999713,-1.290003657,16.70539665,-137.1600494,-4.535537243,2.391384602,2.719677448,4.898952961,-2.562870741,10.89214516
1.4499419999999645,-1.266590238,16.75667,-137.0657349,-0.346821874,-2.429601192,0.699644208,-1.294556379,5.391464233,10.41070175
1.4582749999999578,-1.274062514,16.83906746,-136.9503174,-2.929974794,-1.843913674,3.002459764,-5.745234966,9.084934235,12.91218948
1.466607999999951,-1.213320613,16.9024353,-136.851181,1.159818649,5.137673855,3.592587709,2.989847422,6.838360786,10.98261547
1.4749409999999443,-1.161828756,17.02869606,-136.7514648,-5.723389149,-5.067831516,1.023243904,1.840972543,14.40439796,11.19816208
1.4832739999999376,-1.190844655,17.18355179,-136.6188965,2.645163536,0.348896325,0.1775475,-9.007314682,17.74872589,15.01911831
1.4916069999999308,-1.154347181,17.31427193,-136.5025787,-3.321003914,4.597481728,5.795717239,-0.606301904,14.90254593,13.08882713
1.4999399999999241,-1.100527883,17.50152588,-136.3960724,-1.44762218,-6.114165306,0.212271854,1.78784883,21.70930481,12.0706377
1.5082729999999174,-1.127373576,17.70039177,-136.232254,-0.116719224,2.367269516,0.879486144,-10.01078129,22.98638916,18.6405201
1.5166059999999106,-1.095739961,17.90186882,-136.1150208,-2.897096395,3.618259668,4.689900398,-1.351856232,23.39593124,13.29576969
1.524938999999904,-1.033112884,18.13378334,-135.9997559,-0.576692402,-5.820528984,1.450719833,2.390271187,27.07234573,13.10399723
1.5332720000000108,-1.054369926,18.38106346,-135.8096924,-1.352433443,3.350437164,-0.65019846,-10.54238319,28.75749016,21.6305027
1.541605000000004,-1.031333447,18.64710045,-135.7211304,-1.297393799,1.149013996,5.681271553,-1.456951618,31.22646713,10.10190392
1.5499379999999974,-0.965993881,18.87640572,-135.5618439,1.267284036,-5.24764967,0.666297495,0.847012281,26.68016815,18.01094627
1.5582709999999906,-0.990753293,19.16563988,-135.3903809,-3.522310972,3.799040556,-0.749732494,-10.52312469,33.86145401,19.47883415
1.566603999999984,-1.003298998,19.44327736,-135.3051605,1.941373706,-0.968108177,3.883020639,-5.731895447,32.62670135,9.664465904
1.5749369999999772,-0.9223032,19.65790367,-135.1088409,0.104577348,-1.669905305,1.785558462,0.989504457,24.8674736,22.07308769
1.5832699999999704,-0.946542561,19.98360634,-135.010498,-6.524550915,2.509352922,-1.177264214,-7.7578578,38.38159943,11.17404652
1.5916029999999637,-0.967876434,20.25095367,-134.9074707,5.722700119,-1.906980872,5.294829369,-7.658061981,31.37157822,11.58712292
1.599935999999957,-0.829811394,20.51363373,-134.7420502,-6.234876156,1.419955254,6.471020222,8.808156967,30.7092514,18.53453064
1.6082689999999502,-0.865899742,20.8338356,-134.6985168,1.741431236,-1.166936278,-5.953831673,-7.020498753,37.83716965,4.894041061
1.6166019999999435,-0.863837898,21.03546906,-134.5376587,3.832716227,-0.375679046,6.281860828,-7.496767044,23.40382004,17.82987595
1.6249349999999367,-0.759167969,21.25193214,-134.4619293,-5.295156956,2.013666153,0.939865112,8.439001083,25.34169197,8.275223732
1.63326799999993,-0.816252887,21.47171402,-134.3831177,3.269174337,-2.054923773,-2.074564695,-11.14190578,25.73407745,8.607337952
1.6416009999999233,-0.723002076,21.66584778,-134.2368011,-2.501944304,2.154476881,10.37783623,3.890677214,22.56331444,16.07924461
1.6499339999999165,-0.588726819,21.83159637,-134.2331085,0.835989296,-0.575521588,-1.144536853,15.1042347,19.36549759,0.073897108
1.6582669999999098,-0.654500425,21.98258209,-134.0892944,2.501958847,-3.057912827,-6.320827007,-15.18019772,17.43305969,15.64677334
1.666599999999903,-0.636428833,22.08255959,-134.0465698,-4.067984104,4.245166779,13.04734612,-0.599616408,11.42405033,4.318816185
1.67493300000001,-0.460054606,22.20383835,-134.0361633,2.428537369,-1.654048443,-0.969629407,19.84572792,14.03283024,0.731991172
1.6832660000000033,-0.498625308,22.25521278,-133.9320526,0.997428179,-1.26828444,-3.672284126,-10.2001791,5.54823637,11.05355644
1.6915989999999965,-0.450597286,22.3237133,-133.979248,-3.136681318,2.277319908,10.09335995,7.063754082,7.753341198,-5.735617161
1.6999319999999898,-0.345482945,22.34605789,-133.915741,4.078010082,-2.518558025,-4.636231422,8.872245789,2.113520384,6.501776695
1.708264999999983,-0.392293543,22.34389496,-133.9178925,-3.535241127,2.120243073,3.452783585,-6.364497185,-0.770322442,-0.80254513
1.7165979999999763,-0.241708815,22.37356186,-133.9647675,-0.895076454,0.844794095,9.782213211,19.36545753,3.070059299,-5.745710373
1.7249309999999696,-0.132003352,22.34296799,-133.8865356,3.885502815,-3.137371063,-6.710671902,8.747890472,-4.211723328,8.108917236
1.7332639999999628,-0.206267521,22.29850769,-133.9562836,-3.999305725,2.629904985,5.682971478,-6.578657627,-5.830594063,-8.321885109
1.741596999999956,-0.013807499,22.19504738,-133.9283905,4.606323242,-0.374033064,8.612475395,20.98171997,-12.93396664,2.511464357
1.7499299999999494,0.090443298,22.10354042,-133.8898773,-4.572598457,-1.607135534,-1.859450817,9.922688484,-11.4970293,3.721531391
1.7582629999999426,0.079860419,22.00007057,-133.9321747,2.024151325,1.700614572,8.443257332,-0.210446611,-12.93560314,-5.241109848
1.7665959999999359,0.291984081,21.79269028,-133.8265076,0.509566844,-0.315552622,8.844031334,19.88300514,-25.36777306,11.28089142
1.7749289999999291,0.245916829,21.53533745,-133.8839417,-1.875376582,-0.609107137,1.282411098,-3.830010653,-31.4237175,-6.820347786
1.7832619999999224,0.189351752,21.2066803,-133.8339691,6.301485538,-2.369367599,12.2632122,-9.819578171,-39.93796921,5.171854496
1.7915949999999157,0.417166919,20.86214638,-133.7910461,-2.397610188,1.195934415,13.9206562,24.64450836,-41.82881165,4.46159935
1.799927999999909,0.361440241,20.40999794,-133.8703003,-1.044319272,-1.228662491,2.929956198,-4.181189537,-54.8381424,-9.097496986
1.8082609999999022,0.34494108,19.91818619,-133.7835846,5.536325932,0.087590158,13.87856007,-6.41160965,-59.46965027,9.574836731
1.8165940000000091,0.384353071,19.29999352,-133.8467407,-4.328493595,-1.888679385,14.58877373,6.426976681,-74.74802399,-7.230665207
1.8249270000000024,0.342845261,18.71502495,-133.8311462,2.790292501,-1.229826808,9.798239708,-6.436308861,-70.69555664,1.651894689
1.8332599999999957,0.267417014,18.14447784,-133.8166199,-6.054540157,0.980795264,16.47081947,-10.45012856,-68.97592926,1.455381274
1.841592999999989,0.271921873,17.46856689,-133.8862915,1.474905014,0.141587645,16.61989212,2.253118038,-81.65879822,-8.146079063
1.8499259999999822,0.281795353,16.90793228,-133.8140564,-3.383396864,-2.386735678,10.98550892,-2.223311901,-67.75665283,8.04615593
1.8582589999999755,0.10888616,16.29496002,-133.8777618,-3.684891701,1.683398128,12.81119919,-19.41078377,-74.09214783,-7.643134594
1.8665919999999687,0.167948842,15.80389977,-133.8536987,0.433511734,-1.345153332,18.58646393,5.444630146,-59.44210434,2.351547956
1.874924999999962,-0.021380717,15.25673866,-133.8592834,-5.366641521,0.730943382,2.871889591,-23.38616753,-66.1692276,-1.123432398
1.8832579999999552,-0.049097061,14.82166481,-133.8887177,-2.95467186,0.630459011,30.16449738,-3.256614447,-52.72673416,-4.008957386
1.8915909999999485,-0.176488832,14.33407593,-133.846405,-4.358009338,-2.486590385,9.089074135,-17.40986252,-59.03185654,4.233637333
1.8999239999999418,-0.321062356,13.87521458,-133.9113617,-1.260002732,2.700666428,15.30365562,-16.29553032,-55.5506134,-8.363393784
1.908256999999935,-0.425245196,13.59692478,-133.8990784,-1.373262286,-2.855132103,18.65248489,-13.69921398,-33.91309738,0.658594012
1.9165899999999283,-0.457020134,13.16138554,-133.9604797,-5.41949892,2.777023554,15.54658699,-2.953213453,-52.72855377,-8.135267258
1.9249229999999216,-0.475905001,12.95900345,-133.9970856,-1.450224042,-1.447279572,22.83981514,-2.11907959,-24.76066971,-5.032111645
1.9332559999999148,-0.599935532,12.66642189,-134.003418,-3.175059795,1.454363942,6.117666245,-15.5613718,-35.62095261,-1.633998275
1.941588999999908,-0.574505508,12.38024235,-134.1006775,-3.610033989,1.936231613,19.53030586,4.736308098,-34.73259354,-12.29995632
1.9499219999999013,-0.682177603,12.29237652,-134.0946655,-1.576748729,-3.014693737,17.73467064,-13.9221468,-11.06920719,0.026177755
1.9582550000000083,-0.713811755,12.04255295,-134.1577148,-4.744004726,1.214960217,16.04874229,-3.046623945,-30.39719772,-8.330051422
1.9665880000000016,-0.603340566,12.02783775,-134.1913605,-1.379484415,-0.57030493,19.03883553,13.25216675,-2.237519026,-4.531811714
1.9749209999999948,-0.707492769,11.96520901,-134.2434387,-6.888305664,1.521894336,16.13112068,-12.04513359,-7.954975605,-6.76132679
1.983253999999988,-0.658538699,11.90684986,-134.3122711,0.291582733,1.339012146,15.42855644,6.736544132,-7.424427509,-8.728039742
1.9915869999999813,-0.636225402,11.86271,-134.3158875,-3.326399326,-0.825564146,14.01690388,1.921118975,-5.801252365,-1.051246643
1.9999199999999746,-0.678154528,11.88742924,-134.4139252,-5.30600214,-0.343966722,25.74770355,-3.456680059,2.580327272,-12.04359722
2.008252999999968,-0.488242626,11.92846489,-134.4312286,3.348707438,-0.196878761,14.31159878,22.37319946,4.433774948,-2.538435936
2.016585999999961,-0.451068908,11.9896574,-134.4608612,-8.188274384,0.367021114,16.0053978,4.351372242,6.854191303,-3.984333277
2.0249189999999544,-0.533505499,11.9634943,-134.5454712,1.401110768,0.702884972,11.54523468,-8.632089615,-3.565079927,-10.52203751
2.0332519999999477,-0.408137918,11.96780968,-134.5797882,-4.329465389,1.259164572,26.82034492,15.0522604,0.032811843,-4.588675976
2.041584999999941,-0.292944461,12.0491209,-134.6650238,0.120885968,-1.493600011,18.91588783,15.10594845,9.309343338,-10.51404476
2.049917999999934,-0.227225035,12.12361622,-134.7130585,-2.508723021,-1.742459178,12.93667889,8.247733116,8.44724369,-6.159545422
2.0582509999999274,-0.179476127,12.11353493,-134.7743988,-3.20419383,2.615143061,13.46166515,6.429378986,-1.693933606,-7.769758701
2.0665839999999207,-0.176957682,12.09242535,-134.8529053,-0.478606045,-0.384255439,14.50490475,1.430529714,-3.022723436,-9.785087585
2.074916999999914,-0.070345476,12.10519409,-134.8769684,-2.212917805,-1.496353745,25.43934822,12.55230999,1.02948761,-3.38145113
2.0832499999999072,0.055442002,12.18744755,-134.9782562,-2.709653854,-0.015170557,20.65386963,16.80630112,9.354834557,-12.44505215
2.0915829999999005,0.12217661,12.20648861,-135.0106049,0.120368093,-1.49040544,7.463258266,7.982882023,1.769380212,-4.360401154
2.0999160000000074,0.092354961,12.14376163,-135.0944519,-3.319067717,1.828549981,15.66773987,-2.302681446,-8.064195633,-10.38551044
2.1082490000000007,0.132580057,12.10787201,-135.1753082,-1.469067335,-1.064879417,21.33535004,6.01906395,-4.835007668,-10.0353384
2.116581999999994,0.241178736,12.12499237,-135.2082367,-1.466851592,-0.233480901,20.47614098,13.01546764,1.523893833,-4.435759068
2.1249149999999872,0.314036936,12.16978931,-135.326828,-6.200583935,0.399625361,18.01303482,10.89217567,4.799520016,-14.49549675
2.1332479999999805,0.366102189,12.11888885,-135.3372803,1.535237432,0.307288259,9.339199066,5.665792465,-6.633459568,-1.755023479
2.1415809999999738,0.382117599,12.04458141,-135.4287415,-3.661133766,1.298949957,19.55934334,3.372882843,-9.495416641,-11.23029423
2.149913999999967,0.41944927,11.99688244,-135.4995575,2.044795513,-4.482028961,19.2576561,5.403911591,-6.300652981,-8.836359024
2.1582469999999603,0.552895844,11.9923811,-135.5223694,-3.211205482,1.050091863,19.83083344,15.73784924,-1.071072221,-3.236704826
2.1665799999999535,0.566564441,11.9277153,-135.66362,-4.383799076,1.413191795,9.040915489,4.306829929,-8.440033913,-17.0709343
2.174912999999947,0.577615976,11.84646893,-135.7072754,0.586556256,0.410872608,17.35060692,1.558908105,-10.30859089,-5.590601921
2.18324599999994,0.67240411,11.753829,-135.7832489,-4.67953825,1.147873998,23.15943146,12.39398956,-11.73261738,-9.366321564
2.1915789999999333,0.775176048,11.74864006,-135.8897247,0.366658211,-3.299180746,17.31035995,14.08978081,-1.288255453,-13.06173897
2.1999119999999266,0.861908972,11.68875599,-135.8937683,-4.378871918,0.0894695,15.18396282,9.660895348,-7.710922718,-0.93736577
2.20824499999992,0.842333496,11.58972359,-136.0348816,-2.147538662,0.316557616,8.337700844,-0.612346828,-12.56359291,-12.87662506
2.216577999999913,0.851741791,11.49396801,-136.0670624,-1.678851843,-2.308538198,22.50821686,1.054819942,-12.06385899,-4.178079128
2.2249109999999064,0.978080988,11.4051218,-136.0746002,-1.246210814,2.122839689,17.05124474,14.49509716,-11.18293476,-1.273783326
2.2332439999998996,1.074016094,11.39360905,-136.1579895,-4.37474823,-0.807135999,17.90249252,12.64459896,-2.075022697,-10.34762764
2.2415770000000066,1.100191236,11.27529526,-136.1704559,-0.659885228,-0.875733495,13.21682549,1.751809239,-14.6368618,2.473567247
2.24991,1.029996514,11.15582561,-136.239212,-1.869102001,0.385328293,13.81241703,-7.665228367,-15.00283813,-8.389496803
2.258242999999993,1.010199666,11.02165413,-136.2690582,-0.868407786,-3.573765278,20.52361679,-2.533004999,-16.67104149,-3.794788361
2.2665759999999864,1.051484942,10.90563869,-136.2697296,-0.168597117,0.551726997,15.24959946,4.12289381,-14.43842793,-0.394164741
2.2749089999999796,1.053707719,10.8459568,-136.3785858,-5.532289505,0.505854964,15.93334389,1.038810968,-7.807463646,-8.779549599
2.283241999999973,0.993715584,10.69085598,-136.3648987,-1.841530919,-0.714649737,13.47191715,-8.352101326,-19.09968567,1.383476615
2.291574999999966,0.888408422,10.56980515,-136.4698792,-3.445890903,1.06653142,15.38491821,-11.98960495,-15.14727688,-8.21969986
2.2999079999999594,0.824053049,10.4215107,-136.475647,0.633437037,-1.852473974,18.99197197,-8.4422369,-18.32295609,-0.979860127
2.3082409999999527,0.837725163,10.33978558,-136.5073853,-4.273486137,-0.802473187,18.2059288,1.481450677,-10.36834908,-4.167423725
2.316573999999946,0.845894814,10.27910423,-136.5331879,0.343438238,0.214630038,14.69003105,0.687998414,-7.843756676,-3.501683474
2.324906999999939,0.768505991,10.15657616,-136.5786743,-6.085002899,0.387788147,12.46907806,-10.0469923,-15.20042419,-0.750074625
2.3332399999999325,0.631459355,10.02180481,-136.6200867,0.806863844,-0.799981713,16.29853439,-16.42294502,-16.74942589,-5.257465363
2.3415729999999257,0.559698284,9.893021584,-136.6623535,-4.360888958,-1.183353662,18.16239548,-9.365014076,-15.95186901,-0.845743835
2.349905999999919,0.625212371,9.825257301,-136.6835938,0.193987876,1.497351885,19.06964111,7.451489925,-8.675043106,-2.989040852
2.3582389999999123,0.639712989,9.739098549,-136.7390594,-4.578045368,1.936542273,11.08714962,1.306607842,-10.85822105,-2.772088051
2.3665719999999055,0.600166202,9.624391556,-136.7449341,-1.256255269,0.018770736,16.75194168,-5.474057674,-14.28988934,-1.107239485
2.3749050000000125,0.486698419,9.459444046,-136.7813721,-1.956389189,-2.631132603,16.31973648,-13.73798275,-20.34305191,-4.68178463
2.3832380000000057,0.403340459,9.368852615,-136.8046417,-1.933040142,-3.696167231,18.74421501,-10.39337635,-11.40964699,-3.234041452
2.391570999999999,0.417966962,9.242267609,-136.8696594,-0.570363164,1.696679473,15.44316196,1.377328753,-15.70295048,-3.218646765
2.3999039999999923,0.405731291,9.147433281,-136.920166,-3.598730564,0.954877555,8.576938629,-1.345836163,-11.94126892,-6.463100433
2.4082369999999855,0.310778767,8.958929062,-136.9536133,-1.14211309,0.575936079,16.44355965,-12.39300632,-23.10537148,0.616125107
2.416569999999979,0.254232883,8.823618889,-136.9972382,-3.264748096,0.505946994,16.42303467,-6.822007179,-16.78131104,-5.654484272
2.424902999999972,0.217296287,8.719521523,-137.0316162,-1.615812302,-2.774139881,17.97707939,-5.413301468,-12.97944164,0.444176584
2.4332359999999653,0.124365956,8.626483917,-137.0454102,-5.092039108,-2.077453613,11.92103577,-11.74836731,-11.68794346,-2.164518356
2.4415689999999586,0.09289141,8.543834686,-137.0750427,1.302031755,2.151287794,6.092638969,-4.703029633,-10.4116745,0.069273703
2.449901999999952,-0.003589328,8.536676407,-137.0879517,-7.876748085,-0.094850108,15.1157589,-12.19384956,-1.378647923,-2.09264493
2.458234999999945,-0.128598794,8.545900345,-137.1412964,-1.264001012,-0.987322032,6.440952778,-15.51202202,0.61399895,-2.713662148
2.4665679999999384,-0.23842977,8.616510391,-137.1293335,-6.749363422,-0.36989069,15.59208488,-14.24127388,7.950966835,0.884177923
2.4749009999999316,-0.327496767,8.847910881,-137.2252045,-3.389257193,0.596889555,2.844744921,-10.36807537,27.30833435,-7.944505692
2.483233999999925,-0.486574799,8.968281746,-137.2342529,-1.270226598,-0.510898113,5.758430481,-19.76883125,13.9349432,-1.532000899
2.491566999999918,-0.649074912,9.231777191,-137.2529449,-4.620237827,-4.012814999,6.955976963,-19.9895916,31.12978554,-2.463285446
2.4998999999999114,-0.804100811,9.52143383,-137.3213196,0.433328182,0.724398315,9.941090584,-18.11299133,34.3413353,-8.217634201
2.5082329999999047,-0.759392679,9.98608017,-137.319809,-7.24600172,4.565294743,2.848054409,4.489674568,55.24082947,0.381166458
2.5165660000000116,-1.068620205,10.16806126,-137.4055634,1.587383866,-3.719125509,-3.15559411,-36.15466309,21.47984886,-10.34485054
2.524899000000005,-0.994339705,10.8001461,-137.4468536,-6.043048859,2.759205103,17.39208603,8.969765663,75.41825867,-4.065114975
2.533231999999998,-1.300181389,11.00500774,-137.4986725,2.370337725,-2.775673866,-11.29226208,-36.37257004,24.18349266,-6.176716805
2.5415649999999914,-1.23304534,11.70422649,-137.6055145,-6.494444847,1.850237131,15.93850136,9.737260818,83.65413666,-11.27393341
2.5498979999999847,-1.350609541,12.01156998,-137.6352234,3.907058954,-0.378568798,-6.854807854,-14.22215652,36.43437576,-3.216498852
2.558230999999978,-1.479349852,12.5464735,-137.720932,-7.33205843,2.994011164,10.18293858,-14.10759354,63.9073143,-9.020330429
2.566563999999971,-1.649457455,12.89952374,-137.7795258,5.152088165,-5.160519123,0.69413358,-19.71020126,42.02050781,-6.2616539
2.5748969999999645,-1.607656002,13.40769863,-137.8643188,-3.714391708,1.969532609,13.36897755,5.657742023,60.63912964,-5.14380312
2.5832299999999577,-1.61276412,13.84984112,-137.9473572,-0.135631785,0.364381701,-6.887390137,0.888252616,52.79268265,-8.75031662
2.591562999999951,-1.640902519,14.24371338,-138.0363007,-1.230682373,2.887194157,3.809162855,-2.602833986,46.93157196,-5.646528721
2.5998959999999443,-1.742793918,14.56492615,-138.1021576,-2.213777304,-0.552396834,0.736422956,-11.10689831,38.23767471,-7.07344532
2.6082289999999375,-1.782528996,14.864995,-138.2028961,3.475626707,-1.097909212,9.736291885,-3.43419385,35.74626541,-7.713594913
2.6165619999999308,-1.757824063,15.15142059,-138.2525787,-2.593114376,0.246455178,0.03302715,3.662787914,34.01553345,-5.256699562
2.624894999999924,-1.752528787,15.37394142,-138.3280792,3.033656597,0.862630665,2.080718994,2.176494122,26.44540977,-8.490215302
2.6332279999999173,-1.786662459,15.49058914,-138.384491,-2.07648015,-0.211871713,1.262807012,-3.141983271,13.67557049,-6.649623394
2.6415609999999106,-1.782044291,15.60643291,-138.4346008,3.363364697,-0.132441908,7.578604698,1.319210291,13.56266499,-5.91736412
2.649893999999904,-1.7450037,15.64668465,-138.5092926,-1.446880817,-0.352744371,0.897485375,6.012814045,4.576239586,-9.041479111
2.6582270000000108,-1.715417504,15.66717052,-138.5249023,2.234516382,0.635899365,2.994104385,3.210488081,1.998089671,-2.284444094
2.666560000000004,-1.707588434,15.57460213,-138.5873108,-1.103599787,0.510709822,2.011920691,2.110638857,-11.40603352,-8.102590561
2.6748929999999973,-1.668710351,15.50100327,-138.5934906,1.011765838,-0.919826269,4.65066433,4.018284321,-9.319854736,-1.53599596
2.6832259999999906,-1.620443583,15.36048222,-138.6212158,-0.666572273,0.838177502,1.927143693,5.831158161,-17.28242874,-4.251848221
2.691558999999984,-1.568410397,15.25104237,-138.636261,-2.747541428,-0.165797666,2.790111303,5.874574661,-13.59272099,-2.662356853
2.699891999999977,-1.53361845,15.10642529,-138.6291656,1.145291209,-1.129837394,1.410784364,3.105035305,-17.88820839,-0.21012646
2.7082249999999704,-1.518562913,14.97867298,-138.6388092,-4.240602016,-0.079867683,3.895302773,1.262397885,-15.80863571,-2.090083361
2.7165579999999636,-1.479023218,14.82976341,-138.6235199,3.889370203,-0.139749944,2.209810972,3.4264431,-18.42887115,0.74491334
2.724890999999957,-1.436569214,14.68908215,-138.6628571,-6.021003246,0.124894477,2.360922098,4.592607975,-17.345644,-2.257319212
2.73322399999995,-1.407535553,14.59480286,-138.6798096,1.152879715,0.065674685,1.190152884,3.152216434,-11.77954102,-2.809126377
2.7415569999999434,-1.408916593,14.49951553,-138.6668243,-2.75165987,-2.70250082,3.767430067,-2.136009932,-12.04252243,3.524929285
2.7498899999999367,-1.399504781,14.43433475,-138.6740417,-1.092119575,2.02184701,1.231066108,0.498555481,-8.316673279,-1.588428259
2.75822299999993,-1.36014986,14.39616108,-138.7069397,-3.028535366,0.212474525,2.518420696,4.152067184,-5.059259415,-1.708072424
2.766555999999923,-1.366405249,14.38685989,-138.6826172,0.279769301,-2.729006529,1.20513463,-2.322480917,-1.701335788,2.239247561
2.7748889999999165,-1.382073045,14.37974262,-138.6770325,-2.634777784,2.375858545,3.642128706,-2.893268824,-1.382925272,0.074050754
2.7832219999999097,-1.353176951,14.4162941,-138.6918488,-1.704259992,-0.254629731,2.670240164,3.063923597,3.907297611,-2.176352024
2.791554999999903,-1.348007679,14.46966076,-138.6554108,-0.016614126,-2.803724051,1.684558392,-1.316200256,5.788432598,3.824487209
2.79988800000001,-1.383106947,14.52938652,-138.6560059,-3.478228807,3.661570311,1.99742496,-5.041252613,6.649557114,-0.457764775
2.808221000000003,-1.358363271,14.62766457,-138.6869354,-0.301941335,-2.489375353,4.985634804,3.058237314,11.36047745,-3.874960184
2.8165539999999964,-1.368875742,14.72070026,-138.6297302,-0.519118071,-1.339416027,-0.062348943,-3.84657979,10.48506069,6.345440865
2.8248869999999897,-1.406317234,14.85000801,-138.6649933,-2.751450777,2.68218708,3.187641144,-4.260250092,15.09708309,-4.273184776
2.833219999999983,-1.387635231,14.97199535,-138.6685638,0.903396189,-3.754615068,3.649560213,1.505246401,14.12794304,-0.616957307
2.8415529999999762,-1.422144294,15.10558701,-138.611145,-1.771614075,1.417085886,-1.476296067,-6.774724007,15.34741306,6.485577583
2.8498859999999695,-1.468443274,15.26215649,-138.6858368,-1.041044235,0.270476788,4.396684647,-4.05479908,18.48272705,-8.734189034
2.8582189999999628,-1.432802677,15.40036964,-138.6219177,1.164181232,-2.092472553,1.149985552,1.402635574,15.87841892,7.263787746
2.866551999999956,-1.464412928,15.59418297,-138.63974,-5.837090015,3.49343276,-1.520663381,-4.06778574,22.78466415,-2.033963442
2.8748849999999493,-1.505814672,15.76433277,-138.6873627,3.208506584,-2.898772717,4.936021805,-4.269011021,20.03794479,-5.527310371
2.8832179999999425,-1.433339953,15.98802853,-138.5949097,-6.36874485,1.400040507,3.018350124,4.815838814,26.04403496,10.79694653
2.891550999999936,-1.49696064,16.21714401,-138.7239227,1.232747197,0.235538706,1.559060335,-4.187585831,27.35046959,-14.7283659
2.899883999999929,-1.468972802,16.43531799,-138.6128235,-0.585000575,-3.032999516,3.980296373,-1.23561883,25.32370949,12.90717602
2.9082169999999223,-1.488047242,16.64273834,-138.6486359,0.14144969,1.907188773,-0.608275771,-1.911142826,24.47346497,-4.035537243
2.9165499999999156,-1.536467791,16.80620575,-138.6833801,0.130825043,-1.199119449,1.214810014,-5.45633316,19.19674492,-4.035178185
2.924882999999909,-1.494335413,17.04585648,-138.5975342,-2.866356373,1.311892271,1.278049946,1.210734606,27.97296906,10.05103302
2.933215999999902,-1.514522672,17.16773605,-138.7225952,2.0840137,0.736365795,7.373672009,1.146595955,14.4790926,-14.51647568
2.941549000000009,-1.411974549,17.33619881,-138.619278,-1.632837653,-2.536379099,3.592037439,7.782812119,19.39203644,11.79577065
2.9498820000000023,-1.457568288,17.43048859,-138.6750793,0.505113482,2.151241779,1.652540088,-4.317036152,10.95451736,-6.665887356
2.9582149999999956,-1.417773247,17.47810173,-138.7140808,2.611114264,-2.073291302,11.14968204,5.33344698,5.307679653,-4.875221252
2.966547999999989,-1.299643397,17.3730011,-138.6143188,0.793536305,3.641976595,4.500463486,9.744605064,-13.39838791,10.5590353
2.974880999999982,-1.37293458,17.17346382,-138.7944489,0.671732485,-2.510144472,5.676167011,-3.223131418,-23.97203636,-21.74946022
2.9832139999999754,-1.184358835,16.94780922,-138.6699982,7.67257309,-1.844948649,9.15306282,17.40322876,-27.91029167,13.10843372
2.9915469999999686,-1.21115911,16.55383492,-138.8199768,-7.615602016,4.246911049,15.74379539,1.12390399,-47.42338943,-18.77359772
2.999879999999962,-1.122873783,16.18087387,-138.8864746,10.96688366,-4.724173546,3.256833315,11.99778271,-45.11035538,-9.126357079
3.008212999999955,-1.122307301,15.51840496,-138.8527374,-6.221807957,1.41953671,20.87733269,-1.884334326,-80.07411957,1.781864166
3.0165459999999484,-1.081416488,15.06597519,-139.0996246,1.189969897,0.523730099,8.021237373,11.87431431,-54.25128174,-30.1772213
3.0248789999999417,-1.047633052,14.33873367,-139.0786743,1.022639275,-2.218586206,17.90042686,2.570149899,-87.81627655,0.24945873
3.033211999999935,-1.005308747,13.73319912,-139.2526093,-4.861822128,2.881202221,9.485134125,9.295403481,-72.81118774,-22.10943985
3.0415449999999282,-1.001976013,12.97625732,-139.3607178,1.574767351,-4.886726856,17.78404808,2.550044298,-91.11418915,-14.76716614
3.0498779999999215,-1.014741182,12.38624477,-139.4076385,-5.554598808,1.180231571,12.0571537,-1.142182231,-71.2147522,-7.299154282
3.0582109999999147,-1.015634656,11.62025261,-139.6443634,-3.700726748,1.67561996,17.28337479,4.955012321,-91.93006134,-29.97736931
3.066543999999908,-0.992619336,11.1267128,-139.6568298,-0.290781319,-4.306729794,13.53446198,2.209081173,-59.70972443,-3.064483881
3.0748769999999013,-1.049377203,10.36514664,-139.8280334,-3.304839134,3.42268157,8.401965141,-3.82537508,-91.53081512,-22.37458229
3.083210000000008,-0.960688651,10.01507092,-139.9089355,-2.029919863,-2.735181332,28.09609222,11.51541233,-42.35560989,-10.85063267
3.0915430000000015,-1.035882473,9.316679955,-140.0308533,-4.30828619,0.799205244,3.59900856,-8.204842567,-84.12533569,-11.71399021
3.0998759999999947,-0.962231219,8.976675987,-140.1795959,-7.841119766,-0.545428872,31.91845703,10.82920742,-41.00658417,-18.89187813
3.108208999999988,-0.930777967,8.478988647,-140.1828003,5.813026905,-1.793946266,2.209429979,2.985681057,-60.2246666,-1.923570991
3.1165419999999813,-0.793502867,8.07242775,-140.3413849,-9.83334446,3.505929232,24.06735229,18.36586761,-49.01867676,-20.1245594
3.1248749999999745,-0.836276531,7.774279118,-140.3425598,-0.516874671,-4.380266666,12.36832809,-5.95842886,-36.28884125,-1.206418872
3.133207999999968,-0.828744769,7.287724972,-140.4215698,-5.078612328,4.730988979,12.70748138,1.299900889,-58.76396179,-10.8082037
3.141540999999961,-0.721912324,7.085084438,-140.5704498,-1.342211962,-2.548727512,27.85434341,13.79337883,-24.62337875,-15.2400341
3.1498739999999543,-0.73378855,6.80427599,-140.5669403,-5.219376087,-2.882006884,8.524726868,-2.32217598,-34.21902466,-0.571159601
3.1582069999999476,-0.611177146,6.614220619,-140.6925354,-1.320524216,0.532567441,20.03345108,15.62902546,-23.14533424,-15.79012585
3.166539999999941,-0.534333408,6.548398495,-140.7029572,-5.787583828,0.57686621,17.92486763,8.518218994,-8.404248238,-1.879329085
3.174872999999934,-0.532970369,6.405625343,-140.7797546,-5.5724473,1.207899451,5.919116974,0.356473446,-17.56198502,-9.878453255
3.1832059999999274,-0.483433753,6.337313175,-140.8333435,-1.069087744,-0.75230062,24.80307198,5.812127113,-8.658854485,-7.022976398
3.1915389999999206,-0.503274381,6.32543993,-140.8518982,-5.194683552,-1.628223181,15.94374847,-2.981740713,-1.921720862,-2.782359123
3.199871999999914,-0.452102602,6.344660759,-140.9310913,-0.200508967,-3.122869968,17.1664753,6.34354496,1.866740227,-9.984187126
3.208204999999907,-0.328057259,6.414860725,-140.9160614,-3.594244003,1.900280356,18.94015121,13.53251553,7.887674332,4.109549046
3.2165379999999004,-0.32977286,6.499455452,-140.9865875,-5.712249279,1.962129831,10.31686401,-0.101035357,9.682231903,-8.911384583
3.2248710000000074,-0.387388289,6.498867035,-141.0192413,-0.454507887,-2.814073086,19.31673813,-7.610669136,-0.568930626,-1.814243793
3.2332040000000006,-0.410891443,6.515657425,-141.008194,-0.99311018,0.249036521,14.83140469,-3.816097975,1.487188101,0.771039724
3.241536999999994,-0.451809168,6.581210613,-141.1113434,-4.62125206,-0.81177485,22.89066696,-4.644079208,7.431587219,-10.11584377
3.249869999999987,-0.420925468,6.632785797,-141.0830078,1.269133687,-3.224615097,13.19657421,2.467623949,5.646145821,2.864900827
3.2582029999999804,-0.425631791,6.67620182,-141.1383514,-2.267031193,2.407411098,12.35260296,-0.963133633,4.731974125,-4.280612946
3.2665359999999737,-0.556409597,6.727463245,-141.180191,-6.403401852,-1.998208404,18.07944489,-15.95381737,5.67529583,-5.493908882
3.274868999999967,-0.655609429,6.749707222,-141.1744843,-0.478479177,1.262000203,16.45062828,-12.83141422,2.146088839,0.148178354
3.28320199999996,-0.69245261,6.82026577,-141.253006,-1.613190293,0.061695073,19.17336655,-4.154642105,8.058802605,-9.816082001
3.2915349999999535,-0.763755381,6.945421219,-141.2619324,-4.644042015,-4.664861679,12.7783041,-9.274571419,14.51487637,-1.435050845
3.2998679999999467,-0.859278262,7.087774754,-141.3103485,-2.335066319,3.063520432,17.94402885,-11.59975624,16.64521408,-6.081859589
3.30820099999994,-0.811980665,7.217154503,-141.3426208,-3.367461443,1.976719737,18.18359756,5.311471462,15.0630703,-4.176133156
3.3165339999999333,-0.827029943,7.375554085,-141.3553619,-2.034015417,-2.070008755,13.01422787,-2.456905365,18.50954247,-1.802487135
3.3248669999999265,-0.963734031,7.511590481,-141.381424,-0.528778195,-0.010851664,14.83916569,-16.84637451,15.85424519,-3.403377533
3.33319999999992,-0.973848283,7.659898281,-141.4111938,-4.477150917,0.262950599,18.99819946,-1.589325428,17.33776855,-3.79729867
3.341532999999913,-0.887032151,7.811457634,-141.4228363,0.133982465,0.834937572,18.4158783,9.761051178,17.69032288,-1.653898954
3.3498659999999063,-0.867509842,8.016477585,-141.4413147,-3.894454479,0.007089812,15.64594746,1.80065608,24.11684036,-2.378244638
3.3581989999998996,-0.857525766,8.149085045,-141.44841,-2.442574978,-0.961385131,17.13082123,0.472121686,15.40676022,-1.1638726
3.3665320000000065,-0.899382889,8.229268074,-141.4418488,-0.256841809,-1.231660843,7.35973835,-5.981066227,9.091568947,0.36741066
3.374865,-0.971035302,8.343639374,-141.4603271,-2.932673454,-0.032878783,17.2695961,-9.125470161,13.24166584,-2.536642313
3.383197999999993,-0.860960126,8.443901062,-141.4272308,-1.974540234,-0.014330404,24.23480988,11.78321648,11.44956493,3.562018633
3.3915309999999863,-0.821278393,8.618140221,-141.4671936,-2.51316452,0.167021945,10.31121254,4.62785387,20.46025085,-4.991665363
3.3998639999999796,-0.877682984,8.737701416,-141.4554138,-3.326913118,-1.382028341,18.3909359,-7.828877449,13.80748367,1.050465465
3.408196999999973,-0.909605026,8.792758942,-141.4654846,-1.734826207,0.074018359,12.79606342,-4.493057251,6.106740952,-1.645496964
3.416529999999966,-0.981002033,8.849520683,-141.4933472,1.959139943,-0.782535017,12.11223412,-8.902420044,6.347771168,-3.750065088
3.4248629999999594,-1.017919183,8.944814682,-141.4776001,-6.078345299,-0.372526824,21.06841087,-5.566857338,10.88379669,1.505527973
3.4331959999999526,-0.943738759,9.04458046,-141.5250702,1.528015375,-0.423184812,17.27734947,8.946028709,11.54843616,-5.980425358
3.441528999999946,-0.97549212,9.159826279,-141.5175781,-6.223683357,0.02723285,13.12249756,-4.800633907,13.29663467,0.57130003
3.449861999999939,-1.053325176,9.214672089,-141.5443878,-0.151573077,0.209271565,14.12464237,-9.67243576,6.119036198,-3.619176388
3.4581949999999324,-1.116288662,9.224438667,-141.5624084,-0.889935493,-1.162765026,15.21374798,-8.056355476,0.696322978,-2.675829411
3.4665279999999257,-1.207177758,9.260056496,-141.5663452,-2.463543415,-2.389377117,15.01167583,-11.67805481,3.764498472,-0.939209938
3.474860999999919,-1.158265829,9.301020622,-141.5872498,1.234024048,0.331432402,20.41604042,5.429860115,4.44860363,-2.929820299
3.483193999999912,-1.129909158,9.344784737,-141.5858154,-4.71900177,1.650569439,11.00984955,2.527997017,4.730103493,-0.284228384
3.4915269999999055,-1.197100282,9.347243309,-141.581604,-1.553682804,0.097626559,13.50080299,-8.991839409,-0.232513219,-0.05462236
3.4998600000000124,-1.264594316,9.314356804,-141.6063995,-3.145240307,0.443879396,20.91616821,-8.463212967,-4.400129318,-3.580704212
3.5081930000000057,-1.27448523,9.308782578,-141.5841675,0.070292085,-2.166833401,14.41783524,-2.463897467,-1.244967103,2.06302166
3.516525999999999,-1.266621947,9.306853294,-141.6238251,-3.622669458,-0.434339613,19.12379837,0.866836965,-0.645286679,-5.259486675
3.524858999999992,-1.183215618,9.318155289,-141.6453552,0.36248824,0.898892105,9.374686241,8.820697784,0.810383201,1.64819932
3.5331919999999855,-1.225870848,9.236944199,-141.6669159,-4.532781601,0.534735799,13.4226141,-5.548671722,-10.20787621,-3.31754303
3.5415249999999787,-1.286986232,9.178798676,-141.7077942,2.3467381,-1.586135387,16.28811646,-8.177282333,-7.475631237,-0.640240729
3.549857999999972,-1.263800025,9.096986771,-141.6935425,-5.307644844,-1.70062542,19.87805176,1.664156914,-10.37065411,0.908793092
3.5581909999999652,-1.206919312,9.099349976,-141.7066956,0.291180938,-0.472494841,14.56450462,6.22991991,-0.199470863,-2.108269215
3.5665239999999585,-1.17419517,9.032553673,-141.6759644,-3.820577145,1.584324121,13.21143723,2.498387098,-8.607754707,2.916846752
3.5748569999999518,-1.181641459,8.939154625,-141.6858673,-3.989898205,0.230612278,14.90044498,-1.553029895,-11.69944572,-1.971617579
3.583189999999945,-1.237882614,8.804761887,-141.6732788,1.681374073,-1.835707307,12.59422588,-7.829107761,-16.67327118,0.594173491
3.5915229999999383,-1.210780859,8.742219925,-141.7047272,-4.539718151,-0.13489379,21.78752327,2.220549107,-8.028308868,0.584414363
3.5998559999999316,-1.097587228,8.663427353,-141.7043304,1.46949482,-0.458939254,12.69563198,12.7294054,-9.972506523,-0.701689243
3.608188999999925,-1.08626771,8.603485107,-141.7166138,-5.888278008,0.489066601,10.7831955,0.110243678,-7.74555397,2.039405823
3.616521999999918,-1.141158819,8.474563599,-141.7087708,-0.010330282,0.00674751,16.35467911,-7.573938847,-16.00465965,0.070567228
3.6248549999999113,-1.148599148,8.364943504,-141.7383118,-3.494516134,-3.351255894,13.3533926,-1.794162273,-13.66244411,-0.36872977
3.6331879999999046,-1.145943999,8.321648598,-141.7307434,-3.184415817,-0.199709594,18.50368309,-0.660271049,-5.730634689,0.233781129
3.6415210000000116,-1.086924672,8.29815197,-141.7764282,-1.309433937,1.07947278,12.45375252,6.396285057,-3.299151897,-1.621470809
3.649854000000005,-1.058263063,8.262578011,-141.7536011,-4.668877125,0.719622076,16.31521606,2.198879719,-4.837235451,2.072114706
3.658186999999998,-1.104059696,8.180240631,-141.7474976,-0.612762392,-0.434999168,9.691734314,-6.447499752,-10.40991974,-0.023603516
3.6665199999999913,-1.151934028,8.135461807,-141.7241821,-2.250873566,-2.682261467,17.48742676,-6.98803854,-5.945820808,2.101776361
3.6748529999999846,-1.075149417,8.119565964,-141.7386017,-1.908821702,0.17089586,16.89788246,7.970791817,-2.461310625,2.276183367
3.683185999999978,-1.069097042,8.134366035,-141.7335205,-1.94470799,-0.835058749,9.447940826,-0.206079334,1.246593595,0.081069052
3.691518999999971,-1.086518168,8.133743286,-141.7259521,-5.632333755,0.049264535,17.96633911,-3.678473473,-0.675050378,4.725570679
3.6998519999999644,-1.125797391,8.093380928,-141.7177734,-0.448369026,0.314749867,10.44865322,-5.698131084,-5.379771709,0.319947451
3.7081849999999577,-1.204335809,8.118238449,-141.6886902,-2.650190592,-3.167852879,17.88574791,-10.76244831,2.395161629,2.952143431
3.716517999999951,-1.196496606,8.135489464,-141.6543121,-1.446885228,-0.797602713,15.48501396,-0.489193469,1.465518475,3.569778919
3.724850999999944,-1.189407349,8.199097633,-141.6465302,-2.048857689,0.796744764,10.33870602,-0.128468201,7.0960145,0.530726969
3.7331839999999374,-1.267743111,8.213796616,-141.6068268,-4.730741024,-0.818226278,11.62216091,-10.92712402,1.144546628,4.195355892
3.7415169999999307,-1.305557489,8.252317429,-141.5861816,0.30319196,1.159849644,9.725400925,-5.738856792,4.048611641,1.996040583
3.749849999999924,-1.384858489,8.364109039,-141.5730133,-5.244549751,-1.676846981,15.76693344,-10.59119415,12.85732365,1.319952965
3.7581829999999172,-1.482730031,8.496669769,-141.6070251,-1.824489236,-2.108676195,10.03492069,-12.63272572,15.39438915,0.202096358
3.7665159999999105,-1.515445113,8.603528023,-141.5801239,-5.514564514,1.139070392,8.643013954,-5.252288818,12.21727276,2.970739126
3.7748489999999038,-1.650095105,8.904759407,-141.6387177,-1.608479738,-2.172540188,9.079817772,-16.56714058,35.71041107,-2.320665359
3.7831820000000107,-1.757656693,9.089719772,-141.6251068,-5.189319611,0.156340063,4.492720604,-14.00972748,21.62045097,1.714387536
3.791515000000004,-1.86513257,9.496336937,-141.6874847,-2.344810486,1.140414953,11.52153969,-13.21009636,48.37015533,-2.194107533
3.7998479999999972,-1.966484666,9.879311562,-141.6791534,-3.556872129,-0.248279735,0.527199924,-13.17753696,45.38195801,1.965665936
3.8081809999999905,-2.019227028,10.33146763,-141.7157135,-1.872494221,0.773099363,4.474093437,-7.058238029,53.74446487,0.736001313
3.8165139999999838,-2.176387072,10.6920681,-141.7219238,-2.150797844,-3.405978918,5.644964695,-19.57001686,42.75270081,0.297228158
3.824846999999977,-2.257345676,11.24721336,-141.7451019,-2.312289953,2.54235816,11.26606464,-10.7062664,66.0344696,2.826592922
3.8331799999999703,-2.291481256,11.68226528,-141.7632751,0.215423912,-2.181626558,-6.111860275,-4.509665966,51.7343483,-0.622389019
3.8415129999999635,-2.43129015,12.16512871,-141.7892761,-2.734775066,1.067499399,15.28365803,-17.72908783,57.36960602,2.37990284
3.849845999999957,-2.433000326,12.68998146,-141.8017578,-0.475411981,-1.341891646,-8.240318298,-0.729406238,62.47154236,0.655214369
3.85817899999995,-2.577411413,13.13893414,-141.8465881,-2.630434752,1.811931729,13.84736729,-17.74685669,53.40044022,-0.028060472
3.8665119999999433,-2.573924065,13.63931656,-141.842453,1.109167457,-2.471413851,-1.014231801,-0.542319179,59.44727707,2.624417305
3.8748449999999366,-2.624102831,14.11139202,-141.8787079,-3.852299213,1.856833458,3.63778758,-6.686909676,56.11890411,1.322902203
3.88317799999993,-2.685309887,14.56989193,-141.8891602,2.281621456,0.149969652,2.059102297,-7.882122993,54.50151825,0.779033363
3.891510999999923,-2.721976757,14.97201729,-141.9163513,-5.541041374,-0.644478977,12.17011642,-5.346072197,47.6791954,2.136564255
3.8998439999999164,-2.678653479,15.42201614,-141.9266815,5.357606411,-0.347372621,-5.071100712,4.677632332,53.48094559,0.794581234
3.9081769999999096,-2.70894599,15.78880215,-141.9551849,-6.461615086,1.748509407,0.454810381,-4.494370937,43.45726013,1.598279595
3.916509999999903,-2.753069639,16.11412048,-141.9553833,5.520619869,-0.875297964,11.4664793,-6.13521862,38.47900391,1.280508518
3.92484300000001,-2.747833014,16.36886597,-141.9756165,-5.7026577,-0.682710111,7.669650078,-0.395573765,29.99813652,1.55458045
3.933176000000003,-2.657035112,16.68933868,-141.981308,6.081084728,1.631991386,-4.423891068,10.24394035,37.92830276,0.603651404
3.9415089999999964,-2.679189444,16.82779694,-141.9985199,-6.246006966,-0.264888227,-3.449668646,-3.814383745,16.04171371,1.271363139
3.9498419999999896,-2.691578865,16.99106598,-141.9933167,5.932944775,-1.105649352,7.592536926,-2.514486074,19.02556992,0.959714353
3.958174999999983,-2.620932817,17.07633781,-142.0080566,-1.848179817,-1.018086076,9.576164246,8.14883709,9.782564163,-1.768573403
3.966507999999976,-2.466590881,17.26842308,-141.989151,-0.539210737,1.849345446,-0.034188017,17.00537872,22.41395378,2.631608009
3.9748409999999694,-2.493749857,17.21173859,-142.0319214,0.593512595,1.746304989,-1.090727568,-3.576195717,-7.228042603,-2.527215958
3.9831739999999627,-2.517207384,17.21995544,-142.0105896,-2.784701824,-1.93999064,6.887610435,-4.420031548,0.360699683,1.931979418
3.991506999999956,-2.469019175,17.13253975,-142.0155334,5.071333885,-1.648531675,4.739243507,4.400269985,-11.06679726,0.74739784
3.999839999999949,-2.358417511,17.14938354,-142.0072479,-6.103785992,-0.248195365,-0.607707083,12.13202858,1.462496042,0.481291473
4.0081729999999425,-2.281889439,17.03931999,-141.9615631,4.906331062,0.520619512,-1.809183002,6.115348816,-14.00039768,6.151567459
4.016505999999936,-2.236281633,16.94932365,-141.9499054,-6.798388004,-0.994979322,4.329419136,4.217767715,-11.36289692,0.355756104
4.024838999999929,-2.131964684,16.8910656,-141.876358,3.83240819,-0.430091321,3.55506134,8.541529655,-7.889583111,9.486105919
4.033171999999922,-2.056702137,16.8149395,-141.8323975,-5.224678993,0.356276691,3.125893116,6.655066013,-9.831501007,4.159471035
4.0415049999999155,-2.022190094,16.77037621,-141.759552,-0.058402702,0.009441793,2.084543943,0.202198759,-6.220916748,9.518326759
4.049837999999909,-2.029339314,16.66235352,-141.6653442,-1.397888899,-0.153758571,4.397632122,-4.955779076,-13.85577965,9.806410789
4.058170999999902,-1.978156686,16.63807869,-141.5794678,-2.945403814,-1.037221313,1.246512651,1.876447678,-3.823808432,10.78438759
4.066504000000009,-1.925580144,16.62465096,-141.4538727,-0.775826633,-0.359068871,-1.670785308,1.148696184,-2.619888783,13.82300758
4.074837000000002,-1.898055196,16.68817139,-141.3426208,-4.609361172,-0.476626158,0.607884645,-1.739091635,6.637750626,13.73030853
4.0831699999999955,-1.8962183,16.74623489,-141.1937256,0.558129191,-0.955936909,3.749109268,-5.765984058,5.879672527,16.77945518
4.091502999999989,-1.90686202,16.82089424,-141.0586395,-2.923450232,-0.171724245,5.852788925,-7.11249876,7.890800476,16.2817955
4.099835999999982,-1.86476016,16.95685959,-140.9285736,-0.709367394,-0.542442739,1.86046946,-0.329616964,15.29851913,14.90908051
4.108168999999975,-1.864931345,17.08711243,-140.7819214,-2.569559336,-0.229091868,-1.754833579,-6.018874168,14.5560379,16.77715302
4.116501999999969,-1.889746666,17.25835609,-140.6039734,-0.656435847,-1.822839618,1.935598612,-10.12932396,19.35326004,20.51017761
4.124834999999962,-1.909487009,17.44068336,-140.4453583,-2.918635368,0.801496267,0.540145695,-8.892308235,20.74757004,18.33534813
4.133167999999955,-1.929835439,17.70156288,-140.2837982,-2.088317871,0.978161991,1.803533196,-9.141742706,30.15164757,18.96602821
4.141500999999948,-1.932198048,17.90871811,-140.0836639,2.08183074,-2.274578571,3.483028412,-8.472953796,23.55551338,23.1395874
4.149833999999942,-1.947369933,18.17326736,-139.8835144,-7.018536091,2.373030901,3.005977631,-10.10609818,30.43846512,23.34581947
4.158166999999935,-2.015874147,18.48216629,-139.6870117,2.285156012,-0.743382752,0.211469814,-16.48305893,35.75318146,23.10300446
4.166499999999928,-2.024667501,18.75840759,-139.4486542,-3.912307739,-1.353703856,6.384104252,-11.03594875,31.65637589,27.70389175
4.174832999999921,-1.981895566,19.06205177,-139.2605438,0.692394316,3.534275055,-1.601824522,-3.028260231,35.14995193,22.05983162
4.183165999999915,-2.037255526,19.38613892,-139.044342,-3.950920582,-4.447800159,0.664151251,-16.03330231,37.49094009,25.29303169
4.191498999999908,-2.044590235,19.72151184,-138.8106995,1.924936533,-0.322247505,4.766520977,-11.10928917,38.75949097,27.27975655
4.199831999999901,-2.019523621,20.02438354,-138.6454468,-3.361891747,3.686975718,1.44181776,-4.580664158,35.14439774,19.3707943
4.208165000000008,-2.02965188,20.37368965,-138.457901,0.938040316,-4.280990124,-0.270626038,-9.833182335,40.62722397,22.03345871
4.216498000000001,-2.034920454,20.62709236,-138.2800293,1.811291933,1.810717583,4.278366566,-8.953837395,29.16311836,20.50629234
4.224830999999995,-1.991298556,20.90280533,-138.1240082,-2.522941113,1.25020659,0.906004608,-2.249176025,31.93210411,18.10587883
4.233163999999988,-2.044045687,21.17178726,-137.9830322,0.518996239,-3.178580046,-0.763007939,-13.24978638,31.18483353,16.36057663
4.241496999999981,-2.034676552,21.41542244,-137.842804,-0.357138574,3.004610062,4.934612274,-5.833685398,28.1420517,16.15611649
4.2498299999999745,-1.989368558,21.58974648,-137.7416382,1.15767324,-0.260683328,1.460462689,0.139623255,19.99309731,11.46972656
4.258162999999968,-1.997931957,21.76767921,-137.6286316,-2.593374014,-1.435373306,0.228617907,-6.883661747,20.38179398,12.77828121
4.266495999999961,-1.996939063,21.92098618,-137.5644379,1.936146379,2.838956356,4.811369896,-3.594203472,17.61931801,7.233513832
4.274828999999954,-1.93989563,22.03297043,-137.5085602,-1.594031811,-2.154431343,3.072407007,3.489530087,12.69869328,6.122109413
4.2831619999999475,-1.926939368,22.11981392,-137.466568,2.261113405,0.045326658,-0.026396422,-1.185132265,9.739966393,4.460873127
4.291494999999941,-1.930465102,22.15358353,-137.5088654,-1.096532226,2.095765591,3.969808578,0.641149879,3.690755129,-5.114944935
4.299827999999934,-1.862494469,22.15302277,-137.4942169,0.920075238,-0.387050718,0.756605506,6.647687912,-0.639830709,1.067959905
4.308160999999927,-1.86097765,22.12351418,-137.5295563,-0.320297569,0.081084326,4.271718502,0.9338696,-3.930722237,-4.593900681
4.316493999999921,-1.769734859,22.06610489,-137.499588,-0.787634313,1.8204211,5.412881851,8.750259399,-7.509236336,2.556531191
4.324826999999914,-1.671365142,21.97058868,-137.4862518,1.098990798,-1.686071634,2.228810072,10.35734844,-12.0208025,0.582980156
4.333159999999907,-1.618154168,21.82689476,-137.4488678,-2.371859789,1.187787175,2.676961184,3.866009235,-17.8741703,3.110542536
4.3414929999999,-1.535397291,21.65486145,-137.4044952,2.609997511,-0.760584772,8.240010262,7.110668182,-21.29108429,3.821030378
4.349826000000007,-1.36476481,21.42277336,-137.3724365,-0.027341414,-0.743630826,5.549099922,18.21719551,-28.45120621,2.318628311
4.358159000000001,-1.203973055,21.22972107,-137.330719,-1.172726393,2.566289663,7.230955601,16.62782669,-23.78271866,3.588505983
4.366491999999994,-1.180644631,20.78342819,-137.3017426,2.522875309,-1.122856379,8.856984138,0.706442535,-54.13259125,1.575766444
4.374824999999987,-1.040369987,20.49539948,-137.3454285,-3.692000866,-0.56450808,11.94205189,17.83731842,-34.98055267,-6.132401943
4.38315799999998,-0.969584107,19.94773483,-137.2950592,7.084225655,-1.862689734,8.490816116,5.556876659,-66.32952118,3.965611696
4.391490999999974,-0.860419512,19.54024887,-137.3071136,-7.70810461,0.569089055,17.45843506,12.74370098,-49.38888168,-2.698888779
4.399823999999967,-0.842169404,18.9316082,-137.3442688,4.10741806,-0.835215449,6.42418766,2.811560154,-73.48700714,-5.849845409
4.40815699999996,-0.796383917,18.39784241,-137.3316803,-5.808628559,-0.327362925,14.79269123,4.163634777,-64.58372498,-0.034720223
4.416489999999953,-0.794455528,17.80203056,-137.3911896,0.998511791,-1.182776093,12.78781605,1.603817105,-71.91744995,-8.335103035
4.424822999999947,-0.735342503,17.23539352,-137.377533,-2.792640686,-0.426768601,14.45717621,5.754799366,-68.53025818,0.094260775
4.43315599999994,-0.745964408,16.6762886,-137.4037628,-4.69592905,0.465053529,12.73871422,-1.204680681,-67.56797791,-4.432958126
4.441488999999933,-0.7336573,16.15535736,-137.4399567,-1.436811209,0.011649607,16.57943535,1.857730389,-62.97094345,-5.521898746
4.4498219999999264,-0.717915058,15.64547253,-137.4257202,-3.689782381,0.892841995,4.567157745,0.573607087,-61.72274017,0.313519269
4.45815499999992,-0.728228927,15.2119503,-137.468399,-3.629977703,0.340127885,20.57699966,-0.720619798,-52.47389221,-6.149288177
4.466487999999913,-0.735624015,14.81465816,-137.4476624,-3.305102348,-1.708796859,12.63890266,-2.378888607,-48.22226334,1.238681436
4.474820999999906,-0.751836836,14.4094677,-137.454834,-2.018536568,1.037111521,15.54376793,-2.576835871,-49.1248436,-2.015268326
4.4831539999998995,-0.800681293,14.13260078,-137.4771271,-5.979449272,-1.664458752,17.75800133,-6.048308372,-33.70505142,-3.598227262
4.4914870000000064,-0.82652545,13.8354435,-137.4875488,0.529722989,-1.024259806,11.79859543,-3.645613909,-36.15579987,-2.270973444
4.49982,-0.782182097,13.59696293,-137.5056458,-4.251433372,0.895801067,17.97625542,4.988632679,-29.10451889,-3.068139553
4.508152999999993,-0.786328137,13.442626,-137.5283203,-3.891563654,-0.087205715,17.9838829,-0.708297849,-18.99786568,-3.45498991
4.516485999999986,-0.839134455,13.22616005,-137.5284576,-2.995914459,-0.441418856,8.975494385,-7.17868948,-26.49291039,-0.94082433
4.5248189999999795,-0.879689932,13.05528545,-137.5240326,-0.510975003,0.630048811,16.63061905,-5.83604002,-21.02551842,-0.339939475
4.533151999999973,-0.966101885,12.91413975,-137.5535583,-6.581868649,-1.349855423,20.03709984,-10.41940117,-17.39905167,-4.281536102
4.541484999999966,-0.944613278,12.85771561,-137.5544128,-0.500563025,-0.119771644,18.13206863,1.754293442,-7.284035683,-0.766518831
4.549817999999959,-0.907068253,12.7698698,-137.5606689,-2.51967144,1.153709531,12.76157665,3.826050043,-11.04699898,-1.457078695
4.5581509999999525,-0.95651871,12.72387981,-137.5806732,-5.658672333,-1.074798703,12.8228159,-6.251883984,-5.995614052,-2.983097792
4.566483999999946,-1.028329372,12.64241886,-137.5470276,0.245852351,1.043741226,15.77185631,-10.35101032,-10.35969257,3.212461472
4.574816999999939,-1.050498366,12.61595058,-137.5847168,-6.662153721,0.129584134,22.42160416,-2.518455505,-3.612029552,-5.02583313
4.583149999999932,-0.971291542,12.61310482,-137.5503387,4.635776043,-1.786492944,13.17389679,7.756554127,-0.92965591,3.465888023
4.591482999999926,-0.919081986,12.66703129,-137.5249176,-8.87818718,1.507156134,20.23325348,4.751543999,5.907207012,2.528919697
4.599815999999919,-0.968630433,12.64726543,-137.56073,-0.647248864,-0.792579234,8.716851234,-5.85053587,-2.821728468,-4.788928032
4.608148999999912,-1.012980938,12.61044025,-137.5258636,-2.093317509,1.256327391,15.75337887,-7.380499363,-5.021504879,4.803514957
4.616481999999905,-1.01408267,12.60745144,-137.5505676,-4.208045483,0.779435575,22.22537994,-0.332126975,-0.825200975,-3.453810453
4.624815000000012,-0.877333939,12.67488098,-137.5868225,0.50669682,-1.934054732,19.33138084,16.20441246,7.62825346,-3.256248951
4.633148000000006,-0.844426692,12.72475529,-137.5439606,-6.044215679,-0.509408474,12.48144054,1.97214222,5.390566826,4.554133892
4.641480999999999,-0.946743011,12.69847012,-137.5969696,0.185118109,0.794276178,10.77612305,-11.99216461,-3.586775303,-5.606021881
4.649813999999992,-0.911246836,12.67358398,-137.575592,-2.135972261,-1.215160131,19.58720398,2.849712133,-3.5443573,1.897681832
4.658146999999985,-0.878495276,12.67288494,-137.5560455,-1.890594959,0.771244228,16.1631031,2.567980528,-0.63270992,1.73848927
4.666479999999979,-0.781282961,12.77362537,-137.6015015,-4.430644035,0.208830088,21.08668327,12.02022457,11.64689636,-5.699975014
4.674812999999972,-0.711616278,12.76069355,-137.5744629,-1.268613696,0.833305776,11.62471008,6.520438194,-2.119078875,3.834041834
4.683145999999965,-0.803840995,12.77168465,-137.6287842,-4.053793907,-0.764026999,9.672279358,-10.47393131,0.885100067,-6.8922925
4.691478999999958,-0.775856256,12.76406002,-137.6276703,0.88891089,-1.923703432,26.6321106,2.481814623,-1.431336284,-0.437503994
4.699811999999952,-0.607855439,12.82151794,-137.6363068,-3.416412115,1.260979176,13.34457207,19.54315567,6.388705254,-1.480669737
4.708144999999945,-0.574834108,12.90174675,-137.6909332,-5.316312313,1.062949896,12.39145279,4.574804783,9.17901516,-6.843111515
4.716477999999938,-0.525017619,12.94148827,-137.6891022,-2.07468915,0.535292566,16.84783936,5.082221985,4.248863697,-0.294781387
4.7248109999999315,-0.490278661,12.96541023,-137.7503204,-4.441753387,-1.168248415,14.58586884,4.967395306,2.419572353,-7.682210922
4.733143999999925,-0.423363924,13.05432796,-137.7752533,1.763141513,-0.070758112,20.8132,7.856808662,10.1758194,-3.384140253
4.741476999999918,-0.272350043,13.12527943,-137.7835846,-3.764461756,0.147306979,13.48538303,17.50213623,8.006039619,-1.479824305
4.749809999999911,-0.19466804,13.18984127,-137.8153229,-0.977000356,-0.025326245,11.48208141,9.341819763,7.245909691,-4.234405518
4.7581429999999045,-0.235859379,13.22168255,-137.8191833,-3.551132679,-1.822713017,13.04351044,-5.6850667,3.309026241,-0.987876952
4.7664760000000115,-0.160527736,13.2790947,-137.8428497,-2.182668686,-0.23353456,23.13969803,8.844083786,6.38168478,-3.296590567
4.774809000000005,-0.053488404,13.33799171,-137.8671722,-1.700140834,0.00375009,12.98416424,12.67044067,6.559062958,-3.377890348
4.783141999999998,0.020561585,13.384902,-137.8570404,-2.991448164,2.28185153,14.19397831,7.757528305,5.111833572,0.630596876
4.791474999999991,0.055373788,13.35989666,-137.892334,-0.099544019,-0.476849526,14.79627514,4.309493065,-3.51651454,-4.673637867
4.7998079999999845,0.064005509,13.33833313,-137.8764496,-2.091709852,-2.539682388,14.50431824,-0.250059009,-3.104073763,1.303149819
4.808140999999978,0.03491839,13.32993984,-137.8968811,-3.605345964,-2.601450443,20.04348564,-3.771734715,-1.521959424,-2.938683033
4.816473999999971,0.101224124,13.33533669,-137.9128113,-0.201031625,-0.508093894,15.20337009,7.54961729,0.128071204,-2.415563583
4.824806999999964,0.082874492,13.2947073,-137.9363861,-5.340216637,0.69927913,7.967801094,-3.052896738,-5.378311157,-0.466601759
4.833139999999958,0.02560601,13.21805668,-137.9720154,0.552191138,2.18434906,14.59586239,-6.739477158,-9.720103264,-4.708396435
4.841472999999951,0.016433779,13.11939621,-137.9932251,-3.020235538,-1.923701882,13.93509293,-2.027533531,-12.34079933,-0.146142036
4.849805999999944,-0.020430231,13.09042072,-138.0028381,-2.620449066,-0.858530998,20.70421982,-5.00818491,-3.995705128,-1.679230928
4.858138999999937,-0.072374746,13.0470295,-138.0424957,-1.007950902,-2.83588171,13.0607872,-6.678848267,-5.70678854,-2.232012033
4.866471999999931,-0.143769547,12.99995708,-138.0247955,-2.649550915,0.492338449,4.958108902,-9.893076897,-6.17135334,1.505733013
4.874804999999924,-0.272839785,12.90281963,-138.0455017,-6.092700005,2.660335064,11.04352093,-15.78002739,-12.15973568,-3.020342112
4.883137999999917,-0.394002646,12.96744633,-138.0268555,-2.690192223,-2.861002207,18.45835304,-15.88688374,7.223931789,1.670406818
4.89147099999991,-0.522942901,12.91688347,-138.0065155,-3.595092058,0.603928804,0.444721699,-16.86714363,-6.598574638,1.778627157
4.899803999999904,-0.667374551,13.10344696,-138.0197449,-5.887773037,-0.97267586,17.31249809,-17.82130623,21.88502121,-1.870980024
4.908137000000011,-0.771472633,13.30681992,-138.0063324,-2.431536913,-0.658526242,1.527249813,-13.70788765,23.87176323,1.321234226
4.916470000000004,-0.813695133,13.62166023,-138.0063934,-4.185111523,3.511119366,5.256565094,-5.911144733,37.26045609,-0.038562275
4.924802999999997,-0.919408917,13.93561268,-138.0372162,-2.127077579,-0.233842373,-2.410898209,-12.65118027,37.21051407,-3.576225758
4.93313599999999,-1.072985053,14.25942326,-138.0254822,-1.529776216,-3.424016476,15.52597809,-19.62009048,38.31212234,1.489060402
4.941468999999984,-1.072353721,14.78170967,-138.0830688,-5.211538315,3.820897818,5.261425495,0.962150812,62.27715302,-6.07219553
4.949801999999977,-1.120390892,15.16780281,-138.1036224,2.090415001,-3.14023757,-3.290258646,-5.974107742,45.85160828,-2.052023888
4.95813499999997,-1.189723611,15.66838455,-138.1369781,-5.567872047,3.736934662,7.96707058,-8.102869987,59.62456894,-3.20003438
4.9664679999999635,-1.313966632,16.04977036,-138.1783905,2.594716072,-3.570223093,3.610463858,-14.39757252,45.34204865,-4.334846497
4.974800999999957,-1.274596334,16.54141998,-138.1702728,-4.220677376,2.233765841,7.424256802,3.604036331,58.45180893,1.713290334
4.98313399999995,-1.352577925,17.01152611,-138.2256012,0.366389126,-0.282311618,-7.291792393,-8.288392067,56.0268631,-5.615078449
4.991466999999943,-1.459356189,17.37718964,-138.2168121,-0.518673182,0.634075105,12.31168079,-13.97275639,43.32988358,1.529684782
4.9997999999999365,-1.470947623,17.81270027,-138.239212,-2.302532434,-1.711319804,7.571217537,-1.426805973,51.79459381,-1.77974546
5.00813299999993,-1.421770334,18.20659256,-138.2632294,2.832359552,1.166182995,-2.734324455,5.946433544,46.80796051,-2.10171628
5.016465999999923,-1.451900125,18.55498505,-138.2303925,-4.005117416,1.932801843,-5.619069099,-5.704619408,41.18321609,4.23211813
5.024798999999916,-1.595649123,18.7669487,-138.2602234,1.467291713,1.216754556,7.61967802,-16.95344925,25.00387001,-3.265292645
5.03313199999991,-1.577612042,18.99943924,-138.2318115,1.858269334,-4.289049625,13.31187153,0.213930234,27.28174019,3.442222357
5.041464999999903,-1.48529911,19.27573586,-138.2178345,-1.848764539,2.056802034,1.785663724,9.681294441,32.58871841,1.911310434
5.04979800000001,-1.472217202,19.43846703,-138.2423248,0.224483266,0.714311123,-1.309551239,1.696892381,19.07541275,-2.821600914
5.058131000000003,-1.512810349,19.49502945,-138.1629791,-1.869175553,0.810172439,2.300498009,-8.891073227,6.036610126,8.594115257
5.066463999999996,-1.563646078,19.50691414,-138.2146606,2.866543293,-1.927642345,7.50433588,-4.876324177,1.064835191,-6.360208035
5.07479699999999,-1.48869586,19.54738045,-138.1469116,-1.094204783,-0.206810251,1.882260442,5.429475307,4.13687849,7.237687111
5.083129999999983,-1.485489607,19.47797203,-138.168869,0.996184111,1.414533257,-0.610777617,0.417896301,-8.779958725,-3.25286746
5.091462999999976,-1.499120831,19.35184288,-138.1586609,-1.290452957,-0.043450654,3.282436371,-2.890912533,-15.67541409,0.201993883
5.099795999999969,-1.502014041,19.17821121,-138.1377258,2.048850298,-1.071592569,4.401137352,-2.023205519,-21.40988731,1.271824241
5.108128999999963,-1.469117999,19.0055275,-138.1613617,-2.24175787,1.629830956,3.43905735,4.029326439,-21.16124916,-3.771813154
5.116461999999956,-1.432889223,18.80931282,-138.1455078,0.178039506,-0.417012006,0.136058003,2.883959532,-24.10232735,0.648911357
5.124794999999949,-1.43202734,18.55666924,-138.1457672,-1.183651924,1.22856462,1.99884069,-0.732990384,-30.82111359,-1.343198895
5.133127999999942,-1.418741584,18.35164833,-138.15625,-1.757837892,-0.792289197,4.781321526,1.144777656,-25.08386612,-2.357035875
5.141460999999936,-1.331600308,18.11047173,-138.1176605,1.929074645,-1.281763434,2.346644163,8.162239075,-29.55330658,3.148196936
5.149793999999929,-1.292135596,17.94626808,-138.1143036,-7.098246574,2.182878256,1.818669081,3.764320612,-20.22673607,-0.623386681
5.158126999999922,-1.255166173,17.79037285,-138.0859833,1.404034853,-0.709289432,1.865838289,2.546926737,-19.2901268,2.259279013
5.1664599999999155,-1.198203921,17.67786217,-138.0455627,-5.507542133,1.360612392,4.588684082,4.51151228,-14.11576462,3.775667191
5.174792999999909,-1.145044446,17.55885506,-138.0228729,3.446454525,-0.587280393,3.997371197,4.707129478,-14.84484959,1.746122718
5.183125999999902,-1.095466375,17.49678993,-137.9342804,-9.554871559,-1.17332983,2.148562908,1.900525331,-8.162783623,9.438437462
5.191459000000009,-1.13908565,17.49769783,-137.9143829,2.287169695,2.092402697,1.092810154,-6.800233364,-0.4491072,1.721840024
5.199792000000002,-1.109406352,17.45609474,-137.8381348,-3.636642694,-1.35334301,6.306663513,-0.031620778,-5.682710171,8.071993828
5.2081249999999955,-1.036589861,17.50031853,-137.7680664,-2.147554398,-1.056149602,-0.108497478,5.366874695,4.640864372,7.565932751
5.216457999999989,-1.076834083,17.57680893,-137.7065125,-1.950134993,0.208613575,-2.299097538,-7.903182983,8.530744553,6.656601906
5.224790999999982,-1.081080675,17.66710472,-137.6102753,0.25531593,-1.218770623,4.467307091,-4.853116989,10.1114769,10.6546526
5.233123999999975,-0.992800653,17.72807121,-137.5429688,-4.510535717,1.476518989,3.219914198,7.291169167,6.657959938,7.27382803
5.2414569999999685,-1.019444823,17.94234085,-137.4550323,-0.171443656,-1.974187016,-3.043452024,-7.27453661,25.01702881,9.937561989
5.249789999999962,-1.028112054,18.0286026,-137.3322449,0.084480286,1.096043587,7.201975346,-6.437486649,9.58182621,13.64480782
5.258122999999955,-0.930347025,18.22447777,-137.2882385,-6.04858017,1.542455196,2.656139851,9.241415024,22.90223503,4.865400791
5.266455999999948,-0.98297745,18.38791656,-137.1258087,5.653947353,-3.643726349,-2.724150658,-13.28576946,18.78380585,18.27805138
5.2747889999999416,-1.000611782,18.58646774,-137.037262,-8.996278763,3.76866293,8.892846107,-6.332906246,23.13299751,9.939353943
5.283121999999935,-0.896145046,18.77890205,-136.9556274,5.513947964,-1.11247611,0.418984711,8.550805092,22.41876984,9.106659889
5.291454999999928,-0.92897284,18.97990608,-136.760849,-6.452142715,-2.036292076,-1.649783373,-12.34867287,23.25052643,21.94204521
5.299787999999921,-0.964242578,19.26890373,-136.7064362,-0.898385525,2.904771328,5.986188412,-7.219111443,34.05624008,6.18599844
5.308120999999915,-0.833411574,19.44037628,-136.5541687,1.765308022,0.054123115,3.148189545,8.796958923,19.78903008,17.00268936
5.316453999999908,-0.813256323,19.78660393,-136.4037781,-9.250366211,-1.447041988,-3.208404064,-4.485944271,40.78172684,17.04128456
5.324786999999901,-0.859144092,20.01465988,-136.3292236,9.159565926,0.827579498,4.286474705,-9.400341988,26.7256794,8.258137703
5.333120000000008,-0.703756511,20.25096893,-136.1295166,-8.05469799,0.22912918,4.225781441,9.551225662,27.53092766,22.33182335
5.341453000000001,-0.788134396,20.52652931,-136.0379486,5.280014515,-2.579695225,-8.241775513,-14.80021572,32.41497803,10.17785358
5.349785999999995,-0.814172804,20.72005463,-135.8755951,-5.725071907,3.126800299,9.297865868,-10.83443451,22.44858932,18.00226402
5.358118999999988,-0.668053091,21.04572487,-135.7552032,-0.738005936,-1.689099073,4.338600159,11.53784752,38.38806534,13.44606113
5.366451999999981,-0.722648382,21.27099228,-135.6202698,0.713971615,-0.353592664,-5.319411278,-13.24345684,26.32969284,14.87281895
5.374784999999974,-0.722984791,21.56138039,-135.4810028,-1.90265739,0.491539389,8.562567711,-6.990530014,34.13300705,15.44258499
5.383117999999968,-0.639219522,21.72533989,-135.3609924,1.811265588,-0.278333753,-2.374641657,3.893928766,18.99736977,13.06526375
5.391450999999961,-0.675447583,22.00863838,-135.2489777,-4.133160114,2.095001459,-2.680034876,-10.20130444,33.33573914,12.30685997
5.399783999999954,-0.624062419,22.13936424,-135.1324768,6.117698669,-1.689117551,10.36782742,0.065393172,15.022192,12.57928467
5.408116999999947,-0.507875383,22.39293861,-134.9975128,-10.77983856,-0.308327824,-3.128787041,6.959010601,29.76425362,14.7390089
5.416449999999941,-0.593351841,22.54973984,-134.9264526,10.78808212,2.096664667,-1.659696102,-14.36445999,18.22297478,7.507305145
5.424782999999934,-0.477520466,22.74713516,-134.8121185,-11.79747391,-2.178776741,9.706330299,7.769519329,23.05274963,12.32606506
5.433115999999927,-0.449206173,22.87047958,-134.71698,12.84869766,1.024544001,-6.679302692,-1.874514103,14.19679546,10.08837223
5.4414489999999205,-0.461838722,23.01165199,-134.6584167,-15.90992069,1.0922153,6.649699688,-5.101729393,16.37390327,6.053797722
5.449781999999914,-0.365330786,23.19269943,-134.5752869,13.77814865,-1.822857499,0.552817345,6.819563389,21.1423111,8.779284477
5.458114999999907,-0.351908118,23.18464279,-134.5231476,-9.587843895,1.132486343,0.302587181,-1.700337052,-1.517400026,5.192799091
5.4664479999999,-0.370470226,23.42464447,-134.451416,2.498061419,-0.94324851,1.049634457,-6.47957325,28.23282433,7.53102541
5.474781000000007,-0.292998224,23.37472725,-134.414093,0.685858607,1.545156717,4.771262169,6.671817303,-6.529261589,3.52016449
5.4831140000000005,-0.250548422,23.56967545,-134.3912048,-5.201559067,-1.730594635,-0.617835462,3.151627779,22.86557961,2.078493595
5.491446999999994,-0.299202144,23.51081657,-134.3181915,9.545430183,0.061578412,-0.404091299,-10.1824398,-7.620146751,7.442165852
5.499779999999987,-0.249949202,23.64823341,-134.3903046,-16.03295326,0.916468143,8.199643135,8.523907661,16.01192474,-8.405582428
5.50811299999998,-0.215791062,23.62311172,-134.3453979,17.96485901,-0.002677044,-5.79858923,1.089885712,-3.551554441,4.373042107
5.5164459999999735,-0.253237247,23.66450691,-134.3918915,-19.33345604,-0.678779781,9.102519035,-3.102255583,4.470094204,-5.644853115
5.524778999999967,-0.186375558,23.69045448,-134.4263458,17.02817917,-0.48963806,2.057563066,8.837704659,2.610526085,-4.33230257
5.53311199999996,-0.181410089,23.5668354,-134.3754578,-10.42514515,0.26796487,2.490521431,-2.698754549,-15.37042522,4.992753029
5.541444999999953,-0.213793024,23.57905388,-134.4816132,4.671980381,0.325011998,9.753720284,0.361340046,0.991450191,-12.2243042
5.549777999999947,-0.106203876,23.31708527,-134.4058228,1.46006918,2.057339191,10.30483246,8.444663048,-31.97867203,7.703053474
5.55811099999994,-0.123965681,23.17086411,-134.4450989,-5.159196854,-2.308912754,3.331388712,-1.119560122,-18.05241966,-4.919202805
5.566443999999933,-0.06397815,22.83834839,-134.4498138,11.01027584,-0.910722077,5.520492554,6.572058678,-40.42007828,-1.138285398
5.574776999999926,-0.046230845,22.46394348,-134.4311371,-12.65903473,4.117710114,19.78381538,0.420612097,-45.44538116,1.471745253
5.58310999999992,-0.048652004,22.01944351,-134.5169373,14.21555138,-6.142878056,2.338274956,2.759428978,-53.85198212,-10.12514114
5.591442999999913,-0.117918655,21.39815331,-134.4480743,-10.33368492,1.10891366,17.39530563,-12.21545219,-75.08078766,7.011932373
5.599775999999906,-0.092350453,20.91248894,-134.5787506,6.2437253,2.806727648,13.08157539,7.881525993,-58.77370834,-15.28753662
5.608109000000013,-0.203429997,20.13745117,-134.6097107,-6.012132645,-3.830741882,11.03375244,-12.87508392,-93.51084137,-4.273167133
5.616442000000006,-0.164718777,19.5971508,-134.6622314,3.320223808,4.259891987,20.80136681,5.94080925,-65.33692932,-6.692602634
5.624775,-0.258600235,18.74965286,-134.8217621,-5.220486641,-4.03296566,8.24211216,-5.827280998,-102.144104,-19.00910759
5.633107999999993,-0.324998945,18.15321541,-134.8803711,-0.196121901,0.283097923,18.30082703,-6.589253902,-72.05831146,-7.589955807
5.641440999999986,-0.434135795,17.32013702,-135.0899353,-4.658017159,1.329949379,14.1189909,-6.282193184,-100.3229523,-25.16928291
5.649773999999979,-0.414957702,16.71973991,-135.2081299,-0.31279394,-2.998614311,21.85835648,5.60734129,-72.46591187,-14.65104103
5.658106999999973,-0.457172096,15.91977787,-135.3466949,-2.934847832,3.511575699,8.43083477,-1.239726663,-96.38497162,-17.23843384
5.666439999999966,-0.449909747,15.36828423,-135.5571747,-5.883004665,-0.128970444,22.42329216,6.835573673,-66.50493622,-25.39784813
5.674772999999959,-0.419166803,14.65521812,-135.6577606,0.350271791,0.033419341,3.695639372,5.968541145,-85.99054718,-12.85895729
5.6831059999999525,-0.45730716,14.17967415,-135.8540802,-8.905919075,1.175186396,24.23154449,0.441847086,-57.40891647,-23.80752754
5.691438999999946,-0.420766443,13.55528736,-135.9730682,4.294940948,-1.453183174,10.69171143,6.960550308,-75.3319397,-14.98695278
5.699771999999939,-0.423449367,13.16414356,-136.1321716,-13.77156448,-0.668287218,27.44809151,3.242513418,-47.31812286,-19.47461319
5.708104999999932,-0.424470544,12.71217823,-136.3163147,5.579342842,-0.11758478,4.131813049,3.97833848,-54.58852386,-22.48873901
5.7164379999999255,-0.314521223,12.40390682,-136.4136658,-6.884694576,-0.19206579,32.48280716,14.88755512,-37.43770981,-12.19512272
5.724770999999919,-0.305694789,12.05242252,-136.563858,-3.856203318,0.898587465,2.839991093,4.030508995,-42.59333801,-18.39731598
5.733103999999912,-0.336885303,11.72656441,-136.6568298,-5.09540081,0.108218446,24.26583672,-2.29118371,-39.56120682,-11.69034195
5.741436999999905,-0.334112942,11.50201797,-136.7830048,-0.822243452,-1.087360263,9.871910095,2.533326626,-27.36874199,-15.54474068
5.749770000000012,-0.306059301,11.27591324,-136.9033051,-6.364227295,0.421490133,28.96424866,5.370541096,-27.57237816,-14.85863781
5.7581030000000055,-0.165870756,11.20873642,-136.9559937,0.191301584,-0.820474803,10.49151993,17.20841599,-8.54671669,-6.793832302
5.766435999999999,-0.172006443,11.10789967,-137.0851288,-9.177390099,1.562652111,16.44318771,1.41464901,-12.5736866,-15.79288483
5.774768999999992,-0.123147339,11.02227116,-137.1359863,-2.086129665,1.311873555,16.41501617,6.188272476,-10.77238941,-6.566378117
5.783101999999985,-0.165812507,11.00980854,-137.2340546,-2.284174681,-2.650317907,16.91073036,-3.717996836,-1.984117508,-12.10855579
5.791434999999979,-0.066412754,10.93279457,-137.3317261,-5.24071312,0.368913949,22.24402428,12.58284283,-9.723359108,-8.200592041
5.799767999999972,0.064031817,11.13398075,-137.3680267,-0.620907068,-1.498897314,20.3116169,15.64100838,23.62591934,-4.829964161
5.808100999999965,0.060694382,11.13818645,-137.4756927,-6.847353458,1.265406966,6.068046093,0.503499091,-0.000806849,-9.335019112
5.816433999999958,0.103190616,11.2309618,-137.5047913,-3.503148317,1.860569,25.27173805,4.930560589,10.61049271,-3.995474577
5.824766999999952,0.021791834,11.2982254,-137.5914307,-0.337277591,-3.010374546,9.257893562,-9.222933769,7.565064907,-7.467256546
5.833099999999945,0.149259448,11.36848068,-137.6171265,-5.264978886,0.235296577,26.94954681,15.05569267,7.908755302,-3.589797735
5.841432999999938,0.199846804,11.60093689,-137.6488037,0.543042719,-1.416724205,11.33550453,5.980697155,27.37322998,-4.364347935
5.849765999999931,0.223701388,11.71909332,-137.6838684,-5.541904926,2.070766687,19.00576019,2.8659513,13.64621544,-4.727478981
5.858098999999925,0.230106592,11.84945679,-137.7026672,-2.824283838,-1.555256724,11.55193043,0.382753551,15.12269783,-2.826595068
5.866431999999918,0.154910445,11.92740536,-137.7461243,-1.20366025,0.69925499,18.32435799,-8.797530174,8.819828033,-5.686630249
5.874764999999911,0.178704157,12.15322304,-137.7302399,-4.121184349,-2.165127277,22.5175209,1.610777736,26.59184265,1.230892897
5.8830979999999045,0.163753614,12.32993698,-137.754715,-0.959448755,-0.412956655,10.61657524,-2.01803112,20.68001938,-3.487289906
5.891431000000011,0.271717936,12.51840782,-137.7774048,-6.423621178,4.278044701,24.37907982,12.69334602,22.09618378,-3.285629272
5.899764000000005,0.217021748,12.74422932,-137.7747498,-2.30167222,-3.068486214,10.67339039,-7.480321884,26.58269691,-0.359355122
5.908096999999998,0.059098814,12.87635326,-137.7941284,-2.085487843,-2.726807594,11.41784,-19.28244781,15.33676338,-2.854926109
5.916429999999991,0.079908013,13.07758236,-137.8106842,-5.459587097,3.391448498,27.05715179,2.096526146,23.62794304,-2.520122051
5.9247629999999845,0.156160325,13.42403221,-137.8553772,-0.415702581,-1.886748433,18.2151165,9.531712532,41.05377197,-5.861942291
5.933095999999978,0.075907625,13.60524082,-137.8620911,-5.143485069,-1.179285765,8.550443649,-10.28999901,21.22698784,-1.381798983
5.941428999999971,0.016913321,13.78471565,-137.8781433,-0.542529047,4.333456993,13.80562115,-7.470510006,21.02373695,-2.444738865
5.949761999999964,0.001754301,14.02609348,-137.9165955,-5.508727551,-2.905353785,26.3048687,-1.555541158,28.44737244,-5.036953926
5.9580949999999575,-0.00037577,14.29502106,-137.9280243,0.172254205,-1.899755955,14.71096611,-0.769055247,31.76124382,-1.876410723
5.966427999999951,0.01246394,14.54925442,-137.9502411,-2.475563765,1.645546794,12.38978004,1.359220505,29.98999214,-3.142139196
5.974760999999944,-0.011917361,14.74932766,-137.9722748,-4.882973671,0.261326998,17.92688751,-3.106354713,23.49909782,-3.114013433
5.983093999999937,-0.083632909,14.95898533,-137.9822235,-0.878825128,0.492375046,10.95438194,-9.147423744,24.64334106,-1.686301231
5.991426999999931,-0.161809519,15.12981033,-138.0449066,-4.850500107,0.437363148,24.0695076,-8.276538849,20.00244904,-7.766047478
5.999759999999924,-0.094184399,15.36862087,-138.0624695,1.618275166,-2.575080872,15.04635525,7.822029114,28.14586449,-2.523887634
6.008092999999917,-0.100809567,15.57583332,-138.0786896,-5.480555534,0.64671737,14.88578987,-1.121968031,24.35756302,-2.389361143
6.01642599999991,-0.210809335,15.74337578,-138.1424561,-3.754343033,1.347066283,13.37720966,-11.98240948,19.60839844,-7.865763664
6.024758999999904,-0.268488407,15.85314369,-138.1654053,-0.151810229,-2.347043753,13.51617146,-7.019005775,12.67146587,-3.147593021
6.033092000000011,-0.296981454,15.99733829,-138.1931305,-3.266596317,1.764246821,21.60431099,-3.353608131,16.80204391,-3.66784358
6.041425000000004,-0.268432319,16.1724472,-138.2691803,0.394675612,-1.712452769,15.2605648,5.107813835,20.54495811,-9.214840889
6.049757999999997,-0.31317696,16.30812073,-138.2739868,-5.536021709,-0.652557433,16.41158485,-6.055090904,15.76553822,-1.026170373
6.05809099999999,-0.442200094,16.36024094,-138.3358154,-0.540651023,1.824876547,8.286361694,-14.24396515,5.791226387,-7.627626419
6.066423999999984,-0.480709255,16.43329239,-138.4016876,-2.761853456,-0.360377133,18.87924957,-3.235808134,8.308592796,-8.067294121
6.074756999999977,-0.445777357,16.55395126,-138.3959656,-5.547855377,0.614386201,17.65007973,3.150653601,13.96365261,0.219770163
6.08308999999997,-0.473811388,16.72005463,-138.4978027,0.390361816,-1.437114358,11.62849426,-0.712652385,19.50837326,-12.09977436
6.091422999999963,-0.460208923,16.79344177,-138.4629059,-3.259419918,-0.134308651,3.304888487,-0.421802431,8.262589455,3.523263931
6.099755999999957,-0.529069006,17.00718117,-138.5048065,-10.6740551,2.324388742,20.29033089,-7.648377419,25.17184448,-5.144738197
6.10808899999995,-0.594355166,17.24147797,-138.5362396,-1.434393287,-1.885694265,4.9004426,-7.57197094,27.6405468,-3.886541128
6.116421999999943,-0.656545281,17.47901154,-138.5293427,-4.850404263,-0.571036279,14.10670567,-8.556248665,27.9756794,0.547940075
6.1247549999999364,-0.695847452,17.94110489,-138.5920868,-3.061649323,-0.351848602,4.036560059,-3.273136854,55.02216721,-7.074094296
6.13308799999993,-0.675954938,18.36863518,-138.5801544,-1.494829893,1.855702043,-0.81564182,1.094345093,50.76812363,1.422950983
6.141420999999923,-0.849353731,18.72144508,-138.6118774,-2.991758823,-3.353664637,2.490345001,-20.44656372,41.8711853,-3.59758997
6.149753999999916,-0.937399268,19.2281208,-138.60466,-2.911839008,2.489611626,18.91035271,-11.69348717,60.26508713,1.211634159
6.1580869999999095,-0.860202372,19.67979431,-138.597229,0.373701155,-4.31342411,-8.494095802,8.118632317,53.67102814,1.133381486
6.166419999999903,-0.94128406,20.22337341,-138.6203766,-5.558642387,5.645396709,18.32849121,-9.628952026,64.74721527,-2.136888504
6.17475300000001,-0.978677869,20.59362411,-138.5915527,3.935318232,-4.611909389,-16.71347618,-6.542233467,43.85892487,3.429496288
6.183086000000003,-0.929535091,21.17011452,-138.6240234,-8.0871315,5.221363544,27.11651993,6.439931393,68.7145462,-3.04133153
6.191418999999996,-1.005346179,21.53034401,-138.6264801,4.190639496,-2.687943697,-12.22820854,-9.836971283,42.7146225,-0.101009898
6.1997519999999895,-1.058854222,21.97725105,-138.6347351,-5.747387886,0.53918916,12.39651108,-6.900429249,53.12001419,-0.508328617
6.208084999999983,-1.001614809,22.40219116,-138.6713715,4.058825493,-2.682866812,-4.452043533,7.682111263,50.54645538,-3.705248833
6.216417999999976,-0.980085433,22.81282425,-138.6717682,-5.440291405,1.559178472,6.509597301,1.754706621,48.75346375,0.253453374
6.224750999999969,-0.997628033,23.19693375,-138.6975708,0.61396575,2.755553007,3.257204294,-1.741271615,45.62331009,-2.609185934
6.2330839999999625,-1.084647298,23.43234062,-138.724823,-1.726265311,-2.591845512,5.920229435,-9.995130539,27.78216934,-3.042525053
6.241416999999956,-1.142652035,23.72661781,-138.7221069,0.273545235,-0.484364629,2.838587523,-7.940050602,34.78886032,0.43354705
6.249749999999949,-1.164431095,23.95763588,-138.7588959,-0.144733757,0.069749057,0.877306938,-1.675927639,27.28094482,-4.030133724
6.258082999999942,-1.154763699,24.13381767,-138.7457428,0.002265243,-0.107670605,-1.23570466,-0.330667078,20.59531212,1.314855933
6.266415999999936,-1.212818146,24.25839806,-138.7545319,-0.32525894,-0.505248606,3.529575825,-7.381242752,14.44847965,-1.207416773
6.274748999999929,-1.193210959,24.33169174,-138.7602539,1.887925506,-0.615891516,5.063943863,1.788283348,8.293095589,-0.991130054
6.283081999999922,-1.174508452,24.38965034,-138.7412109,-1.231020093,-0.36703828,1.447804093,0.455472291,6.391981602,1.671917915
6.291414999999915,-1.199427962,24.35046196,-138.7579346,1.566687703,1.433580875,2.710175037,-3.010556221,-5.175471306,-2.476806879
6.299747999999909,-1.217338324,24.26177216,-138.7296143,-0.758958697,-1.874984622,5.221083641,-4.393187046,-11.22473431,2.317883253
6.308080999999902,-1.228448987,24.12838936,-138.7361145,1.42750752,0.990361035,4.210997105,-1.862501502,-16.49976158,-1.60748589
6.316414000000009,-1.243840694,23.97036934,-138.7171783,-2.799312592,-0.232081532,2.826111794,-3.6204319,-19.5220871,1.11265707
6.324747000000002,-1.254529834,23.77111626,-138.7072601,1.046108842,0.91335839,3.138651133,-2.611641407,-24.44238091,0.013934149
6.333079999999995,-1.287706017,23.58481789,-138.6965637,-5.57847023,0.387777805,2.014441252,-5.343605518,-22.89505005,0.125330493
6.341412999999989,-1.293358922,23.41489983,-138.6914063,2.650960922,-1.170535088,3.831753731,-1.773133159,-20.91427231,-0.441013247
6.349745999999982,-1.277741671,23.20648384,-138.6751862,-4.257712841,1.937590241,2.261377096,0.257653713,-25.56223679,0.670580983
6.358078999999975,-1.298741698,22.9925499,-138.6801605,1.37895,-2.291410923,1.319519281,-3.133327007,-26.16893959,-1.676849604
6.366411999999968,-1.311987638,22.82631111,-138.6536713,-7.277249336,0.016389623,4.118983269,-3.673043966,-20.52957344,1.917021155
6.374744999999962,-1.338535309,22.75574493,-138.6845093,0.238058418,1.380493045,0.99030906,-2.600037098,-8.90021801,-4.160405636
6.383077999999955,-1.309898853,22.61662865,-138.6596222,-1.457414389,-2.05363369,2.983994484,1.438265204,-17.27254105,1.81476891
6.391410999999948,-1.269266963,22.52152824,-138.6770782,-3.342966795,3.015797138,0.943713844,4.834099293,-11.88074303,-2.748318672
6.3997439999999415,-1.307806373,22.47213745,-138.680603,-2.511105537,-2.742823362,-0.488090098,-5.309920311,-6.435153961,-1.077911019
6.408076999999935,-1.340231538,22.47421837,-138.6566315,-0.783393323,-1.137932777,4.113082886,-5.837753773,-0.326338202,2.107616425
6.416409999999928,-1.26204443,22.40886116,-138.6858521,-1.906627893,5.577227116,4.440902233,9.874902725,-8.284682274,-3.971346617
6.424742999999921,-1.25056982,22.4867897,-138.6860809,-4.762220383,-5.695570469,-2.866464376,0.539461434,8.834478378,-0.36596337
6.4330759999999145,-1.325464606,22.49566841,-138.6521606,2.54834795,1.12425828,4.110287189,-11.39151001,0.4631823,3.229520321
6.441408999999908,-1.242666483,22.56053162,-138.7047577,-6.255114079,4.606543064,6.86446476,11.50740337,7.397418499,-6.207240105
6.449741999999901,-1.233404279,22.6313839,-138.6736145,2.740067005,-7.103202343,-3.674218893,-1.170916319,7.907805443,3.080598593
6.458075000000008,-1.29791522,22.7328186,-138.6533813,-5.513782501,4.045397282,4.421719551,-9.523310661,11.60355759,1.957926869
6.466408000000001,-1.204436183,22.8344841,-138.7066193,0.737529874,1.61519146,6.320175171,12.84510708,11.80791092,-6.175504208
6.4747409999999945,-1.201498747,22.93314743,-138.6479645,-0.476058096,-6.879960537,-4.7787714,-3.234194279,11.18742752,6.176129818
6.483073999999988,-1.268096089,23.08371735,-138.6516418,-4.402355671,6.202583313,5.216648102,-8.666259766,17.55510712,-0.570109069
6.491406999999981,-1.176121473,23.18544197,-138.6953735,3.596483231,-1.603824854,3.987001657,12.25280285,11.79200268,-5.117917061
6.499739999999974,-1.142628193,23.30852127,-138.5927734,-5.180092335,-1.872988105,-5.370418072,-1.686480284,14.01905918,11.05620861
6.508072999999968,-1.210043073,23.49102974,-138.6815491,-0.893825233,4.579172134,3.753378868,-4.706246376,21.5825119,-9.878914833
6.516405999999961,-1.074300408,23.605793,-138.6251526,-1.13034296,-3.706084251,5.730409622,12.7383461,13.12819672,5.925111771
6.524738999999954,-1.052240014,23.85836411,-138.6138611,-5.995594025,2.268611193,-4.898218632,1.253510475,29.7645607,1.252665281
6.533071999999947,-1.128543735,24.00415802,-138.7013397,4.872225761,-1.380005479,8.63035202,-5.745338917,17.15818787,-9.814904213
6.541404999999941,-0.935071349,24.22927094,-138.5784149,-7.94218874,-1.425548792,3.43923974,16.34486961,26.25067329,13.39385033
6.549737999999934,-1.063427687,24.39588165,-138.6895447,7.82984972,1.194697499,-8.080132484,-10.76007175,19.68542099,-12.35670948
6.558070999999927,-1.018640757,24.53150177,-138.6248779,-7.353432655,-0.542208552,9.0269804,1.311116099,15.62699318,6.811825275
6.56640399999992,-0.917435288,24.73869324,-138.6171875,0.394318581,1.804434657,-3.251801729,10.91295242,24.32823563,0.703700244
6.574736999999914,-0.969607174,24.86129379,-138.68367,-1.115618706,-0.891376317,6.249918461,-3.760003805,14.31223965,-7.553114414
6.583069999999907,-0.80106312,25.07924652,-138.5728149,-1.086833715,-1.276596546,6.029202938,13.76231098,25.44855881,11.90727425
6.5914029999999,-0.842468798,25.12005997,-138.6705933,3.419440746,0.886146903,-2.900582075,-0.838546097,4.532900333,-11.10358047
6.599736000000007,-0.800589621,25.19277763,-138.607605,-1.124808669,-0.610468745,6.886044025,0.965349376,8.110056877,6.413779736
6.608069,-0.674509883,25.12171555,-138.6458893,3.717253923,2.200488329,8.618720055,16.23666191,-8.989919662,-4.82166338
6.616401999999994,-0.619925976,25.04927444,-138.6782379,-4.570507526,0.377739608,9.846006393,7.349928379,-9.171472549,-4.166911125
6.624734999999987,-0.57710135,24.80372429,-138.7058716,7.370834351,-1.258956909,6.507047653,5.689310551,-29.95096779,-3.866971731
6.63306799999998,-0.351014316,24.56159401,-138.7457886,-2.814590931,-0.004495603,3.725930452,28.28469086,-29.53824234,-5.140387535
6.6414009999999735,-0.437767893,24.06690979,-138.7968597,1.58850491,1.08506906,15.37806416,-8.735648155,-59.83919144,-6.544471741
6.649733999999967,-0.255230367,23.70041275,-138.9007568,0.357329696,-0.797391653,10.68865585,26.10874939,-44.43090057,-12.22325516
6.65806699999996,-0.20231539,22.96404076,-138.9400787,1.675923586,-1.988387704,9.991793633,7.371674538,-88.86410522,-5.237212658
6.666399999999953,-0.206174836,22.40089226,-139.0723877,-2.444704533,0.651994586,12.74405479,4.813242435,-68.0454483,-15.44710159
6.6747329999999465,-0.179062232,21.614048,-139.1998291,-0.65542233,-0.380810857,19.3512001,8.136505127,-94.88941956,-15.04772949
6.68306599999994,-0.087915704,20.9402771,-139.3171997,-0.807139397,-0.102513991,11.67963982,15.20206356,-81.34286499,-13.86674786
6.691398999999933,-0.111738116,20.11506271,-139.4591217,-4.7397089,-0.386083603,12.30818367,2.267751217,-99.51452637,-16.67480087
6.699731999999926,-0.106928363,19.39384842,-139.5854034,-2.200949669,-1.333053827,18.58599281,4.852932453,-87.03972626,-14.98229122
6.70806499999992,-0.10943272,18.59924126,-139.7508698,-5.878437519,0.468560845,11.48610687,5.315459251,-95.83494568,-19.50780106
6.716397999999913,-0.137620732,17.97204399,-139.907196,0.925333261,-2.091675758,13.21705818,1.655892372,-75.74478149,-18.52576065
6.724730999999906,-0.129946902,17.25537682,-140.0415497,-3.419024944,0.198888242,15.95751286,4.95293045,-86.48153687,-16.11770058
6.733064000000013,-0.090988062,16.74794197,-140.2112427,-4.417048931,-0.290343821,15.53073025,9.782292366,-61.37423706,-20.14724922
6.741397000000006,-0.134139791,16.13633156,-140.3407898,-6.907259464,-0.550909936,21.21584129,-1.625730872,-73.87852478,-15.6008234
6.74973,-0.04751971,15.7185297,-140.50737,-2.446743965,0.444628358,13.42614079,15.03321457,-50.62483978,-19.85745049
6.758062999999993,-0.047709074,15.17786407,-140.6358185,1.293691993,0.301712275,14.93312359,3.237472773,-65.38343811,-15.46589661
6.766395999999986,0.042659987,14.84556103,-140.7376099,-10.65521622,0.725723922,20.24437904,13.16061592,-40.39429474,-12.35334396
6.774728999999979,-0.02299669,14.31090355,-140.890625,1.049295068,-0.157240555,14.32792473,-4.103173256,-64.67835999,-18.31180573
6.783061999999973,0.092151597,14.02907467,-140.9845428,-4.933204651,-0.571677446,17.85157967,15.72915936,-34.34431458,-11.45983601
6.791394999999966,0.033448242,13.66166115,-141.1242981,-3.335771322,-2.727721453,15.6202116,-3.876478672,-44.62242889,-16.78712845
6.799727999999959,0.219801709,13.43626308,-141.1901245,-3.985592842,-0.016034171,24.37197113,23.36661148,-27.58401299,-8.172653198
6.808060999999952,0.213816702,13.28317738,-141.2993011,-3.483113527,-0.031968564,3.870489836,1.463521361,-18.93222046,-13.23661041
6.816393999999946,0.246717319,13.04913998,-141.4111023,-9.700490952,3.448180676,26.26425743,6.156592369,-28.65540314,-13.50246811
6.824726999999939,0.221336812,13.00010109,-141.4796448,0.796496809,-5.258051872,10.57857418,-2.039239168,-6.43103075,-8.542822838
6.833059999999932,0.135344088,12.77203941,-141.5665588,-3.037196875,0.320361763,14.37560368,-8.840644836,-27.91770554,-10.63474369
6.8413929999999255,0.237344548,12.89538574,-141.6398163,-7.732937336,-1.20711875,30.33451653,12.48840237,14.29087543,-5.290173054
6.849725999999919,0.205098823,12.84782028,-141.7283325,-0.236621901,0.861394644,3.759940386,-2.348941088,-6.2663064,-10.88844681
6.858058999999912,0.345552653,12.94638348,-141.8012848,-6.355144978,3.20791626,28.11367416,17.96183586,11.27364922,-9.139559746
6.866391999999905,0.234597474,13.00962353,-141.8408661,-2.024089575,-4.792543888,4.406965256,-13.09606361,7.047835827,-5.21827507
6.874725000000012,0.235311195,12.97723293,-141.9236145,-2.338356972,2.712986708,18.77287102,0.572478235,-4.40607214,-6.198940754
6.8830580000000054,0.24610503,13.15566254,-141.9583893,-4.404017925,-1.748284221,22.39093971,1.39249289,20.87712288,-4.707449913
6.891390999999999,0.239452049,13.23808289,-142.035965,-1.292356253,-0.800122797,17.86193085,-0.271600574,9.368151665,-6.351216793
6.899723999999992,0.341071099,13.36434841,-142.0509644,-2.290384531,0.422962368,16.92354774,11.76218987,14.62504196,-2.381292343
6.908056999999985,0.310830891,13.47700405,-142.1410675,-6.029652596,1.549729347,15.11411095,-2.560642958,12.97205067,-8.58365345
6.9163899999999785,0.323870748,13.55323887,-142.1760406,0.668097556,-1.353406906,15.40292931,1.698300481,8.608201027,-4.685342789
6.924722999999972,0.247493327,13.57416248,-142.1865387,-2.329476357,-2.581740856,11.78490162,-9.716081619,1.990866303,-1.791856647
6.933055999999965,0.181552514,13.66326141,-142.2819214,-4.379743099,1.095867872,24.59677696,-6.065363407,10.13325119,-11.71673584
6.941388999999958,0.178735226,13.69222927,-142.3080902,-0.118400447,-3.436470032,17.65460777,-0.443677008,2.953654289,-3.609852314
6.9497219999999515,0.157537654,13.81647205,-142.3716583,-3.449062109,0.623179317,15.46920776,-1.575852275,14.36943722,-8.00658989
6.958054999999945,0.051820237,13.8117733,-142.4615784,-5.862472057,0.46238637,12.28522015,-10.95773411,-1.096097469,-11.02763462
6.966387999999938,-0.063135751,13.82083321,-142.475174,-0.876401007,0.266075134,12.55424213,-14.25203037,0.569327652,-2.139057636
6.974720999999931,-0.211120814,13.86503983,-142.551239,-2.007683277,-1.081846714,22.75908661,-16.4214325,4.812429905,-9.403130531
6.983053999999925,-0.33196348,13.85876179,-142.6099396,-5.404593945,-3.252413273,15.42922688,-13.66067696,-1.239767671,-7.396662712
6.991386999999918,-0.359481901,13.9114666,-142.6392975,0.19793956,1.688625932,17.92590714,-3.303020239,5.8328228,-3.934795141
6.999719999999911,-0.385943264,14.06647873,-142.7080994,-8.62370491,1.461992621,21.00240898,-2.027047396,18.13657761,-8.443851471
7.008052999999904,-0.486891329,14.07397366,-142.7595825,-0.807400048,-0.67341584,6.62908411,-12.03506756,0.424453527,-4.173212528
7.016386000000011,-0.631088972,14.0598917,-142.7875977,-1.708508611,0.987221062,14.16790867,-17.33414268,-2.176813841,-3.830802202
7.024719000000005,-0.7628178,14.13622284,-142.8582458,-6.318407536,-0.750219643,25.40755653,-15.08272934,8.730410576,-6.642759323
7.033051999999998,-0.722847641,14.22781944,-142.8968353,-1.168949008,-1.639820457,20.19756699,5.083862782,10.53190899,-4.898198605
7.041384999999991,-0.685171545,14.30018616,-142.9376373,-1.701747417,1.748721719,5.800723076,4.882304668,8.227396011,-5.18874073
7.049717999999984,-0.745527744,14.3449173,-142.9934998,-5.423361778,0.427797318,16.34511375,-6.431850433,4.931201935,-6.980123043
7.058050999999978,-0.863761485,14.29891968,-143.0369415,-1.209789515,-0.616552949,17.02470779,-14.22921085,-5.980220795,-3.738565207
7.066383999999971,-0.886884093,14.28316879,-143.102066,-2.779583216,0.935187101,18.43995667,-1.691474557,-2.293255568,-8.156072617
7.074716999999964,-0.798270583,14.31969261,-143.1266174,-2.011904716,-3.147898674,21.70778847,10.51408005,3.911754847,-3.339340925
7.083049999999957,-0.797050059,14.35370922,-143.1694794,-2.699723005,-0.20015125,9.703424454,0.573605239,3.632815838,-5.47884655
7.091382999999951,-0.841674626,14.3207283,-143.2460022,-4.579576015,1.146124482,12.86429405,-4.496617794,-4.36496067,-7.213340759
7.099715999999944,-0.849144995,14.21710682,-143.2522583,-3.438540936,1.686431646,17.52211952,-1.55922842,-12.94032669,-1.463789821
7.108048999999937,-0.883279383,14.23339653,-143.3400116,-3.259358168,-0.823305368,19.05526161,-2.354089499,1.594844818,-10.72735691
7.1163819999999305,-0.896692336,14.20289421,-143.3548279,-2.555994272,-3.802364588,17.77565575,-2.021411419,-4.14992857,-2.329447746
7.124714999999924,-0.841674507,14.18240547,-143.3859863,-1.789729595,1.84138155,10.03584671,6.671841621,-2.917192221,-4.211069584
7.133047999999917,-0.82499212,14.20664406,-143.4357147,-3.818996429,-0.351589233,16.77116394,2.619158268,2.474130154,-6.294224739
7.14138099999991,-0.892114878,14.14505291,-143.4409485,-6.357349396,0.629104793,13.40522861,-8.747710228,-7.893373013,-1.27222085
7.1497139999999035,-0.926564932,14.10913181,-143.529541,-0.303792238,0.900624335,14.87420464,-2.384903193,-4.664595604,-10.93063164
7.1580470000000105,-0.902510881,14.13015079,-143.5120697,-3.887269735,-2.056596994,19.76375961,1.526736617,1.976061463,1.523483515
7.166380000000004,-0.906597257,14.18296814,-143.599472,-5.307118416,-1.771800876,14.29091263,1.227818251,5.980359554,-10.6201601
7.174712999999997,-0.874119997,14.18479729,-143.649765,0.549689054,0.422051936,11.96653557,3.69843936,-0.239172921,-3.016985416
7.18304599999999,-0.886726379,14.21846581,-143.6578369,-9.366863251,2.486733675,14.44560814,-2.122152328,3.536352634,-1.426520824
7.1913789999999835,-0.869027674,14.28316498,-143.7756958,-0.229404196,-1.091544747,19.86392975,3.895772696,7.422801971,-10.64915848
7.199711999999977,-0.866475284,14.28235531,-143.7330475,-2.039674759,-0.895108938,8.80362606,-1.8027426,-0.690521359,4.40316391
7.20804499999997,-0.865124643,14.35456657,-143.8596344,-4.125720024,0.212701961,19.58319855,2.309200764,8.343071938,-12.06726742
7.216377999999963,-0.749058306,14.40684795,-143.8298035,-0.436575502,-1.708499551,18.95000458,12.1920948,5.706519127,3.004037619
7.224710999999957,-0.697938919,14.50676918,-143.9083405,-7.745860577,2.780995846,7.620920181,6.870047092,11.56798172,-6.448142052
7.23304399999995,-0.655454338,14.53533268,-143.9517517,-0.373285025,0.003420245,15.91305542,5.557085514,2.969483852,-5.552512646
7.241376999999943,-0.566140175,14.58130455,-143.8937073,-2.65307641,-1.815716028,12.745471,8.120890617,4.931842327,6.257071972
7.249709999999936,-0.659426033,14.69007015,-143.9817963,-4.563930988,-1.715162635,9.455377579,-9.371239662,12.64331818,-10.64180756
7.25804299999993,-0.582195818,14.73776722,-143.9411774,-3.635664463,0.008811377,20.23820305,7.184229374,5.158297539,4.223813534
7.266375999999923,-0.508449852,14.97261524,-143.9807129,-5.942714691,-1.595001578,13.95381737,9.219696999,27.70739746,-4.869359493
7.274708999999916,-0.565935612,15.06147194,-143.9983215,-0.762082815,0.267294616,-6.84805727,-7.945882797,10.15484238,0.369152397
7.283041999999909,-0.556235254,15.36681747,-143.9455719,-6.058000088,-1.894640088,20.78931046,-1.344889998,36.06373596,5.916588783
7.291374999999903,-0.584136009,15.64929199,-143.9991608,-3.195444584,-1.394854546,-2.73099184,-2.4763484,33.44428635,-6.408137321
7.29970800000001,-0.546750784,16.10233688,-143.9016418,-5.151479721,2.932661772,11.13077831,0.438363194,53.73590851,11.24134827
7.308041000000003,-0.550478399,16.52054024,-143.894928,-6.375025272,3.193220139,5.471710682,-1.520861149,49.66198349,0.70444417
7.316373999999996,-0.472926944,16.99155235,-143.8791351,0.545566738,-2.044656515,11.5112381,7.913105488,55.98711777,1.767105579
7.324706999999989,-0.534331501,17.41209793,-143.7931213,-3.08778286,-3.373387814,-3.123388052,-11.26809883,49.86372757,9.752641678
7.333039999999983,-0.372215301,18.0382309,-143.8347931,-3.978890896,5.593602657,18.87601089,20.12971878,74.65621185,-4.721355915
7.341372999999976,-0.445158869,18.38380241,-143.7465973,0.995264947,-6.894097805,-22.48883247,-12.90950584,40.88286972,9.798177719
7.349705999999969,-0.41599068,19.01832771,-143.7498627,-4.639771461,5.88817215,31.74259567,2.779849768,75.62776947,-0.351032078
7.3580389999999625,-0.421948493,19.35546875,-143.7526245,1.123129129,-6.140715599,-13.70274544,-1.452956676,39.94517517,-0.5661906
7.366371999999956,-0.289927989,19.94948769,-143.6775818,-0.707632184,4.573147774,7.306781292,11.96743488,70.71194458,8.371974945
7.374704999999949,-0.483314157,20.28223991,-143.7518463,-4.874928951,-3.530324936,0.213332742,-20.98843193,39.47227478,-8.656308174
7.383037999999942,-0.358622313,20.71425056,-143.6685028,5.432023525,-0.049485728,19.30414581,10.61366844,51.25495148,9.197914124
7.3913709999999355,-0.267722666,21.1313324,-143.7088165,-9.249619484,1.116198897,-11.99830914,11.78874779,49.56240082,-4.797031879
7.399703999999929,-0.290280133,21.4927845,-143.6883545,6.487641811,1.26850307,-0.297610074,-4.446062088,42.84528351,1.949323416
7.408036999999922,-0.385720313,21.67580605,-143.6527863,-6.059912205,-0.395470053,5.779447079,-13.87151337,21.42406654,3.548008919
7.416369999999915,-0.410440952,21.89944839,-143.6898346,5.826908588,-3.281628847,15.1646862,-2.163981676,26.34848213,-4.493469715
7.424702999999909,-0.269126743,22.12654686,-143.6641388,-3.025948048,-1.432654262,0.884277642,14.95678043,26.7202034,2.475925207
7.433035999999902,-0.16763404,22.31067467,-143.649765,-1.163821101,3.620617628,-2.726076365,10.6801157,21.57254982,1.128486872
7.441369000000009,-0.222976372,22.313097,-143.6971893,0.365852028,-1.593897223,-0.52646929,-5.327108383,-0.206566021,-5.812677383
7.449702000000002,-0.192651391,22.34419823,-143.6104736,-1.407204747,-0.053453397,9.584236145,-1.161977053,3.178931713,9.087368011
7.458034999999995,-0.133627847,22.31336975,-143.6912231,2.010438442,-0.307098925,2.424542189,9.918190002,-4.189502716,-9.521464348
7.466367999999989,-0.052915528,22.26212502,-143.6132813,-3.122810602,0.141527697,-0.560756922,5.29185009,-6.68199873,8.092766762
7.474700999999982,-0.074495755,22.08584976,-143.6438599,3.075209379,0.855453312,1.777285695,-2.050382137,-21.66595078,-3.974985361
7.483033999999975,-0.052719433,21.89669991,-143.6357422,-3.997062922,-1.332684159,6.351245403,1.401227355,-23.21709824,0.326607257
7.491366999999968,0.004568563,21.67995644,-143.6133881,5.678212643,-1.117891073,0.956959844,5.033200741,-26.52664375,1.933184505
7.499699999999962,0.006858756,21.41169739,-143.6535645,-6.945225239,1.627614975,2.653166294,1.196851969,-32.71085739,-5.031831741
7.508032999999955,0.019824045,21.10017204,-143.6407166,6.544278145,-2.724854708,1.348952413,0.151969448,-37.89870453,0.889839649
7.516365999999948,0.012053342,20.73825645,-143.650116,-6.758062363,1.80412519,3.958252907,-1.37629354,-43.95078278,-1.595039368
7.524698999999941,0.0335209,20.46513176,-143.67659,0.983204961,-1.765962601,4.207654476,2.846486807,-33.29175949,-3.511291981
7.533031999999935,0.081543557,20.13726234,-143.6463928,-5.523988247,0.08955238,3.380810738,3.658153296,-39.85958481,2.885780573
7.541364999999928,0.037611306,19.91907501,-143.6773529,-2.42448926,0.366537511,0.390206903,-4.845716953,-26.70261383,-4.012434006
7.549697999999921,0.053451568,19.5962429,-143.6357117,1.38553226,-2.490403175,4.638071537,-0.635707676,-39.25569534,4.181478024
7.5580309999999145,0.139031485,19.38232803,-143.6641388,-6.206276417,4.165057182,0.15067561,10.02075577,-26.18108177,-2.157296181
7.566363999999908,0.120582469,19.12896347,-143.6719513,0.904441178,-3.797778845,-0.243124023,-2.7527771,-30.92441177,-1.366559029
7.574696999999901,0.155986905,18.99492645,-143.6164703,-5.375976563,-1.902321815,4.918827057,0.699857831,-16.5752697,7.349264145
7.583030000000008,0.169056058,18.779356,-143.637146,1.862898469,4.129406452,-1.921781182,1.524662614,-26.39373016,-2.825725794
7.591363000000001,0.188930914,18.6947155,-143.6630402,-7.594790459,-4.410491467,4.459115505,1.947808623,-10.66928959,-1.678615928
7.5996959999999945,0.17740193,18.57555962,-143.6425781,4.653958321,-0.5009498,2.945564747,-3.015884638,-14.8093977,1.821556568
7.608028999999988,0.130593866,18.51008606,-143.682312,-7.77307272,0.877619863,9.881223679,-5.515655041,-8.372103691,-3.311447144
7.616361999999981,0.09540312,18.43568802,-143.6804047,3.821125269,-4.96826601,6.091266155,-5.142762661,-9.445697784,-0.317398846
7.624694999999974,0.089085557,18.38039207,-143.6920013,-7.687638283,5.173274994,0.875331521,-1.163334489,-7.153889179,-1.861066222
7.6330279999999675,-0.046180062,18.31435013,-143.7224579,3.292085171,-1.839038849,3.486829042,-15.92953491,-8.445028305,-4.017708778
7.641360999999961,-0.221276239,18.08071709,-143.7051086,-1.214848638,-5.028105736,10.99785423,-22.50847054,-28.55835724,1.360885859
7.649693999999954,-0.189733759,18.02868843,-143.7283936,-0.106433697,6.551308155,18.74597549,3.8036623,-6.750823498,-3.230146885
7.658026999999947,-0.241166353,17.69761086,-143.7088623,0.282752454,-5.285086155,-5.671904564,-7.736958504,-40.25530624,1.530401707
7.6663599999999406,-0.394544601,17.37882614,-143.7484436,-1.321488261,2.327976465,23.74984932,-17.82199097,-38.74808884,-5.294355392
