,time,Euler_X,Euler_Y,Euler_Z,Acc_X,Acc_Y,Acc_Z,Gyr_X,Gyr_Y,Gyr_Z
0,0.0,-3.051815748333333,21.847724913333334,-24.503267933333337,1.0159756343333333,-0.036725516999999985,16.010658263333337,-14.806990621666666,74.91753768666668,-4.535444597333334
1,0.0083330000002206,-3.1928257146666668,22.369067509999997,-24.514729799999998,-2.0867166520000002,-0.675424124,-3.7332927376666665,-17.08763949,62.08796565,1.7095375060000002
2,0.0166659999999865,-3.3267416953333337,22.95941098333334,-24.569450400000004,0.3134554226666668,0.011642813666666715,13.15768158533333,-14.191276233333335,70.58551025666667,-2.287770350666667
3,0.0249990000002071,-3.44459788,23.41710154333333,-24.593643200000002,-0.3050816059999999,-0.5681323906666668,6.63765029,-13.693706194333332,54.52908007333334,0.15877245866666664
4,0.033331999999973,-3.5879276593333334,23.89546203333333,-24.611691800000003,-0.08461795233333325,-0.7230726033333333,5.317797899333333,-16.974837778333335,56.94470723333333,1.254978895
5,0.0416650000001936,-3.7290561993333338,24.261550903333333,-24.657956466666672,-0.06105170633333327,0.710017562,3.2569390919999996,-15.361094793333331,43.706275936666664,-2.650182724
6,0.0499979999999595,-3.826794147333333,24.644004823333333,-24.657569866666663,-0.5648322903333334,-0.12232689066666665,9.687842529333333,-12.401712100000003,45.32604281,2.7695901393333333
7,0.0583310000001802,-3.9260493913333327,24.89070384,-24.70610046666667,1.0388681890000002,-0.581808527,9.136318883,-10.147544065333333,29.44462696966667,-3.6688630979999997
8,0.0666639999999461,-4.014717419999999,25.151813506666667,-24.691009533333332,-1.4355112713333333,0.9040711519999999,4.146986325333334,-12.065831658333332,30.674091023,3.4845960933333333
9,0.0749970000001667,-4.109697739333334,25.314825693333333,-24.739949533333334,1.4307256343333334,-0.6706375680000001,9.886100371,-9.56700341,19.420285621666665,-4.257091284
10,0.0833299999999326,-4.151727994333333,25.441596349999998,-24.706855800000003,-2.168013253333333,0.22284649533333334,5.352885166666667,-7.402414798666666,14.463051476333334,4.311173389333334
11,0.0916630000001532,-4.220460892,25.522977193333332,-24.75301616666667,1.7250362236666665,0.3942953346666667,11.371658962666666,-6.534313361333333,9.633365629333332,-4.587801615333333
12,0.0999959999999191,-4.251799186333333,25.515556973333332,-24.70991773333333,-1.51736176,-0.4000793063333334,-0.3113744259999998,-6.657249290666667,-1.675247988,4.200701554333333
13,0.1083290000001397,-4.282671610666667,25.54239527333333,-24.7507909,-0.4164589646666668,-0.07240946333333333,17.20928065,-2.252585053666667,3.080047926666667,-4.455849886
14,0.1166619999999056,-4.292653242666667,25.437980016666668,-24.70070646666667,-0.8867529333333332,0.48870895333333336,1.150051832333333,-4.44498984,-13.353826364666668,4.068557699333333
15,0.1249950000001263,-4.300806681333333,25.393604913333334,-24.736633299999998,-0.902169625,0.284657945,10.450221857333334,0.2114157080000001,-5.499666848666667,-4.586182515
16,0.1333279999998922,-4.259564479333333,25.2466774,-24.68580626666667,-1.0088712373333333,-0.116503016,10.497899691333332,1.6670482160000002,-18.424878808,3.8255221843333334
17,0.1416610000001128,-4.2580633956666665,25.118965786666667,-24.715413400000006,-0.7232412696666667,-0.5726452716666667,5.746862570333334,1.0533597396666667,-15.528914295,-4.6855662659999995
18,0.1499939999998787,-4.211111466,24.955763496666666,-24.672620133333336,-1.7653893383333334,0.7208652396666667,7.167177677333334,2.7676239163333336,-20.297972043333335,2.8467928963333335
19,0.1583270000000993,-4.168845097,24.79458173333333,-24.68177796666667,-1.1302342713333333,-0.17993647366666665,10.885685285666668,4.897990385666667,-19.67900149,-2.730551084
20,0.1666599999998652,-4.094907522333333,24.626509346666666,-24.634956366666668,-2.4336720703333334,0.03440595666666668,9.165719351,5.841669958333333,-20.92870331,3.291584253
21,0.1749930000000858,-4.042925516666667,24.444166820000003,-24.6423289,-0.575847288,-0.21822271233333335,4.009724279333333,5.967658599333333,-22.251923563333335,-2.7068241040000003
22,0.1833259999998517,-3.9584155876666665,24.283378603333333,-24.59082793333333,-3.1108112109999997,-0.09512580166666666,10.564656577,6.894442162,-20.057683943333334,3.9313856763333335
23,0.1916590000000724,-3.8876037596666664,24.123428343333334,-24.593009933333335,-1.2552321156666668,0.019330938333333363,10.703208606333334,7.984651089,-19.6195666,-1.8655793269999998
24,0.1999919999998383,-3.801333586,23.96393966333333,-24.567230199999997,-1.994709675666667,-0.39063250899999996,8.454874992333332,8.379234314,-19.69663810666667,1.1678730446666667
25,0.2083250000000589,-3.7265690963333333,23.81225204333333,-24.548212700000004,-2.5010593533333334,-0.41415025766666663,6.613115946333333,7.425354958333333,-18.7615064,0.5583691596666668
26,0.2166579999998248,-3.651828130333333,23.690532686666668,-24.547528566666667,-1.7869326076666667,0.081856458,8.769104005,8.236370086666666,-15.019186973333333,-1.215113878
27,0.2249910000000454,-3.558828671666667,23.58942286,-24.53715766666667,-3.0161078769999996,-0.15062069966666666,12.31926473,10.022468725666668,-12.66069762,0.048825125000000025
28,0.2333239999998113,-3.474999666,23.492328006666668,-24.527837133333332,-1.4936764636666666,-0.33472677833333336,8.153764247666667,8.923020523333333,-12.104842823333334,-0.03628252900000001
29,0.2416570000000319,-3.412993192666667,23.40921846666667,-24.529472366666667,-2.9581425586666668,-0.30141191700000003,4.498524586333333,6.884364606000001,-10.427466713000001,-1.1133142706666666
30,0.2499899999997978,-3.332311233,23.350907646666666,-24.52289326666667,-1.4245016573333331,-0.45557947466666665,8.335840065,8.663401923333334,-7.435194254333332,-0.05157863100000006
31,0.2583230000000185,-3.245776574,23.30018488666667,-24.517061866666666,-3.0976798933333334,-0.16787588600000003,13.792751313333333,9.480001847666665,-6.570415975333333,-0.026600361
32,0.2666559999997844,-3.171851952666667,23.268075943333333,-24.527783733333337,-1.2922023533333333,-0.09834817033333336,9.124459267333334,8.678761323000002,-4.213956336333333,-1.7371918163333333
33,0.274989000000005,-3.107746442,23.236050923333334,-24.5162684,-2.1672191223333335,-0.531963259,5.322987874333333,6.509670575333334,-4.387757420666667,0.7226585943333333
34,0.2833220000002256,-3.0438682236666668,23.18613815,-24.524154666666664,-1.6052276690000002,-0.7915261783333333,9.366935094666667,7.346531073333334,-6.341005167333333,-1.5543700456666667
35,0.2916549999999915,-2.9740146796666664,23.189003626666665,-24.51340993333333,-3.0870905716666663,-0.39903922366666666,10.535666942333334,7.229763745666666,-0.19763946533333332,0.8742524780000002
36,0.2999880000002122,-2.924328804,23.167289733333334,-24.525683100000006,-0.8830930233333333,-0.5308151743333333,9.429292995333334,5.852187395333334,-2.9380812246666665,-1.8239343959999996
37,0.3083209999999781,-2.868429422333333,23.156555809999997,-24.513262433333335,-2.734097282,-0.10877560800000001,8.775886852,5.467837016,-1.8024999299999998,0.9639747639999999
38,0.3166540000001987,-2.8382229013333333,23.150754293333335,-24.538536066666666,-1.823496957333333,-0.814911415,7.321531613666667,4.144059101666667,-0.9907759326666664,-3.1662397783333334
39,0.3249869999999646,-2.7973945143333334,23.16596667,-24.53919983333333,-2.3295173846666666,-0.365465934,6.883048137,4.265329281333333,1.353037993,-0.33036825033333334
40,0.3333200000001852,-2.768149455333333,23.181572593333332,-24.554677366666667,-2.181392868666667,-0.40261216233333336,10.849910414999998,3.5688445570000003,1.5478643576666664,-1.9490770996666666
41,0.3416529999999511,-2.733461539,23.18407186,-24.561378500000004,-1.0658230783333333,-0.38497506600000003,10.392714818,3.8257084293333334,-0.1416001119999999,-1.0537909663333334
42,0.3499860000001717,-2.7036988736666667,23.191343943333333,-24.575442033333328,-1.9933320283333333,-0.3368265430000001,7.520500024333334,3.5433454313333335,0.5488234556666667,-1.8661892016666668
43,0.3583189999999376,-2.6834820903333334,23.217604320000003,-24.568700133333333,-2.705767631333334,-0.37190016100000006,7.2726025583333325,1.4615438980000002,2.663449049,0.5551330046666667
44,0.3666520000001583,-2.6744556423333337,23.245993296666665,-24.595804866666665,-1.505619883666667,-1.0300976633333332,8.198630967666666,1.684148689,3.1152846019999996,-3.162798961
45,0.3749849999999242,-2.657878558,23.258333206666666,-24.583674133333336,-1.9562973976666667,-0.17665735633333335,8.247010707666666,0.7549369136666666,0.9429069163333333,1.064642904
46,0.3833180000001448,-2.647062460666667,23.283225373333334,-24.604192100000002,-2.265227735,-0.42250147466666665,8.711506683666666,1.6027170419999999,2.6903527786666666,-2.475991467666667
47,0.3916509999999107,-2.6387708186666665,23.33931541666667,-24.605875633333326,-2.813969294,-0.6613513726666667,10.248181980333335,0.41083093500000006,6.256614149000001,-0.20366309066666669
48,0.3999840000001313,-2.649613698,23.381107329999995,-24.61193846666666,-0.7548085850000001,-0.19428127000000006,7.533619245333333,-1.6883708633333334,4.646059446,-0.7657034793333333
49,0.4083169999998972,-2.6678170363333336,23.411959963333334,-24.62618763333333,-2.3360485233333335,-0.7720179159999999,5.600150585000001,-2.166166107,3.3280066326666673,-1.7518984476666664
50,0.4166500000001178,-2.674947341333333,23.47294553,-24.638247166666662,-2.483151913,-0.06778336566666669,10.103698888666667,-0.960581104,6.949193477666667,-1.3286147516666666
51,0.4249829999998837,-2.6730651856666667,23.501213710000002,-24.65003713333333,-1.182058692,-0.090249434,9.467051345666667,0.13980257999999987,2.9708458579999992,-1.4620051383333335
52,0.4333160000001044,-2.686218659,23.536362330000003,-24.668563866666673,-1.783300439666667,-0.9548724243333333,6.766049226333333,-1.3753905893333334,3.921616474666667,-2.19368426
53,0.4416489999998703,-2.6858479180000003,23.569108966666665,-24.67982483333333,-1.6999690533333334,0.24099830600000002,8.133463222666666,-0.06598639499999992,3.506157358333333,-1.3926116430000002
54,0.4499820000000909,-2.678111394333333,23.586312610000004,-24.69124096666667,-2.2061804136666665,-0.17162080600000004,9.05175829,0.7961544953333334,1.7350870766666666,-1.4937326513333333
55,0.4583149999998568,-2.670560519,23.597914380000002,-24.687362699999994,-1.2531800863333333,-1.2424731053333333,8.465878327,0.06577729433333333,0.9271114766666667,0.15049642333333332
56,0.4666480000000774,-2.668652137,23.59115918666667,-24.69602456666667,-1.2624269823333332,0.13356516033333332,9.341418107,-0.03184692066666687,-1.184427698333333,-1.3415242236666665
57,0.4749809999998433,-2.6608380476666667,23.58375485666667,-24.684931433333333,-1.910071671,-0.232646982,9.683354379333332,-0.25783721633333334,-1.4170353016666668,0.8521984119999999
58,0.4833140000000639,-2.661824623333333,23.55803235666667,-24.684389733333333,-2.3255275883333333,-1.0214419213333334,7.628018458333333,-0.8160524393333333,-3.469811201,-0.42825298500000003
59,0.4916469999998298,-2.658557017666667,23.506781263333334,-24.683197033333332,-0.6742473816666666,0.08628870566666667,9.336620014,-0.3197851976666666,-6.626817226333333,-0.49864083533333337
60,0.4999800000000505,-2.657918215,23.447755176666664,-24.686922733333336,-2.683821122,-0.48412312399999996,8.217865783999999,-0.4288890229999999,-7.432751814333334,-1.0841694873333332
61,0.5083129999998164,-2.6537303923333333,23.39183362333333,-24.679074600000003,-1.890378952,-0.5516232076666667,8.567458153,-0.5204897426666667,-7.184865474666668,0.20861515366666664
62,0.516646000000037,-2.652879476666667,23.32309214333333,-24.694361366666666,-1.3991083306666667,-0.23696391033333333,12.089556696666667,0.15219154433333326,-8.576436042666666,-2.3901710113333334
63,0.5249789999998029,-2.6391987799999996,23.247879666666666,-24.68709816666666,-2.427309235,-0.16996732,9.578366278666666,0.6363473533333334,-9.528415043999999,0.042750260666666685
64,0.5333120000000235,-2.6357637246666665,23.152310053333334,-24.686439499999995,-1.610138138,-0.18616420033333334,8.946566263333333,-0.29185716300000014,-11.831989285333334,-0.8075400293333334
65,0.5416449999997894,-2.6336689793333337,23.071629203333334,-24.697708133333336,-2.092080315,-0.8136771720000001,9.525119147,0.12927504400000003,-10.092141625666667,-2.0205067
66,0.5499780000000101,-2.624950885666667,22.981000263333332,-24.6974538,-2.3588513533333333,-0.238980313,9.188157399666666,0.35014664133333334,-11.233744144333334,-0.826200068
67,0.5583110000002307,-2.616411368,22.913894019999997,-24.69512176666667,-2.828160445,-0.14832358866666667,10.102194470666666,0.2617050409999999,-8.493189812333334,-0.438003406
68,0.5666439999999966,-2.6085759003333333,22.823566436666667,-24.699040733333334,-1.7278861206666667,-0.7227630913333334,8.696293195666668,0.45320121433333327,-11.218156815333332,-1.2629911306666666
69,0.5749770000002172,-2.5977163316666663,22.75130781,-24.704790766666672,-2.012065808,-0.010454873000000012,9.633407593,0.9057067433333333,-9.108226299666667,-1.376940469
70,0.5833099999999831,-2.583810011666667,22.670981089999998,-24.698577866666668,-2.386581858,-0.6419935623333334,8.893346946,0.709057649,-10.024630865,-0.08286639066666675
71,0.5916430000002038,-2.5685101350000004,22.615510939999997,-24.717422499999998,-2.559393128,-0.13024168733333333,8.553792159666667,2.052699129,-7.033955573999999,-2.7279374596666663
72,0.5999759999999696,-2.538786808333333,22.568949383333333,-24.715695699999998,-2.566322485666667,0.07508799166666666,12.182402292333334,2.804583947,-5.951916455,-0.39647848399999996
73,0.6083090000001903,-2.5111077626666667,22.541140876666663,-24.725069666666666,-2.4750246206666664,-0.4009089573333333,9.113030434,3.100236078,-3.7239853143333335,-1.5069751740000001
74,0.6166419999999562,-2.4879036746666667,22.50186793333333,-24.725484200000007,-1.9156001606666668,-0.6348327656666667,7.858539899333333,2.125520587,-5.110129992,-0.604799092
75,0.6249750000001768,-2.465175708,22.484223686666667,-24.728474933333334,-2.546962261,-1.1802769303333334,9.767163276,2.211477995,-2.5772829356666667,-0.7681495746666668
76,0.6333079999999427,-2.4482437766666667,22.46260198,-24.720675166666663,-1.275843819,-0.5351223943333334,9.309245745333333,0.9889358330000001,-2.987516761,0.41774256033333335
77,0.6416410000001633,-2.4373350143333337,22.463907876666667,-24.72434233333333,-3.718419949333333,-0.08081319933333332,10.260391870666668,0.8324071466666666,-0.3050911029999999,-0.7357774203333333
78,0.6499739999999292,-2.4383768243333335,22.455801646666668,-24.717610699999998,-0.5943559506666666,-1.2153108716666665,8.958768844333333,-1.1212033479999999,-1.3578317763333334,0.3713893046666667
79,0.6583070000001499,-2.4500979583333335,22.43347486,-24.729471833333324,-2.792443514,-0.6496997476666667,7.624683062333332,-1.5140531656666667,-3.0555862586666667,-1.7667973439999998
80,0.6666399999999157,-2.4460897446666667,22.414089200000003,-24.714368200000006,-1.5683203536666668,0.1316253193333333,11.159171422666665,-0.8963445426666666,-2.7895953060000003,1.2185460426666668
81,0.6749730000001364,-2.456773122,22.426848093333334,-24.733370466666667,-3.74450771,-0.336015199,10.202882765,-1.049522042,1.139479081,-2.3642748793333337
82,0.6833059999999023,-2.4595119160000003,22.416160583333333,-24.731582666666668,-0.7872422836666666,-0.8402282099999999,7.882787784333334,-1.1102746326666668,-1.6380645036666668,-0.20137894166666667
83,0.6916390000001229,-2.468072017,22.405732473333334,-24.73227436666667,-3.400120019666667,-0.7277960776666667,10.047288893333333,-1.6313026149999998,-1.7276713053333335,-0.47087508466666667
84,0.6999719999998888,-2.4989959396666666,22.385906216666665,-24.73927563333334,-0.2786550916666667,-1.080416908,9.628209272666668,-4.079331459,-2.6905277566666665,-1.2173634766666668
85,0.7083050000001094,-2.532044013,22.376104353333332,-24.741920466666667,-3.5095273653333336,0.08416894100000001,9.672975539,-4.504173914333333,-1.5929748216666668,-0.6909056179999999
86,0.7166379999998753,-2.5738993483333332,22.359176,-24.743253066666664,-1.124533728,-0.6263560403333334,10.887365502333333,-5.640169303,-2.414231022,-0.572721496
87,0.724971000000096,-2.6269710859999997,22.32660675,-24.75243376666667,-2.4355390470000002,-0.8793788253333333,9.580175083333334,-6.594556172333333,-4.337852786666667,-1.518924415
88,0.7333039999998618,-2.6846818129999996,22.26674271,-24.7589213,-0.2290450333333333,-0.7395931296666666,7.779743035666667,-7.323012510999999,-7.483716489,-1.4087318379999998
89,0.7416370000000825,-2.749559879333333,22.212414423333332,-24.75621286666667,-4.252666552666667,-0.24648077999999998,9.788987,-8.547086794666667,-7.005374272666667,-0.348746389
90,0.7499699999998484,-2.815666914,22.169616699999995,-24.772168499999996,-0.9837723016666665,-0.024511073999999983,8.181964397666666,-7.894726117,-5.385837594666666,-2.3515064320000003
91,0.758303000000069,-2.8770342670000004,22.125480016666668,-24.776514699999996,-3.329728285333333,-0.8679419159999999,11.000768661999999,-7.825947445000001,-5.693997701000001,-1.0842975826666665
92,0.7666359999998349,-2.940947771,22.066880543333337,-24.78391773333333,-0.6266679366666666,-0.3110023039999999,11.890223821333334,-8.005810340333333,-7.370577970666667,-1.51614511
93,0.7749690000000555,-3.025434811666667,22.021464663333333,-24.8073883,-3.104141315,0.29604585499999997,6.918322404333334,-9.739810466,-5.781616369999999,-3.2345022359999995
94,0.7833019999998214,-3.0880428949999996,21.994354883333333,-24.808733633333336,-2.1088285846666666,-0.13370182099999997,8.122976778,-8.140311241,-3.5758202176666667,-0.6595111093333333
95,0.791635000000042,-3.135621389,21.959459940000002,-24.82589466666666,-3.236855348,0.0797791876666667,11.826318104666667,-5.577880223,-4.558659911333333,-2.466552814
96,0.7999679999998079,-3.177345832,21.929142,-24.8328425,-1.4417268783333335,-0.50289315,10.058917683333332,-5.381427645666666,-3.9244129656666664,-1.3155172863333333
97,0.8083010000000286,-3.2286043170000003,21.909540813333336,-24.838651,-2.101890365,0.009553019999999949,6.419716040333333,-6.545743943666667,-2.738764204,-1.110684534
98,0.8166339999997945,-3.2677934963333333,21.892455416666667,-24.843444833333333,-2.6805447336666663,-0.24125480133333332,8.586347579,-5.162647723999999,-2.4015866119999996,-0.9912497403333331
99,0.8249670000000151,-3.2975582279999998,21.897815069999996,-24.848660800000005,-2.226739798666667,-0.07087415433333333,11.858696302333334,-3.9989247323333337,0.20035909600000026,-0.8786792356666666
100,0.833299999999781,-3.3190678756666667,21.858144760000002,-24.838605266666672,-1.8078417776666669,-0.29831692066666665,11.027149838333335,-3.7017647793333333,-5.151218851333334,0.512412727
101,0.8416330000000016,-3.3644331293333334,21.851493836666666,-24.85524496666667,-1.681755821,-0.33566004033333335,6.378489176333333,-5.360338607999999,-1.1658574739999998,-2.243666351
102,0.8499660000002223,-3.391622702333333,21.85150655,-24.836868266666666,-3.1773943503333335,-0.09976629399999999,8.696279683666667,-4.769024293,-0.4466097849999999,1.707718015
103,0.8582989999999882,-3.414360523333334,21.84546470666667,-24.8473994,-1.5398596526666666,-0.01737775900000003,11.171851634333331,-2.905141125,-1.0802804230000003,-1.540307919
104,0.8666320000002088,-3.4240360263333334,21.82912254,-24.831075033333335,-2.4427744943333334,0.1289234556666667,8.679410457,-2.5759041309999997,-2.443666935,1.3450119496666666
105,0.8749649999999747,-3.429957469333333,21.818528493333332,-24.832603466666665,-1.2714109420000002,-0.33074566699999997,8.148872693666666,-1.2885795953333332,-1.738156318666667,-0.581242462
106,0.8832980000001953,-3.418010155333333,21.816127143333333,-24.82567343333334,-3.4913591546666667,0.4053163726666667,9.05026404,0.4379180696666667,-0.658909152,0.41404556266666664
107,0.8916309999999612,-3.393324136666667,21.82394155,-24.820493066666668,-0.3972689706666667,0.3845878839999999,9.480651537666667,2.0780956146666667,0.42532845366666666,0.3013002473333333
108,0.8999640000001818,-3.351224184,21.75668653,-24.804196666666666,-2.574779639666667,-0.5417006956666667,10.727798779666665,3.6475917100000004,-8.487470470333333,0.9956853166666667
109,0.9082969999999476,-3.3101162113333333,21.74795659666667,-24.798924800000005,-1.4054988029999997,0.011207580333333356,9.980670453,4.041943311333333,-1.5025223893333335,0.18451641533333332
110,0.9166300000001684,-3.2695559656666666,21.712606429999997,-24.780006433333327,-3.104575316,0.15914418799999996,7.761126199333333,3.339618086666667,-4.7305226823333335,1.5269583463333334
111,0.9249629999999344,-3.2428178786666666,21.692148206666662,-24.781308466666673,-1.3432056306666667,-1.0653568606666666,8.532238165666667,2.6210704246666667,-2.920569102,-0.6166114656666667
112,0.9332960000001548,-3.1981619993333332,21.62852605,-24.77586873333333,-1.8384805323333335,0.23522622400000004,10.053525603999999,4.425900558666666,-7.9735453933333345,-0.1749068496666667
113,0.9416289999999208,-3.150083541666667,21.588298163333334,-24.765945433333332,-2.3954635066666667,0.247610882,10.671818732666665,4.688762625,-5.358869711666666,0.5045449733333334
114,0.9499620000001414,-3.1059424083333336,21.54987271666667,-24.76398213333333,-2.957646608333333,-1.1095521846666667,8.392715455666666,4.522927443333333,-4.933570782333334,-0.36864005766666663
115,0.9582949999999072,-3.072242737,21.52584520666667,-24.749608366666667,-1.1649129146666668,0.20851017799999996,8.677530288,2.7527151106666667,-3.386825402666666,1.1118755539999998
116,0.966628000000128,-3.0378232796666667,21.44497935,-24.751144433333334,-1.5711581706666669,-0.8482558373333333,10.228938421666667,3.5195923646666665,-10.051911034666666,-1.0356220206666666
117,0.9749609999998938,-3.01119256,21.418254853333334,-24.753583266666666,-2.5797458093333336,0.267083486,9.175866128000001,2.6442560790000003,-3.6620718636666667,-0.7804103046666667
118,0.9832940000001144,-2.980172793,21.360942203333334,-24.754554766666672,-2.10780104,0.003538608666666665,9.867132982333333,3.083809058,-7.177539827333334,-0.7936400576666666
119,0.9916269999998804,-2.9518666266666664,21.323539733333334,-24.7555974,-2.4791127046666666,-1.0990255276666667,8.873335678333333,2.7901415029999996,-4.954335053666667,-0.6916270280000001
120,0.999960000000101,-2.9328579106666663,21.27506892,-24.75519563333334,-1.7956499456666666,-0.1029664426666667,8.349675337333332,1.5815296173333335,-6.121585687,-0.5977851253333334
121,1.0082929999998669,-2.9030837216666665,21.242750803333333,-24.746648133333334,-2.566880901666667,-0.023529927000000006,9.532517752333334,2.544142435,-4.34010609,0.42505542066666663
122,1.0166260000000875,-2.8674639066666665,21.223903653333334,-24.733835866666663,-2.7815519966666664,-0.21299916500000005,9.716013907999999,3.0398207503333334,-2.69921955,0.9856955123333334
123,1.0249589999998534,-2.8237206936666666,21.185452780000002,-24.729649866666662,-1.0603497426666666,-0.19111299033333337,9.798501649333334,4.411215225666666,-5.10843873,-0.10243132699999997
124,1.033292000000074,-2.7839278380000003,21.148543039999996,-24.72038773333333,-2.6954487959999995,-0.5835849443333333,9.736620111333334,3.688193917333333,-4.781849424333333,0.4691503616666666
125,1.04162499999984,-2.7536312736666666,21.150518416666667,-24.72803753333333,-2.1658408043333335,0.17307476200000002,8.291223367333332,3.311412573,-0.197750489,-1.1763209303333333
126,1.0499580000000606,-2.706756592,21.121810909999997,-24.727389033333335,-2.3109169003333334,-0.18472075966666665,9.136910121666666,4.908439000333334,-3.750180305,-0.42202867266666666
127,1.0582909999998265,-2.6684248446666667,21.111127216666663,-24.735468533333332,-2.483404887666667,-0.532815516,7.439437071666667,4.297813256333334,-1.6548161903333334,-1.3087808093333333
128,1.066624000000047,-2.609864076333333,21.07902590333333,-24.738945,-1.5679475070000002,0.04104970899999998,9.375750539666667,6.495458349333333,-4.195522381666667,-0.913113306
129,1.074956999999813,-2.560214122,21.092041016666666,-24.744211833333328,-3.0119674599999997,-0.677930752,10.562131881,5.5321887336666675,1.1099802653333333,-0.8423284886666668
130,1.0832900000000336,-2.5193445679999997,21.076170603333335,-24.74578603333333,-1.18175145,-0.08780000599999993,8.406325182333335,4.290803293333333,-2.197949489,-0.5877102366666667
131,1.0916229999997995,-2.477743149,21.05368805,-24.75196583333333,-2.382018129,-0.7495968143333333,6.436716953666667,4.596543153333333,-3.139118432666667,-1.165447861
132,1.09995600000002,-2.4275209903333335,21.07037035666667,-24.732991533333333,-3.807399352333333,-0.6406424839999999,10.663877325666666,4.531572659666667,1.605137507,1.8701680943333334
133,1.108288999999786,-2.387386799,21.069969813333334,-24.74462893333333,-0.6610728796666666,-0.26555981233333337,11.857845305,4.659874103333333,-0.4102120796666669,-1.6313535866666669
134,1.1166220000000069,-2.3447844186666664,21.045461653333334,-24.711189266666665,-2.790845592666667,-0.8915459609999999,8.460575820666666,2.985446055666667,-3.4508180616666664,3.275215466666667
135,1.1249550000002273,-2.332356611666667,21.05387179,-24.723086066666667,-1.9370822509999999,0.27581231766666664,5.177749315666667,1.3616739116666665,0.5846153103333335,-1.6234600443333334
136,1.1332879999999932,-2.292491833333333,21.053700763333335,-24.708002733333327,-3.3130598863333334,-0.43768787400000003,9.580704372,3.4333961803333337,-0.3850714263333333,1.3464975256666667
137,1.1416210000002138,-2.253605127666667,21.05218188,-24.70395913333334,-1.2008996803333334,-1.1879786153333334,10.379904112,3.8532473643333334,-0.6792040863333333,0.10685408133333331
138,1.1499539999999795,-2.240893046,21.015569053333333,-24.70922596666666,-1.5516595146666667,-0.7204164786666666,9.250810304333333,1.0569291113333337,-4.662606239333333,-1.1128915796666667
139,1.1582870000002004,-2.213067412333333,21.015792846666667,-24.696072900000004,-2.6802366773333333,0.6609306336666667,11.146272023333333,2.114070852333333,-0.4427124459999998,1.153327902
140,1.1666199999999662,-2.200534185,21.003403346666666,-24.694928499999993,-2.554328044,-0.9891192116666666,6.242235898,0.7820451956666665,-1.8514440060000001,-0.2662001849999999
141,1.1749530000001869,-2.187514186,20.96587244666667,-24.694328300000006,-1.1643567883333334,-0.603554758,6.357872089,0.8747219643333334,-4.977955699,-0.46117579933333336
142,1.1832859999999528,-2.1613502899999997,20.95590973,-24.6779378,-3.6554232439999996,-0.6325574829999999,10.398537001,1.7567648093333332,-1.5589889486666666,1.4484122993333333
143,1.1916190000001734,-2.138778488,20.940641403333334,-24.679679900000007,-0.7572813206666668,0.13651828966666668,11.216183025333335,2.1361506679999995,-2.3015122399999997,-0.57543238
144,1.1999519999999393,-2.1067386866666666,20.915150323333336,-24.67083486666667,-2.7555054029999995,-0.8441294629999999,9.468518893333334,2.76518478,-3.3831668693333334,0.5265390873333333
145,1.20828500000016,-2.090976715333333,20.877618156666667,-24.6577657,-1.589079062,-0.8522839746666667,6.63184738,0.6929334153333334,-4.969016710666666,0.9561409949999998
146,1.2166179999999258,-2.0873624483333333,20.86699613,-24.678744000000005,-3.258191506333333,0.053706089666666644,8.799025535333334,0.6338071526666667,-1.5418872683333333,-2.742119094
147,1.2249510000001465,-2.0619625249999998,20.840965273333335,-24.651804599999995,-1.5107419913333338,-1.0549330313333332,10.728079161333334,1.254337609,-3.7075153413333335,2.586704929666667
148,1.2332839999999123,-2.0659425656666666,20.80279223333333,-24.678357433333336,-2.0518137216666665,-0.7221581886666666,8.275612988333334,-0.030472397666666762,-4.761383692333333,-3.489662329666667
149,1.241617000000133,-2.0466643176666666,20.768961586666666,-24.6580556,-2.3893473346666667,0.18809537100000004,8.439984641,0.792085861,-4.6130815746666665,1.7854957980000001
150,1.2499499999998989,-2.0402064323333335,20.760915120000003,-24.667434699999998,-3.2490498223333333,-0.8040037653333334,10.513781866,0.501633326,-1.219685793,-1.4092864986666667
151,1.2582830000001195,-2.0367676813333335,20.727047603333332,-24.666707333333324,-1.0172635313333334,-0.67549179,7.991998672666665,-0.2799379823333334,-4.4756906826666665,-0.4015714326666666
152,1.2666159999998854,-2.0411080916666666,20.71157201,-24.6691996,-2.589417576666667,-0.4899033803333333,6.357545693333333,-1.103392899,-2.194388389333333,-0.697031662
153,1.274949000000106,-2.040543834666667,20.69113604,-24.67336783333333,-2.460522810666667,-0.2712644636666666,11.975542706666666,-0.39860510833333357,-2.9114038546666667,-0.8809078483333334
154,1.283281999999872,-2.035140872,20.683154423333335,-24.679189033333333,-2.637821297,-0.675713184,11.469559829666666,0.20099074633333336,-1.2198186713333334,-1.025850286
155,1.2916150000000926,-2.043304483,20.65170987666667,-24.667711866666668,-1.2220382293333334,-0.5396101473333332,7.5146993,-2.103176646333333,-4.295298238666667,0.816210429
156,1.2999479999998584,-2.0713304276666666,20.647104260000003,-24.67469026666667,-3.2118715446666664,-0.9675049783333333,5.157314697666666,-3.759252031666667,-0.8067160746666667,-1.1480770113333334
157,1.308281000000079,-2.103595972,20.652839023333332,-24.658343033333335,-1.8380908173333335,-0.675790767,9.177592752666667,-5.2145419120000005,0.20964833100000005,1.533618152
158,1.316613999999845,-2.120396932,20.60498619,-24.659985833333334,-2.0134591260000003,-0.468719661,13.56013171,-2.626808693,-6.082399527,-0.737053931
159,1.3249470000000656,-2.1540628673333333,20.596989313333335,-24.651296000000002,-2.5891522566666665,-0.43075564533333327,9.503434658333333,-5.064553658,-1.4694376386666665,0.593708063
160,1.3332799999998317,-2.199167609333333,20.581240336666664,-24.65998333333333,-2.092628002,-0.3982902666666666,9.144790173999999,-5.727330923,-2.1335638959999996,-1.3812093136666668
161,1.341613000000052,-2.2471037706666666,20.586417516666668,-24.66407523333333,-3.7157690523333335,-0.279228419,9.513728140666666,-6.237053871333333,0.1633588870000001,-0.7734560866666668
162,1.349945999999818,-2.3077987036666667,20.58724022,-24.676343266666663,-1.0637822746666667,-0.7803748349999999,8.014701207666667,-7.440086523333334,-0.1285278996666667,-1.7061942816666669
163,1.3582790000000386,-2.3672648273333334,20.569732669999997,-24.69511413333333,-1.9790591796666666,-0.11969359699999998,8.325788497666666,-7.012541294333334,-2.4185772536666668,-2.537546833
164,1.3666119999998043,-2.4035518963333335,20.573130289999998,-24.697130833333336,-3.5264059703333337,-0.16392046200000002,11.862273853333335,-4.937195659333333,0.06862913566666669,-0.5520509080000001
165,1.3749450000000252,-2.452359914666667,20.582219443333333,-24.7221629,-1.8304794829999997,-0.086746325,11.278217951666667,-5.455238978,0.7313334939999999,-3.0895763236666665
166,1.383277999999791,-2.4899826846666664,20.565165836666665,-24.720593766666664,-2.3967545033333337,-0.416695595,8.433918159666666,-5.265719076,-2.328730921,-0.246925493
167,1.3916110000000117,-2.536762555333333,20.538006466666666,-24.734242733333343,-1.1970229943333333,-1.1038704913333333,9.470291456333333,-5.690915743333334,-3.665965239,-2.024272004666667
168,1.3999439999997776,-2.5932979583333338,20.499539056666666,-24.74307756666667,-1.9793996413333332,-0.6557415523333333,10.677742164333333,-7.089658438666667,-4.842862447333334,-1.535407126
169,1.4082769999999982,-2.6439243156666667,20.446941376666665,-24.756739299999996,-1.80744946,0.21625267466666667,9.769160269333334,-6.172078927666667,-6.638403097666668,-2.161743422333333
170,1.4166100000002189,-2.686986367,20.38974380666667,-24.755610166666667,-2.8924325310000003,-0.35125548133333334,12.414312046,-5.878864288333332,-7.20752573,-0.5283959906666668
171,1.4249429999999847,-2.737805843333333,20.302913666666665,-24.773112,-1.14223509,0.02651623399999999,11.82024924,-6.026872317333335,-10.790138879333334,-2.790112138
172,1.4332760000002054,-2.7763442993333336,20.19096883,-24.77587636666667,-2.0431801476666664,-0.5429505306666667,11.244503976666666,-5.184949716,-13.675787926666667,-1.2957347383333333
173,1.4416089999999713,-2.8020158609999997,20.036361693333337,-24.783266699999995,-2.037026286,0.42238704366666663,13.91828569,-3.4376869199999995,-18.964482623333335,-2.068584959
174,1.449942000000192,-2.83793664,19.87596003,-24.786727933333335,-1.934086601,-0.5623043376666667,10.04546102,-4.8345650036666665,-19.476401013333334,-1.6727808116666667
175,1.4582749999999578,-2.8613698483333336,19.67281405,-24.808451333333334,-2.1136698326666665,-0.0651482043333333,13.019037883333333,-2.5961704253333333,-24.62774149666667,-3.9947472413333336
176,1.4666080000001784,-2.8720460733333333,19.4678065,-24.808891300000003,-2.230874856333333,0.005335609000000001,13.331031483333334,-1.9348020553333332,-24.906481423333332,-1.6222487043333331
177,1.4749409999999443,-2.867256244,19.227927523333335,-24.8351949,-3.0476317406666666,-0.1668310163333334,16.79128647,0.9548665286666664,-29.073422750000002,-4.751166820666667
178,1.483274000000165,-2.853365421,18.98377291333333,-24.834775300000004,-2.287449886333333,0.3106030026666666,10.615205764,0.9859732193333334,-29.52931531333333,-1.757684191
179,1.4916069999999308,-2.8190368016666665,18.72937011666667,-24.882171666666668,-1.8120978226666666,0.8721374420000001,16.347569463333333,5.294006824666667,-30.69976425333333,-7.213235537333333
180,1.4999400000001517,-2.738112529,18.466906226666666,-24.874209099999998,-2.4961671433333334,0.5848873393333333,15.305541673333332,8.746390023666667,-31.764485676666666,-0.9624641936666666
181,1.5082729999999174,-2.6361765066666667,18.219539643333334,-24.90388233333334,-4.234700918,-0.921282252,16.473073643333333,12.682618776666667,-29.894697186666665,-5.094373305666667
182,1.516606000000138,-2.515767574333333,17.948280336666667,-24.858289100000004,-3.1273825963333333,1.0744901333333334,11.313352426333333,12.085764885333333,-33.08173878666667,3.389505972333333
183,1.524938999999904,-2.4054117203333334,17.69839795333333,-24.870496099999997,-3.303997596,-0.47159111500000006,15.304385502333332,13.040266356666665,-30.37671788333333,-3.014627615333333
184,1.5332720000001243,-2.2644769350000002,17.443328223333335,-24.81697846666667,-1.922441721,-1.4536144139999998,17.703218460000002,14.297809280000001,-31.08640798,4.544009010333333
185,1.5416049999998904,-2.1472592353333333,17.20370356,-24.807223000000008,-5.001437743333334,-0.712958038,14.623574255666666,13.07017103666667,-29.25593821,-0.33542285366666674
186,1.549938000000111,-2.031397184,16.98159218,-24.731880200000006,-1.6579262413333333,-1.1235828796666667,15.750865300000001,10.554695445,-27.199620566666667,7.341464042666668
187,1.558270999999877,-1.967225631,16.734891573333332,-24.71998596666666,-4.496274550666667,-1.5681429706666667,13.693125564666667,6.640794356666667,-30.033028283333334,-0.011026819000000021
188,1.5666040000000976,-1.8857674596666667,16.53072643,-24.6608912,-3.7047082583333335,0.653782601,15.57728386,7.055223465,-25.041671116666667,5.626896222333333
189,1.5749369999998637,-1.8312137126666668,16.345660526666666,-24.65744526666667,-2.9586948949999994,-1.2594316799999998,14.476710316666667,5.788150469666667,-22.684798876666665,-0.6506101336666666
190,1.583270000000084,-1.7662210466666666,16.180023509999998,-24.62783813333333,-3.824846903333333,-0.8871785353333334,13.95575301,6.110845724666667,-20.223615963333334,2.4362520773333336
191,1.59160299999985,-1.7144874733333333,16.081008593333333,-24.656623833333338,-5.116321961,0.6482818223333333,15.87857024,6.511670429666666,-12.250572521666667,-3.9971321426666666
192,1.5999360000000706,-1.6746727626666669,15.986479123333334,-24.6602961,-4.595604539,-0.6106874346666666,9.900882086000001,4.202664852333333,-11.573601641333333,-1.114069869
193,1.6082689999998363,-1.6596500076666667,15.978993100000002,-24.729764300000003,-3.569944501,-0.9381276666666665,14.979443869,3.4513817626666667,-1.0647922643333327,-8.344089507666668
194,1.6166020000000572,-1.6680531503333331,15.959457076666666,-24.774864199999996,-3.5157981713333335,-1.2158615389999998,9.546443622666667,-0.22041060766666687,-2.5162398026666675,-5.6373476186666664
195,1.624934999999823,-1.684657852,16.035419466666667,-24.8550161,-4.1994742553333335,-0.37025050333333337,14.470076879999999,0.011078338000000021,8.905960916,-9.292850176333333
196,1.6332680000000437,-1.732923428,16.091022810000002,-24.913380933333332,-4.613349502999999,-1.5847215356666666,10.147352538000002,-4.54511865,6.619684377,-6.887037118333333
197,1.6416009999998096,-1.7646061976666667,16.222690580000002,-25.014968866666667,-2.6230499346666667,-1.062283516,17.9202226,-1.0571336150000001,15.673205056333336,-11.531314530000001
198,1.6499340000000302,-1.834489504666667,16.32898839,-25.0901413,-3.4190365469999997,-0.30435517799999995,11.729098318666667,-6.5560086166666665,12.771243730666667,-8.607319671333332
199,1.658266999999796,-1.8938044706666668,16.50013288,-25.188379933333334,-3.382074078,-0.5584090753333334,15.623379071333332,-4.443563858666667,20.494781493333335,-10.961647666666666
200,1.6666000000000167,-1.9563368556666667,16.62989457666667,-25.261116033333327,-4.329913934,-0.24042166266666665,16.192400613333334,-5.706486465,15.519236883333333,-8.177975177666667
201,1.6749329999997826,-2.0378590423333334,16.768546103333332,-25.371877033333337,-2.6820397773333333,-0.45560052,9.171294848666667,-6.601828416333333,16.592005728333334,-12.4922088
202,1.6832660000000033,-2.096078793333333,16.91046842,-25.46064756666667,-1.8880571126666668,0.46730977266666657,15.877668383333335,-4.613539933999999,17.14410456,-9.893678029333334
203,1.691599000000224,-2.161483049333333,17.016968406666667,-25.577534966666665,-1.3411155739999998,-1.4624045093333333,11.615979194,-4.388253211666667,12.790549755,-13.282987593333333
204,1.6999319999999898,-2.2024854023333336,17.133494056666667,-25.678448999999997,-4.335620284333333,0.8168785396666666,13.942306202,-2.0794411900000003,14.171241124,-11.377705572666668
205,1.7082650000002104,-2.2277516526666665,17.221081413333334,-25.79002126666667,-2.3891102473333334,0.11996233499999998,14.43953069,0.29582697166666677,10.518690825666667,-12.691878317666665
206,1.7165979999999763,-2.25879844,17.24467405,-25.888318366666663,-2.7902024090000004,-0.07685030466666666,9.519583384333332,-0.9027652740000001,3.0313101223333327,-11.651973408333333
207,1.724931000000197,-2.252601782333333,17.30636088,-25.980580633333336,-1.9656669593333334,-0.59959505,16.811821938333335,3.4017163116666667,7.335047721000001,-10.587932426666667
208,1.7332639999999628,-2.252610524666667,17.31687673,-26.06688943333333,-2.262197057333333,-1.3769689003333336,16.094686506666665,2.37260437,1.40594403,-10.170168400333333
209,1.7415970000001837,-2.277865569,17.31177775,-26.138364133333337,-3.501782099333333,-0.611041238,10.386782488,-1.1102360933333333,-0.7656178483333331,-8.552965481666666
210,1.7499299999999494,-2.2998243966666667,17.334369660000004,-26.223525999999996,-3.6188844046666664,-0.8961417280000002,17.553737323333333,-0.30396835966666663,2.857391994,-9.965940477333334
211,1.75826300000017,-2.350417614,17.28845215,-26.3076757,-0.877670884,-0.7076640773333334,12.898613933333332,-3.71348838,-5.509929895666667,-10.188024837333332
212,1.766595999999936,-2.4081020353333336,17.253016790000004,-26.392595933333325,-4.553962032333334,-0.8605654239999999,12.230571428,-4.590758721,-4.163748739666666,-10.256200471
213,1.7749290000001563,-2.444701830666667,17.212296170000002,-26.481279999999998,-2.4511205950000003,0.25676416366666666,18.811557133333334,-1.8787532200000001,-4.929720760666666,-10.68347295
214,1.7832619999999224,-2.4872406326666665,17.16044235,-26.582066866666665,-3.160650174,-0.20570376766666665,14.294566793333333,-2.2368744316666667,-5.957133889333334,-12.150934216666668
215,1.791595000000143,-2.5235965253333332,17.080055236666666,-26.670628866666664,-2.6641281843333333,-0.12706695,13.149034819666667,-1.870223681,-9.669115703,-10.898863473666665
216,1.799927999999909,-2.5438081426666668,17.024477003333335,-26.776400233333334,-3.8148081899999995,0.31365203866666663,14.328404743333332,0.592401887,-6.365876833666666,-12.758174259999999
217,1.8082610000001296,-2.531886101,16.950408300000003,-26.848579399999995,-1.9092523456666666,-0.07349548733333333,13.77620856,3.309949060333333,-8.908312320666667,-9.000343958666667
218,1.8165939999998957,-2.500427802333333,16.87505754,-26.94991556666667,-4.153020143333333,-0.6385872363333335,13.442595483333333,6.617344697,-8.838787077666666,-12.362067856666664
219,1.824927000000116,-2.4425253073333333,16.769522033333335,-27.015960699999997,-2.3354196149999997,0.5897124606666666,16.628552753333334,8.597177308,-12.799902917333334,-8.457878272
220,1.833259999999882,-2.36681207,16.675429026666666,-27.105895999999998,-4.172064225,-0.8374264440000001,18.294583636666665,11.498814106,-11.085216520333333,-11.134823160000002
221,1.8415930000001024,-2.287513812333333,16.56728585666667,-27.189323399999996,-3.0635381143333333,0.26697383300000005,16.511069613333333,11.728686335333334,-13.05139319,-10.444785119333334
222,1.8499259999998685,-2.221632162666667,16.48468971666667,-27.28465523333334,-2.162679899,-0.6211621363333332,11.932400703333334,10.457304638333333,-9.704771516666668,-11.681772546666666
223,1.8582590000000887,-2.1560139256666666,16.360071819999998,-27.376452133333334,-4.3924094039999995,-1.151979963,11.743210793333333,10.343024253666666,-14.933586756666665,-11.462669690666667
224,1.866591999999855,-2.092053572333333,16.254696210000002,-27.478864033333334,-2.4313106933333333,-1.162265256,12.453287763,10.419170379666667,-12.514069875000002,-12.610533076666668
225,1.874925000000076,-2.0183257263333334,16.140959743333333,-27.567888866666664,-4.1618994869999995,-1.1030160983333335,17.977090516666667,11.190391701333334,-13.747406006333334,-11.068181358333334
226,1.8832579999998416,-1.9437295593333335,16.035815556666666,-27.675676999999993,-2.847115397333333,-0.26590876766666666,19.52950573,11.831323782666667,-12.413573740999999,-13.186192196666667
227,1.8915910000000624,-1.8977692923333336,15.89069748,-27.758794166666664,-3.7366144660000002,-1.1016994616666667,13.79531717333333,7.607879479666667,-17.55623881,-10.507898966333334
228,1.899923999999828,-1.862456242333333,15.803429603333335,-27.86367033333333,-3.885889848333333,0.10570419166666667,10.247538884,6.982170263666667,-10.300654889,-12.788667363333333
229,1.9082570000000487,-1.829304179,15.709040960000001,-27.951588933333337,-3.8054104646666667,-1.262745579,14.904999733333332,6.185753265999999,-11.387618859,-10.836970963333334
230,1.9165899999998144,-1.7917280596666665,15.631360053333333,-28.057284033333342,-3.128629207666666,-1.3125336963333334,13.372933705666668,7.244979699666666,-9.246831098666668,-12.842916806666667
231,1.9249230000000352,-1.7312097153333335,15.540600459999999,-28.14390563333333,-3.9663990339999997,-0.519815743,16.37680944,9.401840328,-11.051611263333333,-10.678864160666668
232,1.9332559999998007,-1.6765122810000002,15.480344773333334,-28.236338299999996,-3.113247116666667,-0.8670751256666666,16.19871076,8.840802350333334,-7.141976038666667,-11.235183079
233,1.9415890000000215,-1.6104559103333334,15.405979793333332,-28.322542833333333,-4.912002166,-0.4670739996666667,15.105173746666667,10.020047822333334,-9.110396068666667,-10.564012843
234,1.949921999999788,-1.5626523893333333,15.359796840000001,-28.41091406666666,-2.013600498333333,-0.8648265999999999,13.58289528,7.861975430666667,-5.486890793000001,-10.704460144999999
235,1.9582550000000083,-1.53856194,15.303301813333334,-28.50764213333333,-4.3151737846666665,-0.8488873453333333,11.481368700333334,5.284866492,-6.864543994666666,-11.706053734666668
236,1.966588000000229,-1.521385789,15.237353006666666,-28.580385833333327,-2.9380310379999997,-1.9006996950000001,9.775877952,3.6844205063333333,-8.002627096333333,-8.974371274
237,1.9749209999999948,-1.4990741410000001,15.228952406666666,-28.68572486666667,-4.8495717843333335,-1.065090984,17.39296118333333,5.333806673333334,-1.1614178616666666,-12.563856123333332
238,1.9832540000002157,-1.465234359,15.206162133333331,-28.74899293333333,-3.054291228333333,-0.8070106903333333,17.876370428333335,5.373957077,-2.7766176463333334,-7.719144660999999
239,1.9915869999999811,-1.4797639846666666,15.193392116666667,-28.8577703,-2.7556598583333334,-1.2455352743333332,12.167032083666667,1.0134402116666668,-1.6851948996666666,-12.974815686666666
240,1.999920000000202,-1.4799495933333333,15.181033136666668,-28.920326233333338,-4.851443926666666,0.329429428,15.317293166666666,1.26152277,-1.5229545036666667,-7.608960947999999
241,2.008252999999968,-1.511696736,15.194608053333335,-29.03001656666667,-1.9848052263333333,-2.4518490236666666,13.607304890000002,-1.0336078703333331,1.566468397666667,-13.001484236666668
242,2.0165860000001885,-1.5585908890000002,15.195727033333334,-29.073463466666666,-4.659231344999999,-0.5675193866666667,9.703293164,-4.934719562666667,-0.04733933000000009,-5.3675954343333325
243,2.0249189999999544,-1.653262337,15.252618473333333,-29.180025733333334,-2.065699954666667,-1.7967190743333334,10.379525978333334,-8.675525347999999,6.69706885,-12.48000749
244,2.033252000000175,-1.706157009,15.278916356666665,-29.203898100000004,-5.080197811333334,-1.083317101,16.905866623333335,-6.276777983333333,3.000452439,-2.999324917666667
245,2.041584999999941,-1.786301732,15.329431853333332,-29.303123466666666,-1.6642211676666665,-0.2862157786666666,16.533593176666667,-7.135543604000001,5.934047022333334,-11.642544107666668
246,2.0499180000001616,-1.8598792553333334,15.387293499999998,-29.321612033333327,-5.647096793,-1.5168604256666667,14.324771881666669,-8.927305141,6.77592659,-2.255384902
247,2.0582509999999274,-1.9555976389999998,15.47290961,-29.409731566666668,-2.3127148746666664,-0.276333862,13.568564733333332,-9.335148492,10.211510021,-10.175065041666667
248,2.066584000000148,-2.0704532066666665,15.51952203,-29.439099633333342,-3.0948015353333336,-0.909747435,11.185152689666667,-13.530214785333333,5.393743991666668,-3.5338726043333337
249,2.074916999999914,-2.201062441,15.597344396666665,-29.52064006666666,-1.784682969333333,-0.3108450573333333,13.03850651,-13.71291256,9.209993522666666,-9.408371288333333
250,2.0832500000001346,-2.324706952,15.662289620000001,-29.546686766666667,-5.418866157666667,-1.7290926376666669,12.496865114,-14.681795753333333,7.6673750876666675,-3.0368369420000003
251,2.0915829999999005,-2.458023627333333,15.738089876666669,-29.634170533333332,-1.005172193,-1.3117181063333334,12.886393546333332,-13.821544009999998,9.034741083333332,-10.061279296
252,2.099916000000121,-2.563181003,15.795961060000002,-29.65616353333333,-6.059015592333334,0.5889209113333332,13.23303668,-12.584507305333332,6.808385054333333,-2.5709271830000002
253,2.108248999999887,-2.6744746366666665,15.909845989999999,-29.751055366666666,-1.4375327130000002,-0.6834295786666668,18.63529142,-10.912722109999999,13.752612750666666,-10.649886131666667
254,2.116582000000108,-2.7405592603333333,15.992117243333334,-29.764211000000003,-5.088927904999999,0.5985459089999999,13.600156783333333,-8.183822314333334,9.614117701666666,-1.3757665803333332
255,2.124914999999873,-2.8473368483333332,16.096494036666666,-29.855613699999996,0.296386659,-0.41199835366666665,10.215595561999999,-10.440092406333333,12.548781396,-10.256848654666667
256,2.133248000000094,-2.9084496496666667,16.172447206666664,-29.8618393,-5.812982241,-0.5281793676666667,9.880371571,-7.823851983333334,8.891542912,-0.6025962036666667
257,2.14158099999986,-2.967432419333333,16.26480484,-29.951688133333338,-0.40982607000000004,-0.7694269913333334,14.761594136666666,-4.708922545666666,11.123846055333331,-10.108571054
258,2.1499140000000807,-2.999868949,16.336496356666668,-29.947151199999997,-5.845722675333334,-0.606624524,16.623890243333335,-4.7467107786666665,8.311683337666667,0.6352714893333333
259,2.1582469999998466,-3.0461198486666667,16.40690899,-30.03005473333333,-1.4019028443333335,-0.5739152133333333,15.171855289999998,-3.3901303610000006,8.537183126,-9.411743003666666
260,2.1665800000000672,-3.0852940876666666,16.455519996666666,-30.029248533333334,-2.8854503436666668,-0.48563869833333334,13.488732973333333,-5.435328404000001,5.492315610333333,0.06207599233333342
261,2.174912999999833,-3.1501777173333334,16.512000403333335,-30.098719266666674,-2.0941817759999997,-1.067008217,9.967506409333334,-6.0551721060000006,6.725974559666667,-7.945941925
262,2.1832460000000538,-3.186255137,16.534284273333334,-30.099164333333334,-3.3990475336666663,-1.0565705596666668,11.777252832,-5.023707469333334,2.4133305746666665,-0.24492766466666674
263,2.19157899999982,-3.2378754616666665,16.563921609999998,-30.1659851,-2.0287840763333334,-0.14616584033333338,14.308045703333335,-4.541208446,3.505838155666666,-7.802058379000001
264,2.1999120000000403,-3.2631766793333337,16.553238866666668,-30.16755673333333,-4.531065384333334,-1.2152673603333335,15.103919346666666,-3.6911650500000004,-1.5374858676666667,-0.588785842
265,2.208244999999806,-3.3096632956666667,16.55886873,-30.23765563333333,-1.1203117966666667,-0.9371610083333334,14.069842019666666,-3.820845371666667,0.72853301,-8.342228253
266,2.216578000000027,-3.3546987373333335,16.547762873333333,-30.24475096666667,-4.978709141666667,1.1419729989999998,9.661349614333334,-5.870565433333333,-1.6203738053333332,-1.2400621176666666
267,2.2249109999997927,-3.421622673666667,16.56205463666667,-30.325533566666667,-1.5938630696666667,-2.383593122,10.82358249,-5.900517781666667,1.7846721413333333,-9.504663467333334
268,2.2332440000000133,-3.4295962653333336,16.549104056666664,-30.331555666666663,-4.813085397,0.6364967426666667,14.714303333333334,-1.4659415483333331,-1.788364639,-1.1234658756666667
269,2.241576999999779,-3.459931135333333,16.553356486666665,-30.41091156666667,-1.8455737633333333,-0.26971646666666665,17.73736477,-1.546656052333333,0.5826514959999999,-9.402606806333333
270,2.24991,-3.4730766613333333,16.527686436666666,-30.421989433333327,-3.877623717,-1.492888252,12.041888873333335,-1.9261605940000004,-3.281482458333334,-1.8033063409999999
271,2.2582430000002205,-3.5083360673333335,16.531895000000002,-30.482421900000002,-1.6467253766666665,0.4964236023333333,10.521123886333333,-2.7830207743333335,0.5106751519999999,-7.232397557666666
272,2.2665759999999864,-3.546650489333333,16.52996381,-30.5073064,-4.807321151,-1.555894057,10.969839731,-4.4766809143333335,-0.40322780099999994,-3.225233078
273,2.274909000000207,-3.5644177596666666,16.553009986666666,-30.549453733333333,-2.204504579,-1.2297226190000001,12.679280282333332,-1.2946931123333332,2.5848692656666667,-4.9896963439999995
274,2.283241999999973,-3.587043047,16.541962623333333,-30.580195099999997,-4.1906205813333335,-0.12029922033333329,14.801399866666666,-2.3926896780000004,-1.403028488333333,-3.9583473603333332
275,2.291575000000193,-3.6038901803333334,16.549990973333333,-30.610529600000007,-1.6165464720000002,-0.9947369796666665,14.956716536666669,-1.5974236333333334,0.7084728676666666,-3.7445492149999993
276,2.2999079999999594,-3.6249206066666666,16.509403546666665,-30.653790833333343,-4.021042823999999,-0.28324520599999997,10.715785343,-1.7674637156666668,-4.853368918,-5.619789322333333
277,2.30824100000018,-3.6631968816666665,16.496080080000002,-30.675720200000004,-0.6859715033333335,-0.4062448016666667,10.183690229,-4.477052487666667,-1.8576682009999999,-2.9458206743333335
278,2.316573999999946,-3.684905131666667,16.442703246666667,-30.7334213,-5.042620499999999,-1.5088255999999998,13.096948943666666,-1.3444056906666664,-6.330921649666666,-7.3777666093333325
279,2.3249070000001666,-3.6825733186666665,16.40015284,-30.748202033333328,-0.5561866990000001,0.4491433699999999,16.91343435,0.15127340966666628,-5.458389918333334,-2.353837398
280,2.3332399999999325,-3.703670422,16.32217566,-30.80979413333333,-5.483199437666666,-1.6886253756666667,12.541331293333334,-1.1471160253333335,-9.201262237666667,-8.014212926666666
281,2.341573000000153,-3.7062709333333337,16.24605178666667,-30.818087266666662,-0.021695653333333304,0.7347732783333333,11.632905959333334,-0.6722625693333334,-9.525712966666667,-1.8740144273333332
282,2.349905999999919,-3.7322607039999998,16.155458133333337,-30.87978363333333,-5.125226974333334,-1.7319790323333333,11.331853864333334,-1.7417896190000002,-10.712310156333333,-8.135722796333333
283,2.35823900000014,-3.7254972456666664,16.075428646666666,-30.8783442,-1.501637737,-0.5299491483333334,11.733772754666667,0.108318299,-10.021292844666666,-0.794980675
284,2.366571999999905,-3.735166152333333,15.981794673333335,-30.9356944,-4.667484283333334,-0.5831625063333333,12.149494169999999,0.07170279799999986,-11.159365018,-7.667589028666666
285,2.374905000000126,-3.7133060296666667,15.903319043333333,-30.934046400000003,-2.863711555666667,-0.34873734166666664,15.720151266666667,1.910096605666667,-9.884260971666668,-0.7537416120000001
286,2.383237999999892,-3.703565518,15.814852396666666,-30.987302166666666,-4.395798047666666,-0.5279632013333333,12.361279490000001,2.2495491503333334,-10.533733051666667,-7.150817076666667
287,2.3915710000001127,-3.695945739666667,15.738461493333332,-30.993481966666668,-1.1366630593333333,-0.5493769446666666,11.11566957,0.44984162866666666,-9.575955392,-1.6405960123333332
288,2.3999039999998786,-3.6838238239999996,15.657541593333333,-31.043973299999994,-5.237468322,-0.40294194733333333,10.858147619666667,2.425194502,-9.659863789,-6.776929537333333
289,2.408237000000099,-3.652579069,15.579591753333332,-31.0518697,-0.6787795426666667,-0.8571433983333335,14.954757053333333,3.339055180666667,-9.709580740666667,-1.8472646873333332
290,2.416569999999865,-3.6333007019999997,15.50713857,-31.101623533333328,-5.937584559333334,-0.941101571,12.4696846,3.257679248666667,-8.70083332,-6.6213409106666665
291,2.4249030000000857,-3.6089154879999996,15.426230429999999,-31.09962970000001,-0.890847365,-0.3480727473333334,12.991190594,2.1883827046666666,-10.177190939666668,-0.7175785699999998
292,2.433235999999852,-3.602899551666667,15.354558946666666,-31.148549400000004,-4.876685301666666,-1.0140018910000002,12.678556440000001,1.6339278419999996,-8.583625475,-6.519331216666667
293,2.4415690000000723,-3.5909310976666666,15.288414320000001,-31.152898166666674,-1.9622614883333336,-1.025977959,11.061595917333333,0.8851470546666667,-8.363805136333333,-1.3502457540000001
294,2.449901999999838,-3.5897598266666666,15.233335493333334,-31.193453499999993,-4.510037501333334,-0.8818778680000001,10.993811923333332,0.790980339,-6.664384842333333,-5.426585068666667
295,2.458235000000059,-3.5831666783333334,15.179293950000002,-31.216893499999994,-2.944020847666667,0.055264318666666666,15.010412533333332,0.8326079846666667,-6.744279702666667,-3.460155050333333
296,2.4665679999998247,-3.58086586,15.134803136666667,-31.249987299999997,-4.018713951,-1.572963516,13.446218806666666,0.6888180973333333,-5.486283343,-4.475921988666667
297,2.4749010000000453,-3.5948270163333333,15.09218661,-31.29736836666667,-1.5497871386666666,-0.27178530866666667,12.802352586666666,-0.8895953100000001,-5.238751511,-6.147732328666667
298,2.483233999999811,-3.6156409583333335,15.081293426666667,-31.31534576666667,-5.173427741,-0.9162664613333332,9.315648714666667,-2.572843000666667,-1.543039818666667,-2.4899255633333337
299,2.491567000000032,-3.6401414869999997,15.066246986666668,-31.37231443333333,-1.4038153686666668,-1.8573932446666666,12.383565903333334,-1.844178061,-1.8601571523333333,-7.050109783666666
300,2.4998999999997977,-3.662476698666667,15.092659949999998,-31.368364966666665,-6.227176825333333,0.06693985833333331,12.465987839999999,-3.4474584260000003,2.7589777509999998,0.33847932033333344
301,2.5082330000000184,-3.7074565886666666,15.107591946666666,-31.41012576666667,-1.3599679073333333,-1.9948973256666667,13.614301363333333,-4.768828471666667,1.6523273783333334,-5.050286253333333
302,2.5165659999997843,-3.7534828979999997,15.151924133333333,-31.39605206666667,-5.495159308333332,0.582780679,11.483675003666667,-6.614787260666667,4.791843096333333,1.6382054486666666
303,2.524899000000005,-3.83369414,15.208209676666668,-31.442899066666666,-0.6395216183333332,-1.7842726753333331,10.883990606333334,-8.827404975,6.624030035,-5.308973312333333
304,2.533232000000225,-3.891772906,15.28266684,-31.433031733333337,-5.589803218999999,-0.3006909686666667,9.722127438,-7.936473528666666,8.450589974666665,1.411229372
305,2.5415649999999914,-3.967063904,15.336422603333332,-31.496121700000003,-0.839593242,-0.4651864966666666,11.237833498333332,-7.705262662,6.462062358666667,-7.181544939666668
306,2.549898000000212,-4.033842563666667,15.38794231,-31.502105699999998,-4.025952578,-1.0855624476666668,11.561801433,-8.472968259,5.8246990043333335,-0.592269619
307,2.558230999999978,-4.092437823333333,15.4459308,-31.57595313333334,-1.854904174666667,-0.15482165400000003,13.551268576666667,-5.347962538333333,7.0950285593333335,-8.370238145333333
308,2.5665640000001986,-4.137338558666666,15.518671673333335,-31.588750233333332,-5.332698106666666,0.8000700673333334,11.521874746333333,-5.637002110333333,8.395454723999999,-1.1789594093333333
309,2.5748969999999645,-4.1972109479999995,15.58567238,-31.668815633333335,0.574176331,-0.7770019373333333,8.612386385333332,-5.267098824,8.215694904000001,-8.981983661666668
310,2.583230000000185,-4.237796624333333,15.650831223333332,-31.675699866666672,-4.404159784333333,-1.0742068089999999,7.381872654000001,-5.313485622666667,7.457461357,-0.5525119006666667
311,2.591562999999951,-4.281184673333333,15.708527566666666,-31.751523333333335,-1.378206104,-0.636956652,8.527285895333334,-3.3960638843333335,7.080113649333334,-8.565205573666667
312,2.599896000000172,-4.275799910333333,15.788505236666666,-31.753621433333326,-5.676557461333334,-0.627914234,10.634503998666666,0.04231103266666647,9.185435612666668,0.13720262066666666
313,2.608228999999937,-4.263053576000001,15.834992093333332,-31.82793173333334,-0.24902385500000004,-0.1383567026666667,13.771111486666667,3.3174239796666662,5.748313188666667,-8.468156178666668
314,2.616562000000158,-4.2334644,15.883337976666667,-31.8317235,-3.3959099449999997,-0.13550412666666664,11.020484288333334,2.9960502286666664,5.390396356666667,-0.34144202833333326
315,2.624894999999924,-4.217984358333333,15.900822956666667,-31.901700333333334,-1.0513915616666667,-1.6454501950000002,9.933205127333332,3.5240450303333333,2.2145384946666664,-8.229423047333334
316,2.6332280000001447,-4.167983452333334,15.948347726666668,-31.897300733333335,-5.361658573666666,0.661290762,11.35274569,5.1646666130000005,5.2409969966666665,0.5795180003333333
317,2.6415609999999106,-4.146802107666667,15.957629206666667,-31.959253966666665,-1.202512582,-0.7662838896666666,9.015964987666665,3.962138116,1.1543438036666667,-7.3760168550000005
318,2.649894000000131,-4.110572338,15.988774933333334,-31.952451066666658,-2.9928117993333334,-1.4355341396666665,6.4035625456666665,3.428149541333333,3.258865157666666,0.7063082853333335
319,2.658226999999897,-4.088362216999999,15.993154843333334,-32.0054245,-1.5802334150000001,-1.0308268466666666,9.796892645,3.797165552666667,0.506269773,-6.382500331666667
320,2.6665600000001177,-4.0413629213333335,16.02442805,-31.99995166666666,-3.7182294529999997,-0.94936802,10.460552854,4.766408404,3.262920936,0.5500188966666667
321,2.674892999999884,-4.002429088,16.022497496666666,-32.04267883333333,-3.1826579670000004,-0.8837501206666668,10.608143965666667,5.471201340666667,-0.35968371233333335,-5.261365215
322,2.683226000000104,-3.9433495999999995,16.046616553333333,-32.04342143333333,-2.247748504,-0.2679680983333333,10.245167732333334,6.410509983666667,2.4713469343333334,-0.23169411233333337
323,2.69155899999987,-3.8916258813333333,16.047124543333336,-32.0805232,-2.8185415269999994,0.05633710299999998,12.953409193333334,6.8220753683333335,-0.11599019166666658,-4.580654283666667
324,2.6998920000000908,-3.839678764333333,16.050814626666668,-32.08516693333333,-1.6517075449999998,-1.8099609116666666,8.368251639999999,5.688849211,0.05252204333333325,-0.856236736
325,2.7082249999998567,-3.7937134903333334,16.061603863333332,-32.11920166666667,-4.277945280333333,-0.17902313666666667,9.158743381333334,6.034748395,1.0976852973333333,-4.1612807316666665
326,2.7165580000000773,-3.7400279839999997,16.102370580000002,-32.143717466666665,-2.5771544480000004,-1.1720917223333334,11.247880937333335,6.558687369333334,4.624074161333334,-2.841643373333333
327,2.724890999999843,-3.697099765333333,16.109839756666666,-32.18094886666667,-3.590580667333333,-0.5746183690000001,8.746452333333332,5.776604096,0.7017235159999998,-4.544700255333333
328,2.733224000000064,-3.6689573926666665,16.136123973333333,-32.211588533333334,-1.8172603450000002,-0.5156556356666667,6.357460180666666,3.695357442,2.946922377,-3.6766248146666665
329,2.7415569999998297,-3.633004506666667,16.171020826666666,-32.24731443333333,-3.5971051453333334,-1.0845327180000002,10.270694731,4.891354401666667,3.9683026470000002,-4.1675941236666665
330,2.7498900000000503,-3.6124643486666668,16.216381073333334,-32.2958323,-1.055556377,-1.6858604549999996,9.177069505333334,3.3911116123333334,5.354698817,-5.579826494333333
331,2.758222999999816,-3.6021235783333334,16.2454195,-32.334582,-3.852164467,-1.5084557333333333,7.820196310999999,1.9181133710000002,3.300492286333333,-4.564747253999999
332,2.766556000000037,-3.608317693,16.28164832,-32.4059423,-1.5223568676666668,-0.588497572,9.28133599,0.9693793453333334,4.407437364333333,-8.279101529333333
333,2.7748889999998028,-3.6037892499999997,16.32689349,-32.43664043333334,-4.528129657,-1.6646874696666665,9.100158055666666,0.949092855,5.168636878,-3.5196564793333334
334,2.7832220000000234,-3.605166912,16.383237203333334,-32.51595816666667,-1.314397444,-0.4839106896666667,11.604594233333332,1.828852375333333,6.884975430000001,-9.024301846
335,2.7915549999997893,-3.624202807666667,16.423405329999998,-32.5349706,-3.666285197,-0.6539102,7.490543840666667,-2.268165747333333,4.4784655173333325,-2.2095009190000003
336,2.79988800000001,-3.6522716679999996,16.48286342666667,-32.621251433333335,-2.021447142,-2.1271638669999997,7.775561968333332,-1.114535307,7.313240872333334,-9.807550907666666
337,2.8082210000002306,-3.659429391333333,16.55477333,-32.6381912,-3.6003898383333337,1.5320065019999998,11.751904803333332,-0.9200037719999999,8.276545763666666,-1.711112593666667
338,2.8165539999999964,-3.7139947416666668,16.587398529999998,-32.73268889999999,-0.8405955833333333,-3.0388994216666667,6.355204423333333,-3.9829456116666666,4.1546596676666665,-10.945659953333333
339,2.824887000000217,-3.7248655953333336,16.654283843333335,-32.7500305,-3.9938898883333334,0.41108916199999995,8.730562210333332,-1.3532512389999998,7.667049566999999,-1.8096586663333332
340,2.833219999999983,-3.7662043573333333,16.703979806666666,-32.84388223333333,-1.2590050303333333,-1.0773543816666666,11.232069966666666,-2.3916827043333333,6.212477524666667,-10.700172741666668
341,2.841553000000204,-3.7900227703333336,16.741873106666663,-32.87322236666667,-3.396694183333333,-1.5193146073333335,6.952779769999999,-2.493255397,4.289308269666667,-3.4046053093333337
342,2.849885999999969,-3.828259309,16.78769493,-32.96934766666667,-1.5072282453333334,-0.5708532169999999,7.002167862333334,-1.9167816636666668,5.776420354666667,-10.99112479
343,2.85821900000019,-3.8466189703333336,16.83005206,-33.00218709999999,-3.4658572673333334,-0.6469424413333333,8.381057263,-1.7262160576666667,4.86137708,-3.759644826
344,2.866551999999956,-3.866938670333333,16.861937523333335,-33.104563399999996,-1.0914037726666668,-1.0892838636666669,8.648188909,0.4706102906666667,4.154894192666666,-11.80486361
345,2.8748850000001767,-3.8733485539999997,16.88100656,-33.136365266666665,-3.7156779763333336,0.24044677599999997,7.994633357333334,-0.32004129899999995,2.0570195613333335,-3.8295119603333334
346,2.8832179999999425,-3.8937455020000002,16.919163386666668,-33.237050366666665,-1.338661452,-1.390305559,8.866818110666665,0.4179560543333333,4.907068888333334,-11.555820782
347,2.891551000000163,-3.8912313780000005,16.942934673333333,-33.2814967,-3.2585000993333337,-0.33779024066666663,10.004794916333333,1.1955658593333334,2.719582954,-5.221795082
348,2.899883999999929,-3.923706134,16.940324783333335,-33.379330966666664,-1.4681934613333334,-0.5827844143333333,3.4399486436666664,-1.1252804053333334,0.0059001443333333015,-11.57180818
349,2.9082170000001497,-3.908144315,17.00076929333333,-33.42699176666666,-4.011131721333333,-0.5465317643333333,11.762099265999998,2.8677531876666666,7.145300716666667,-5.293442567
350,2.916549999999916,-3.9153324763333335,16.995538076666666,-33.51304626666666,-0.874519388,-0.7772561793333334,8.184460638666666,1.5204226176666669,-0.4074963729999997,-10.219359398
351,2.924883000000136,-3.9206856093333333,17.036066053333332,-33.557663,-4.0252737996666665,-1.1404261786666667,6.303399563,0.2579994896666667,4.727965831666666,-5.134677251333334
352,2.933215999999902,-3.9256811936666662,17.055582046666668,-33.64808146666667,-1.1194717883333334,-0.6884266136666666,10.967259089999999,1.941678991,2.5989600823333334,-10.494986213999999
353,2.9415490000001228,-3.949537277333333,17.058085759999997,-33.694264700000005,-2.4878150523333336,-1.0329693953333334,4.066360185333333,-1.9075947216666664,0.18979287199999995,-5.620894988666667
354,2.9498819999998886,-3.9578965506666663,17.08280818,-33.77724963333333,-2.6815531253333336,-1.240397493,10.805567899333333,1.2779242793333332,3.1664279066666663,-9.620122910666666
355,2.9582150000001093,-3.9833485286666668,17.077002843333332,-33.831812533333334,-1.6085749866666668,-0.7374037206666665,6.887695392,-1.7987766663333333,-0.7267181873333334,-6.622488021666666
356,2.966547999999875,-4.016152938,17.072472253333334,-33.902567566666676,-3.6278695266666667,-0.6407638093333333,6.707450231,-2.0742964646666664,-0.4336020550000003,-8.47622919
357,2.974881000000096,-4.0420860450000005,17.088244120000002,-33.965489733333335,-1.0180930293333335,-1.721980492,9.913549424666666,-1.5626051626666666,1.9196249643333336,-7.397614002
358,2.9832139999998617,-4.085807959333333,17.07865906,-34.03336083333334,-4.0478864513333335,-0.767393862,5.322188258333333,-3.4962195756666663,-1.0460938613333333,-8.180939992333334
359,2.9915470000000823,-4.1317133109999995,17.11546325666667,-34.103378299999996,-1.9518917199999999,-0.8169744216666667,7.199356238,-3.705957571666667,4.5054803686666665,-8.040996074666667
360,2.999879999999848,-4.177848975,17.157315573333335,-34.17649336666667,-3.6433631579999997,-0.9080129316666666,8.523445924,-3.5960047493333334,5.166115362,-8.320568402666666
361,3.008213000000069,-4.233255386333333,17.191460926666664,-34.24902853333333,-1.7202501993333332,-0.979435573,3.4104892810000003,-4.735112190333334,4.228078724333333,-8.347787698
362,3.0165459999998347,-4.277325312333333,17.28129196333333,-34.327870666666676,-3.690874775333333,-0.32138649666666663,11.036732353333333,-3.142146110666667,10.961414009,-8.533175150333333
363,3.0248790000000554,-4.329653422000001,17.32802836,-34.400263466666665,-1.9562938413333335,-1.6719230416666668,3.23097227,-4.342548569333334,5.741317152000001,-8.197039286333334
364,3.0332119999998213,-4.366329511,17.455656686666668,-34.483194999999995,-3.640441974,0.8748762213333334,9.177292505333334,-2.094062646333333,15.536217527666667,-8.638706525333333
365,3.041545000000042,-4.425372918333333,17.533670426666664,-34.56636553333334,-1.7438571256666666,-2.1769468386666664,3.0794670286666666,-4.7249093056666664,9.590594449333333,-9.111057599333334
366,3.049877999999808,-4.4642291069999995,17.677033740000002,-34.649139399999996,-3.642693360333334,0.536464284,6.458702456,-2.3226397433333332,17.42968623,-8.438911756
367,3.0582110000000284,-4.510397752,17.781607310000002,-34.743850699999996,-0.5639406443333334,-1.4371076523333333,5.850670337666666,-2.722260038,12.888796486666665,-10.144558588333334
368,3.0665439999997943,-4.540534496,17.9325072,-34.83609516666666,-3.897459666333333,-1.1250260473333331,5.279895226,-0.8886263370000002,18.420936583333333,-9.416936238666667
369,3.074877000000015,-4.580143769666667,18.092583973333333,-34.93930563333333,-1.8878045676666666,0.4277916523333333,3.9569538436666662,-1.5694532193333333,19.613854093333334,-10.547746341
370,3.083209999999781,-4.6060616176666676,18.275681816666665,-35.047505699999995,-3.126567999666667,-0.9048384229999998,5.863632043333332,0.28140242900000006,22.430080413333332,-10.870844525333334
371,3.091543000000001,-4.627123832666666,18.45348930333333,-35.1507772,-1.6764732353333336,-1.1404173276666667,5.040610552,0.7209173043333333,21.74083455666667,-10.340800603333333
372,3.099876000000222,-4.6736356416666665,18.656323113333332,-35.2641449,-2.3107289073333335,-0.3884832063333333,2.1694874766666667,-1.9067332146666667,24.847986860000002,-11.227004686666668
373,3.108208999999988,-4.709776878333334,18.864706036666664,-35.38111370000001,-2.5482771393333334,-1.1282697916666666,5.970007817,-0.475213109,25.541114806666666,-11.529201506666666
374,3.1165420000002086,-4.742639859333334,19.0824941,-35.47966003333334,-2.1279576023333333,-0.9503446816666666,3.298722763666666,-0.7595863343333336,26.50228500333333,-9.328402836999999
375,3.1248749999999745,-4.802195707666667,19.305338543333335,-35.603307099999995,-1.8902282516666666,-0.8265875676666666,4.148841301666667,-2.907738755,27.342308043333333,-12.077599846666667
376,3.133208000000195,-4.837765216666667,19.545269646666668,-35.71530659999999,-1.96604081,-0.7431258063333334,5.088679790666666,-0.4726768336666667,29.29382324,-10.544574258333334
377,3.141540999999961,-4.883447806,19.757095973333332,-35.81456503333334,-1.818411599,-0.8073615133333334,1.0611600156666665,-2.1110831893333333,25.80693435666667,-9.366555849
378,3.1498740000001817,-4.924050649333334,20.011571883333332,-35.940343233333344,-1.7149367333333334,-0.34721260266666665,9.391141892,-0.4080528616666667,31.177282333333334,-11.851867356666666
379,3.158206999999948,-4.966877301666666,20.1910553,-36.03788756666666,-1.771912728666667,-1.584575693,-2.3573287326666668,-1.757837057,21.93761062733334,-9.439172108
380,3.166540000000168,-5.024551232666667,20.454563776666664,-36.153523766666666,-1.629100879,-0.3766001863333333,7.0258548266666665,-2.7637701830000005,32.168623606666664,-10.54808585
381,3.174872999999934,-5.074508826,20.61457062,-36.25969953333333,-1.1499171456666666,-1.4436002570000002,0.8270437716666668,-2.1697734196666665,19.703488474333334,-10.516489984333333
382,3.1832060000001547,-5.141787688000001,20.87370046,-36.356129966666664,-1.8094924290000005,-1.0513124393333333,5.259762069,-4.643069664666666,31.47480774,-8.359203497666668
383,3.1915389999999206,-5.2200272876666665,21.008311586666665,-36.46693930000001,-1.8620943626666666,-1.0578323006666666,-3.139350056333333,-5.2632075946666665,16.736669223666667,-11.22631804
384,3.1998720000001413,-5.293089231,21.26199912666667,-36.5629476,-1.5897785026666664,-0.774397542,10.007064182333332,-5.300071795666667,30.83485380666667,-8.267872333333333
385,3.208204999999907,-5.366713683,21.394618983333334,-36.66660563333334,-1.4769364896666666,-1.636398514,0.552298069,-4.9336117506666675,16.45461050566667,-10.383858363
386,3.216538000000128,-5.463785966333333,21.59993108,-36.76020303333334,-1.0194808643333333,0.24402855566666667,2.654550393333333,-8.212404885666666,25.046594940000002,-8.410982928000001
387,3.2248709999998937,-5.551289399333332,21.74099477,-36.85618589999999,-1.75854672,-1.3596609033333333,0.638013512,-6.880024115333334,17.404153506666667,-9.367773215333333
388,3.2332040000001143,-5.632956664000001,21.912693656666665,-36.947611466666665,-1.1883278686666667,-1.1187019943333334,3.231961329666666,-6.3907418253333335,21.034598033333335,-8.469499905666666
389,3.24153699999988,-5.719050566333333,22.030853906666664,-37.0259552,-1.4007061720000002,-0.1566962546666667,3.144933169333333,-7.446709474666668,14.500360012,-7.586887676666667
390,3.249870000000101,-5.832196712666668,22.191396713333333,-37.12760926666667,-1.924059232,-1.6780504383333332,-0.5116167863333333,-9.661237081333333,19.83820184,-9.663295269333334
391,3.2582029999998667,-5.911014715666667,22.299567539999998,-37.19554646666668,-0.3308209576666667,-0.8871633610000002,5.1209847129999995,-7.007296244333332,13.215841926666664,-6.502064387
392,3.266536000000088,-6.026942094333333,22.415635426666665,-37.29316203333334,-2.5400932626666664,-0.727073113,0.9373982349999999,-10.113524279333333,14.510852816666665,-9.660638491
393,3.2748689999998533,-6.134616852000001,22.51836077333333,-37.35656740000001,0.07795665399999992,-0.39496361199999996,3.309842129333333,-10.662163097,12.529437383666666,-6.024166265999999
394,3.283202000000074,-6.252494811999999,22.620793023333334,-37.4418691,-2.6953670976666664,-1.8202649950000003,0.35005263499999995,-10.879517399,12.773942310999999,-8.411140759666665
395,3.29153499999984,-6.357965151666666,22.7162234,-37.5045878,-0.27648215466666665,0.2045735616666667,0.07817729299999983,-10.390693346666666,11.672443073333334,-5.973910888
396,3.2998680000000604,-6.468126614666667,22.791793823333336,-37.5901896,-2.2154103516666663,-1.5248193146666666,5.486900329666667,-9.914909837999998,9.602395058666668,-8.733426412333332
397,3.3082009999998263,-6.552314440333333,22.864320756666668,-37.64183046666667,-0.4774426173333333,0.643644929,3.864004333666667,-8.332189639666666,8.827411174666667,-5.021342833666666
398,3.316534000000047,-6.669860363000001,22.95493571,-37.73635863333333,-2.5912035506666666,-2.0249952873333332,-1.6161225686666665,-10.362843672333334,11.532949447666667,-9.471920491
399,3.324866999999813,-6.756837845,23.009958906666668,-37.7727305,0.3980252556666666,0.029443145000000115,0.7347966530000002,-9.364732902,6.555477619,-3.5484727223333334
400,3.333200000000033,-6.834944725,23.055833813333333,-37.84569803333333,-3.2870233853333333,-0.45602424966666666,5.961366812333334,-6.608795088000001,5.951213758000001,-7.68113486
401,3.3415329999998,-6.907343228333333,23.109360376666668,-37.878540066666666,0.45856065566666665,-0.6048404773333332,3.814785391333334,-7.7778967230000005,6.340613703,-3.1665128570000003
402,3.34986600000002,-6.984592914333334,23.13947677666667,-37.94388836666667,-3.011321544333333,-1.5171658196666666,0.027351419333333293,-6.867898385,3.9900018769999996,-7.069986580666668
403,3.358198999999786,-7.0553553896666665,23.176392873333338,-37.9512889,-0.5929994183333335,0.11390376099999999,3.7882627643333335,-8.750707308333334,4.0285516580000005,-0.5764695406666667
404,3.3665320000000065,-7.1256861686666655,23.195364636666667,-38.029200233333334,-1.6305933789999998,-0.9962097503333333,4.071042378666667,-5.4519262316666675,2.845720659,-8.609948633
405,3.374865000000227,-7.1561422346666665,23.210171383333332,-38.00578306666666,-1.2761604983333334,-0.04677599666666669,2.1536258856666666,-5.377149582,0.9743613403333334,2.4617374736666666
406,3.383197999999993,-7.2116673790000005,23.199179333333333,-38.100382499999995,-1.613183697,-0.6667227273333333,5.927621483666667,-2.869298497666667,-0.4780213833333334,-10.850579261333335
407,3.3915310000002137,-7.223731835666666,23.22493298666667,-38.06605530000001,-2.064507921666667,-0.8351742426666666,1.484768589333333,-3.706221858333333,2.1226561863333333,3.798040479333333
408,3.39986399999998,-7.283370812666667,23.19703038666667,-38.168701166666665,-0.5054377716666667,-0.8990940453333333,4.918756803,-2.9530616203333335,-2.364989121666666,-11.970877965999998
409,3.4081970000002,-7.281798839666666,23.219732920000002,-38.1166229,-2.8711537516666663,0.18116764866666665,2.2750880316666664,-2.942077080666667,1.5053273839999999,5.689118703333333
410,3.416529999999966,-7.3231480913333336,23.207057953333333,-38.21274313333333,-1.2707707026666666,-1.322205901,1.129257838,-1.027908047,-0.6330984036666665,-11.023046491666667
411,3.4248630000001867,-7.301700751000001,23.230309166666668,-38.17547606666667,-1.9937752089999998,-0.439029266,7.239149570666666,0.11220315333333335,1.7721513109999998,4.082136829666666
412,3.4331959999999526,-7.316996574333334,23.24102274666667,-38.23642476666666,-1.8308522903333335,-0.8790219326666667,1.3628407319999998,0.44959820933333333,1.6616081793333333,-6.8340537953333325
413,3.4415290000001733,-7.283323129,23.260147093333334,-38.2197367,-2.2008629836666667,0.08752642100000001,5.195550004666667,2.5512718359999997,1.5670372599999995,1.7796301843333333
414,3.449861999999939,-7.277702331666667,23.303024930000003,-38.252644866666664,-1.8640016270000002,-1.4223733546666668,3.1588890133333334,1.6291850433333332,5.098437149,-3.2785755793333338
415,3.45819500000016,-7.237503846333333,23.324304583333333,-38.26707966666667,-1.3328162286666665,-0.1511612136666667,4.26795582,4.815720399,2.257169644333333,-1.6060168739999998
416,3.4665279999999257,-7.214467843666667,23.386097590000002,-38.26749676666666,-2.8679840166666666,-0.8171861343333333,4.195991357,2.172130108,6.898233852000001,0.5698315300000001
417,3.4748610000001463,-7.195309957,23.424357096666668,-38.31829326666667,-0.6616847116666668,-1.1908082266666666,0.45808155333333334,4.0384984809999995,4.776010335333333,-5.333528846666667
418,3.483193999999912,-7.149682680666666,23.499162036666664,-38.29274493333333,-2.839473327,-0.130800734,7.356318633000001,3.627620538,8.092703861,3.5956155856666663
419,3.491527000000133,-7.145656268,23.542154949999997,-38.35653683333333,-1.0721780853333334,-1.5028259356666667,1.4767956336666668,2.8731357653333327,5.513728936666666,-6.669576168333333
420,3.4998599999998987,-7.091409047333333,23.647300720000004,-38.31148783333333,-3.0689264936666665,-0.6479423566666667,2.954655408666667,3.7020090023333334,11.442760149,6.1453343233333335
421,3.50819300000012,-7.090260346666667,23.694500610000002,-38.3795929,-0.717315674,-1.1180036216666667,5.872505823666667,2.775067925666667,6.068392753666667,-7.059659481
422,3.516525999999885,-7.046834468666667,23.818839389999997,-38.32963053333334,-2.7015435303333337,-0.9967830873333333,4.140992105,2.1176147186666667,13.66418648,6.9372542699999995
423,3.524859000000106,-7.058150768333334,23.884832379999995,-38.38772583333334,-1.8199618656666665,-1.2615462839999998,2.8659919103333333,0.8470795653333335,8.168251992,-5.680918018333333
424,3.533191999999872,-7.044701576333334,24.017948786666665,-38.35718280000001,-1.4438454806666667,-0.7924139796666667,4.272574663333333,-0.567914645,14.971990266666666,4.940462355666667
425,3.5415250000000924,-7.067623456333333,24.1045386,-38.3922882,-2.263329704333333,-1.9659982523333335,5.7302175360000005,-1.6446944076666667,10.312519075666666,-2.8717868330000003
426,3.5498579999998583,-7.078164259666667,24.23220761333333,-38.375732400000004,-1.8782246906666664,-0.11365309366666669,1.1842579616666669,-2.7664058803333336,14.509598253666667,3.34336408
427,3.558191000000079,-7.117976188666667,24.33536275333333,-38.40866600000001,-1.7780212959999997,-1.2798738033333332,7.1057908533333345,-3.7684400083333336,12.257056712666667,-2.3646892706666667
428,3.566523999999845,-7.150244077333333,24.464549383333335,-38.410313933333335,-1.8030316830000002,-1.7051430146666666,1.1839610733333332,-4.476686477666667,14.932204167666669,1.3815134363333332
429,3.574857000000065,-7.202202479,24.552887600000002,-38.440093966666666,-0.5783330600000003,-0.07611511166666667,7.753646374333333,-5.374529759333334,10.452572980333334,-2.2012102603333332
430,3.583189999999832,-7.243593693,24.679007846666668,-38.45057166666667,-3.413872083,-0.9318371913333333,-0.7641964753333333,-5.126173814333334,14.685054064000001,0.38146428233333357
431,3.591523000000052,-7.276518344666666,24.761713663333335,-38.47298683333333,-0.1562490659999998,-1.123489489,14.637769063333335,-3.430383285,9.68483321,-1.4418651859999996
432,3.599855999999818,-7.32415994,24.877201080000003,-38.48632813333334,-2.6344051356666665,-0.5652015806666667,-3.117030599333333,-5.754755360000001,13.457755804666668,-0.0852404436666665
433,3.6081890000000394,-7.398370902,24.94425646666667,-38.49355059999999,-1.0961781739999998,-0.6738297543333335,4.077801845,-9.130322138666667,7.614661213333335,-0.010166009333333262
434,3.616521999999805,-7.430936177666666,25.057820636666666,-38.53232320000001,-1.900707880333333,-1.289726456,4.850737572,-2.6517534256666666,13.579227289666667,-2.8261445366666664
435,3.624855000000025,-7.435387134666667,25.124008813333333,-38.50327049999999,-1.8145988783333336,0.5628277656666666,14.291371981333333,-2.6083664493333334,7.001957732,3.8822167713333333
436,3.633187999999791,-7.516810099333333,25.19732030333333,-38.569468199999996,-0.7697820663333333,-2.607030272666667,-3.7674822,-7.086969397,9.182585714666667,-6.3755564683333334
437,3.641521000000012,-7.538026014666666,25.25792121666667,-38.5149892,-3.1730475623333336,-0.0014618436666666106,4.562509934,-5.958048025666667,5.9680048616666665,6.525620420999999
438,3.6498539999997774,-7.582200527333334,25.302719116666665,-38.58935546666667,-0.37271372466666675,-0.5102515323333333,6.036872148666667,-2.152941227,5.913800397999999,-7.661270618
439,3.658186999999998,-7.571560700333333,25.35693168666667,-38.5435435,-2.9355048836666664,-1.2431714533333333,11.945265610666667,-1.7239492733333333,5.326117358,5.474385976666667
440,3.6665200000002183,-7.6142489116666665,25.390907286666664,-38.60313926666666,-0.143063744,-0.7078796663333332,-0.46498771499999997,-2.707031806333333,4.420372724666667,-6.215486526666666
441,3.6748529999999846,-7.6248634656666665,25.42534319666667,-38.57414243333333,-3.855781396333333,0.12218312433333338,3.442462244,-3.422936995666666,3.2089555263333334,3.332787910999999
442,3.683186000000205,-7.632428169333333,25.468470256666667,-38.6362661,-0.203064998,-1.776576519,8.306581496,1.6476358973333334,5.550626874,-6.324215094333333
443,3.691518999999971,-7.602029164666667,25.475505189999996,-38.622324633333335,-3.094661633,-0.07317019233333333,5.4456207743333325,2.2709243446666667,0.1635812126666667,1.2674095926666666
444,3.699852000000192,-7.6226256690000005,25.539740883333334,-38.6851756,-0.974727894,-1.167447587,6.469099363000001,0.13337326066666666,8.073322674333333,-6.046083291333335
445,3.7081849999999577,-7.593003432,25.51563263,-38.66394553333333,-2.805462996333333,-0.9696115766666665,-0.04025451366666669,1.8066018623333333,-3.6437572626666666,1.5467197746666665
446,3.7165180000001774,-7.597369512,25.618988036666664,-38.70847573333334,-1.9189931550000001,-1.0865095856666667,10.470760028333332,1.1298613966666666,12.460385888333334,-3.4616576433333335
447,3.724850999999944,-7.577400525333334,25.583461126666666,-38.69181316666667,-1.4676815473333331,-1.63701874,0.27264062533333294,0.886256804,-4.938237825000001,0.8820643029999999
448,3.733184000000165,-7.582906882333333,25.710234323333335,-38.71725973333333,-2.880660295666667,-0.9333379270000001,11.590359053333332,-0.00424432733333339,14.974166233333333,-1.0562540093333335
449,3.7415169999999303,-7.591484864333334,25.69653447666667,-38.71920266666667,-1.3042029143333334,-0.49697442833333333,-0.7336018876666669,-1.5523395536666664,-2.075984954,-0.7499637006666666
450,3.7498500000001513,-7.612987041333334,25.839689253333333,-38.74806209999999,-2.9947075843333337,-2.1244075693333335,8.468811752666667,-1.7585166693333336,16.970972260333333,-1.1641293516666666
451,3.758182999999917,-7.633320172666667,25.860629400000004,-38.74694313333333,-1.2523259913333333,-0.5490245123333334,1.5383327396666668,-3.122507969666666,2.003601075666666,0.1293134293333333
452,3.766516000000138,-7.6769558589999995,25.97724533,-38.773361200000004,-2.785472989,-1.3933058779999998,4.8334929273333325,-4.524798433,13.777433154333332,-1.3106124736666667
453,3.774848999999904,-7.701958497333334,26.05112457333333,-38.76567586666667,-1.2776818076666667,-1.437513153,5.450997670333333,-4.035309990333333,8.203503130333333,1.6945524416666669
454,3.783182000000125,-7.761194229333333,26.158641813333332,-38.80177306666667,-2.766869465333333,-1.0124123296666667,6.414530436333333,-5.870104690333332,12.834205227666667,-2.4866734096666665
455,3.7915149999998894,-7.817653974,26.256359733333337,-38.7856445,-0.5195548533333333,-0.971483926,5.5523141223333345,-8.276999155,10.911809763333336,3.009835422333333
456,3.799848000000111,-7.915114403,26.375686643333335,-38.832926433333334,-4.275922656333333,-1.4823149046666666,-2.0588608333333336,-9.830478191333333,14.408361911333335,-3.452053586666667
457,3.808180999999877,-7.961469491333332,26.49352455,-38.81585183333333,0.254256805,-0.11395839866666661,13.773086229999999,-7.126194636,13.281611443333334,3.480045199333334
458,3.8165140000000974,-8.064555009333334,26.632555643333333,-38.86471556666666,-4.077890873,-1.7442870533333332,-1.4918696873333335,-10.401410499999999,16.778739931,-3.2509313423333333
459,3.8248469999998633,-8.140139739,26.728870393333334,-38.853291833333344,1.0692197479999999,-0.2036565146666666,5.262154419,-10.338179268,10.799275396666667,2.549590865666667
460,3.833180000000084,-8.203854084,26.867347716666668,-38.8865865,-4.2060789860000005,-0.9469926753333332,7.944375297666666,-6.493522723333332,16.481777070666666,-1.5381657283333334
461,3.84151299999985,-8.242880185333332,26.947506590000003,-38.87702433333333,0.965939363,-0.2524679873333333,11.689975220666668,-5.8517223996666665,8.903569856999999,2.083342909666667
462,3.8498460000000714,-8.341230074666667,27.038404466666666,-38.91063943333334,-3.0828720729999994,-1.7600319389999999,-3.5019180473333336,-10.630445638666668,10.840475876666666,-2.3468498390000003
463,3.858178999999837,-8.409540494333333,27.074171066666665,-38.88630676666667,-0.024939196999999965,-0.8187572260000001,4.806390087333334,-10.169038929000001,3.3974834300000007,2.888389865666667
464,3.866512000000057,-8.459906578,27.106524786666665,-38.92665099999999,-2.755819432333334,-0.389540722,11.338394959333334,-4.4816037023333335,3.9984081583333335,-4.048048178333333
465,3.874844999999823,-8.486044884,27.10333379333333,-38.899576833333334,0.32706288499999997,-1.3962210616666664,10.276549340666667,-5.288370769666666,-1.2750892230000002,2.4844699353333333
466,3.883178000000044,-8.551118215,27.083388646666666,-38.9114736,-2.915244847666667,-0.46422025566666664,0.138261914,-7.7832414309999995,-2.650194803333333,-1.9624864263333333
467,3.8915109999998094,-8.581830024666667,27.01302401,-38.89469403333333,0.306994438,-0.47681456800000005,7.568324804333333,-5.269510984333333,-9.090529600333333,0.19830528866666675
468,3.89984400000003,-8.579169591000001,26.943173093333332,-38.88675436666666,-3.246289571333333,-0.9052545626666667,7.747655391666666,-0.7476285596666666,-8.885028701000001,-0.7605254053333331
469,3.908176999999796,-8.567328771000001,26.842966079999997,-38.86425783333333,-0.4330014783333333,-0.257605222,11.119156840333332,-0.45951437933333333,-12.721256732666667,0.273449133
470,3.9165100000000166,-8.562742233333333,26.686674753333335,-38.84733073333334,-1.8648127393333336,-1.2542841236666666,1.3523108363333332,-0.9911307096666665,-19.288407962,-1.3406535486666666
471,3.9248429999997834,-8.517263730333333,26.566387176666666,-38.815333066666675,-1.8653199673333336,-0.6750115070000001,12.104062078333333,3.053260137666667,-15.25876681,0.8925754230000001
472,3.933176000000003,-8.463055928666668,26.40904109,-38.7907969,-2.4092457836666665,-0.027519464333333354,10.452788036666666,4.573181447666667,-19.530792870333332,-0.4781363409999999
473,3.941509000000224,-8.429141362333333,26.237461726666666,-38.7688446,-1.673985734666667,-1.9063460826666667,2.9501558940000003,2.2307488146666667,-21.18935839,-1.050401568
474,3.9498419999999896,-8.370095570666665,26.059986749999997,-38.734680166666664,-2.8072638910000003,-0.29566225933333334,6.6151659490000005,4.653549949333333,-22.074469886666666,0.20705733666666662
475,3.9581750000002094,-8.302911758666667,25.90042178,-38.72361753333334,-1.9856945373333332,-0.3651866963333334,10.883080167000001,6.810631434,-19.592127163333334,-1.9465928576666667
476,3.966507999999976,-8.227325757333334,25.743196490000003,-38.69248963333334,-3.486948410666667,-1.4237059156666667,8.522260030333333,6.814323902333334,-19.624813713333335,0.294999321
477,3.974841000000197,-8.16496404,25.58662160333333,-38.679438266666665,-1.056756417,-1.1673686699999999,7.813139279666667,6.142748356000001,-19.27325376,-1.6177657793333333
478,3.9831739999999622,-8.090573947000001,25.427031200000002,-38.655151366666665,-2.8272071283333333,-1.017295122,8.8435208,7.030683040666666,-19.79808235333333,-0.44629407933333337
479,3.9915070000001833,-8.010661124999999,25.300166446666665,-38.6415863,-3.184521039333333,-0.9850082496666666,10.999515853,8.230326175,-15.753582953333336,-1.0144904989999999
480,3.999839999999949,-7.9368133546666675,25.20777956666667,-38.62082926666667,-3.6734225750000005,0.06564859566666666,7.738872050666667,7.1628942486666665,-11.757632574333334,0.3616175056666666
481,4.00817300000017,-7.88747104,25.0875206,-38.635197966666674,-1.2356600513333333,-2.3591260113333337,6.639647642666667,5.993527412666668,-14.55510838766667,-3.868608355333334
482,4.016505999999936,-7.789357662333334,25.013001759999998,-38.60123190000001,-4.363680680666667,-0.5069239276666666,9.934996603666667,9.403131168,-9.829972268666667,2.104265123333333
483,4.024839000000156,-7.731750011333333,24.927491506666666,-38.61362713333333,-1.055583199,-1.0173332689999999,7.570400237,6.899075348,-10.460440794666669,-3.0644745830000004
484,4.033171999999922,-7.659547487666667,24.890615463333333,-38.601913466666666,-4.402095477,-1.7136725186666666,10.279069743333332,7.417643863333333,-5.022836764666667,0.3383171063333333
485,4.041505000000143,-7.589740117333334,24.856838863333333,-38.60357156666666,-1.7303248646666667,-0.5545147483333334,8.025198936333332,7.804342110666667,-4.467972596333333,-1.0562757153333333
486,4.049837999999909,-7.527346928666667,24.808291753333332,-38.5932312,-3.046394745666667,-1.3328683769999998,10.275556564666667,6.326661825333333,-6.391427755333335,0.029106338999999964
487,4.058171000000129,-7.494284788666666,24.785739263333337,-38.601659133333335,-1.5689886413333334,-2.5643969373333335,7.5077794393333335,3.730444272333333,-3.0357562899999997,-1.612108747
488,4.066503999999895,-7.464465618000001,24.77042643,-38.58795676666666,-3.509227275666666,-0.396486481,7.428275425333333,2.2463555646666666,-2.4843800763333332,0.9057150483333333
489,4.074837000000116,-7.4374526340000005,24.791028976666666,-38.59925330000001,-2.817014873,-0.6091570656666666,11.697321574333335,3.144702355,2.1373589833333337,-1.229666978
490,4.083169999999882,-7.420721690000001,24.796094893333333,-38.588027933333336,-2.7350131273333336,-3.233129263,6.705416561333333,0.804432115,-0.023321946333333326,0.9597696643333332
491,4.091503000000103,-7.433604558333333,24.803234736666667,-38.60769656666667,-1.8708498676666665,-0.7409275486666668,9.063721976333333,-1.203595638333333,0.6528427403333333,-2.3485564786666666
492,4.099835999999868,-7.448001702666667,24.825072603333336,-38.60471089999999,-3.062331199333333,-0.8915650296666667,6.357895692,-2.54202497,2.0883714356666667,0.307020709
493,4.108169000000089,-7.4784825643333335,24.856602350000003,-38.6169993,-2.8270045120000002,-1.77727592,12.343805946666668,-3.678320010666667,3.4540672299999997,-1.1527602573333333
494,4.116501999999855,-7.514149983666666,24.848996479999997,-38.62587993333333,-1.0500529606666666,-1.7868280810000001,6.627091407666666,-4.4885315100000005,-1.2505724033333334,-1.4184438363333334
495,4.124835000000076,-7.571834564333334,24.84265836,-38.63583883333333,-2.4463756083333332,-0.9453660796666666,9.020572423333334,-7.066870134666666,-1.0848395079999997,-1.5093999703333332
496,4.133167999999841,-7.623562018,24.842680613333332,-38.6431427,-2.17246298,-1.5332720676666665,9.500696343666666,-6.498694738,-0.35891962066666633,-1.1380447943333334
497,4.141501000000062,-7.673139413,24.827781043333335,-38.64925636666667,-2.561138272333333,-0.9020840746666666,9.96455415,-6.282656351666667,-2.1559762953333337,-1.2151608666666667
498,4.149833999999828,-7.731439908333333,24.78795051333333,-38.649810800000004,-1.419789626,-0.9286155203333334,8.716254870333332,-7.625865936333334,-5.197149753666667,-1.0397202373333334
499,4.158167000000049,-7.784111182,24.704763413333335,-38.6507975,-0.8890331293333333,-1.758509914,8.343689441333334,-6.911041736666667,-10.349155585,-1.781602661
500,4.166499999999815,-7.8173681896666665,24.598028186666667,-38.657806400000005,-2.61256815,-0.23032442766666664,9.434995015666667,-4.302633126666667,-13.055001896666667,-2.8433128196666666
501,4.174833000000035,-7.850763003000001,24.494400663333334,-38.660720833333336,-2.7989145643333333,-0.915527741,10.332914989333334,-4.501459400000001,-12.750123344333332,-2.338635404666667
502,4.183165999999801,-7.8905976613333335,24.38271204333333,-38.68953959999999,-2.5983482993333333,-0.9701858363333334,9.871505895666667,-4.004876216333333,-13.313031195333332,-5.291539351
503,4.191499000000022,-7.933128356666667,24.25293668,-38.71277873333333,-2.642499058,-1.8513300816666665,9.193604468999999,-4.602508147666666,-15.551504136666667,-4.994491418
504,4.199831999999788,-7.944283008666667,24.13353220666667,-38.726689633333336,-2.557420313,-0.5287027283333333,10.964921950999999,-1.3111586966666666,-14.447140056,-3.819031636
505,4.208165000000008,-7.974328041,23.99562072666667,-38.74311829999999,-1.889139671,-1.3847763339999999,7.406769632333333,-3.439391056666667,-16.61391004,-4.412274837333333
506,4.216498000000229,-7.988792896333334,23.874143603333334,-38.7607829,-3.1373980840000004,-1.694149802,9.052311103333334,-1.5329140030000001,-14.634993869333334,-4.277005752
507,4.224830999999995,-7.9885991416666675,23.76904869,-38.76352946666666,-3.470194419333333,-0.09653667599999993,8.863161405666666,-0.4966855346666666,-12.921811104666668,-2.397543828
508,4.233164000000215,-7.978799979000001,23.658771516666665,-38.77216083333334,-2.6050123373333336,-1.8984279236666666,13.491931282000001,0.9548695286666667,-13.439475694666667,-3.096829732333333
509,4.241496999999981,-7.9830897646666665,23.56768862333333,-38.769653299999995,-3.405929009,-1.5461979110000001,6.320092201333334,-1.2959524393333333,-11.338095028333333,-1.5855597556666667
510,4.249830000000202,-8.011266072666666,23.46331723333333,-38.77482603333333,-1.5299762140000002,-0.8948567559999999,7.064969380666668,-3.7723502713333334,-12.791073166666669,-2.6348300773333335
511,4.258162999999968,-8.018613020666665,23.37411944333333,-38.779159533333335,-3.1972032390000003,-2.0123194456666664,10.937019349000002,-1.3375926216666667,-11.004133224,-2.3075951736666664
512,4.266496000000188,-8.025857607666667,23.311482746666666,-38.77527366666666,-3.6687942346666667,-0.5634490849999999,8.971148174666666,-1.6877648830000005,-7.9707535893333334,-0.9641197423333332
513,4.274828999999954,-8.049321333333333,23.28419431,-38.789647433333336,-2.351043701333333,-0.7052445326666668,10.628575006333334,-2.7951578396666665,-3.4950671179999997,-2.355066776333333
514,4.283162000000175,-8.052353064333333,23.247460683333333,-38.782877600000006,-3.243277947333334,-1.3118934993333333,8.719922542,-1.3325848976666668,-4.936870893,-0.21606035033333337
515,4.291494999999941,-8.060907204666668,23.212014516666667,-38.784118666666664,-2.00888288,-1.2958096466666669,11.597902615333332,-1.6231737929999996,-4.667387366333333,-1.0666834363333333
516,4.299828000000161,-8.105628808333334,23.181541443333334,-38.79877726666667,-2.5166351396666666,-1.4268773943333333,6.9157339733333325,-5.314463059333334,-3.859011213,-2.4472825329999996
517,4.308160999999927,-8.136846224333334,23.149056116666667,-38.80628456666667,-2.597402811,-0.8928870959999999,8.296923637666668,-4.061346292666667,-4.216350674666667,-1.7248455486666667
518,4.316494000000148,-8.156529108666668,23.153637566666664,-38.81442263333333,-3.9737680753333335,-0.35146504633333336,11.730254807333333,-2.6191369693333333,0.20507208533333396,-1.1253530376666667
519,4.324826999999914,-8.182649294666666,23.123909633333337,-38.83533223333334,-1.4426903726666669,-1.7026974756666668,9.290489991,-2.8000500996666666,-3.6785156726666663,-3.1305847166666667
520,4.333160000000135,-8.194598515666668,23.087172193333334,-38.83839416666667,-2.242300471,-0.8592313429999999,8.091353177666667,-1.9372218453333334,-4.782353043666666,-1.291909516
521,4.3414929999999,-8.219785372333334,23.049205146666665,-38.85149636666667,-3.099291166,-0.900361404,8.191255252,-3.0615116356666667,-4.774873336,-2.426372488666667
522,4.349826000000121,-8.217500368666665,23.020411173333333,-38.848571799999995,-2.687891324666667,-1.0848940113333334,10.405719122999999,-0.5044894813333333,-3.9344491956666663,-0.50958246
523,4.358158999999887,-8.226278623,22.989878973333333,-38.869979833333325,-2.788118442,-0.35881116499999993,12.195240656666664,-0.7084724900000001,-3.7606399866666664,-3.189096371333333
524,4.366492000000108,-8.226563453666666,22.963357926666664,-38.861073833333336,-2.544782162,-1.916708985666667,7.447144984999999,-1.102547566,-3.759213596666667,0.1730711163333333
525,4.374824999999873,-8.225197156333332,22.895831426666664,-38.87185160000001,-2.1360987323333336,-0.383453051,10.980023385,0.02144354566666677,-8.32346598,-2.666185855666667
526,4.383158000000094,-8.220705032666666,22.847527186666667,-38.870544466666665,-1.8665767510000002,-1.6863361596666666,7.985245704666667,-0.172925949,-6.223986228666668,-1.0389731726666667
527,4.39149099999986,-8.213732083666667,22.753074010000002,-38.8720805,-2.845949967333333,-1.0652571716666668,10.177477837333333,0.2627254523333334,-11.667776745333333,-2.111112714
528,4.399824000000081,-8.181923866333333,22.686395646666664,-38.84928896666667,-1.7103260953333332,0.22524207799999998,11.432921570666666,2.0991380613333335,-8.745696145666667,1.0057175063333332
529,4.4081569999998464,-8.173726399666668,22.548871360000003,-38.84944663333332,-3.6883171000000003,-2.27368021,11.176212945666668,0.3564306046666667,-16.805608272333334,-2.6806669633333335
530,4.416490000000067,-8.133630116666666,22.477493286666668,-38.81422933333334,-2.218281249,-0.16371516400000002,10.880916278666666,2.529324730333333,-9.501673817666667,2.302485069
531,4.424822999999833,-8.124125639666667,22.31425857666667,-38.800766,-2.505456328333333,-1.6880765559999997,8.811661723333334,-0.1088823376666667,-20.077108386666666,-1.612028102
532,4.433156000000054,-8.065327803,22.21717898,-38.76274616666666,-2.120620225666667,-0.19710803166666666,12.881991706666668,4.660920858333333,-12.593921184666668,2.1852020023333334
533,4.44148899999982,-8.017153422333333,22.035243353333332,-38.732813533333335,-2.677914202,-1.652092576,11.306663354000001,3.7988535949999993,-22.556673046666663,-0.07190312433333333
534,4.44982200000004,-7.960663000666667,21.895837146666665,-38.69042456666667,-3.110433022,-1.0184221066666665,7.826617241,4.214968840666667,-17.689929006666667,1.9829781453333333
535,4.458154999999806,-7.9006358783333335,21.71471341666667,-38.657592766666674,-2.567770625,-0.8961847856666667,13.689600626666666,5.106179078666667,-22.502923329999998,0.3188806373333334
536,4.466488000000027,-7.830692768,21.542447410000005,-38.61394753333334,-3.1168123583333327,-1.0584555863333334,11.461995047,5.801549752333333,-21.616289139,1.629407942333333
537,4.4748209999997925,-7.7695469856666675,21.399106340000003,-38.58834836666667,-3.6639591056666667,-1.1961345126666667,13.987602873333332,5.567624888,-17.899576822333334,0.18515298766666666
538,4.483154000000013,-7.738356431333333,21.224418003333334,-38.55076093333333,-2.0478274526666667,-1.0787860553333335,5.946856775666667,1.4495396613333333,-21.807796479999997,0.9863107303333333
539,4.491486999999779,-7.681373278333333,21.113684973333335,-38.540405299999996,-4.28986452,-1.0781963073333334,16.355365278333334,5.746862093666667,-13.793905573666668,-0.9646922450000001
540,4.49982,-7.616149425666667,20.937363306666665,-38.51212566666666,-1.5936275916666667,-1.1198744773333333,12.298530419666667,5.960981031,-21.861802100000002,-0.0034838119999999937
541,4.50815300000022,-7.579182306666667,20.83756383,-38.50529986666667,-5.091067115333334,-0.5265635116666666,9.836540698666667,3.476130088333333,-12.444715101333335,-1.1870834433333333
542,4.516485999999986,-7.541813532666667,20.691843666666667,-38.474792466666656,-2.556713263,-3.04567949,9.887057462666666,2.5552556096666668,-18.252769867999998,0.7813927233333334
543,4.524819000000207,-7.513042608999999,20.599099476666666,-38.474904366666664,-3.9019769033333334,0.47843085733333335,13.031047185666665,2.7944367726666663,-11.506421155,-1.8383553426666666
544,4.533151999999973,-7.507028897666667,20.48830223,-38.4618683,-2.258112689,-1.673470537,9.410800775333334,-0.4688090083333334,-13.838310240333334,-0.5962653313333334
545,4.541485000000193,-7.484946251,20.415010449999997,-38.45795186666666,-3.451793233666667,-0.5282875496666667,8.458570001666667,1.8181924823333333,-9.252036243,-1.080839629
546,4.549817999999959,-7.449674606333335,20.348772053333334,-38.433095333333334,-3.455960591666667,-0.46920160966666663,13.296593668333335,2.5693730213333335,-8.708034913666667,1.4362930059999999
547,4.55815100000018,-7.436254660333333,20.30276934,-38.43952433333333,-3.460467974,-1.2675295473333332,8.226867515666667,1.2110326686666666,-5.853989083333333,-1.7903753816666665
548,4.566483999999946,-7.418724218666667,20.288869856666665,-38.4138743,-3.8193065323333335,-1.8558331133333332,10.816099804666669,0.39277724433333333,-2.4954412576666667,2.315309326
549,4.5748170000001664,-7.407623132,20.280071896666666,-38.408564266666666,-3.1023333866666665,-0.23063036766666667,11.742202443333333,0.45503691833333343,-1.5980291763333334,0.12163772666666665
550,4.583149999999932,-7.405636628666667,20.322914123333334,-38.40551250000001,-4.516198794,-1.4470060470000001,10.645113469,-0.5344751280000001,4.587851444666666,0.6679809193333334
551,4.591483000000153,-7.403121630666667,20.34855143,-38.40185543333333,-1.7517592113333336,-1.1435472963333333,8.657448770333334,-0.5100606679999998,2.5230234166666663,0.46423243
552,4.599815999999919,-7.39326032,20.397193273333333,-38.39915466666667,-3.315602461333333,0.07987640300000003,10.023278552999999,0.42751002299999996,5.283700784,0.7245328423333334
553,4.60814900000014,-7.3720561663333335,20.439985273333335,-38.39469403333333,-2.770333052,-1.450136443,10.745622315666665,1.6951417126666666,4.554979801333333,0.810771634
554,4.616481999999905,-7.362531821,20.49805069,-38.3981425,-2.5734538236666666,-1.249134004,9.123610336666667,0.6514637073333333,6.493276993333333,0.18218968333333332
555,4.624815000000126,-7.338767051333334,20.55606715,-38.40386453333334,-2.4404657383333332,-0.05215663233333334,9.038067817666667,2.4157299996666666,6.511070490000001,-0.09522520466666673
556,4.633147999999892,-7.311113039666666,20.598891573333333,-38.41047163333334,-3.3708939549999997,-0.598603969,11.622093518666668,2.968728408,4.727124134666667,-0.4125557393333333
557,4.6414810000001125,-7.269346396,20.656674703333334,-38.42212933333334,-3.0087208746666665,-1.3906327386666666,11.198411304333334,4.837210337333334,6.569301089333332,-0.7492806416666667
558,4.649813999999878,-7.228340784666667,20.664010363333333,-38.4282176,-1.3974441686666665,-0.3150039316666667,10.226795038,4.544546206666666,0.49243760133333314,-0.9072732526666667
559,4.658147000000099,-7.1540664036666675,20.6730086,-38.42732746666667,-3.636410654,-0.2876996796666667,14.044526416666665,8.204966545,0.5864257016666663,-0.09697977200000003
560,4.666479999999865,-7.087325255,20.616591136666667,-38.430816633333336,-1.2483654816666665,-1.5609671276666663,10.904276369666668,7.524054050666666,-7.137061914666666,-1.5599283576666665
561,4.674813000000086,-6.986819426,20.567293170000003,-38.4145813,-3.9598647753333336,-0.3209151626666667,11.993665057666666,10.717142742666667,-6.5693733703333335,0.7367508410000001
562,4.683145999999852,-6.8900314966666665,20.459454219999998,-38.43033856666667,0.05074378333333334,-0.5380127010000001,14.389077506666666,11.637157755333334,-13.096295912000002,-3.6254525980000003
563,4.691479000000072,-6.757795334000001,20.33769671,-38.399230966666664,-3.417227824333333,-1.396247387,13.970641453333334,13.920308433333332,-15.396828649666666,1.3870283763333333
564,4.699811999999838,-6.6143196426666675,20.19416936333333,-38.40576683333333,-2.1522830326666664,-0.3950744643333333,15.185831066666667,16.84172217,-17.48946825333333,-3.0627129079999995
565,4.708145000000059,-6.467685381666667,20.031942366666666,-38.37916566666667,-4.028265555666667,-0.7230103016666667,12.123208366666667,15.835510570000002,-20.15322431,0.42255828766666664
566,4.7164779999998245,-6.311307429999999,19.825885133333333,-38.36196393333333,-1.7803371750000003,-0.4080414173333333,13.33906714,17.42256005333333,-25.256462733333333,-1.1502166503333333
567,4.724811000000045,-6.166161855000001,19.620914456666668,-38.343958566666664,-3.665327549,-1.8469407560000002,13.18217977,16.03807894666667,-25.147058486666666,-1.0016623933333333
568,4.733143999999811,-6.025408267666667,19.414185840000002,-38.33784483333333,-3.1363836526666664,-1.3649319709999999,11.355848627666667,15.99775823,-25.20588239,-2.277376214333333
569,4.741477000000032,-5.890011787333333,19.18747456666667,-38.3269857,-2.500024358333333,-1.6832664013333332,13.044242859999999,15.170549073333333,-27.65998967666667,-1.921483318
570,4.749809999999798,-5.741109688999999,18.939010616666668,-38.31986493333333,-2.6064502793333335,-1.677533994,14.128703753333335,16.941279093333335,-30.210735323333335,-2.565687060333333
571,4.758143000000018,-5.570928096666667,18.754753113333333,-38.30269876666667,-4.947014491,-0.24483067800000002,17.710753126666663,19.102860766666666,-22.66792424666667,-0.5753389596666667
572,4.766475999999784,-5.416583697,18.506579716666668,-38.301900200000006,-1.4723381003333333,-1.7725565036666666,13.968413666666669,17.838487623333336,-30.12257003666667,-3.0962134996666664
573,4.774809000000005,-5.278491973666667,18.28313573,-38.29121906666666,-3.935799996,-1.8681503136666666,13.952616373333333,15.516886076666667,-27.281407673333334,-1.625579019
574,4.783142000000225,-5.162611643666666,18.018228533333332,-38.313659666666666,-3.2621771096666663,-1.099829078,13.368265152666666,14.107276283333334,-31.889834723333333,-5.774568557666666
575,4.791474999999991,-5.049330393333333,17.78734461666667,-38.3085683,-3.239024559666667,-1.8985258933333335,11.94121647,12.745388666666669,-28.12405332,-2.2307924426666665
576,4.799808000000212,-4.920655886,17.548402783333334,-38.3413442,-4.432614962,-0.19256213299999994,18.079550426666668,15.996241253333332,-28.702866236666665,-6.5531228383333335
577,4.808140999999978,-4.766049067,17.313730239999998,-38.344009400000004,-2.0392955143333333,-0.661131422,17.06169192,17.979367576666665,-28.508738196666666,-3.010055502
578,4.816474000000198,-4.659093538666667,17.047647796666666,-38.37649536666666,-3.857298408,-2.213092337,11.228822709,13.372003875666666,-31.97912089,-6.672674180666667
579,4.824806999999964,-4.541241487,16.827822366666666,-38.36726889999999,-3.7483921053333336,-2.2873298723333333,11.921294213000001,13.14757506,-26.85723495666667,-1.40874962
580,4.833140000000185,-4.451793511666666,16.56989924,-38.3821869,-3.064382076333333,-1.4163370926666667,13.434604643333335,10.619539259333333,-31.184702556666668,-4.457700252666666
581,4.841472999999951,-4.323139985666667,16.318415006666665,-38.36315919999999,-3.7191748419999997,-0.749755376,20.71095276,14.123122056,-30.733454383333335,-0.47219452733333345
582,4.849806000000172,-4.210841656,16.05530802,-38.3634542,-2.7277887266666667,-1.7237738966666667,18.535122873333332,12.855426312666665,-31.944742203333334,-2.696536859
583,4.858138999999937,-4.124193986666667,15.778299966666665,-38.33125816666668,-4.078928788333333,-1.9216673376666666,9.631532829000001,8.68485753,-33.897134783333335,0.9233603873333333
584,4.866472000000158,-4.055036068000001,15.536638576666666,-38.33021546666666,-3.863462686333333,-1.4925469953333332,18.954177220000002,7.626174768000001,-29.399506253333332,-2.2668832936666665
585,4.874804999999924,-4.012372891,15.260914483333332,-38.310246766666666,-3.0730262200000005,-2.9548749126666665,12.65569814,3.8223425846666665,-33.64319610333334,-0.3495454036666667
586,4.8831380000001445,-3.978579283,15.031235376666666,-38.293741866666664,-4.557332674666667,0.2144703716666667,14.86807251,2.8969335953333335,-28.09175936666667,-0.36265980933333325
587,4.89147099999991,-3.9725384713333334,14.779247283333333,-38.27963763333333,-3.3860991596666667,-2.6502562763333333,13.452125867666666,-0.36359045033333337,-30.755307516666665,-0.797824373
588,4.899804000000131,-3.9614280066666665,14.577061656666666,-38.26419066666667,-4.064964771333333,-1.011143863,12.212968034666668,0.21414830300000007,-24.79356574666667,-0.23652212833333333
589,4.908136999999897,-3.957698981,14.360678040000002,-38.25211083333334,-4.450908342999999,-1.4817149589999998,19.32548968,-0.5666975876666668,-26.472697576666665,-0.71134609
590,4.916470000000118,-3.9775698186666673,14.163833303333334,-38.24322,-3.0635539306666666,-2.0955180823333333,13.781147955666668,-3.295599381,-24.104880333666667,-0.955185314
591,4.924802999999884,-3.987565517666667,14.016249019999998,-38.24165853333334,-6.216686567,-0.8009479469999999,18.73461787,-1.8976435256666668,-18.154980023333334,-1.3813890616666666
592,4.933136000000104,-4.017687559333333,13.85512034,-38.23752340000001,-1.1934791206666666,-1.1114493113333332,15.077192625666669,-4.387639284,-19.78769938,-1.199160695
593,4.94146899999987,-4.02803127,13.720521926666665,-38.2514089,-6.936624845,-0.09987108899999997,16.83809789,-1.4818560876666667,-16.470217386666665,-3.080893755
594,4.949802000000091,-4.067085028,13.586562153333333,-38.24408466666667,-0.9604796666666666,-1.7778836490000003,10.652755578999999,-5.558756801666667,-16.56420676,-0.6220846773333334
595,4.9581349999998565,-4.0912811756666665,13.508092883333333,-38.249267566666674,-6.9106095640000005,-0.581981937,12.751570622666668,-3.406407436,-9.820733585333334,-1.614443997333333
596,4.966468000000077,-4.113121350666667,13.422702473333333,-38.23953756666666,-1.3663337626666667,-1.5397136610000002,18.186259906666667,-3.5504022836666667,-10.770800112666668,0.07143389166666665
597,4.974800999999843,-4.143148263333333,13.372902553333333,-38.24205526666666,-7.648697376333334,-2.2309511703333333,12.426325002,-4.168239156333334,-6.411232312666667,-1.0767758686666669
598,4.983134000000064,-4.160728772333333,13.365199089999999,-38.25182086666667,-1.8068633473333333,0.31759533300000004,15.732924463333333,-2.5013627206666667,-1.3090037503333332,-1.525703613
599,4.99146699999983,-4.198468049666666,13.339631079999998,-38.25904336666667,-4.194472293,-2.022878646666667,15.057127953333335,-4.972231626666667,-3.469205061666667,-1.3938457370000001
600,4.99980000000005,-4.190473874333333,13.353341423333333,-38.272521966666666,-4.858150045333333,-0.530956457,21.59842046,0.6740043559999999,1.2875509459999999,-1.790943146
601,5.008132999999816,-4.229045232333333,13.378164926666665,-38.285008733333335,-3.868746042,-0.9302387636666666,11.107201736999999,-4.932525555333334,2.6062611739999997,-1.5708228746666666
602,5.016466000000037,-4.265078068,13.44429652,-38.30762226666667,-4.327305575,-0.13562508433333334,9.924993553666667,-4.354335268333333,7.640292287666668,-2.390845696
603,5.024798999999803,-4.293080806666667,13.50173124,-38.316757200000005,-3.301409284,-1.9204046313333334,15.229439736666668,-3.7460392713333337,6.480547586,-0.8670932156666665
604,5.033132000000023,-4.309852441333334,13.598478953333334,-38.33502703333334,-4.606964906333333,-1.1322309123333332,13.390553951333333,-2.157410462666667,11.268740335666665,-1.6116139690000002
605,5.041464999999789,-4.303851286666667,13.716403643333335,-38.34779356666667,-3.9070901073333335,-0.611906628,14.69319598,0.42947689633333336,13.749820553333334,-0.7461898523333333
606,5.04979800000001,-4.305705388333333,13.791299186666668,-38.36541236666667,-2.0389417413333337,-2.0195071103333335,16.617295263333336,-0.3686615626666665,8.651132343666667,-1.7068518003333333
607,5.05813100000023,-4.269768715,13.917670886666665,-38.38096616666667,-5.852339585666667,-0.5304473213333333,19.21537717,4.111823997666667,14.787280401999999,-1.0059950746666666
608,5.066463999999996,-4.291722298,13.992596626666668,-38.39282736666667,-1.4692664743333335,-1.8464734156666667,10.009665170333333,-2.947836499333333,8.597683113666667,-1.0399509566666667
609,5.074797000000217,-4.297674338333333,14.120242753333335,-38.4145813,-5.403120597333333,-0.9207461676666666,10.522266585333334,-0.731137355,14.992291929666665,-1.7276717026666668
610,5.083129999999983,-4.293760776666667,14.222489356666665,-38.435201,-1.8751225473333335,-0.23356401933333334,19.41129621,0.4068138696666666,11.945743171666669,-1.7949090946666668
611,5.091463000000204,-4.308388392,14.329851466666666,-38.4612376,-4.705855051666667,-3.064952091,9.196554225666667,-1.6222988366666666,12.603561082333334,-2.397851387666667
612,5.099795999999969,-4.325231552333333,14.448299726666667,-38.49381003333334,-3.4393466710000005,-0.9926790693333333,11.756809873333333,-1.7148389716666665,13.990076066,-3.046566447
613,5.10812900000019,-4.35154136,14.55042299,-38.53191123333334,-3.3704383970000005,-1.9428215823333332,16.612294196666667,-2.649156769,12.085169633333331,-3.811552365666667
614,5.116461999999956,-4.355616728333334,14.653102873333333,-38.55737306666666,-2.8507585923333334,-1.0647693550000001,19.255873996666665,-0.3836073079999999,12.038675307,-2.3583586213333336
615,5.1247950000001765,-4.382573763666667,14.775491396666666,-38.59836326666667,-4.064984322,-1.6790509226666668,15.605338096666665,-2.626651287,14.537436487666666,-3.9439700443333336
616,5.133127999999942,-4.424415906333333,14.867809933333334,-38.61899819999999,-2.9292020796666667,-0.6145262516666666,7.549128293333333,-5.053668977333333,10.757951419666668,-1.8861816769999997
617,5.141461000000163,-4.478112538666667,15.005512556666666,-38.6752421,-4.768654028333334,-1.183226506,11.434148945666665,-5.345969895333333,16.50925064333333,-5.558679262666668
618,5.149793999999929,-4.511305332,15.13209629,-38.70120243333333,-1.7668126326666667,-2.5936805803333334,12.720642406666668,-3.834370612666666,14.909973304333333,-2.141406079
619,5.15812700000015,-4.578198115333333,15.245268186666665,-38.760528533333336,-4.153894742333333,-1.1682355006666667,11.811256726666665,-6.814519087000001,13.611072856666667,-6.110793272333335
620,5.166459999999916,-4.636721293,15.367768289999999,-38.80412293333333,-3.2221247749999997,-2.4862567976666665,15.539858500000001,-6.299848716333334,14.587515516666665,-4.186562459
621,5.174793000000136,-4.686981201333334,15.504499436666665,-38.865539533333326,-4.216072241333333,-0.37988609066666673,14.724678993333333,-4.7117232243333325,16.458295503333336,-6.077880223666667
622,5.183125999999902,-4.749441464666666,15.61106046,-38.89427693333334,-2.0573789876666666,-2.095573862333333,11.615116118000001,-7.2287869460000005,12.549125033333333,-2.6015400093333336
623,5.191459000000123,-4.810648123333333,15.75190894,-38.9554494,-4.469685792666667,-0.32674961766666666,14.999774613333335,-6.005486170666667,16.960667608666668,-5.962555885333333
624,5.1997919999998885,-4.858678658666666,15.849527676666666,-38.96940613333333,-2.1947730379999997,-1.646562318,14.466346423333334,-5.962960641,11.341058412666667,-0.9421429136666665
625,5.208125000000109,-4.948734124333334,15.944219590000001,-39.02648416666668,-2.4458811283333333,-2.0850619496666667,9.507439929666667,-9.579585393,11.412604965999998,-5.936753749666667
626,5.216457999999875,-5.024438381333334,16.022078196666666,-39.03741456666666,-4.180213451666667,-0.11137609666666666,8.703686397666667,-9.384574573666667,8.947095869666667,-0.7868695560000001
627,5.224791000000096,-5.101363023333334,16.10599359,-39.08328243333333,-1.51955986,-2.5081748166666666,13.326369287666665,-8.345934232333335,10.024499574333333,-4.7069537640000005
628,5.2331239999998616,-5.1543730100000005,16.157096543333335,-39.097966500000005,-3.5377795696666667,-1.0563666623333334,16.56548245666667,-6.5454446483333335,5.788983901333334,-1.475554943
629,5.241457000000082,-5.239381631333334,16.194019636666667,-39.13768513333333,-2.0926856199999997,-2.2051837840000004,12.125520072333332,-9.503945987,4.357707659333333,-4.490675608333333
630,5.249789999999848,-5.329142411666667,16.22415828666667,-39.15823873333333,-4.337490717333333,-1.2678727060000001,11.562704721666668,-10.757514475999999,3.346858620666667,-2.3700170220000003
631,5.258123000000069,-5.420649369666666,16.240691186666666,-39.1889699,-2.8247483570000003,-0.826986576,14.358300210000001,-10.566871957666667,1.8396614619999998,-3.6609190503333338
632,5.266455999999835,-5.503517945333333,16.271597543333332,-39.2084961,-2.614436865,-2.306629399666667,14.55588023,-9.968097369666665,3.429989894333333,-2.2367763516666668
633,5.274789000000055,-5.594831625666667,16.288953463333332,-39.2359619,-3.9487431843333334,0.4030377813333334,13.510743776666667,-10.661094822999999,1.9111084936666662,-3.2714801220000003
634,5.283121999999821,-5.6979689596666665,16.28881677,-39.252360033333325,-2.0134569403333336,-1.3474195266666669,10.249784947,-12.509520846666666,-0.3018638690000001,-2.22178785
635,5.291455000000042,-5.795550982333334,16.28003756,-39.27259826666667,-4.571901162333333,-1.498813033,12.870683033333334,-11.639575640333334,-1.285442074,-2.7513792116666664
636,5.299787999999808,-5.891810417333333,16.28262329,-39.2997996,-2.1164471309999997,-0.5389456746666667,9.821853161333335,-11.32919852,0.15488491466666657,-3.4439024133333334
637,5.308121000000028,-5.984121481666667,16.309120493333335,-39.32523090000001,-5.0552681286666665,-0.9944712319999999,12.154681363333333,-10.837145170333335,2.9991283413333334,-2.903566599
638,5.316453999999794,-6.023420493,16.296632766666665,-39.35425823333333,-1.1273374163333334,-0.9569878580000001,17.763139086666666,-4.426806682333334,-1.6171377203333337,-3.8287479083333333
639,5.324787000000015,-6.074196179666667,16.27898375,-39.370910599999995,-3.3289955359999994,-1.2891735236666666,15.341878889999998,-6.1455725050000005,-2.3697953223333332,-2.451162775333333
640,5.333119999999781,-6.127679348,16.247700373333334,-39.392328866666666,-3.4373333059999998,-0.625222067,8.674626189666666,-6.376857120666666,-3.945608457,-3.2089094323333334
641,5.341453000000001,-6.178660392666667,16.24565887333333,-39.39559426666667,-4.02023228,-1.6690818470000002,14.526050407999998,-6.630095879333333,-0.6700642106666669,-0.7209167483333334
642,5.349786000000222,-6.2240260439999995,16.224351563333332,-39.42237346666666,-2.136685904,-0.4291666846666667,14.769961673333333,-5.231050491333334,-2.6821267006666667,-3.682870626333333
643,5.358118999999988,-6.283791065,16.208886146666668,-39.417205800000005,-3.635380506666666,-1.3069866996666666,9.315295220000001,-7.963679949666667,-2.375472982666667,0.060424129333333264
644,5.3664520000002085,-6.343217372666666,16.203357696666668,-39.4383901,-3.3984151283333333,-1.7300113040000002,8.623671691,-7.097004731666666,-0.8667900563333335,-2.8478465083333333
645,5.374784999999974,-6.348739782999999,16.24186484,-39.41611736666667,-5.242897192666667,0.7004302146666667,14.3091383,-2.0360716580000005,3.841209173333333,2.7283943096666667
646,5.383118000000195,-6.353981176999999,16.26374213,-39.43358866666667,-1.7409265586666667,-1.1486509839999999,17.961025873333334,-0.7124683260000001,2.3567401569999995,-2.040690580666667
647,5.391450999999961,-6.3427400590000005,16.314110436666667,-39.39674376666667,-4.961713870333333,-0.8776320169999999,13.479512850333334,-0.5208911896666665,5.071789662,4.5576012729999995
648,5.3997840000001815,-6.370274861666666,16.33719285333333,-39.402140300000006,-1.798075954,-0.7083761293333333,10.510085263999999,-3.7960983030000004,2.3492352166666666,-0.6537266176666668
649,5.408116999999947,-6.375870704666667,16.42402045,-39.34443663333332,-5.098547935666667,-0.464914302,10.318828264,-3.2578837076666667,9.150695642666667,7.419368982333334
