,time,Euler_X,Euler_Y,Euler_Z,Acc_X,Acc_Y,Acc_Z,Gyr_X,Gyr_Y,Gyr_Z
0,0.0,-3.4572676419999997,4.2360880375,22.8793144,-1.1199059485,-1.3561326265,9.3440279975,-42.569078445,0.9214346410000003,-2.3870779275
1,0.0083329999999932,-3.8039833310000004,4.243460655,22.87292099999999,-1.329699159,-0.13203875749999996,10.11648464,-41.77062988,0.21988058050000014,-0.9739826325000001
2,0.0166659999999865,-4.1799504755,4.3037142755,22.84700015,-1.5944042205,-0.09960667799999998,8.5279479025,-45.107412339999996,6.6810367105,-2.7917515039999996
3,0.0249989999999797,-4.582109213000001,4.3193364145,22.8257866,-0.5097293295,-1.1435980799999999,9.7490355945,-48.292680739999994,1.3532090785,-2.6577700969999998
4,0.033331999999973,-4.999104023,4.3597602845,22.792259199999997,-1.1334462465,-0.0343211145,11.1714057935,-49.958335875,4.417164743,-3.7793694735
5,0.0416649999999663,-5.434737444,4.4023065565,22.75978085,-1.9824063775,-0.35009776800000003,7.843289138499999,-52.211603165,4.719862684500001,-3.565490961
6,0.0499980000000164,-5.869940996,4.485388756,22.72163775,-0.9529154595,-0.7691093385000001,9.4220046995,-52.090793610000006,9.6193801165,-3.7775648835
7,0.0583310000000096,-6.342510223,4.554099321500001,22.676384000000006,-1.5090507265,-0.3855741025,12.224442005,-56.512670514999996,8.061553954,-4.7081019875
8,0.0666640000000029,-6.782903194499999,4.632136822,22.6402893,-1.1673189995,0.640870437,9.0471456055,-52.721080779999994,9.0456411835,-3.4442912340000005
9,0.0749969999999962,-7.222920895,4.7515544895,22.58498005,-1.4333238305,0.15220519899999999,7.205384493,-52.489833835,14.316338541,-5.041848659499999
10,0.0833299999999894,-7.6353242395,4.871540308,22.547317500000005,-1.3189756275,0.42861777549999996,9.565777776000001,-49.335014345000005,14.107598305,-2.8100419045000002
11,0.0916629999999827,-8.014421701,5.013974428499999,22.49882125,-0.583015382,1.8336452245000001,9.5194489965,-45.215328215,17.006761075,-3.655287266
12,0.0999959999999759,-8.3562450405,5.123132944,22.4716339,-0.46951812500000006,0.22912397950000002,7.3704352375,-40.95584679,12.67834139,-1.5733247399999999
13,0.1083289999999692,-8.652760029,5.270047426,22.429191550000006,-0.9383864255000001,0.995343372,8.7665581705,-35.345687865,17.469055175,-2.65240252
14,0.1166619999999625,-8.9194383625,5.390314102,22.41254045,-0.642262816,1.117601082,9.526176455,-32.045873639999996,13.8178687075,0.026632443000000006
15,0.1249950000000126,-9.1329426765,5.5335309509999995,22.382637000000003,-0.794223696,0.6554334465,9.2100312715,-25.50268173,16.8175411225,-1.0756581055
16,0.1333280000000059,-9.334915638,5.616617918,22.368053449999998,-0.350376606,-0.8024055065,9.5303452015,-24.298672675,9.370070696500001,-0.3296168745
17,0.1416609999999991,-9.51550436,5.750946045,22.332733150000003,-0.8461534975,0.6924918,8.100440146,-21.479146005,15.8776145,-1.762228608
18,0.1499939999999924,-9.705144881999999,5.8180370329999995,22.31972505000001,-0.2764484879999999,-1.0541715325,9.5291762365,-22.828211785,7.450608730500001,-0.4206884095
19,0.1583269999999856,-9.892023087,5.9526560305,22.2844963,-1.0560089945,-0.1586468555,9.682543277,-22.223475455,15.919654845,-1.6298861505
20,0.1666599999999789,-10.0712809565,5.9862508775,22.267391200000006,0.5306772740000001,-0.7222947774999999,10.114958284,-21.52372742,3.577868702,-1.5564752225
21,0.1749929999999722,-10.29033279,6.057557582499999,22.232841449999995,-0.7856637535,-1.277942866,7.19380677,-26.08683491,8.436489403,-2.7697331905
22,0.1833259999999654,-10.49890804,6.0909514425,22.199836700000006,0.8374663960000001,-0.314135514,13.235934735,-24.83801174,3.9049642070000004,-3.3935041425000003
23,0.1916590000000155,-10.724283215,6.068636656000001,22.164043399999997,-0.25676307049999997,-0.457649738,9.818261148000001,-26.824102404999998,-2.559741378,-4.919754982
24,0.1999920000000088,-10.93469429,6.0402514935,22.1364479,-0.36539746850000004,-0.5375573185,10.656820773500002,-25.13049316,-3.4706217945,-4.1185729505
25,0.2083250000000021,-11.15214014,5.960338831,22.117050149999997,0.2109368145,-0.547618866,9.526281833999999,-26.086907385,-9.680567264,-4.3399703505
26,0.2166579999999953,-11.39429092,5.852893352500001,22.107288350000005,0.136530459,-0.9069074985,9.8664355295,-29.168587685,-13.16440296,-3.8895952705
27,0.2249909999999886,-11.654533865000001,5.720074415499999,22.09819795,-0.341848731,-1.3499205705000001,11.05438328,-31.357743265000003,-16.111263275,-4.4780709739999995
28,0.2333239999999818,-11.92870808,5.621981859,22.086559299999998,-1.973543167,0.08454971,11.520936965,-32.999368669999996,-11.98916531,-3.9669834374999997
29,0.2416569999999751,-12.19108677,5.493695735499999,22.077751149999997,-0.3322707114999999,-0.1695885065,13.113925935000001,-31.61891556,-15.546041486500002,-4.487618922999999
30,0.2499899999999684,-12.464049815,5.3595752715,22.078559900000002,-1.601271749,-0.8088861405,9.666481496,-33.002196315,-16.493020535,-3.5502204895
31,0.2583229999999616,-12.742950915,5.253590107,22.07669829999999,-1.185201466,-0.30333045849999996,10.788668633499999,-33.687759400000004,-13.07338667,-3.2274423834999997
32,0.2666560000000118,-13.03372431,5.141659498,22.086578399999993,-0.6481074465000001,-0.932032019,10.67328596,-35.237842560000004,-14.10550785,-2.0608469845
33,0.274989000000005,-13.31826639,5.026090622,22.0962715,-1.1258640885,-0.3113700745,10.791602134,-34.48753357,-14.47902727,-2.2714091539999997
34,0.2833219999999983,-13.62545395,4.93301034,22.10428234999999,-2.50200665,-0.37303885,10.4315774425,-37.189811705,-11.835272548999999,-1.8693484665
35,0.2916549999999915,-13.937706949999999,4.871241093,22.104774500000005,-0.653117612,-0.880132079,13.0013666155,-37.712093355,-7.925356581,-1.956277132
36,0.2999879999999848,-14.269341945,4.759211302000001,22.120784799999996,-0.9934446815,-1.0647354125000001,10.0252749935,-40.203054429999995,-14.251732826,-1.6336529254999999
37,0.3083209999999781,-14.60093689,4.718861103,22.106811499999992,-2.0394591689999997,0.23715005849999998,9.4218099105,-39.900255200000004,-4.983058512,-3.052996993
38,0.3166539999999713,-14.936296460000001,4.6309776305,22.113090550000003,0.052979677999999975,-1.004421562,11.104218485,-40.54771042,-11.140140293,-2.176028669
39,0.3249869999999646,-15.29398394,4.5642991065,22.117481250000004,-1.769561052,-0.6576904805,10.212361334,-43.211738585,-8.575833319000001,-1.8078367114999998
40,0.3333200000000147,-15.67366123,4.5197920795,22.11424255,-0.9488486500000001,-0.700784251,11.736203195,-45.774915695000004,-5.7931957245,-2.0165486335000002
41,0.341653000000008,-16.063052655,4.425646066500001,22.123985299999994,-1.361310266,-1.041388035,10.652635096,-47.065208435,-11.898752210000001,-2.2041158675
42,0.3499860000000012,-16.47188759,4.4332537655,22.10909275000001,-2.4850417975,-0.4882101865,7.7417752745,-49.17433739,0.6297204490000001,-1.661317006
43,0.3583189999999945,-16.888728139999998,4.4026999475,22.109027849999997,0.2334694965,-0.6272687020000001,12.10363102,-50.2616024,-4.2269854555,-1.3167411615
44,0.3666519999999877,-17.363204955,4.4009096625,22.082477550000007,-2.9228067395000004,-1.6418163780000001,8.3433611395,-56.949598315,-0.013794895000000196,-3.305468917
45,0.374984999999981,-17.814284325000003,4.4182674885,22.0728035,-0.566710763,0.8721707465,13.067168235,-54.286233905,1.6196961400000003,-0.7380826030000001
46,0.3833179999999743,-18.293047905,4.4261689185,22.051063549999995,-2.1207269875,0.1409432215,8.2138106825,-57.50927353,0.9612088200000004,-2.3653595445
47,0.3916509999999675,-18.708778385,4.495350361,22.024364500000004,-0.018377423000000004,0.483899161,9.813330414,-49.88784027,8.170091988000001,-0.650795437
48,0.3999840000000176,-19.14315891,4.5144114495,21.995731350000007,-1.848586097,0.4005472955,7.883836628,-52.109884265,2.5288546085,-2.7194316389999997
49,0.4083170000000109,-19.54664135,4.60142231,21.956569700000003,-0.8405079244999999,1.2993868590000002,13.411888124499999,-48.300971985000004,10.6909201145,-1.2163201575
50,0.4166500000000042,-19.94031048,4.622085333,21.92451095,-1.643262532,-0.4150166345,9.335098265500001,-47.186609265,2.8873617644999996,-3.005042076
51,0.4249829999999974,-20.27950382,4.709796667,21.8904686,-0.336833179,1.6047783495,10.3822300455,-40.62907791000001,10.5680882915,-0.4523034805
52,0.4333159999999907,-20.6122036,4.7233910560000005,21.861137400000004,-1.1765781645,0.5032749774999999,10.0921194555,-39.892467499999995,2.0035221575,-2.9419335125
53,0.4416489999999839,-20.890978814999997,4.83011508,21.8145027,-1.1831047985,0.7775052785000001,9.504049778999999,-33.249892235000004,13.238777637000002,-0.918277681
54,0.4499819999999772,-21.128659245,4.8619170185,21.789409650000003,-0.5773898359999999,0.8972611725,12.1495385175,-28.52760792,3.891970575,-1.6683587430000002
55,0.4583149999999705,-21.328529355,4.956880331,21.750560749999998,-1.300676388,1.757179737,8.818850277500001,-23.853092195,11.59038496,-0.4387848975
56,0.4666479999999637,-21.47822094,5.0178163055,21.718078650000002,-1.0856003459999999,0.12090682999999999,10.620837213,-17.885107995,7.4733655455,-1.179215804
57,0.4749810000000138,-21.59134102,5.100389242,21.67593765000001,-0.927378431,1.647722602,9.9481105795,-13.399515155,10.352085591,-1.2849767355
58,0.4833140000000071,-21.683466915,5.1712431905,21.633953099999992,-1.371907003,0.4446039495,10.5627374635,-10.869991301999999,9.008130550499999,-1.770750642
59,0.4916470000000004,-21.71525192,5.2713341709999995,21.59251785,-0.6804284450000001,1.005023956,10.9837131515,-3.634545326,12.2768287655,-0.39963972950000004
60,0.4999799999999936,-21.722671505,5.3316807745000006,21.5495911,-1.2021157295,0.6433843674999999,10.322219611000001,-0.6815178394999999,7.88059783,-2.3341421485
61,0.5083129999999869,-21.70730114,5.457074642,21.495326999999996,-1.6531870365,0.6544086785,9.294800518,2.178849578,15.664721490000002,-0.692506579
62,0.5166459999999802,-21.663948060000003,5.541542291500001,21.450828550000004,-1.1253408045000002,0.4594117005,12.090659615,5.44741869,10.647890092499999,-1.468707532
63,0.5249789999999734,-21.58051777,5.670457125,21.407455450000008,-1.1240440905000002,1.2952034475,11.0375595095,10.2400422085,15.57603979,0.6489495485000001
64,0.5333119999999667,-21.456237795,5.76575613,21.372764599999996,-0.22001189,0.35892872499999995,10.1064367275,15.05598831,11.408724783499999,0.10195112249999994
65,0.5416450000000168,-21.312053679999998,5.909438848500001,21.32505415,-2.177048147,0.9579995875,9.788642881000001,17.600472449999998,17.4176774,0.743459821
66,0.5499780000000101,-21.11922264,6.0321705345000005,21.284030900000005,-0.512302622,1.358733177,13.678798675,23.37721157,14.756826401000001,0.5193032625
67,0.5583110000000033,-20.896528245,6.1595127585,21.258869150000002,-1.238316208,0.5608882900000001,9.438972949,26.754888535,14.625347612,2.4351596829999997
68,0.5666439999999966,-20.621633529999997,6.322597742,21.221622449999998,-0.1321470735,1.237110257,9.9227035025,33.193131445,19.127839565000002,2.5436503884999997
69,0.5749769999999899,-20.324360845,6.429812193,21.21712495,-0.5416097195,0.1751079265,10.8284420955,35.443922045,11.525664330000001,3.7561399939999998
70,0.5833099999999831,-20.016052244999997,6.5739073755,21.195133200000008,-0.8239293695000001,-0.23342277099999997,11.4466362,37.012483599999996,16.38892174,3.2594293355
71,0.5916429999999764,-19.687503815,6.670799017,21.197284700000004,-0.2832559945,0.320953831,11.114192485,39.104629515,10.1346447445,3.9526404145
72,0.5999759999999696,-19.34070873,6.779312611,21.19721605,-0.506823048,-0.0034305824999999873,10.076002119,41.328674315,11.532162191000001,4.092803001
73,0.6083089999999629,-18.978485104999997,6.862549782,21.200733199999995,-0.0508978965,-0.7150686085,9.6242866515,43.122983935,8.584100484,3.4372442960000003
74,0.616642000000013,-18.63012886,6.932955742000001,21.219848650000003,-0.6985935864999999,-0.3987816125,9.232103586000001,41.241519929999995,6.529476404,4.603141785
75,0.6249750000000063,-18.293836595000002,7.0101850035,21.22619625,-1.300671339,-0.9626727399999999,12.488382815,39.967956545,7.838479282,3.412947893
76,0.6333079999999995,-17.96633053,7.067600489,21.253536250000003,-0.572870523,-0.649719909,10.23431778,38.60733795,4.792698622,4.9878795144999994
77,0.6416409999999928,-17.62912846,7.147560835,21.26760484999999,-1.7015309035000001,-0.42758160850000004,10.0559406295,39.95553398,7.912569048,4.2832570075000005
78,0.6499739999999861,-17.300118445,7.244705915500001,21.294517550000002,-0.7329738585,-0.7418091,8.4976217745,38.78401375,9.4186496745,6.2943999765
79,0.6583069999999793,-16.98560333,7.339563846500001,21.32447055,-1.142680183,-0.910191476,11.785875796,36.98757935,9.115323783500001,6.522429943000001
80,0.6666399999999726,-16.707195284999997,7.474955797,21.344482399999997,-1.6878998280000002,-1.156301707,10.594533919,32.80050087,14.114368915,6.7445559500000005
81,0.6749729999999659,-16.41508865,7.60315752,21.369903550000004,-1.2033610639999999,-0.5145894585,11.997498515,34.35187148999999,13.172932385500001,7.043501139
82,0.683306000000016,-16.14916706,7.793437719,21.380806000000007,-2.4762927295,-0.602058694,6.692109108,31.43118286,20.80428314,7.4151518345000005
83,0.6916390000000092,-15.875345710000001,7.99492836,21.399478900000005,-0.33633687349999997,-0.786639452,12.14877367,32.25135231,21.917891975,8.5662956215
84,0.6999720000000025,-15.658987525,8.204084873,21.39894865000001,-2.1946559545,-1.4136882425000001,8.796692134,25.67313385,23.43492651,6.476957559500001
85,0.7083049999999957,-15.427736759999998,8.4675507545,21.403568299999996,-1.330430567,-0.0982236415,13.10220146,27.36483574,29.602158545,8.7631742955
86,0.716637999999989,-15.218298435,8.730565548,21.40862655,-1.7777116895,-0.772246808,8.199235678,24.738186835,29.536138535,8.6687135695
87,0.7249709999999823,-14.98430824,9.0618247985,21.4129486,-1.1116939184999999,-0.28132797299999995,10.3318927305,27.691625594999998,37.53528595,10.6071391125
88,0.7333039999999755,-14.76969433,9.3500204085,21.418582899999997,-0.7084324805000001,0.023269780000000004,9.5181694035,25.341708179999998,32.507673264999994,9.282901764
89,0.7416369999999688,-14.548841955,9.705030918,21.42097855,-2.1535102129999997,-0.688823089,11.69307375,26.14396763,40.43344879,10.8065667145
90,0.7499699999999621,-14.301348205,10.069004535,21.426437350000008,-1.071848225,0.572354771,10.118897917,29.285450935,41.397388455,11.25483179
91,0.7583030000000122,-14.029345039999999,10.469361305,21.4375,-1.753543764,0.3286166685,8.874933241499999,32.090954780000004,45.553722379999996,12.76645851
92,0.7666360000000054,-13.721402165,10.896383759999999,21.440292349999993,-1.71831017,0.440450668,10.0832271555,36.580019,48.919813160000004,12.396998880000002
93,0.7749689999999987,-13.398956775,11.341266155,21.44994355,-2.3064699175,0.1466906295,10.290294171,38.156414035,50.92242813,13.361946105000001
94,0.783301999999992,-13.042177200000001,11.82864332,21.447612749999998,-1.0338580605,0.7132845375,10.3219664085,42.5642128,56.25637245,12.868151185
95,0.7916349999999852,-12.663284305000001,12.31006384,21.466487900000004,-1.0622434615,-0.33485220400000004,9.158052680499999,44.67851639,55.1228981,14.74377537
96,0.7999679999999785,-12.238939760000001,12.823607925000001,21.474712349999997,-1.2362601759999998,0.9887444375,11.046006202,50.406805035000005,59.23609542999999,13.952336785
97,0.8083009999999717,-11.79925346,13.340389250000001,21.492561349999995,-2.073322594,0.025203510999999984,9.289537429,51.960790635,59.513780595,14.688458919999999
98,0.816633999999965,-11.320625785,13.89409256,21.505008699999998,-1.4861520825,0.6375228315,10.669198513,56.773099900000005,64.062784195,14.506923194999999
99,0.8249670000000151,-10.85640955,14.437465665000001,21.529953,-0.8079141674999999,-0.959735453,9.673565628,54.65557289,62.725229264999996,15.115504264999998
100,0.8333000000000084,-10.348307134999999,14.981605055,21.546306599999994,-0.22603964799999998,0.31978724550000004,11.7563695885,60.15670395,63.090616225,13.670507905000001
101,0.8416330000000016,-9.851726056,15.520074365,21.579139700000006,-1.6031086294999999,-0.7368606630000001,6.428714273,58.138355255,62.230514525,14.767433165
102,0.8499659999999949,-9.3270287515,16.07690382,21.604679150000003,-0.6473117175,-0.123983152,12.823098179999999,61.917755125,64.67393112,13.83465576
103,0.8582989999999882,-8.8396821025,16.60910034,21.641929649999994,-1.7615332005,-0.8632420894999999,8.3163316235,56.9050827,61.68276405,14.025908475
104,0.8666319999999814,-8.304768562500001,17.151431085,21.682525650000002,-0.14971035700000002,-0.1143755875,12.1277573105,62.467348095,62.924818040000005,14.07630014
105,0.8749649999999747,-7.8075048925,17.65417385,21.73259735,-1.3454202115,-1.0313566625,7.8961281795,57.55635643,58.229429245000006,13.848157885
106,0.8832979999999679,-7.2952284810000005,18.196246145,21.772922499999993,-0.13505858199999998,-0.8755892220000001,11.54486084,59.67100525,63.146934509999994,12.869562625
107,0.8916309999999612,-6.803146601,18.693089485,21.831191999999994,-1.378355086,-0.07581324849999999,10.590671538,56.42562103,57.651115415,13.606566905
108,0.8999640000000113,-6.316928863499999,19.208521845,21.882286049999998,-1.330989286,-0.8588194845,9.928191661,56.141187665000004,60.061922075,12.582122325
109,0.9082970000000046,-5.8210883145,19.70697117,21.95502855,0.3106727155,-1.075781971,10.979350091499999,56.27804184,57.91280365,14.27598047
110,0.9166299999999978,-5.3769254685,20.185587884999997,22.015403750000004,-1.6733462365,-1.0679674745,7.7672073265,50.518873215,55.76885414,12.072167875
111,0.9249629999999912,-4.928676128499999,20.685587885,22.075614949999995,0.010326147000000008,-1.186865449,13.507870669999999,50.95119667,58.454978940000004,11.90051651
112,0.9332959999999844,-4.522929907,21.111411095,22.144092599999993,-1.5007110835000002,-1.4853690865,9.000581504,45.450443265000004,49.564487459999995,11.5776124
113,0.9416289999999776,-4.1074473860000005,21.5786314,22.2136421,-0.03068222100000001,-0.780572325,10.736215116,46.410318375,54.6270752,11.6639123
114,0.9499619999999708,-3.7295918465,21.981796265,22.280899050000002,-0.12644791599999997,-1.4838191269999998,9.0382089615,42.13562012,47.034488675000006,10.5619907395
115,0.958294999999964,-3.3758026365,22.36854839,22.3524513,-0.767431533,-1.2444480059999998,9.0400474085,38.899690629999995,45.1393013,10.521125795
116,0.9666280000000144,-3.040961027,22.802916525,22.410457599999994,-1.5731521990000001,-0.16230717300000003,12.676863191999999,37.201477055,50.96033287,9.081481933500001
117,0.9749610000000076,-2.7194780109999996,23.14912605,22.482284549999996,0.14349847300000002,-1.469767392,9.6883869165,34.899461744999996,40.40766525,9.737700461
118,0.9832940000000008,-2.4106023315,23.52115822,22.540519699999997,-1.417767048,-1.071021885,10.96582508,33.99242401,43.593458175,8.1405198575
119,0.991626999999994,-2.1215862035,23.866292,22.618137349999998,-0.5347309414999999,-0.6682933864999999,8.732265711,30.533180235000003,40.365381240000005,9.8387517935
120,0.9999599999999872,-1.831559062,24.176169395,22.684169750000002,0.2999460695,-1.7204733490000002,10.6111264245,31.36587238,36.19525337,8.2969355585
121,1.0082929999999806,-1.5920150875,24.475825305,22.7528534,-1.403131541,-1.1775789855,9.921844007499999,25.038180349999998,35.038749695,8.2913355825
122,1.0166259999999738,-1.3564658165,24.746776580000002,22.810600299999997,-0.1733003035,-0.8546738625000001,14.03229046,25.07652855,31.6258297,6.8820431235
123,1.024958999999967,-1.1340331735,24.973819730000002,22.8676338,-0.5000238715,-1.1803325115,10.0200767495,23.50152206,26.425503730000003,6.5308811665
124,1.0332920000000172,-0.9196453984999999,25.191137315,22.918800349999998,-0.465393633,-0.5632797185,7.713654638,22.8220644,25.263513565,5.726221799499999
125,1.0416250000000105,-0.71687077,25.393963815,22.9525566,-0.974184453,-0.10663570449999998,12.12282801,22.202709194999997,23.623353960000003,3.7130305764999996
126,1.0499580000000035,-0.538632989,25.53709984,22.987503049999994,0.242952265,-1.5538349155,10.603741170500001,19.36868763,16.409935475,3.7363889219999997
127,1.058290999999997,-0.3577171415,25.66599369,23.011844650000008,-1.182521075,-0.6562849585,10.680811884499999,20.138965605000003,14.7779026,2.488161683
128,1.0666239999999902,-0.18829940850000002,25.793464665000002,23.042171500000002,-0.495262757,-0.44005040800000006,9.203440666,18.449769975,14.5775609,3.0668514965
129,1.0749569999999835,0.002122015000000005,25.866094590000003,23.061420450000007,-0.660177499,-0.7965275865,11.950757025,21.535607335,8.046134173,1.836086929
130,1.0832899999999768,0.199381523,25.983656885000002,23.111766849999995,-2.1016466620000003,0.118941359,7.765163183,20.729159355,13.414265632500001,5.1108179095
131,1.09162299999997,0.4225732605,26.07844448,23.157653800000006,-0.137273267,-0.3694175035,12.54268694,23.975681305000002,10.7623019205,4.589510441
132,1.0999559999999633,0.638606757,26.133257865,23.215091700000002,-0.9488105474999999,-0.9344919625,9.849567412,22.67549896,5.9135100845,5.889035702
133,1.1082890000000134,0.866032124,26.20504856,23.267585750000002,-2.058423042,-0.158294946,10.264302255499999,24.20748329,8.0309317115,5.2527205944999995
134,1.1166220000000069,1.1219284835,26.293835639999998,23.342517850000007,-0.657805711,-0.260775313,10.3234446035,26.43179703,10.094218967,7.6159505845
135,1.124955,1.3859604005000001,26.336681365,23.41619494999999,-1.3290250600000002,-0.42877955749999996,9.736911057,27.45961857,4.6575806145000005,7.5183081625
136,1.1332879999999932,1.660174787,26.411574365,23.4968948,-0.608956456,-0.18698770550000002,11.411800386,28.30432701,8.5188527115,8.171753644999999
137,1.1416209999999865,1.9457060099999999,26.38855839,23.572433499999995,0.38791173700000003,-0.9708996415,10.200093031,29.84692192,-3.1234860125,7.894454479
138,1.1499539999999795,2.231744528,26.406307220000002,23.6406517,-1.525169909,0.100559095,8.386898279499999,30.46893406,1.6697552805,7.001253843500001
139,1.158286999999973,2.5293538575000003,26.39048958,23.701522800000006,0.1168046295,-0.4069188535,12.78227377,32.16425228,-2.27134496,6.3480906489999995
140,1.1666199999999662,2.8544549945,26.340658185000002,23.756053900000005,-1.639494896,0.3477745805,11.440526485,35.807163239999994,-6.388742924000001,5.8707067965
141,1.1749530000000163,3.205788851,26.293460845,23.819122299999997,-1.2022242845,-0.0935440845,8.4994795325,38.49892044,-5.945091247500001,6.7774009705000005
142,1.1832860000000096,3.5964000225,26.218937875,23.892993950000005,0.3742731065,-0.3287659585,9.733624456,42.656469345000005,-9.139452696,8.213597298
143,1.1916190000000029,3.987673998,26.114118575,23.976699850000003,-0.9830340444999999,-0.5402754544999999,8.2474010005,42.14908028,-12.549742937,9.467345714
144,1.199951999999996,4.402332783,26.025554655,24.069332150000008,-0.8219439390000001,-0.429972157,13.365435125,44.655395510000005,-10.59495294,10.537575725
145,1.2082849999999894,4.805693865,25.853276255,24.175102199999998,-0.3763553800000001,-1.301068753,9.711294412,42.552000045,-20.328030585,12.75964832
146,1.2166179999999829,5.213764429,25.70814419,24.274272900000007,-1.172414094,-0.312718861,9.38120222,43.49323845000001,-17.098214149999997,11.913075445
147,1.224950999999976,5.6134757995,25.532034875,24.38822555,-0.7095099985,-0.9398323595,8.804405687,41.75842857,-20.505830765,13.993194105
148,1.2332839999999692,6.00176692,25.338685034999997,24.478023549999996,-1.6368923785,-0.5988549885000001,12.0138731005,41.668346405,-22.780548095,11.759628775
149,1.2416169999999624,6.359487056500001,25.163105010000002,24.575820899999997,-1.647281945,-1.3296828865,10.362818715500001,37.544692995,-20.3891201,12.495515825
150,1.2499500000000126,6.71314168,24.948801995,24.647434249999996,-0.165609866,-1.3524025085,11.467271329999999,38.57962036,-25.38953209,10.440766336
151,1.2582830000000058,7.0579788685,24.752840040000002,24.7312965,-1.796248555,0.07967799299999999,8.2007908825,36.85754395,-22.88119125,11.573843955000001
152,1.266615999999999,7.408899784,24.53878021,24.786560050000006,-0.28369104849999993,-0.46456334,12.457681655,39.04535675,-25.400299075,8.95992136
153,1.2749489999999923,7.750678539,24.275325775,24.84877015,-0.017422720500000002,-0.625218332,9.793638708,37.630104065,-31.071219445,10.62679958
154,1.2832819999999856,8.080803633,24.000664710000002,24.879665350000003,-0.9359893949999999,-0.6204201260000001,9.594026087,37.813770295,-32.845327375,7.6129705905
155,1.2916149999999789,8.4228749275,23.712551115,24.931709249999997,-0.46501180550000004,-0.0189882445,10.99099493,38.15036774,-33.965428349999996,10.3023514735
156,1.299947999999972,8.7692799565,23.391489030000002,24.9594879,-1.9900704025,-0.6070056555,10.388205529,40.023342135,-38.361944199999996,8.536492348
157,1.3082809999999654,9.145276070000001,23.1001873,25.02878185,-0.6519238354999999,0.13748830550000002,10.568416833,41.534475325,-33.966193195,12.713915825
158,1.3166140000000155,9.500725269499998,22.718266485,25.062480949999994,0.2665623429999999,-1.5488237740000002,9.4794464135,40.79953766,-45.281814575,10.8332180955
159,1.3249470000000088,9.859029293999999,22.377079965,25.117053999999996,-1.4938631955,-0.12886012700000002,10.024766446000001,40.190429685,-39.964933395,12.546504975000001
160,1.333280000000002,10.214840890000001,22.001174929999998,25.146072350000004,-1.036901176,-0.602158934,11.04766321,41.0944767,-44.51740074,10.782336234999999
161,1.3416129999999953,10.587468144999999,21.635063175,25.203949,-1.716185391,-0.524224639,10.9291353215,41.772483824999995,-42.605730055,13.932409289999999
162,1.3499459999999883,10.956392285,21.2658205,25.247486099999996,-0.6961290205,-0.22662954,10.434087278,42.142404555,-43.340940475,12.841592315
163,1.3582789999999818,11.32508421,20.84753418,25.277397150000006,-0.9904571845,-0.730300337,10.1858258265,42.66019249,-49.219551085000006,12.693881035
164,1.366611999999975,11.689894200000001,20.483175275,25.308395399999995,-1.8244211080000001,-0.5858246385,9.5507226005,42.184631345,-42.806257245,11.863093375
165,1.3749449999999683,12.08087635,20.070607185,25.334403950000002,-1.026668742,0.081461765,11.523697855,45.53648758,-48.460199355,12.78582573
166,1.3832779999999616,12.479362965,19.69881153,25.373039249999998,-1.701949984,0.238961071,9.5150790195,45.971055985,-43.32237053,13.46487045
167,1.3916110000000117,12.900946614999999,19.262395859999998,25.39453125,-0.379954472,-0.35194328399999997,12.841182705000001,49.368509295,-51.098903655,13.57956648
168,1.399944000000005,13.324034215000001,18.86538887,25.424228700000008,-1.88797313,-0.4895738365,7.789164543,49.39892578,-46.359958645000006,13.829298975
169,1.4082769999999982,13.779812334999999,18.430917735,25.449687950000005,-0.3865413815,0.4114981145,11.263258455,53.419115065,-50.61782265,14.76519918
170,1.4166099999999917,14.231357095,18.01218033,25.476360300000003,-1.146789387,0.14132855849999998,10.217934611,52.87589073,-48.63955307,14.945580005
171,1.4249429999999847,14.725759505,17.54455185,25.4932289,-0.20999071749999998,-0.3223426195,11.16371918,58.41434288000001,-54.459514615,15.633639814999999
172,1.433275999999978,15.208499905,17.102056505,25.501457200000004,-2.1284873485,0.21123626850000002,8.603342294,57.312496185,-51.666778565,14.49732542
173,1.4416089999999713,15.7040782,16.628902435,25.50351335,-0.8002642990000001,-0.35660254500000005,11.8838415145,59.109298705,-55.270849225000006,15.07949114
174,1.4499419999999643,16.20335865,16.197143555,25.5030327,-1.4256434439999999,0.1340300775,10.449235439999999,59.624744414999995,-50.448219300000005,14.027802465
175,1.4582750000000146,16.72814274,15.739934925,25.4911423,-1.6856323180000001,-0.3491360845,10.84569502,63.083621975,-53.609098435,13.954401489999999
176,1.466608000000008,17.262548445,15.33104086,25.492896999999992,-2.0910333995,-0.35530443899999997,9.8435306565,63.75966072,-47.480007175,14.38837767
177,1.4749410000000012,17.77310276,14.880731104999999,25.481441499999995,-0.43778127450000004,-0.760696083,10.7755498865,61.350212095,-52.53524971,14.71155882
178,1.4832739999999944,18.279137615,14.456226825,25.469741850000005,-1.6052370665,-0.29473114199999995,11.9583978655,60.775617600000004,-49.468498229999994,14.326391225
179,1.4916069999999877,18.788163185000002,14.029664995000001,25.473854049999993,-1.5354685785,-1.0221894384999999,9.039084911500002,60.696907045,-48.983348845,16.43239212
180,1.499939999999981,19.292513845000002,13.632487295,25.473701449999993,-1.8413294555,-0.1928290575,10.5633297,60.225019454999995,-45.67298889,15.370625494999999
181,1.5082729999999742,19.764826775000003,13.233231545,25.481338500000007,-1.7540372610000001,-0.697338194,11.1771280755,56.202970504999996,-45.459396365,16.55895996
182,1.5166059999999677,20.238788605000003,12.829751009999999,25.471286749999997,-0.789346993,-0.713768795,11.812733170000001,56.847328184999995,-46.50815773,15.305392744999999
183,1.5249390000000176,20.708037375,12.44436312,25.47866820000001,-1.609507501,-0.306029588,8.7893385895,55.851760865,-43.625873565,16.693303105
184,1.5332720000000108,21.17706108,12.07942867,25.4688606,-1.172315657,-0.233630754,9.241705655499999,56.263832095,-41.932569505000004,14.36874819
185,1.541605000000004,21.650501249999998,11.717431065,25.482490549999994,-1.8807695505000002,0.2564803135,12.2043170945,56.208648685,-40.462316515,17.05730629
186,1.5499379999999974,22.12050724,11.36007643,25.476814249999997,-1.1127136645,-0.4150606375,10.030021667,56.25624466,-40.63506508,15.223977564999998
187,1.5582709999999906,22.606538775,11.009432315000002,25.4829521,-1.5560849905,-0.07760091100000002,10.4034519195,57.911020275,-39.244033814999995,16.387090205
188,1.566603999999984,23.07338619,10.679022790000001,25.47683715,-1.378057897,-0.6599764825000001,8.925527332000001,55.90176964,-37.423931120000006,14.548202035
189,1.5749369999999772,23.54025364,10.3457303045,25.466194149999993,-1.5429216024999999,-0.527189672,12.39777231,55.995594025,-37.834690095,14.37336016
190,1.5832699999999704,24.005014420000002,10.048125267,25.461917850000006,-1.260775253,-0.030025869499999996,10.2668085115,55.60120583,-33.504834175,13.72732401
191,1.5916029999999637,24.46315575,9.727357865,25.437988299999994,-1.0542516259999999,-1.1376141605,10.0727190965,55.21803665,-36.866224285,12.923336505
192,1.5999360000000138,24.901793480000002,9.4495363235,25.4308014,-1.0666670875,-0.5493462385000001,11.184819225,52.521585465,-31.251514435,12.97086859
193,1.608269000000007,25.31556511,9.121229172,25.390640250000004,-1.2479907575,-0.810337752,11.8153743745,50.171915055,-38.29883957,12.114003180000001
194,1.6166020000000003,25.721839905,8.848738670500001,25.389129599999997,-1.068752885,-0.880169064,10.527421952,48.534791944999995,-30.19573975,13.728540894999998
195,1.6249349999999936,26.09790325,8.5197415355,25.3496437,-0.517279029,-1.344822705,9.71272588,45.596141815,-38.16158676,12.7421298
196,1.6332679999999868,26.438499450000002,8.2173132895,25.330963100000005,-1.3854525089999998,-0.7812699825,11.308420659500001,40.96365547,-34.1471138,13.849672795
197,1.64160099999998,26.736519809999997,7.903329849,25.2773819,-1.3240762055000002,-1.5420669315,12.319450855,36.403661729999996,-37.14951515,10.872583867
198,1.6499339999999734,27.021896365,7.575552225,25.23152545,-0.6218135355000001,-0.785328507,11.12735462,34.744995114999995,-38.147254939999996,12.742428305
199,1.6582669999999666,27.27238655,7.2825293545,25.16369625,-1.3987752795,-0.7840952125,9.2997632005,30.884254455,-35.57493401,8.562721729
200,1.6666000000000167,27.50111961,6.912963152,25.080452,0.7039804755000001,-1.2176341715,12.7963280675,28.428792,-44.535837175,11.421537875
201,1.67493300000001,27.6894989,6.6101288799999995,24.98897935,-2.8675134184999997,-0.637558505,9.9974374755,23.690826415,-37.85830498,6.8714532855
202,1.6832660000000033,27.87694168,6.2541496755,24.8967209,1.3491452635,-0.8922511934999999,13.60803127,23.458045005,-43.507011414999994,10.029020788
203,1.6915989999999963,28.01769352,5.9154067040000005,24.770744300000004,-3.1661185025,-0.7045559880000001,9.451699498,18.300335885000003,-43.555244445,5.473484516
204,1.6999319999999898,28.14990616,5.586345911,24.68068315,-0.3438744545000001,-0.715157926,12.4106698035,16.709243295,-40.52237701,8.876679183
205,1.708264999999983,28.26708603,5.2467534545,24.544231399999994,-1.2665502135,-0.61211963,11.56358385,15.382646085000001,-44.22285843,4.601234912500001
206,1.7165979999999763,28.340744020000002,4.930128813,24.4462204,-1.225424409,-1.0875215235,10.377129314,9.694394112000001,-39.629070285,7.471652031
207,1.7249309999999696,28.417530059999997,4.6107707025,24.306179049999997,-1.0338051915,-0.3582978995,15.2117548,10.3573150625,-42.28566837,3.1842917205
208,1.7332639999999628,28.459725380000002,4.278173804,24.18881605,-2.3580441475000002,-0.55579482,7.540145636,5.9674589634999995,-42.399349215,6.4423906805
209,1.741597000000013,28.515213969999998,4.022183299,24.079792049999995,-0.905645609,-0.985770434,13.63987255,7.377169609500001,-33.83486652,2.888092339
210,1.7499300000000062,28.528644565,3.7033885719999997,23.964851350000004,-1.5441443920000002,-0.708330929,10.3576920025,2.3529767545,-40.837303160000005,5.892724513999999
211,1.7582629999999997,28.528756145000003,3.4989222289999997,23.87221149999999,-2.80603683,-0.9921880064999999,11.049379824999999,0.518163204,-27.469870565,1.6773943305
212,1.7665959999999927,28.516306880000002,3.24871254,23.7882843,-2.0657500625000003,-0.44881005199999996,13.64619398,-1.1331741215000002,-31.81819534,5.2517100575
213,1.774928999999986,28.480337145,3.1022254225,23.7322693,-1.7892704605,-0.373875171,9.4561839115,-4.0895893574999995,-19.26727295,2.2051741629999997
214,1.7832619999999793,28.453905105,2.9166712759999998,23.662845600000004,-1.7835194465000002,-1.160808742,12.1778416655,-2.9707082509999996,-24.16702747,3.0652375815000004
215,1.7915949999999723,28.390847205,2.8263601065,23.638717649999997,-2.132391572,-0.001103297000000003,9.5516076085,-7.578582525,-11.528785706499999,2.331875801
216,1.7999279999999658,28.320533750000003,2.6997574569999996,23.590232850000007,-1.5635503530000001,-0.719000131,12.4251165405,-8.369844198500001,-16.76203203,1.8607400054999998
217,1.808261000000016,28.245931625,2.632988691,23.586528800000004,-1.180070698,-0.468972817,11.339374544,-9.0965571405,-7.890126587,3.12490499
218,1.8165940000000087,28.167565345,2.546545267,23.54623795,-1.7426578400000001,0.10825747249999998,10.4464325895,-9.3826828005,-12.0413250925,0.441461444
219,1.8249270000000024,28.08476067,2.4949947595,23.556964849999993,-1.01078552,0.07688550649999998,11.186398985,-10.176055432,-5.477841377500001,3.767015338
220,1.833259999999996,27.988726614999997,2.4403241275,23.52100374999999,-1.8177904485,-0.5777248445000001,11.784716127500001,-11.5142655375,-8.4572446345,-0.964990765
221,1.841592999999989,27.895053865,2.378885329,23.52931975,-0.504958585,0.5897395835,11.395334719000001,-11.46709204,-6.6771907805,4.05439508
222,1.8499259999999824,27.8007555,2.339214504,23.500911699999996,-1.8380384445,-0.2735290975,11.20413685,-11.345180512499999,-6.472237587,-1.090596691
223,1.8582589999999757,27.685772895,2.300532043,23.516262049999995,-1.4680932165,-0.8113832475,8.803242683499999,-14.047636505,-3.887415409,3.5116928815
224,1.8665919999999687,27.555733680000003,2.2806886435,23.49171830000001,-1.988688886,-0.2902632505,13.753390790000001,-15.65676117,-4.131135106,-1.7763413190000001
225,1.874924999999962,27.398758885,2.2735996245,23.522232049999992,-1.892284252,-0.109960645,9.4933619475,-19.159345625,0.29601091150000003,3.3652060035
226,1.883258000000012,27.237027165,2.288226962,23.517753599999992,-1.435323149,-0.7382816969999999,12.138020515000001,-19.542817115,0.6538932325,-1.5533695855
227,1.8915910000000051,27.047496795,2.3359248040000002,23.561366999999997,-2.681466669,-0.3987684695,8.6790349485,-23.13304043,6.8375508785,1.7685039045
228,1.8999239999999984,26.826015475,2.3777194615,23.57294845,-1.2965050935,-0.812728852,12.46224165,-26.780246735,4.451046228,-1.2771587370000002
229,1.908256999999992,26.596420289999998,2.4580754039999997,23.630592349999993,-1.8698232025000001,-0.18490415100000002,11.356030701,-28.037796020000002,11.073627234,1.5601840470000001
230,1.9165899999999847,26.340485575000002,2.5322273969999998,23.653217299999994,-0.4760811924999999,-0.572476175,9.1819519975,-30.959614754999997,8.56645262,-1.690175967
231,1.9249229999999784,26.092403415,2.6246629955,23.690792100000003,-1.904566735,-0.17725065349999997,10.130575178499999,-30.170267105,11.292494535000001,-1.136152178
232,1.933255999999972,25.800279619999998,2.692081571,23.712474800000003,0.4021412735,0.0894006045,11.069733621000001,-35.30323219,7.788899869,-1.3797634245000001
233,1.941588999999965,25.540735245,2.7650516035,23.737270349999996,-1.6505872309999998,0.662852526,10.9669504165,-31.48149681,8.526048183,-1.390873149
234,1.949922000000015,25.266302105,2.8307620285,23.750343299999997,0.27425092450000005,0.42963133750000004,7.9969153405,-33.131240845,7.1479681745,-2.1940661075
235,1.9582550000000083,25.01083565,2.8923419715,23.76057815,-2.062487483,1.1837498845,12.336544035,-30.901231765,6.5559437275,-2.2963948844999997
236,1.9665880000000016,24.752617835000002,2.9316800835,23.762138399999998,0.256329883,0.723491594,10.097301957500001,-31.129579545,3.6989102364999997,-2.0820230244999998
237,1.9749209999999948,24.53949356,2.99118948,23.768974299999996,-2.1384102105,1.013890594,10.1824269285,-25.787348745000003,6.1738479134999995,-2.4943734405
238,1.983253999999988,24.347254755,3.0226614475,23.7619591,0.1405364875,0.9858252705,8.616288425,-23.171627045,2.455868542,-2.5350995065
239,1.9915869999999811,24.16990757,3.0831010340000002,23.76919174999999,-1.8191744685,1.3063504099999999,11.32621527,-21.48543358,6.3075464960000005,-2.4448155165000003
240,1.9999199999999744,24.043990135,3.0837211609999997,23.752151499999997,-0.011203303999999997,1.532583952,12.05586576,-15.14527321,-1.424240708,-2.1537415385
241,2.008252999999968,23.95173645,3.154137254,23.75064470000001,-2.461907923,1.4319486019999998,6.0729727745,-11.228020189999999,6.9812180995,-3.8593674895
242,2.016586000000018,23.89423752,3.1427974699999996,23.726421349999995,0.83244,1.1529290975,14.322084425,-6.8822054865,-3.0520961284999997,-2.2967963815
243,2.0249190000000112,23.857039450000002,3.1408138274999997,23.7026787,-1.023265302,1.1583101450000002,9.715234519500001,-4.469241977,-2.036888659,-2.7621428965
244,2.0332520000000045,23.867099765,3.133285046,23.671291350000004,-0.7413863535,1.1144315455,11.541050434999999,1.2799433470000001,-2.9797489644999997,-3.267268658
245,2.0415849999999978,23.890310284999998,3.090604901,23.635597249999996,-1.5679731665,0.6026320905,9.540815354500001,2.8451842665,-7.084672928,-2.0925611855
246,2.049917999999991,23.914055825,3.0829055304999997,23.612461100000004,-0.5665294529999999,0.6532428865,10.305053232,2.867045939,-2.5803332924999998,-2.3080027105000003
247,2.0582509999999843,23.961042405,3.012876868,23.568191500000005,-0.7590553465000001,0.288627889,11.518040657,5.7449487445,-10.5077109355,-1.694196284
248,2.0665839999999776,23.991547580000002,3.0104266405,23.53622815,-1.3220149129999998,0.5737447735,8.3819212915,3.7393774984999997,-2.4435535219999998,-3.5404828784999998
249,2.074916999999971,24.036574360000003,2.957224369,23.485321049999996,-0.5137300845,-0.0206500965,14.23174286,5.5389198065,-8.991091726,-3.2274136545000003
250,2.083249999999964,24.060798645,2.914028168,23.440151200000003,-0.5779793854999999,0.10179400100000001,8.1106140615,3.0652493835,-7.55862689,-2.986664772
251,2.091583000000014,24.086841585000002,2.890316129,23.389858250000003,-1.9902855154999999,0.2887032625,11.79370165,3.2477889060000003,-5.734790206,-4.596404076000001
252,2.0999160000000074,24.081647875,2.8422884945,23.34706115000001,-0.3221105335000001,-0.7055214385,9.035366776,-0.47948569050000006,-7.9765615475,-2.4885319470000002
253,2.1082490000000007,24.059089659999998,2.8364362715,23.304695099999996,-1.7673435655,0.630137503,13.07716942,-2.6351733205,-3.392163396,-4.600719929
254,2.116581999999994,24.011511805,2.7905306815,23.258789050000004,-0.8777934315000001,-1.0714743435,10.081426621,-5.5520590545,-7.9003338815,-2.946886063
255,2.1249149999999872,23.947608950000003,2.810552597,23.224594100000004,-2.2847970725,-0.2438063325,9.551663878,-7.6577789785,-0.1528403759999999,-4.975162029
256,2.1332479999999805,23.816905974999997,2.7943887715000004,23.188217150000007,-0.559001923,-1.142505944,11.247986792,-15.57308769,-4.1563278425,-3.3318877220000003
257,2.1415809999999738,23.678299905,2.8256827595000003,23.152462,-1.9714054760000002,-0.08897775050000001,11.291726114500001,-16.610726835,1.026567698,-5.6891727445
258,2.149913999999967,23.492455485,2.856293678,23.12765120000001,-1.4616285265000002,-1.0018859805,9.837451218,-22.256781580000002,1.528485775,-4.386772751500001
259,2.158247000000017,23.298992155,2.9282666445,23.098056799999995,-2.0682370065,0.1934312955,10.847871779,-23.22857666,5.832045647,-6.9378757475
260,2.1665800000000104,23.049526215,2.9959038495,23.08243565,0.319082409,-0.571060196,10.261610985,-29.938802719999998,6.066058518,-5.1193680765
261,2.174913000000004,22.802357675,3.0835942029999996,23.047637950000002,-2.9269013405,0.02123755249999998,11.548370835,-29.611419675,7.379281998,-8.1856307985
262,2.183245999999997,22.526473995,3.1929998395,23.041473400000008,-0.921767533,-0.16580481800000002,7.701996088,-33.187313079999996,11.16920185,-5.953830719
263,2.19157899999999,22.22067928,3.3162859675,23.030178050000004,-1.574918151,-0.7048635335,12.57842827,-36.786243435,12.4767365445,-7.1216769215
264,2.1999119999999834,21.884487149999998,3.4263750315,23.030216249999995,-0.80306118,-0.6732492745,9.9213953005,-40.462171555,11.58183384,-5.167136073
265,2.2082449999999767,21.51678276,3.5919188264999997,23.02014160000001,-2.0516237615,-0.339410264,10.184750555,-44.22607994,17.3176589,-8.7122707365
266,2.21657799999997,21.117993355,3.7236789464999998,23.026603699999995,-0.65586859,-1.2892795504999999,9.643761156,-48.02438164,14.35933971,-5.196992636
267,2.2249109999999632,20.690431595,3.90447104,23.022266349999995,-1.4549887475,-0.1033640475,9.1727244855,-51.44961357,19.386252405,-8.4751329425
268,2.2332440000000133,20.22638798,4.0858496424999995,23.027755750000004,-1.4486785530000001,-0.6213250459999999,9.84489417,-55.855054855,19.98087311,-7.1221249105
269,2.2415770000000066,19.745078085,4.2909719944999996,23.021972650000002,-1.409918815,0.14312683050000002,10.9276661895,-57.88276291,22.198845865000003,-9.3099484445
270,2.24991,19.21264935,4.470299244,23.021316499999998,-0.6948675515,-0.8921763595000001,10.657763482,-64.01823616,19.613423349999998,-7.387994766
271,2.258242999999993,18.66475868,4.659228801499999,23.010849000000007,-1.2417649625,-0.25822637800000003,10.2247333545,-65.81662178,20.33885193,-8.7805457115
272,2.2665759999999864,18.078956605000002,4.8449604515,22.991024050000007,-0.4998658895,-0.052772551999999986,8.211000681,-70.24501800499999,19.759029384999998,-9.407512667
273,2.27490899999998,17.44581795,5.028131484999999,22.968734750000003,-1.164452672,-1.0033149125,11.474927900499999,-75.908390045,19.42009735,-9.465786458
274,2.283241999999973,16.792584419999997,5.190117836000001,22.934661850000005,-0.6018212515,-0.008456297500000001,12.675120830000001,-78.17810821500001,16.731873035,-9.7406811725
275,2.291574999999966,16.0954175,5.377503157,22.894416800000002,-2.2318674325,-0.27339619400000004,7.642831564,-83.38068390000001,19.50304556,-11.203042035
276,2.2999080000000163,15.37282467,5.537008524,22.857673650000002,-0.5725402795,-0.372301012,11.91988826,-86.447753905,16.59010887,-9.5136017775
277,2.308241000000009,14.59816122,5.7142632005,22.8109665,-0.9510798005,-0.10194514700000001,9.6931481355,-92.57777405,18.39981031,-11.113220691999999
278,2.316574000000003,13.827796935,5.874004841,22.761650100000004,-1.5705370305000002,0.230273157,11.76087618,-92.00297165,16.489823815,-10.491191386
279,2.324906999999996,13.036146165,6.0386075975,22.711036650000004,-1.5133157375000001,0.2322901565,7.5535237785,-94.55024338,17.10566616,-10.70409107
280,2.3332399999999893,12.215790745,6.1840405465,22.65642549999999,-0.2331018115,-0.16094479750000001,13.243048665,-97.901981355,14.954301834999999,-10.2363643665
281,2.3415729999999826,11.407847405,6.3201155665,22.5972328,-1.585242966,0.754447818,9.886821268,-96.35357665000001,13.831508634999999,-10.483662604500001
282,2.349905999999976,10.612436774999999,6.4825377465,22.529529599999996,-1.529573262,1.5961924195,7.9789750575000005,-94.71065903,16.93553114,-11.708824159999999
283,2.358238999999969,9.820516586,6.6264605525,22.472423549999995,-1.1443933844999998,0.5501356725000001,11.6632056255,-94.42736816499999,15.0843739495,-9.978670599
284,2.3665719999999624,9.061266422,6.784118414,22.397434200000006,-1.7805375455,2.0647534729999997,12.639642715,-90.229515075,16.535550595,-11.96986532
285,2.3749050000000125,8.336631775,6.921841859500001,22.340820299999997,-0.6517738405,1.1151442230000002,6.7999565605,-86.33068466,14.609110835,-9.404581547
286,2.3832380000000057,7.6330251695,7.0760121345,22.267330150000006,-1.361130528,1.793040395,11.1200017915,-83.52255249000001,16.433457855,-11.305722240000001
287,2.391570999999999,6.9765386585,7.2132644655,22.209114050000004,-1.4630414024999998,1.514860064,13.05431652,-78.09373474,14.746672154999999,-9.19862318
288,2.3999039999999923,6.36858964,7.393599272,22.136814150000006,-1.585231781,1.4189331534999998,7.4403245445,-72.02719879,19.82187939,-11.108884810500001
289,2.408236999999985,5.7986764905,7.554254532,22.089828499999996,-1.0645768640000002,1.4458868205,7.695274353,-67.84208107,17.868155005000002,-7.8382923605000006
290,2.416569999999979,5.2606952190000005,7.7769577505,22.010791750000003,-2.8020836115,2.161912799,7.545699358,-63.465547560000005,25.012989045,-11.98167944
291,2.424902999999972,4.767704248,7.974566698,21.966915150000005,-0.44532302050000006,1.3781153560000001,14.35976076,-58.63033676,22.458019255,-7.504990100500001
292,2.4332359999999653,4.284712076,8.205741882,21.881778749999995,-3.119308114,0.5241333395000001,11.373186109999999,-56.699403765,26.169478415,-12.33217192
293,2.4415690000000154,3.8411456345,8.4273786545,21.829605100000002,0.2347583435,1.301492095,9.1395812035,-52.520824435,25.383017539999997,-8.299139738500001
294,2.4499020000000087,3.3883967395,8.6549510955,21.746269200000008,-1.6001731455,0.2618024945,5.112335681499999,-53.01827812,25.937726975,-11.670158387499999
295,2.458235000000002,2.9696998595,8.913798809,21.673786149999998,-1.8700639605,1.1488802135,8.9632401475,-49.11541939,29.829701425,-10.5381941815
296,2.466567999999995,2.52043283,9.1618237495,21.595512400000004,-0.705700129,-0.4502826035,13.16478634,-52.619482039999994,28.588756565,-10.768630505
297,2.4749009999999885,2.058516085,9.389883995,21.51475145,-0.9974089264999999,-0.3440871685,11.241136551,-54.064069745,26.25347519,-10.884510995
298,2.4832339999999817,1.5627687575,9.6388788225,21.42326355,-1.2402138109999998,-0.5907803085,5.0648190975,-57.854402545,28.82250595,-11.894841190000001
299,2.491566999999975,1.0229077935,9.877706049499999,21.33330914999999,-1.1012059299999999,-0.5001948475,10.879725934500001,-63.15467262,27.702306749999998,-11.50743103
300,2.4998999999999683,0.44110779450000004,10.094564439500001,21.23878095,-0.7204143999999999,-1.187755764,12.85208225,-68.0430069,25.17619324,-11.581128119999999
301,2.508232999999961,-0.19470687250000002,10.303131579999999,21.1355667,-0.9184957445,-1.206745297,5.219614029000001,-74.30625534,24.2917738,-12.4679718
302,2.516566000000012,-0.8798195424999999,10.48803711,21.03930665,0.10134923450000005,-0.905021563,12.88943243,-80.31631469999999,21.590649605,-11.30025864
303,2.524899000000005,-1.631473303,10.599692345000001,20.934871700000002,0.2526238785,-1.411049426,9.9342479695,-88.10808182,12.953611136,-12.265899180000002
304,2.533231999999998,-2.4423677919999998,10.708153724999999,20.82281495,-0.29131773099999997,-1.711143434,6.277749777,-95.021076205,12.768393756999998,-12.815957545
305,2.5415649999999914,-3.3088127375000003,10.76230097,20.7026672,-0.10143610799999997,-1.0384261605,12.6250739085,-101.49422455,6.4904264220000005,-14.077632430000001
306,2.5498979999999847,-4.270197868,10.736914635000002,20.584453600000003,0.6027083995,-1.3667494059999998,9.560818193,-112.9218712,-2.828140019,-14.20205927
307,2.558230999999978,-5.252101659999999,10.710814475,20.46030045,-0.9139728060000001,-0.770119473,9.7042040825,-115.2653694,-2.6148454544999997,-15.088608265000001
308,2.566563999999971,-6.3031089305000005,10.623820305,20.339695000000006,0.425372854,-1.0571146009999999,9.750189779,-123.6430588,-9.6747653485,-15.310420035
309,2.5748969999999645,-7.4139301775,10.476948735,20.218654649999998,-1.118482776,-0.969269991,10.579633356999999,-130.8560257,-16.499142648499998,-16.48788452
310,2.5832300000000146,-8.535327911,10.35299349,20.110935200000007,-0.42128336450000003,0.242808517,10.934956072999999,-132.4330673,-13.689789772,-14.780192375
311,2.591563000000008,-9.6907601355,10.154499529,20.004062649999995,-1.1129397449999998,-0.81888102,10.649789809,-136.58329774999999,-22.230366705,-16.455947875
312,2.599896000000001,-10.851569655,9.968955995,19.918754550000003,-0.663631469,0.645430148,9.4748210915,-137.7180634,-20.840909,-13.980363845
313,2.6082289999999944,-12.020252225,9.757323742,19.832386049999997,-0.9579482455,1.2433261875,12.599981785,-138.6850815,-23.57439995,-15.25852728
314,2.616561999999988,-13.156488895,9.54867506,19.770889250000003,-1.39908123,0.2911376095,11.56883097,-135.3188782,-23.582935335000002,-12.671165944999998
315,2.624894999999981,-14.27790308,9.344396114,19.704494500000003,-1.8881552815,1.0798667075,8.1361160275,-133.4738388,-22.66216755,-13.691596035
316,2.633227999999974,-15.418956755,9.13051033,19.649681099999995,-0.6173308045,0.8680946305,13.984566215,-136.09552000000002,-23.889497759999998,-12.898447515
317,2.6415609999999674,-16.52118397,8.9262886045,19.60339735,-2.449730098,0.6903060670000001,12.543034555,-131.6070175,-22.767360689999997,-12.25762558
318,2.649894000000017,-17.5865736,8.749256134,19.5472679,-1.0665440259999999,1.9074775575,7.92571163,-127.03173825,-19.103219029999998,-12.67627907
319,2.6582270000000108,-18.62330246,8.5830359455,19.51490785,-1.4110441205000002,1.655090511,12.3597827,-124.0403748,-18.47712326,-10.0703001045
320,2.666560000000004,-19.6181469,8.4018149375,19.473506899999997,-0.820083715,1.2617880700000002,13.46573353,-118.86486435,-19.685503005,-11.87122488
321,2.6748929999999973,-20.54275608,8.2607035635,19.43420410000001,-2.2756379845000003,2.4661525490000002,7.1973662375,-110.48734665,-15.011308195,-10.4352130895
322,2.6832259999999906,-21.421200755,8.075372219,19.416553499999992,0.437253073,2.4694731235000003,10.592204575,-105.32042695,-20.744277955,-10.0935525905
323,2.691558999999984,-22.240008355,7.9154179095,19.38983915,-2.6181623935,1.949888647,14.357162474999999,-98.030143735,-17.351025579999998,-10.307009218000001
324,2.699891999999977,-22.964878085,7.739328146,19.380329149999994,0.09383936199999998,3.363972545,11.16601467,-87.03672409,-19.792477605000002,-9.362901213499999
325,2.7082249999999704,-23.617480280000002,7.5607647895,19.38687135,-1.9481895565,2.497031212,8.0284018515,-78.63513565,-20.70501518,-7.9913294315
326,2.716557999999964,-24.196191785,7.4097671505000005,19.375896450000006,-1.423618317,2.4495930675,10.428732872,-69.479206085,-16.739360805,-8.773581027999999
327,2.7248910000000137,-24.69399548,7.245359421,19.3985939,-0.9835196735,3.3671674725,14.04205847,-60.30382919,-19.79312515,-5.933071851499999
328,2.733224000000007,-25.112257005,7.0904464725,19.406776449999995,-2.15630728,2.109781861,12.98962116,-50.5241642,-17.988675115,-7.153633118
329,2.741557,-25.46154022,6.9560472964999995,19.422863,-1.1966222525,2.3776762485000003,8.779904842,-42.371994015,-16.113894939999998,-5.3847999575
330,2.749889999999993,-25.74948883,6.817889929,19.445362100000004,-1.305222124,2.2800522445,10.642144678000001,-35.082078935,-16.812135695000002,-5.002435088
331,2.7582229999999868,-25.980998035,6.697468281,19.449359899999997,-2.4246058465,1.638457775,11.4893283825,-28.060683249999997,-13.92478895,-6.106957674
332,2.76655599999998,-26.172844885,6.593265057,19.466049199999993,-0.6588712335,1.418589413,11.813909055,-23.465324404999997,-12.8096556675,-3.94772625
333,2.7748889999999733,-26.32265091,6.4824147225,19.463924400000003,-2.726931453,1.573085189,12.889295579999999,-18.16890192,-12.533907888000002,-6.346108198
334,2.7832219999999666,-26.435037615,6.3866999145,19.471618650000003,-0.662868768,0.9179893434999999,8.1284115315,-13.801657680000002,-11.3938422215,-4.538062333999999
335,2.7915550000000167,-26.533943174999997,6.3092336655,19.467433899999996,-1.8143685239999998,0.9854010934999999,10.854656696,-12.034965034999999,-8.814102411,-4.825453758
336,2.79988800000001,-26.60783672,6.227261781999999,19.468048099999997,-1.1787063215,0.7031619625,14.086524964999999,-9.089519264,-9.529763222,-4.590916395000001
337,2.808221000000003,-26.668063160000003,6.1721565725000005,19.4556732,-1.6004610659999998,1.187322676,9.7303128245,-7.290287376999999,-5.965377749,-4.510500789
338,2.8165539999999964,-26.695940975,6.1149013045,19.4559784,-1.426801324,1.013176769,11.107896329999999,-3.5703561754999997,-6.877415868,-3.2700417045
339,2.8248869999999897,-26.720926285,6.0706498625,19.429538750000006,-1.9721925854999998,0.355648674,9.5696735385,-2.88693583,-4.0420803725,-5.4347457885
340,2.833219999999983,-26.721860884999998,6.0470724105,19.426872249999995,-0.7389947175,1.285053283,13.164980885,-0.303054869,-3.1046181324999997,-1.773369491
341,2.841552999999976,-26.726849555,5.9951441285,19.413326250000004,-2.0337564945,-0.3983552045,11.098978757000001,-0.6540598870000001,-5.55657959,-4.4800515175
342,2.849885999999969,-26.722741125,6.008035421,19.384643549999993,-2.1357014775,0.72438357,8.2897422295,0.6337217685,2.2227007595,-2.6240694525
343,2.8582189999999628,-26.71159935,5.986338138500001,19.3730087,-0.6223010794999999,0.6333865375,12.91594982,1.2570123075,-2.4194952245,-2.6422685385
344,2.866552000000013,-26.707528115,6.0281605725,19.339229600000003,-3.051097393,-0.1474035085,11.287205695,0.6837720875,5.564661026,-1.5436226130000001
345,2.874885000000006,-26.69975853,6.054149627999999,19.307472249999996,-0.771411076,-0.48221204399999995,10.004704477499999,1.1055486200000002,3.770729631,-2.2172259094999998
346,2.8832179999999994,-26.72841072,6.120011091,19.27527235000001,-2.093779385,0.617373079,9.2030568105,-3.2502351995,8.08950734,-0.1474483015
347,2.8915509999999927,-26.744231225,6.1787130835,19.219894399999994,-1.4820632040000001,-0.06593242300000002,13.816642285,-1.4150456784999998,8.5445888025,-2.9633877275
348,2.899883999999986,-26.77342606,6.276380539,19.166286500000005,-2.202554941,-0.03005525449999996,8.062557459,-3.0308114735,12.639360425,-0.684508577
349,2.908216999999979,-26.806596755,6.3682711125,19.112766249999993,-0.6606927665,0.302979544,11.501252175,-3.5037842985000003,12.001691818000001,-0.9641840530000001
350,2.9165499999999724,-26.871284485,6.468998432,19.04526899999999,-1.989752352,-0.5625539905,11.6216769205,-7.0785081385,13.730551240499999,-2.007413745
351,2.9248829999999657,-26.911112785,6.570997953499999,18.976810450000002,-0.894274354,0.643286787,11.782620905,-4.0772305730000005,13.8889706115,-1.9798847435
352,2.933216000000016,-26.97417736,6.659628868,18.9136467,-0.9452133625,0.3417105115,10.158603192000001,-6.920627594,12.1929097195,-2.153177738
353,2.941549000000009,-27.01105118,6.7470014095,18.859321550000004,-1.1805560885,0.2636563275,11.943395615,-3.895413935,11.561116458999999,-1.2463505865000002
354,2.9498820000000023,-27.04937744,6.817867517,18.80535125,-0.7758958039999999,-0.09699073400000001,9.3681550025,-4.066669941,9.7838191995,-2.1013151409999997
355,2.958214999999996,-27.09298897,6.8943092825,18.764030449999993,-0.9129916579999999,0.376154579,11.213935854999999,-4.8714687825,9.690761564,-0.44165344949999996
356,2.966547999999989,-27.11946678,6.9193520545,18.7390671,-0.6068536339999999,-0.00662335800000001,12.546721455,-3.0480303015,3.3298256394999997,-1.54691425
357,2.974880999999982,-27.150100709999997,6.9754526615,18.712554949999998,-1.3504832515,0.4636915775,7.601628542,-3.5225847960000003,6.7134406564999995,0.02724707100000001
358,2.9832139999999754,-27.163023950000003,6.983809947999999,18.701751700000003,-0.15529859099999999,0.13682032,13.2610812165,-1.6228476915,0.782047629,-0.9597909155000001
359,2.9915469999999686,-27.194055555,6.9639430045,18.722541800000002,-0.01476955450000006,0.06635315700000002,10.745231151999999,-4.2584694625,-3.9705268140000003,0.8822567165
360,2.999879999999962,-27.195017815,6.9200968745,18.73303220000001,-1.0225989389999999,0.462535709,12.118513109999999,-0.49911272549999997,-5.9588832855,-1.546741247
361,3.008213000000012,-27.194657325,6.83524704,18.7875595,-0.44189555199999997,0.03980439899999999,8.82510543,-0.974103041,-12.743211265,0.887904724
362,3.0165460000000053,-27.203094479999997,6.7638754845,18.827751149999997,-1.0491585135000001,0.46031854299999997,12.35243082,-1.819968477,-10.523776056500001,0.1135927345
363,3.0248789999999985,-27.197810175,6.631839514,18.9188385,-0.45756749799999996,-0.40068696800000003,11.44892168,-0.874284029,-19.773647785,2.176673055
364,3.033211999999992,-27.200449945,6.5431816575,18.9667702,-1.6153597835,0.48884016249999995,10.0087780945,-1.212309271,-12.784593107,-0.024557650000000042
365,3.041544999999985,-27.182273865,6.39811039,19.0554085,-1.754478991,-0.021514847999999996,12.818236826,0.7496846315,-21.032741545,1.211572677
366,3.0498779999999783,-27.175756455,6.3083560465,19.108287849999996,-0.8285856545,0.624261409,10.2307119355,-0.158955693,-13.176066395,0.451508567
367,3.058210999999972,-27.157295225,6.175132275,19.177783950000006,-2.418662786,-0.6247352735,11.8118000035,1.075497359,-18.726483345,-0.15704733150000005
368,3.066543999999965,-27.144857405,6.0922589305,19.207675950000002,-1.3451565505,0.241082289,10.1974973685,0.8719919920000001,-11.1868901265,-1.6124546675
369,3.074877000000015,-27.150865555,5.989500284,19.25562285000001,-2.5484886765,-0.3073389825,11.526793002000002,-1.563006401,-14.301186085000001,-0.7696115375
370,3.083210000000008,-27.148166655,5.930947542,19.279789,-1.3479113055,0.2050771825,12.52999735,-0.21868765349999997,-8.289573910000001,-0.8705700635
371,3.091543000000001,-27.166392325,5.8901927475,19.301284749999994,-3.628198266,-0.6370744555000001,7.8453276160000005,-2.6892768145000003,-6.240946293,-0.18294325500000003
372,3.0998759999999947,-27.190652845000002,5.8783545495,19.31095884999999,-0.5025548934999999,-0.069552168,14.138759134999999,-3.2713540795,-2.5086260435,0.1431963985
373,3.108208999999988,-27.2263937,5.882666588,19.32428740000001,-3.7107403875,-0.033949166500000016,8.804892538999999,-4.690350652,-0.9860136509999999,1.4144307975000001
374,3.1165419999999813,-27.259534835,5.9115278725,19.313545250000004,0.347724974,-0.36980299650000004,12.033578875,-4.091387510500001,2.925555676,0.25506022550000007
375,3.1248749999999745,-27.285435675000002,5.9331407545,19.305263500000002,-3.6726254225,0.39721144750000004,9.5373940445,-3.241737962,2.0392837975,0.07390350099999998
376,3.133207999999968,-27.314831735,5.9557287695,19.300140400000004,1.455091551,0.133056715,10.88804722,-3.709780097,1.9612885114999998,0.4844227955
377,3.141541000000018,-27.319910049999997,5.9709813595,19.281982399999997,-3.4960070849999996,0.3383098025,10.79789162,-0.6204986574999999,1.9008578655,-1.3211821915000002
378,3.149874000000011,-27.317888259999997,5.9838726520000005,19.268642449999994,1.3397468774999999,0.0462516395,8.3517513275,0.16379660349999992,1.3775463700000001,-0.9221637475
379,3.1582070000000044,-27.315669059999998,5.9745841025,19.2548065,-3.136064887,0.2885281665,12.11808252,0.20084121049999998,-0.9516776499999999,-2.2121285795
380,3.1665399999999977,-27.30525398,5.9666132925,19.252521500000007,0.655977171,0.1601042,10.087486267500001,1.0319011215,-1.4544786515,-0.8956080675
381,3.174872999999991,-27.273711204999998,5.95784235,19.237937950000003,-3.423680663,0.42263740149999995,9.584751127499999,3.7280752655000002,-0.8572510480000001,-2.2639014125
382,3.183205999999984,-27.252970695000002,5.940528392499999,19.2357941,0.28210467300000003,0.20776609299999999,10.8562982075,2.2696005555,-2.455310538,-1.400150895
383,3.191538999999977,-27.218176845000002,5.9201219085000005,19.23366925,-3.211686611,-0.3649793115,12.70485449,3.96323967,-2.7812128069999997,-1.582998276
384,3.1998719999999707,-27.172691344999997,5.9008967875,19.241291000000004,-0.152502008,0.19077780849999998,9.2927803995,5.11486274,-3.201171249,-0.45153419650000004
385,3.208204999999964,-27.120150565,5.894461870000001,19.227729800000006,-2.894694328,-0.6046604065,9.6194968225,6.234005928,-0.6694346664999999,-2.028225005
386,3.216538000000014,-27.07387829,5.86802578,19.247074149999996,-0.2268303785,0.08835728849999999,11.2284879685,5.068583131,-4.5974225104999995,0.3812743355
387,3.224871000000008,-27.017770765,5.8590664865,19.232311249999995,-2.6196266415,-0.2167471535,11.447064402,6.673590422,-0.877466798,-2.294516802
388,3.2332040000000006,-26.94351196,5.8390395645,19.257122050000007,-0.6269392335,-0.5050445944999999,9.2531504655,8.357778551500001,-4.226470709,1.3567029835
389,3.241536999999994,-26.89313221,5.8393404485,19.228344,-2.063482046,-0.277978411,9.8418555255,6.1591224669999995,0.8669395074999999,-3.2816832065000003
390,3.249869999999987,-26.842232705,5.7998433115,19.26255415,-0.49548882250000004,-0.8095619974999999,12.7918458,5.443499088,-6.8040504455,1.286884874
391,3.2582029999999804,-26.800324439999997,5.7959952355,19.240104700000003,-2.4580061435,-0.2397620305,9.295432329,5.059900283499999,0.07710516450000005,-2.8361492155
392,3.2665359999999737,-26.74254131,5.7450888155,19.282440200000003,0.34688117399999996,-0.41234108849999995,11.00013876,6.1725134845,-8.4737862355,1.571324766
393,3.274868999999967,-26.721629145,5.741028547,19.262809749999995,-3.1226363184999997,-1.0044236185,8.691526649,2.5049955845,-0.1015672685000002,-2.548206866
394,3.283202000000017,-26.67211819,5.6854546070000005,19.2967873,-0.011316776000000028,0.4574555455,14.34695482,5.2790311575,-8.541203736,0.46948966350000004
395,3.2915350000000103,-26.648973464999997,5.6929838655000005,19.278297450000004,-3.454099059,-0.5476123355,8.408120632,2.754709139,1.0778923034999996,-1.8004376885000002
396,3.299868000000004,-26.580465320000002,5.665263653,19.302955649999994,0.7930990755,-0.73340898,11.81507492,7.678188562499999,-5.0355613224999995,0.9495711325
397,3.308200999999997,-26.546254155,5.6573688985,19.295116450000002,-3.5673390630000004,0.163350463,7.918766262,3.957348108,-1.1500346660000003,-1.494385779
398,3.31653399999999,-26.493476864999998,5.64739275,19.304058099999992,0.36563152099999996,-1.0534181595,12.545722484999999,5.978158712,-2.282567978,0.2089993805
399,3.324866999999984,-26.441205025000002,5.632917881,19.318874349999994,-2.6711022255000003,-0.477762863,10.3856010425,5.8584108355,-3.063583985,0.57673011
400,3.3331999999999766,-26.389403344999998,5.623229503499999,19.327327699999998,0.30406028000000007,0.1036331655,8.893860338,5.864700079,-2.2356236275,0.1982541975
401,3.34153299999997,-26.335754395000002,5.560069561000001,19.355670949999997,-2.3710592090000002,-1.509777248,11.5225338925,5.8664866685,-9.014899252500001,-0.5704674365
402,3.349865999999963,-26.293643950000003,5.5503573415,19.355899799999996,-1.4953433569999999,0.03717786050000002,9.8029017435,4.803367734,-1.7796003819999997,-0.720964029
403,3.3581990000000133,-26.22916412,5.499006748499999,19.369945550000004,-1.7201056774999999,-0.183180008,12.68371296,7.3362953665,-6.9894478345,-1.4631811975
404,3.3665320000000065,-26.180609705000002,5.4881339075,19.369422899999996,-1.711824119,-1.134871483,10.563032628,5.5815473795,-1.880603314,-0.830234274
405,3.374865,-26.089372635,5.4694824220000005,19.37858965000001,-1.545100391,0.06338653,11.887851239500002,10.602379797000001,-3.214408876,-0.24238738449999997
406,3.383197999999993,-25.997197149999998,5.456429481500001,19.40778354999999,-1.670744002,0.047766027999999995,8.470681429999999,10.482006313,-3.6635403615,2.2193266155
407,3.3915309999999863,-25.866851805,5.491750717,19.411296850000006,-1.8156494495,0.168584086,10.0394697205,15.360622405,2.906434953,1.996341795
408,3.39986399999998,-25.68667984,5.4928631785,19.45352555000001,-1.5493498445,1.2389461394999999,12.63998032,20.884810445,-2.8165481685,4.4070135355
409,3.408196999999973,-25.442055705,5.5649721625,19.465301499999995,-2.4881814715,1.695313156,8.5055444245,28.97907352,6.477294445,4.7661727665
410,3.416529999999966,-25.093437195,5.6091723445,19.504165649999997,-1.3917177920000001,2.0387179255,12.234790805,41.13297844,2.0761451425,6.2637786865
411,3.424863000000016,-24.681460379999997,5.7051479815,19.523460400000005,-2.2403315905,2.1865656375,8.4399728775,48.970645899999994,8.7580654605,6.6963450904999995
412,3.433196000000009,-24.153705600000002,5.810857296,19.55796435,-2.0828030109999998,2.0599855185,12.75328064,62.666290284999995,9.0936868215,8.8308467865
413,3.4415290000000027,-23.529431345,5.9441447255,19.600398999999996,-2.1749618649999998,1.8473016025,8.707283497,74.153823855,11.864384172,10.855074883
414,3.449861999999996,-22.794758795,6.141845226,19.631279,-2.9395329355,2.7351129055000003,10.930181502,87.52516937,19.61636591,12.550476074999999
415,3.458194999999989,-21.98900795,6.3390352725,19.6747551,-1.3808369040000001,0.7393826845,11.101790427500001,95.88813017999999,19.18281126,13.55568218
416,3.4665279999999825,-21.076213835,6.592917442,19.702365849999993,-3.009167418,2.997830391,11.800966026000001,108.9216652,26.41220665,14.02278709
417,3.474860999999976,-20.087785725,6.844480991,19.730728149999997,-1.829375178,1.4592939915,9.4914503085,117.9787674,26.352358815,13.52715683
418,3.483193999999969,-18.999541285,7.146700144,19.745391849999997,-2.057414174,1.4311297535,10.6414003355,130.13438415,32.859743115,13.569345474999999
419,3.4915269999999623,-17.83979988,7.3962237835,19.7878075,0.24059075149999998,1.4720870855000001,11.331221105000001,138.2930832,26.09762478,14.029459475
420,3.4998600000000124,-16.612509725000002,7.6788723465,19.802207950000003,-2.96758312,1.5310653935,9.9343304655,146.8171463,31.181523325,11.39522028
421,3.5081930000000057,-15.31991911,7.941981077,19.84882735,-0.9235779639999999,0.10216248000000003,9.632638693,154.11977385,28.106651305,13.795436384999999
422,3.516525999999999,-13.985220435,8.223233700000002,19.881965600000008,-0.9461883755,1.0820804535000002,11.58208084,159.3789368,30.95287991,12.065617565
423,3.524858999999992,-12.61807537,8.4471998215,19.941345249999998,-0.45491093350000006,0.34501463199999993,9.862949369999999,162.79664609999998,23.81679249,12.817498685
424,3.533191999999985,-11.187887665000002,8.673836231,19.9956017,-1.5934342445,0.8360508085,12.44045925,170.42395019999998,24.567015644999998,11.69147682
425,3.5415249999999787,-9.747950075,8.8887228965,20.079170199999993,-1.542044222,-0.5396416785,10.5896492,171.03141019999998,22.831713675,14.182361125
426,3.549857999999972,-8.244042158000001,9.093195914999999,20.174034150000004,-0.859967798,1.0532594175,11.1029148115,178.46074675,21.76239872,14.746695039999999
427,3.558190999999965,-6.7271592615,9.277519703,20.28777695,-0.8091210424999999,-0.338190444,8.5022571085,179.62091825,19.456495285000003,16.002740385000003
428,3.566524000000016,-5.1724750995,9.424821854000001,20.416141499999995,-1.3531146045,0.379258845,11.0767307305,183.824501,15.2825737,16.74562645
429,3.5748570000000086,-3.6013019085,9.593481063999999,20.56256485,-1.1570900975,0.3083674315,12.680069447000001,185.41231535,18.130492685,18.614055630000003
430,3.583190000000002,-2.0310625435,9.715497017,20.699680300000004,-0.9374853670000001,-1.918134987,7.3251116275,185.4277649,13.11079407,16.777315615
431,3.591522999999995,-0.45126831149999996,9.8003129965,20.841911300000007,0.2007400695,0.016816854500000034,13.0873608565,186.45637514999999,9.084393559,16.842695235
432,3.5998559999999884,1.1014473439999999,9.8627619755,20.982910150000002,-1.410211593,-0.8833482265,12.33144903,183.18393705,6.8697662355,16.56120586
433,3.6081889999999817,2.6450184585,9.8751873985,21.127098099999998,-0.2085604075,-2.2178285715,9.040159702,182.04009245,1.3270678815,16.745036125
434,3.616521999999975,4.170365691500001,9.844896315500002,21.2571144,-0.10926108799999999,-1.26060313,11.769388675,180.11444089999998,-3.4236131910000003,15.52640152
435,3.624854999999968,5.628248452999999,9.7844872455,21.3863907,-1.029528111,-1.8645747899999998,10.28512144,172.071022,-6.6463327405,15.613890649999998
436,3.6331879999999614,7.056049347,9.654217243,21.51181795,1.1556932925,-2.727499485,10.0188827505,168.5429306,-14.595150949999999,16.415985585
437,3.641521000000012,8.4458379745,9.492086887,21.61977385000001,-1.3456549345000002,-1.252016127,12.4633049965,164.38764195,-18.281882765,15.066722395
438,3.649854000000005,9.774964807,9.337317467,21.732276899999995,-0.8152319715,-1.8300002215000002,11.119056705,157.0268631,-16.911486625,16.08333111
439,3.658186999999998,11.041371345,9.1252264975,21.815139799999997,-1.564361095,-2.6626648900000003,9.179348708000001,150.1486435,-23.980950354999997,14.0204196
440,3.6665199999999913,12.276720525,8.929229736500002,21.89951705,-1.624656469,-2.112753332,11.369188784999999,146.3940811,-21.699478149999997,14.488949775
441,3.6748529999999846,13.46952581,8.739900589000001,21.982055650000007,-1.0984734895,-2.064595759,14.007936955,141.3745041,-20.692774295,14.4094553
442,3.683185999999978,14.579493525,8.4954571725,22.034904450000006,-0.7185116850000001,-2.796517253,7.5062680230000005,132.00115970000002,-27.60748768,13.139552595000001
443,3.691518999999971,15.643910885,8.326888561,22.09661485,-2.827160954,-2.012901306,8.685799121999999,126.41147995,-18.34315205,12.1256938
444,3.699851999999965,16.643051149999998,8.102748394,22.159854850000002,0.10268020649999998,-2.427978337,13.135557171999999,118.56497955,-24.409106255,14.65648508
445,3.7081850000000154,17.580946925,7.9143853185,22.2027092,-2.6777743695,-2.2827166915,13.576044085,111.59552385,-20.830236435,11.286849974999999
446,3.716518000000008,18.477652550000002,7.718754053,22.2721405,-0.3595762255,-2.157646835,9.943380835,106.2145958,-20.41462612,15.11201334
447,3.724851000000001,19.30273247,7.5525114535,22.31148915,-2.364019871,-1.6843595505,7.629574537,98.15362167,-18.07999945,10.661258225000001
448,3.7331839999999934,20.05107975,7.3417363165000005,22.35620494999999,-1.2390909195000002,-2.8014137745,10.1800088895,88.85090256000001,-22.687500955,13.462553499999999
449,3.741516999999988,20.756281855,7.207460879999999,22.397979750000005,-1.0669430795000001,-1.918389857,13.438839435,83.77982330500001,-14.08782482,10.0385980585
450,3.749849999999981,21.417504309999998,6.992895365,22.421825400000003,-1.159843981,-2.2506640555,12.800335404999998,78.728427885,-23.674359325,11.825356485
451,3.758182999999974,21.99601173,6.8474824430000005,22.4430847,-1.3624797465,-2.9574728015,8.850690365,68.89597320499999,-15.997755525,8.5657777785
452,3.7665159999999673,22.519854549999998,6.6490068435000005,22.445671049999994,-1.097244561,-1.9259612560000001,10.154510974499999,62.57154655,-22.58555126,9.2308621405
453,3.7748490000000174,22.991602895,6.500600576,22.453109750000003,-1.5524649025,-1.9224707484999999,10.582448961,56.290731429999994,-16.80360031,7.460816145000001
454,3.7831820000000103,23.42689133,6.302076577999999,22.44200899999999,-0.12340804949999995,-2.3720722194999997,13.192745205000001,52.12918472,-23.07796383,8.087596893
455,3.791515000000004,23.79255962,6.142905235500001,22.41106415000001,-2.3223001955,-2.607112646,9.8507852575,44.07834053,-19.70113564,4.026546717
456,3.799847999999997,24.12137413,5.996799945499999,22.406772600000004,-0.9059101935,-1.644557178,12.08254528,39.24194336,-16.908998251,6.5239379405
457,3.8081809999999914,24.38713169,5.847696303999999,22.376880649999997,-2.8077266219999997,-1.4305433035,8.5834848895,32.079006195,-18.4987211215,3.8532373905
458,3.816513999999984,24.649511335,5.7296438215,22.375987999999992,-0.8572868705000001,-1.6109800339999998,12.352880477,31.23201847,-13.6095244905,5.655155182
459,3.824846999999977,24.86114311,5.578624248500001,22.34984585,-1.593502462,-1.7902232704999999,12.685684443500001,25.514336585000002,-18.484775065,4.5172281265
460,3.8331799999999694,25.061299325,5.5047740935,22.349681849999996,-1.543411732,-0.993498176,11.4433295735,23.77200699,-8.726942181,3.5725216865
461,3.841512999999964,25.222556115,5.38585639,22.345329299999996,-2.503837943,-1.1232531515,9.378958224,19.19445324,-13.8597984305,5.355625391
462,3.8498460000000136,25.385217665,5.3470578195,22.361831650000006,-0.42370426650000004,-0.525439024,10.9498004925,19.111344335,-4.0476590395,3.6251775029999997
463,3.858179000000007,25.53578186,5.2573843005,22.362216949999997,-2.6260143815,-1.7300938365,12.8528370875,17.84627056,-10.417511941499999,4.433153390999999
464,3.866512,25.663295745,5.2504603865,22.389415749999998,-1.361847818,-0.4698343425,11.03582096,14.762352465,-0.027343392000000133,3.140645385
465,3.8748449999999934,25.766664505,5.198707819,22.396957399999998,-1.5269807725,-1.0098866225,10.1359210025,12.115132335,-5.926628828,3.2715210915
466,3.8831779999999863,25.872979165,5.1953589915,22.409431449999992,-1.1337756515000001,-1.094215453,12.011819840000001,12.39650345,-0.402566202,1.351592809
467,3.89151099999998,25.966781615000002,5.172563075999999,22.436824800000004,-1.3067733645,-1.183146,12.825741291,10.7434887875,-1.7519562245,3.905703783
468,3.899843999999973,26.06077862,5.2151100635,22.449558249999995,-2.2969940605000003,-0.30142141850000004,8.71391344,10.918499470499999,4.557164073,-1.0568499565
469,3.9081769999999674,26.143288615000003,5.2351565365,22.493152600000002,-2.0010927915,-0.868185788,9.6173343655,9.2190442085,3.7307008800000006,3.385926962
470,3.9165100000000166,26.242533684999998,5.3057188985,22.530899049999995,-0.743012875,-0.3865512535,13.305782319999999,11.27180862,8.874943970499999,0.09606605800000001
471,3.92484300000001,26.334702489999998,5.3590056895,22.578655249999997,-1.87420851,-0.709642917,11.4037632925,10.327489852,7.5390335295,2.051181793
472,3.933176000000003,26.428175924999998,5.4556915759999995,22.63070295,-1.8633213189999998,0.11973950299999997,8.0667853365,10.396430493499999,12.4331092835,0.18027944
473,3.941508999999997,26.507739065000003,5.5430452825,22.690956150000005,-1.2547677755,-1.0969026835,13.060910699499999,8.6628141405,11.8706004605,1.538365841
474,3.9498419999999896,26.60920429,5.64996624,22.745502450000004,-1.4025677444999998,0.0160930025,13.75413275,11.3085417725,13.668306351000002,-0.13849629500000002
475,3.958174999999983,26.686138149999998,5.7606084345,22.80745315,-1.888502449,-0.32855074100000004,8.1462125775,8.2956537005,14.463051795,0.4230831825
476,3.966507999999976,26.78163242,5.8861272335,22.876987449999994,-1.003313333,-1.3847789165,11.10113287,10.39908314,16.460553644999997,0.39994055000000006
477,3.9748409999999694,26.868658064999998,6.0103931425,22.9518051,-1.4946479794999998,0.24819605800000002,13.24331093,9.3083710695,16.615898135000002,1.00576213
478,3.9831739999999622,26.964245795,6.1408612725000005,23.0301399,-1.6124872565000001,-0.3278134615,9.547760009000001,10.26776409,17.46865845,1.01367715
479,3.991507000000013,27.069169045000002,6.258323669499999,23.111968999999995,-0.6992154960000001,-0.8786728975,11.465624334000001,11.3223204595,16.269289495000002,2.0603004695
480,3.999840000000006,27.167538645,6.4049384595,23.1916618,-1.5084801915000001,0.0511679895,11.131691935,10.5397758475,19.280548574999997,0.23090577150000002
481,4.008172999999999,27.248673435,6.5010099409999995,23.252387999999996,-1.364759207,-1.105634302,10.405856607,8.7066903095,12.841085434,0.9337091444999999
482,4.016505999999993,27.348506925000002,6.6419894695,23.34076689999999,-0.25489559799999995,-0.016846686499999985,13.55889368,10.549802305,19.141922475,1.36948438
483,4.024838999999986,27.41729641,6.7115511895,23.3800011,-0.5664768815,-0.9526989164999999,8.9331941605,7.505400897,8.842003344,0.08062070599999999
484,4.033171999999979,27.483516695,6.817331791,23.443645450000005,-1.5645627379999998,-1.093760729,12.145062450000001,6.8454380035,14.02384043,0.6200821994999999
485,4.041504999999972,27.548256875,6.8791277404999995,23.483425149999995,-0.45190608500000007,0.27856126800000003,14.17184067,6.954611656999999,8.0415137095,0.538661182
486,4.049837999999966,27.60028458,6.959658622999999,23.536716450000007,-1.054467559,-0.7489745615000001,6.6476626395,5.3213331695,10.7769193625,0.90973492
487,4.058171000000016,27.676856045,7.0090551375,23.559387200000003,0.12180370100000004,-0.46884723,14.135197165000001,8.597682476,5.778496979,-0.594929099
488,4.066504000000009,27.7075901,7.0369601245,23.593635600000006,-1.774916799,-0.898552775,8.004695773,3.0344293715,4.1395559295,1.8238427640000001
489,4.074837000000002,27.742982865000002,7.0976400375,23.617034900000007,-0.49141746750000004,-0.1710697115,12.1816329945,3.653365612,7.016983626499999,-1.15682213
490,4.083169999999996,27.752536775000003,7.087630749000001,23.631111149999995,-0.9441083075,-1.0037605465000001,12.846141337,0.7507340309999999,-1.005903244,1.8099400995000001
491,4.091502999999989,27.757238385,7.143097877500001,23.65283205,-2.3820473555,-0.11896994350000001,9.819450139499999,0.037537873,6.374763012,-1.0427045225
492,4.099835999999982,27.76144886,7.120233536000001,23.668235749999994,0.7418386935,-0.6900572185,12.281087875,0.04476082299999995,-2.2669486999999995,2.7252586485
493,4.108168999999975,27.718697544999998,7.1697771545,23.66285705,-3.142995477,-1.3005863725,8.934089662,-5.217959523499999,4.245458365999999,-3.561243415
494,4.116501999999969,27.673247335,7.162940502,23.677001950000005,0.439317301,-1.0505086165,13.097921375,-5.916498661,-0.6557507500000002,1.6589894295
495,4.124834999999962,27.584770204999998,7.169053315999999,23.6628227,-2.0059586765,-0.9942372445000001,10.433567998500001,-10.5762085895,-0.8524365399999994,-2.0627529620000002
496,4.133168000000012,27.487803454999998,7.2038564685,23.68909835000001,-0.49692720199999996,-0.9865564405,10.3643775005,-12.25818777,4.4961640240000005,0.740514083
497,4.141501000000005,27.367521285,7.163774252,23.6498451,-0.7343102395000001,-0.8016053734999999,10.349117758,-14.051095490000002,-7.1442148685,-2.1659338475
498,4.149833999999999,27.221647265,7.2245907785,23.68106075,-2.6380410794999998,-0.054939836500000006,10.694223882500001,-18.18445587,7.534192559499999,-0.14505349099999998
499,4.158166999999992,27.06417656,7.2006776335,23.639347100000002,0.715630546,-1.2467798294999999,12.55083084,-18.493861199999998,-5.54212874,-3.3480060099999998
500,4.166499999999985,26.902795795000003,7.2377240655,23.64955905,-2.9243990185,0.42036207750000004,10.5206918725,-19.710212705,3.8536443734999994,-1.0386577245
501,4.174832999999978,26.75159359,7.23978591,23.622432700000005,0.5781229135,0.6923349125,10.8983147125,-17.969462395,-1.959553004,-3.2333822249999997
502,4.183165999999972,26.604432105,7.237860918,23.611419700000006,-1.9446031230000003,-0.725479141,8.587581992,-17.691495895,-1.4446568490000002,-1.1532108785
503,4.191498999999965,26.460205075,7.2677357195,23.598556499999994,-0.6249109505000001,0.636221409,11.825771334999999,-17.32597637,1.8009880784999999,-3.206102252
504,4.199832000000015,26.32266712,7.2377762795,23.563148500000004,-1.2821390035,0.361996793,12.868212701000001,-16.167581079999998,-5.81476593,-2.4046903845
505,4.208165000000008,26.219499589999998,7.26499629,23.5592155,-1.5977547765,-0.06827927750000001,8.29421854,-12.52103329,2.001752734,-2.09761405
506,4.216498000000001,26.138448715000003,7.2247362135,23.518180849999993,0.43315255649999984,0.871057242,11.842298031999999,-9.320708511,-7.1979280725,-2.4523136615
507,4.224830999999995,26.059439660000002,7.245625019,23.50517655000001,-2.2892050225,0.2373333575,8.9952163675,-9.4612908365,0.8501367565,-2.723261058
508,4.233163999999988,26.02185726,7.2041118145,23.459323899999994,-0.124565661,0.44027309800000003,13.626542095,-4.0463963745000004,-7.5979912275,-2.959610343
509,4.241496999999981,25.996798515000002,7.217390299,23.45448305,-2.1302567125,1.3624542955,8.834840297500001,-3.1026716825,0.4604928495,-1.4455074075
510,4.249829999999975,26.020080565,7.173403024500001,23.420387299999994,0.2274456325,-0.05160869650000001,11.29766798,3.0824816525,-7.256360682,-1.585066676
511,4.258162999999968,26.03956604,7.175679445,23.40907285000001,-2.3952108625,0.128575489,8.0278844835,2.344951391,-1.0646302699999999,-1.561283797
512,4.266496000000018,26.085704805,7.1287453175,23.380409250000007,-0.20138967049999998,0.6435159964999999,14.172507764999999,5.727145672000001,-7.282475708,-0.8223517164999999
513,4.274829000000011,26.125350955000002,7.1148700715,23.368797299999997,-1.9396620985,-0.20181739299999998,8.818945169500001,4.7621086835,-2.822388174,-0.7400464415000001
514,4.283162000000004,26.21070576,7.0662515164999995,23.347564700000007,0.608623862,-0.029448434999999995,12.374997140000001,10.318985462499999,-7.028613569000001,0.167606875
515,4.291494999999998,26.257471085,7.0165524480000006,23.318195349999996,-2.2835885285,0.23049992300000002,8.3978490815,5.8814456465,-7.6140126565,-0.7324455675
516,4.299827999999991,26.32706547,6.9777448175,23.278263100000004,-0.0698731395,-0.9556411505,14.15513134,8.689496517,-6.9498626004999995,-2.3204898835
517,4.308160999999984,26.37788296,6.910922527,23.246955900000003,-2.427012563,0.309214551,9.3767166145,6.372943401500001,-9.5599319935,-0.01301193249999999
518,4.316493999999977,26.43749142,6.8932619095,23.213848149999997,-0.04242906000000002,-0.4663521055,11.016602515,7.406619072,-4.3017247769999996,-2.674478531
519,4.324826999999971,26.4702549,6.811316489999999,23.173511500000004,-1.2848994135,-0.988603145,9.806815863499999,4.313559055,-11.664000035,-0.1523406655
520,4.333159999999964,26.4879055,6.7919812205,23.131805400000005,-1.7073597315,0.22472535049999998,12.4201808,2.5097023245,-4.9387643335,-3.493237734
521,4.341493000000014,26.501921655,6.7450714115,23.102024099999994,-1.5115422015,-0.3492530955,12.04913378,1.875020057,-7.343301535,-0.900340468
522,4.349826000000007,26.50664234,6.711867332500001,23.070461250000008,-1.120634049,-0.9005361199999999,9.673561574499999,0.8352865575,-5.907867789,-1.7025785445000001
523,4.358159000000001,26.50005245,6.7042298315,23.05931855,-1.585401058,0.5130809395,11.5298366535,-0.860836774,-2.1335768715,-1.014470905
524,4.366491999999994,26.46654701,6.647059441,23.00843429999999,-0.8930124045,-1.7003185155,10.459178447500001,-3.483299911,-9.5309755785,-2.529438019
525,4.374824999999987,26.431287765,6.6912047865,23.0188141,-2.758667026,0.5245839355,10.4563977705,-4.591550112,4.572454587,-1.4863235505
526,4.38315799999998,26.345756530000003,6.650167465,22.9700737,-0.0032856464999999613,-1.4228157995,12.314907549,-9.7928857825,-7.653085709,-3.1209025385
527,4.391490999999974,26.243181229999998,6.7055425645,22.974464450000006,-3.2397292855,-1.1376311184999999,11.18853283,-12.550701140000001,5.4706317195,-2.702615917
528,4.399823999999967,26.1137352,6.6909639835,22.93626785,0.207885675,-0.490029693,10.958891865,-15.210985664999999,-4.321109412999999,-3.5886130335
529,4.408157000000017,25.92776871,6.7274560925,22.912330599999997,-2.7418944835,-1.7512428165,9.5059165955,-22.159102439999998,1.9647464749999999,-4.7108440394999995
530,4.41649000000001,25.695014955,6.766609192,22.88526915,-0.457366854,-1.83556205,13.007759095,-27.76749134,2.1516548395,-5.082008839
531,4.424823000000004,25.40653992,6.774843216,22.822341900000005,-1.7901360095,-1.0271160305,12.800328731,-33.92417336,-3.0630945565000003,-7.421079397
532,4.433155999999997,25.072317124999998,6.8500609395,22.798576349999998,-1.8507927359999998,-2.0967884065,9.188648223000001,-39.96099281,6.2484865185,-6.611082553999999
533,4.44148899999999,24.683291435,6.8581926825,22.72496795,-0.07174974700000003,-2.1538366675000002,11.118517158500001,-45.839736935000005,-3.5264271495000004,-8.606964111
534,4.449821999999983,24.207316395,6.9231796265,22.674598700000004,-2.4119840860000004,-1.496352136,10.0561830985,-56.56350517,3.9105420124999997,-8.8723874095
535,4.4581549999999766,23.67295265,7.001675367,22.60847475,-1.1635547284999999,-1.77515316,11.651593686,-63.38348198,4.6932230614999995,-11.26483011
536,4.46648799999997,23.06851292,7.0347042085,22.535049450000002,-1.1733879895000001,-2.6559654475,11.520077465,-71.645965575,-0.53772223,-9.7862777725
537,4.474820999999963,22.39697647,7.1571533679999995,22.4727173,-2.8269407155,-1.2624799309999999,11.573554035,-79.852550505,9.9659755255,-12.746595385
538,4.483154000000013,21.660506245,7.1970863345,22.392837549999996,0.29084759950000005,-1.9353142975,11.62378645,-87.411533355,0.20278215450000037,-10.7368178345
539,4.4914870000000064,20.83532047,7.3034591675,22.31373215,-2.453161478,-2.537327051,9.1134544615,-97.9949379,7.7674353145,-13.593818185
540,4.49982,19.96846485,7.406374931,22.238578800000006,-0.9907588365000001,-1.4063045980000002,13.34607315,-103.10611725000001,7.783331513,-12.81281805
541,4.508152999999993,19.026059150000002,7.485131025,22.141944900000006,-3.0988270045,-1.094120562,8.670710863,-111.7698555,4.355047703,-14.189279555
542,4.516485999999986,18.059039114999997,7.672068357500001,22.10142520000001,-1.0844175815,-0.65769276,12.467041016,-115.63378524999999,19.0747447,-11.757296085
543,4.52481899999998,17.026063915,7.7570176125,21.98978805000001,-0.9259030815,-2.0134691595,12.2837059485,-122.35759734999999,4.999157786,-15.95701218
544,4.533151999999973,15.94581938,7.9689898495,21.952297199999997,-3.4484493735,-1.523096263,8.5208215695,-129.2295456,22.447265625,-11.566426280000002
545,4.541484999999966,14.82102823,8.0712771415,21.857795700000004,0.4945122005000001,-0.668911472,12.071098091500001,-133.59452055,8.133104801,-14.318887235
546,4.549818000000016,13.652281285,8.281689644,21.805236800000003,-2.722406268,-0.2860598565,9.9786481835,-139.58187865,22.280200485,-12.223893645
547,4.558151000000009,12.4808321,8.4486784935,21.732604949999995,-0.49653244,-1.5556945205,11.499559877500001,-139.5085678,16.84515667,-13.179742815000001
548,4.566484000000003,11.266149519999999,8.665602684,21.680191049999998,-2.9141184090000003,0.3495241404999999,9.9415831555,-145.06375125,23.527515415,-11.392060755
549,4.574816999999996,10.0182089825,8.8153352735,21.582992549999993,0.11248767400000004,-0.40296560499999995,14.49759245,-148.18833165,14.811007975,-14.890731335
550,4.583149999999989,8.766186237500001,9.001265049,21.521492000000002,-1.3723616,-1.4838775995,7.975445153,-149.34248355,20.142914775,-10.7991662
551,4.591482999999982,7.497186422,9.160948276500001,21.422977449999998,-0.48417876649999997,0.8164881019999999,8.914620159,-150.60883330000001,16.59385395,-14.46923876
552,4.599815999999976,6.22734189,9.3222579955,21.3384056,-1.8730309905,0.80395706,10.600186345000001,-151.01568605,17.34198284,-12.20070028
553,4.608148999999969,4.915628433,9.450193882,21.227581049999998,0.03467297549999998,-1.9545930025000002,12.248781205,-155.43951414999998,13.285411359000001,-14.75903082
554,4.616481999999962,3.6084480285,9.53463316,21.123084999999996,-1.0188650545,0.8410861494999999,9.344141246,-155.0487442,8.487528324,-13.047548295
555,4.624815000000012,2.267365098,9.657606602,20.976493850000004,-1.093747184,0.7619203925,8.785387994499999,-158.20040895,13.125648975,-18.2974329
556,4.633148000000006,0.9150942265,9.766136169500001,20.849430050000002,-2.517991543,-1.6666346785,11.02580428,-159.9650192,11.8974108715,-15.308331965
557,4.641480999999999,-0.454951122,9.850997926,20.695987700000003,0.8134810324999999,0.7283625604999999,10.2251157745,-161.4678192,9.3816206465,-18.432006835
558,4.649813999999992,-1.8760496975,9.909753799,20.524799349999995,-1.8389710190000002,-0.22103229149999992,10.0838055615,-167.27503205,6.739986419,-19.98887062
559,4.658146999999985,-3.2709242105,9.957370279500001,20.371398899999996,-0.7683869004999999,-0.537981041,9.022278307,-164.41337585,5.796621799,-18.084389690000002
560,4.666479999999979,-4.6783607005,10.005514621,20.212127699999996,-0.5662403705,2.2219228744999997,10.1880006765,-165.8436966,6.3337743280000005,-18.31630421
561,4.674812999999972,-6.077756405000001,9.983815671,20.05901335,-0.07604634749999994,0.16833555700000002,13.093819615000001,-164.94094085,-1.6244300605,-18.486971855
562,4.683145999999965,-7.4431905745,9.937155722,19.91265105,-1.3591729700000001,0.6405862870000001,8.3253986835,-161.0669327,-4.2627793255,-17.87181664
563,4.691479000000015,-8.8043990135,9.849430561,19.777168250000003,1.285171695,2.0135923030000002,10.6122288685,-160.7642212,-8.880338073,-17.539273265
564,4.6998120000000085,-10.1227588635,9.720335483500001,19.63891985,-1.1346200105,1.1890332694999999,9.781998634499999,-155.6372299,-13.3543896665,-18.662635805
565,4.708145000000002,-11.40204191,9.5734915735,19.519126900000003,-0.28217081699999996,1.6623513105,9.4826607705,-151.31161500000002,-15.390527724999998,-17.436826705
566,4.716477999999995,-12.630836965,9.3895597455,19.393699650000002,-1.314171016,2.476101458,12.981523035,-145.23503115,-19.26370239,-19.091529845
567,4.724810999999988,-13.80685854,9.176115989500001,19.322082549999998,0.5733661355,1.3756464720000001,9.699627398499999,-139.9381714,-23.71999359,-14.36697054
568,4.733143999999982,-14.94091797,8.931758881,19.21324155,-1.2386300415,1.375819594,12.411200045000001,-134.29824065,-25.99514389,-19.69220257
569,4.741476999999975,-15.997330185,8.659646034,19.166416149999996,-0.2238044625,2.5340884925,10.175668238,-126.1164551,-30.711447715,-14.305452344999999
570,4.749809999999968,-17.0240345,8.366742611,19.08636475,-0.289084412,1.2995187045,11.7878642065,-122.03779985,-31.793292045,-19.06499958
571,4.758142999999961,-17.98584175,8.064333916,19.059768649999995,-1.6866987345,1.159294635,10.6951866165,-115.17423629999999,-34.378019335000005,-14.151270865
572,4.766476000000012,-18.904756544999998,7.7507617475,18.995426149999993,-0.7347492205,1.624058664,9.4646596905,-109.43806839999999,-34.054139140000004,-19.236231805000003
573,4.774809000000005,-19.79617023,7.439415693,18.984176650000002,-1.1690793295,1.2039764525,11.52263069,-107.013485,-35.524046895,-13.855153085
574,4.783141999999998,-20.61904144,7.1127090455,18.94567105,-1.181665212,1.7350295780000002,13.789808749999999,-98.39181137,-36.005722045,-17.882436755
575,4.791474999999991,-21.37639618,6.7997441295000005,18.941772449999995,-2.5561765430000003,2.8083217145,7.8314321045,-91.04273223999999,-35.610025405,-14.12779999
576,4.7998079999999845,-22.079726219999998,6.502447605,18.934902149999992,-0.12421120700000002,1.4694941639999999,11.98131514,-84.538116455,-33.633172035,-14.011585235
577,4.808140999999978,-22.72197628,6.1927289965,18.948390950000004,-2.9203275445,2.054195762,15.126121994999998,-77.464839935,-35.69246483,-12.904823780000001
578,4.816473999999971,-23.2800436,5.9442949295,18.954429600000005,-0.9328385594999999,2.829419017,9.2231521625,-67.27156639,-28.50587368,-11.079568386
579,4.824806999999964,-23.757921215,5.675870657000001,18.976997400000002,-2.8880573515,2.5751190184999997,9.9532680505,-57.837083815,-31.327056885,-10.617853165500001
580,4.833140000000014,-24.181424139999997,5.4594204425,18.99961855,-0.964740604,1.5249312225,13.204029559999999,-51.30820465,-25.602910995000002,-8.19843173
581,4.841473000000008,-24.522405624999998,5.268522262499999,18.999061599999997,-3.5761305094999996,2.9244763855,12.23820925,-41.127136230000005,-21.557923315,-9.743345975499999
582,4.849806000000001,-24.800148964999998,5.0964541435,19.031120299999998,0.274212778,1.4030463695,8.316688060499999,-33.89719105,-21.125774385,-5.281055212
583,4.858138999999994,-25.012983325,4.960943937,19.003124249999992,-4.2883541585,2.1765789985,10.046990631,-25.459384915,-14.05834055,-10.1196098305
584,4.866471999999988,-25.16253853,4.8287956715,19.033138299999997,0.9414388534999999,1.5997623805,14.459685324999999,-18.47519779,-16.62841177,-3.653808594
585,4.874804999999981,-25.27384472,4.725602865,19.003738399999996,-4.003592491,1.5599858165,10.300063609999999,-13.278117659000001,-10.42568827,-8.688850879499999
586,4.883137999999974,-25.324941635000002,4.6489021775,19.007514949999994,-0.10744468850000002,0.674387634,8.498641491,-6.3918793185,-9.28852916,-3.647288084
587,4.891470999999967,-25.366996765,4.5781252385,18.977191899999994,-2.6795457605,1.125328243,8.8913908005,-4.971518039999999,-6.844238996,-7.1442842485
588,4.899804000000017,-25.3620615,4.53827405,18.962066649999997,-1.327363938,1.209275663,16.16784954,0.5137254,-4.305598855,-3.840252638
589,4.908137000000011,-25.334967615,4.506358862,18.92181395,-3.377233744,0.0865535065,6.982120514,3.4146534204999996,-2.1196548345000004,-6.226001501000001
590,4.916470000000004,-25.29185295,4.512931824000001,18.9116516,0.1681642685,0.6007209625,10.047340868500001,5.052497863499999,0.49518072600000007,-0.964119822
591,4.924802999999997,-25.27080059,4.5026295185,18.864334100000008,-3.3568445445000004,-0.3817038385,12.26866865,2.755105853,0.5768392085,-5.87689209
592,4.93313599999999,-25.20853996,4.529530525,18.84928135,-0.7601094845,0.34428808099999997,11.295550344999999,7.3975129145,2.9752216935,-0.5075973570000001
593,4.941468999999984,-25.175530435,4.5588338375,18.80288695,-2.1600610615,-0.32350062599999996,8.769113061999999,4.183207631,4.8232947589999995,-3.7584598065000003
594,4.949801999999977,-25.13722515,4.58727932,18.793067949999994,-0.22662872099999987,-0.7966532705,11.6187920555,4.4726041555,2.8762226105,0.1324063915
595,4.95813499999997,-25.110274314999998,4.637445211,18.734939549999993,-2.4709192515,0.08645734399999999,9.205235243,3.577181935,7.6807360665,-3.9732292890000003
596,4.966467999999964,-25.10010624,4.677946567499999,18.7167587,-0.7343450265,-0.8682610390000001,10.516088249,1.1777619645000001,4.618022739500001,-0.17451626099999995
597,4.974801000000014,-25.088253975,4.7347857950000005,18.6704407,-1.5552656505,-0.1972967835,11.304054739000001,1.660013407,7.803903176,-2.3585717975
598,4.983134000000007,-25.11427784,4.780901909,18.644332899999995,-0.938002229,-0.906482622,9.9065022465,-3.0843127965,5.621716099,-0.728571333
599,4.991467,-25.12480259,4.8144733905,18.60715485,-1.3873662055,-0.48305310300000004,11.864506720000001,-1.108404845,4.812025429499999,-2.553329468
600,4.999799999999993,-25.185435294999998,4.864798546,18.584205600000004,-0.5896529105,-0.3687920275,9.827374934,-7.2690963745,5.9161469349999996,-0.155850053
601,5.008132999999987,-25.2192564,4.888534069,18.560638399999988,-1.0614587070000001,-1.2315663694999999,11.715229035,-4.0365924835,3.0541398529999997,-1.575659841
602,5.01646599999998,-25.29209709,4.944241524000001,18.534873950000005,-1.1450318990000001,0.32614477,7.827645778499999,-8.703070879,6.6393643635,-0.16559612749999997
603,5.024798999999973,-25.357735634999997,4.954403639000001,18.515602149999992,-1.0818761885,-0.7562821209999999,12.963471415,-7.896459341,1.3646197299999994,-1.8030634970000001
604,5.033131999999966,-25.451590539999998,4.9967923165,18.498718249999996,-1.6675136685,-0.6376842404999999,10.3045291895,-11.3164610855,4.734645128,0.14015477899999995
605,5.0414650000000165,-25.510748865,5.0029301645,18.50457,-0.00019552550000000168,-0.35566964749999996,11.070170879500001,-7.378553152,-0.3596429800000003,0.709072471
606,5.04979800000001,-25.622008325,5.024334669,18.48583984999999,-1.7753663655,-1.0519942345,9.0112655185,-13.38546419,2.560022829,-1.1361645125000002
607,5.058131000000003,-25.709627155,5.047269344,18.47795105,-0.898755163,-0.425564259,13.377417085000001,-10.653205395,2.1654987319999996,0.10192531350000006
608,5.066463999999996,-25.816573145,5.0705201625,18.472320549999992,-1.790328056,-0.36611032499999996,9.318006277,-13.0033712375,2.08284688,0.37869375950000006
609,5.07479699999999,-25.91858387,5.106532335,18.464927649999993,-0.7394142745000001,-0.628200874,10.646638871499999,-12.38581705,3.5502810475000004,0.854721539
610,5.083129999999983,-26.025818825,5.0902631285,18.471084599999998,-0.49752062550000004,-0.7835395335,11.485413790499999,-13.160159584999999,-2.7983554010000002,-0.43215061
611,5.091462999999976,-26.146075250000003,5.1261467935,18.4588318,-2.683320761,-0.18145082149999997,10.0793395055,-14.527359485,3.7898573874999997,0.3451774565
612,5.099795999999969,-26.25361347,5.1110489365,18.471015949999995,0.3297860025,-0.5818919095,12.799651145,-13.257046695,-2.9821698645000003,0.2451923155
613,5.108128999999963,-26.386425975,5.131478071,18.466079699999995,-2.669536471,-0.6887465269999999,7.634299993500001,-16.116301535,1.7372922880000008,0.33251127599999997
614,5.116462000000013,-26.480881689999997,5.1254384515,18.46627805,0.599004887,0.18866372850000002,14.76842976,-11.56041193,-1.3843913050000003,-0.545378417
615,5.124795000000006,-26.608115195,5.1121037005000005,18.476524350000005,-3.094246149,-0.9067133365,6.2053079005,-15.61190224,-2.700318815,0.1563941475
616,5.133127999999999,-26.71127987,5.1556551455,18.458000150000004,0.14336073399999993,0.355850667,13.143268106,-12.404426575,4.943876746000001,0.1167945635
617,5.1414609999999925,-26.846345905,5.115213156,18.4811325,-1.88255471,-1.1479458215,11.427816628,-16.68915272,-6.2995425295,0.0502871425
618,5.149793999999986,-26.944118500000002,5.1441981795,18.4713974,-1.496945322,-0.1624470355,10.480185033,-11.853340625,2.9278801679999997,0.2567699105
619,5.158126999999979,-27.042116165,5.115756512,18.502319349999993,-0.15438335549999999,-0.2556366995,10.010433199,-12.3198981285,-5.440810045,1.5042985679999998
620,5.166459999999972,-27.164980885,5.128456830999999,18.493492149999994,-1.9163874985,-0.6014116144999999,9.157980203,-14.88124657,1.1219363199999997,-0.490768872
621,5.174792999999966,-27.262365340000002,5.127209425,18.495986950000002,-0.427288294,-0.21145706649999998,14.07387638,-11.94164133,-0.9909315099999993,-0.04732874000000001
622,5.183126000000016,-27.38166523,5.096066951999999,18.50637055,-2.4810329975,-0.930074662,8.1498202095,-14.66051006,-4.6064662935,-0.8535369035
623,5.191459000000009,-27.484311105,5.139249563,18.49216460000001,-0.7470685839999999,-0.13105152550000002,12.6688318235,-12.39664507,4.659588338000001,0.641591847
624,5.199792000000002,-27.608889580000003,5.08681345,18.522811849999997,0.18729299300000002,-1.3199596405,9.84844494,-15.50886059,-7.9906578065,0.09001478550000003
625,5.208124999999996,-27.74501705,5.078735828499999,18.516754149999997,-2.2968016865,-0.2749131915,11.0603160845,-16.504547115,-1.2434239385,-1.324473858
626,5.216457999999989,-27.879802705,5.061372995499999,18.52891539999999,-0.036126613500000015,-0.7214318660000001,12.404889585,-16.53574133,-3.2509338870000004,0.08377137750000001
627,5.224790999999982,-27.995975495,5.0153381825,18.552162199999998,-1.5228210835,-0.2891280355,9.3932483175,-14.421893595,-6.904344856,-0.363286734
628,5.233123999999975,-28.11443615,5.037019491000001,18.547905,-1.620392293,0.7284748555,10.573839190000001,-14.405755995,1.801161468,0.5576348305
629,5.2414569999999685,-28.227399825,4.9631035325,18.58146665000001,0.257375598,-0.99520728,12.063345432,-14.140660765,-10.436406135,-0.8881225585
630,5.249789999999962,-28.344268800000002,4.9616308215,18.595039350000008,-2.4688488245,-0.07545104550000001,9.1089401245,-14.402458665000001,-1.6550131439999998,1.127750188
631,5.258123000000012,-28.462258339999998,4.9126102925,18.616157549999997,0.185652867,-0.2895316485,12.48430872,-14.610239985,-7.0986349585,-0.816076033
632,5.266456000000005,-28.57295704,4.8490231040000005,18.649063099999992,-2.023964226,-0.5077585874999999,12.289465425,-13.85692787,-9.3039445885,-0.42344173800000007
633,5.274788999999998,-28.671013835,4.8396663664999995,18.64741515,-1.5947114825,0.14328123599999998,8.4144885535,-11.986906052,-1.6114560365000001,-0.945158914
634,5.283121999999992,-28.741487505000002,4.7799155715,18.677574149999998,-0.009145170499999966,-0.055564671499999996,12.124386789999999,-8.997801542,-8.763906481,-0.486395195
635,5.291454999999985,-28.83752251,4.7485311029999995,18.680038450000012,-2.4509443639999997,-0.392237179,8.3665611765,-11.789844037,-4.164645671500001,-1.7869454624999999
636,5.299787999999978,-28.904720304999998,4.723065138000001,18.684471150000007,-0.6746120755,-0.019712043999999998,13.631584165,-8.3434357645,-3.6630420664999996,-1.23805809
637,5.3081209999999714,-28.967719074999998,4.668769359500001,18.697837850000013,-1.446223855,-0.28691744799999996,10.487247943,-7.931852339,-7.1984012125,-1.9879274965
638,5.316453999999965,-29.02248478,4.667366743,18.701263400000002,-1.6001282335,-0.2648821625,10.2992134095,-6.845929861,-1.0736146565,0.051196574999999966
639,5.324787000000015,-29.062303540000002,4.6106801035,18.720336950000004,0.32630077,-0.623959735,12.52327251,-5.198563098999999,-7.777622877000001,-1.5479196685
640,5.333120000000008,-29.129420279999998,4.582600355,18.731040949999993,-2.753527999,-0.37401458649999997,8.348348142999999,-8.39667487,-4.2730703375,-0.780721843
641,5.341453000000001,-29.179470065,4.5709259509999995,18.72314449999999,0.2453084735,-0.6423808929999999,13.1635570525,-6.167428016500001,-1.4856009465,-1.7480115
642,5.349785999999995,-29.236017224999998,4.5209329125,18.738433849999993,-2.3450884225,-0.193714559,9.5414819715,-7.1720449925,-6.849689839,-1.5703129175
643,5.358118999999988,-29.270926475000003,4.5115277769999995,18.735359200000005,-0.8594849405,0.03601788,11.06774664,-4.3999752999999995,-1.5268006325,-1.1073674855
644,5.366451999999981,-29.302306175,4.4754297735,18.73917390000001,-1.3295461685,-0.3748781685,10.670096397,-4.0428355934999995,-4.747208833999999,-1.9209012985
645,5.374784999999974,-29.347390175,4.416121006,18.766845700000005,-0.29427659500000003,-1.3275879025,10.2055964465,-5.91006279,-8.549814939500001,-0.830650613
646,5.383117999999968,-29.400938985,4.3829097745,18.75031279999999,-1.696140319,-0.2927056845,12.1913690545,-6.5102686885,-3.2122621535,-3.9420056345
647,5.391451000000018,-29.457756045,4.289422512,18.792518599999994,-0.4568869470000001,-1.3159413930000001,10.383407354500001,-7.442421913,-12.974675175,-1.3500240145
648,5.399784000000011,-29.507244110000002,4.24803257,18.78417965,-1.9881170985,-0.06128349899999999,10.381214617000001,-6.10770154,-4.5601283315000005,-3.5399130585
649,5.408117000000004,-29.54873085,4.179828882,18.80012515,0.257645568,0.11237121400000001,9.2493734355,-5.360131025499999,-8.7849342805,-2.6096358895
650,5.4164499999999975,-29.583895679999998,4.066386223,18.828147900000005,-1.5282204149999998,-1.1058651805,11.135401247499999,-4.7095748185,-14.25848532,-3.9674532415
651,5.424782999999991,-29.628352165000003,4.0344760415,18.8284149,-2.148619473,0.1884124135,11.392408847999999,-5.578614235,-4.06846261,-2.096871078
652,5.433115999999984,-29.651885035,3.9240993260000003,18.862152100000003,-0.143341087,-0.34986633050000004,12.36996269,-3.3439198735,-14.232727526,-3.280947447
653,5.441448999999977,-29.679964065,3.876425743,18.8681488,-2.5676668285,-0.814241514,8.3831577295,-3.6634309295,-6.049058137499999,-2.4396214485
654,5.449781999999971,-29.691732405,3.8159251210000003,18.885063150000008,-0.8820681650000001,-0.05490633850000001,12.96438742,-1.7904672325,-8.050497981,-2.0465713145
655,5.458114999999964,-29.69308853,3.754385233,18.919319149999993,-1.0481729205,-0.5601036699999999,9.293933392,-0.6773813965000002,-9.170915842,-0.3280799685
656,5.466448000000014,-29.69935322,3.7426754235,18.9091339,-2.401951671,-0.43199983200000003,8.385000706,-0.9173801915,-1.3500752449999998,-1.972520173
657,5.474781000000007,-29.685133935,3.6945317985,18.94189455,-0.2899182885,0.2672041205,14.418644905,1.2099718305,-7.685961992,0.3054433875
658,5.4831140000000005,-29.68969536,3.677898526,18.941734300000007,-3.600031853,-0.9808066485,8.950302124,-0.7924919129999999,-2.4514112475,-1.231462002
659,5.491446999999994,-29.654923435,3.6903529170000002,18.96416475000001,0.8237786295,-0.657197982,12.6329956055,3.7583768365,-0.7535910604999998,2.833382845
660,5.499779999999987,-29.650114055,3.6368101834999997,18.995052349999995,-1.92847991,-0.406935096,10.131435633999999,0.10070848450000014,-8.105894925,-0.25514990049999997
661,5.50811299999998,-29.648289679999998,3.6542677880000003,19.01496505,-1.6665825845,-1.337133795,11.468878745000001,-0.1786720155,-0.08214479699999999,2.872399092
662,5.5164459999999735,-29.634657859999997,3.655449152,19.02951815,-1.0865103305,-0.42731582349999997,12.947126389000001,1.283760011,-1.4701421259999998,1.3589698675
663,5.524778999999967,-29.63887596,3.6753084659999997,19.060886349999997,-1.8140606579999998,-0.6620875895,7.4195710434999995,-0.9952861070000001,-0.5091028215,4.208815694
664,5.533112000000017,-29.6374054,3.7287478445,19.050373050000005,-2.1918469685,-0.8898301869999999,12.606562135,0.011795401500000025,5.4509082035,1.8754680155
665,5.54144500000001,-29.663860319999998,3.750120282,19.07686615,0.125448614,-0.675041035,10.70188761,-3.6275141835,-0.06309430300000002,3.7897292375000005
666,5.549778000000003,-29.704553605,3.7824852465000003,19.080085750000002,-2.2374287845,-1.060341485,10.668493747,-5.150011063,2.4795219900000003,1.9856794775
667,5.558110999999997,-29.77138615,3.834151745,19.080909750000004,-0.5166462064999999,-0.9387767315,12.665503505,-8.272988319,4.612368464499999,2.922225833
668,5.56644399999999,-29.839829445,3.8325976135,19.09147265,-1.8833943755,-0.7402706000000001,10.809455396,-8.544851781,-1.5386407375000002,0.8089681434999999
669,5.574776999999983,-29.910857205,3.907153606,19.06979369999999,-1.6006287334999998,0.04456378550000001,8.6195344925,-8.597604034,8.328231573,1.9713037249999998
670,5.5831099999999765,-29.981082915,3.9324270485,19.055686949999995,-0.3723465505,-0.547866315,10.642490866,-8.557850361,2.7250152229999998,-0.1520075795
671,5.59144299999997,-30.024097445,3.9461420775000002,19.0703697,-1.3563060165,1.0889357625,10.641227244500001,-5.529813170000001,-0.1779229195,2.1097488405
672,5.599775999999963,-30.04087734,4.0087103845000005,19.0496025,-2.3043094875000003,1.1949124635,9.568369149999999,-2.0831799285,7.031164646000001,1.348134756
673,5.608109000000013,-29.974100110000002,4.027586341,19.081142449999994,0.1696202235,1.492536694,11.721375465000001,7.503217813999999,-0.6509420874999998,4.1650543214999995
674,5.616442000000006,-29.85688686,4.077101946,19.087642700000004,-2.293630838,2.0402523875,9.0319433235,13.767207624500001,4.060786964,3.3614082334999997
675,5.624775,-29.612804410000003,4.119503974500001,19.12851715,-0.7823337914999999,2.57297647,11.229000328,28.696715355000002,1.268256665,6.539114952
676,5.633107999999993,-29.29804325,4.156666040499999,19.161571500000008,-2.1250729114999998,1.8447520135,8.6421008125,37.236627575,1.1968245499999997,5.4211571215
677,5.641440999999986,-28.863580704999997,4.245185137,19.197925549999994,-1.0371633770000002,3.0194890494999997,11.0747337355,51.57471466,6.4450113775,8.7429289815
678,5.649773999999979,-28.332218169999997,4.280653,19.251667049999995,-1.155896068,2.254195094,12.949560165,63.037900925,-0.08030319200000013,7.46402812
679,5.658106999999973,-27.67002106,4.3811600205,19.306556699999994,-2.4787932185,3.2752925155,9.6937770825,78.722747805,6.843296050999999,11.228236675
680,5.666439999999966,-26.88364792,4.4853901865,19.333950050000006,-2.087394476,2.404366195,11.047729969999999,93.87425232,8.9125814435,8.370888472
681,5.674773000000016,-25.994431495,4.586315393,19.383174899999993,-1.8416084645,2.3352959155,11.458471295,105.99607850000001,7.493685961000001,10.42852974
682,5.683106000000009,-24.9967041,4.7431070805,19.410495750000003,-1.3294210435,2.5370264055,10.913656713,119.22543335,14.877750395,10.764271259000001
683,5.691439000000003,-23.86758232,4.869342327,19.46164325,-2.519317746,3.158951044,12.94860125,134.7399826,10.535689355999999,11.6150465
684,5.699771999999996,-22.663950919999998,5.051035166,19.485794049999996,-1.4533941375000001,1.487953901,9.547465801,143.9433365,18.158164505000002,11.042574404
685,5.708104999999989,-21.35148716,5.237569809,19.508205450000005,-2.6883546415,2.283798933,11.150734424500001,157.01512144999998,19.01924562,10.663638113000001
686,5.716437999999982,-19.9490118,5.389048338,19.561859149999997,0.32039785350000005,1.8641537430000001,12.955036165,167.469902,14.044603344999999,12.143649575
687,5.724770999999976,-18.472758295,5.6110150815,19.576156600000004,-4.6949603555,1.656516716,8.9095172865,176.7466278,23.864607810000003,10.1282935125
688,5.733103999999969,-16.901587485,5.8396999835,19.626834849999995,-0.1081345845,1.314440787,13.710577964999999,187.70526884999998,23.599355695,13.863964554999999
689,5.741436999999962,-15.311482905,6.059521436500001,19.661003100000002,-2.6616607905,0.7730106115,9.066219567000001,190.14761349999998,23.489397045,10.96143055
690,5.749770000000012,-13.609802725000002,6.297215938500001,19.736076350000005,0.0374809505,1.4773764015,13.827234268,203.01275635,24.687420845,15.555734155
691,5.7581030000000055,-11.895173074999999,6.5241572859999994,19.797962149999996,-3.8542109724999998,0.6752176285,6.814337613499999,204.68758395,24.20835304,12.930795195
692,5.766435999999999,-10.1066541655,6.805658102,19.894298550000002,-0.06407341349999995,0.691125341,14.758940695,213.0499039,30.243432045,17.570744515
693,5.774768999999992,-8.3375034335,7.025951147000001,19.989704100000004,-1.2777966555,-0.324159708,9.418161155,210.6846466,23.555678365,15.184668065
694,5.783101999999985,-6.49870944,7.259268045500001,20.103408849999994,-0.8141385765,0.616373688,13.92710972,218.7231369,25.288742539999998,16.93732691
695,5.791434999999979,-4.691186905,7.497010231,20.2037659,-2.9443353415000004,-0.9050300125,8.4852826595,215.11761474999997,26.50043583,14.398404595
696,5.799767999999972,-2.8696304560000003,7.7054514885,20.335655199999998,0.6810578254999999,-0.8711248189999999,12.08004999,216.2684021,23.203955655,17.065297129999998
697,5.808100999999965,-1.0845762195,7.8620841505,20.4462433,-0.23480303549999998,-1.578400761,13.030002595,212.18004605,17.613576889999997,13.56629181
698,5.816434000000015,0.6671579780000001,7.989395141499999,20.580055250000008,-0.7684843539999999,-1.8524057864999999,7.8757030960000005,207.75457,14.495753765,15.790655615
699,5.8247670000000085,2.3775202035,8.1002173425,20.69844055,-0.8333479910000001,-1.8481881025,12.566384315,203.02773285,12.950556278,13.495834349999999
700,5.833100000000002,4.020674825,8.1817777155,20.83193205,-0.657967031,-2.7545606495,12.055563450000001,194.6687698,9.931581257,15.120522495
701,5.841432999999995,5.601777792,8.18543911,20.951793650000006,-0.20968103400000004,-2.3744673135000003,9.750116111499999,187.46020505,0.9139250815,13.908097265
702,5.849765999999988,7.1552660464999995,8.184539795,21.0839157,-0.17215675149999998,-1.630566597,13.38377571,183.9103317,0.9196047780000001,15.498377325
703,5.8580989999999815,8.648200988500001,8.153532266500001,21.201400749999998,-1.3156428340000001,-2.2627963425,11.939773084999999,176.92536925,-2.4812580045,14.109636785
704,5.866431999999975,10.0732107165,8.088427305,21.30926135,-2.0462431309999998,-2.1306909325000003,8.495621681,168.9094162,-6.342136383,13.803151605
705,5.874764999999968,11.45297623,8.012927531999999,21.417678799999997,0.47619777949999986,-2.5415028335,12.332535745000001,163.52713775,-7.2096860419999995,14.123824594999999
706,5.883097999999961,12.779153825,7.9163808824999995,21.501373300000004,-1.8108191340000002,-1.851777196,13.243997575,157.47155,-9.9230148785,12.162437915
707,5.891431000000011,14.030982975,7.7871370315,21.588619200000004,0.47914874550000003,-2.657586217,8.7766883375,148.5613022,-13.399950985,13.460707665000001
708,5.899764000000005,15.2125926,7.6433794495,21.64593885,-1.6001256705,-2.0889307855,9.1646699925,140.6150131,-15.642819405000001,10.912554740000001
709,5.908096999999998,16.344703674999998,7.4705848695,21.70610810000001,-0.154769033,-2.2677039505,15.542087555,134.6650238,-18.73193836,12.30674696
710,5.916429999999991,17.40953827,7.3023631575,21.74168015,-2.4109956025,-2.599729538,12.35207129,126.94829179999999,-18.728211405,9.978976250999999
711,5.9247629999999845,18.40208626,7.0941677095,21.77630235,0.7123250665,-2.680436373,7.5758063795,118.35661315,-23.22577763,11.37875891
712,5.933095999999978,19.30861855,6.902068853499999,21.782058699999993,-3.667930126,-2.633427739,9.212457179,108.43967435,-22.24230957,8.091073275
713,5.941428999999971,20.152814865,6.7100543975,21.8114128,1.19268775,-2.962278962,13.74728155,100.658481615,-21.228687285,10.8435416215
714,5.949761999999964,20.932517054999998,6.471395254,21.77319715,-2.718341231,-2.3653493525,12.706503867,93.82511902,-29.074865340000002,5.739442825499999
715,5.958095000000014,21.643177985,6.2610754965,21.78437805,0.08893977850000001,-3.0167799,10.4179801945,84.90906143000001,-23.757148745000002,10.1618905085
716,5.966428000000008,22.29710102,6.008965969,21.721191399999995,-0.9200984759999999,-2.4096307755,11.934740545,79.00548553499999,-31.52682972,4.299057841
717,5.974761000000001,22.863563534999997,5.746083498,21.694858599999996,-0.835373342,-2.110762894,8.955766439000001,68.077392575,-31.061028479999997,8.9639132015
718,5.983093999999994,23.3746109,5.4883520605000005,21.610885599999996,-0.6280729475,-3.377233267,10.775765419999999,62.055330275,-33.01479435,2.9048717615
719,5.991426999999987,23.812603,5.2052843575,21.54978945,-2.397770524,-2.4061014655,10.4492100465,53.01621246,-34.77835083,6.6622614865
720,5.999759999999981,24.204578400000003,4.9598891735,21.47800065,-0.6653415115,-1.152467489,13.7227997795,47.558023455,-31.044686315,4.067181766
721,6.008092999999974,24.551204679999998,4.661767006,21.387279500000005,-2.278826892,-2.8042668104999997,10.8203897475,42.273504255,-37.78774643,4.6485995055
722,6.016425999999967,24.84566307,4.453600526,21.3325081,-1.142411858,-2.175707102,11.0549097035,35.637125014999995,-26.088736535,4.3959542515
723,6.024759000000017,25.088956834999998,4.19094944,21.248348200000002,-3.0677380564999996,-1.8765948415000002,13.1166818125,29.72080803,-33.549089429999995,3.9370490315
724,6.033092000000011,25.30835152,4.0238012075,21.229701999999996,-1.4188563825,-0.9688208105,10.502089502,26.260905264999998,-19.72331333,6.4988632205000005
725,6.041425000000004,25.496985435,3.8286533355,21.170860300000008,-2.804096818,-2.4386770725,10.9662377815,22.903970715,-24.89774418,3.448786974
726,6.049757999999997,25.651370999999997,3.6866339445,21.174903900000004,-1.754411876,-1.2881156805,10.8004808405,18.24923515,-15.8130641,7.71766901
727,6.05809099999999,25.76184559,3.531423211,21.138145449999996,-1.8086467979999998,-0.8831772800000001,13.7599988,13.32490206,-19.41456032,3.877958417
728,6.066423999999984,25.87213516,3.4155076745,21.162872349999994,-2.9599778655,-2.030314267,11.048337459999999,12.8111305235,-11.8954725255,8.6177837845
729,6.074756999999977,25.952098845000002,3.324354649,21.150150250000003,-0.838153303,-1.3604570625,10.577755453,9.484741687500001,-11.227700235,3.1763387915
730,6.08308999999997,26.01760197,3.2693276405000002,21.188282,-3.8891019819999997,-0.824918002,11.0138556955,7.365035057,-4.613425434,6.859473705499999
731,6.091422999999963,26.080995559999998,3.2220048905,21.19947055,0.09356921900000004,-0.441913791,11.1772022235,7.3201332095,-5.236736089,3.465805262
732,6.0997560000000135,26.126193045,3.2323203085000003,21.2384987,-4.354207754,-0.776060015,9.953696726,4.9372081755,2.4791564944999998,3.494371444
733,6.108089000000007,26.16787815,3.236946821,21.26864245,0.03255741300000001,-0.9899170995,12.241654871,4.600342512,1.3657766355,2.7643910945
734,6.116422,26.192023275,3.283236742,21.30817795,-4.2518068555,-0.05675500650000001,10.5756301905,2.364558756,6.400209545,1.6723659634999999
735,6.124754999999993,26.193296435,3.3312116859999996,21.36003875,0.6207644939999999,-1.476104617,12.833019735,-0.35832394100000003,7.184762222,2.8037990925
736,6.1330879999999866,26.19675255,3.396496892,21.39494705,-4.691384792,0.0766278465,10.0613193525,-0.10617148899999984,8.166248021,0.09295439699999974
737,6.14142099999998,26.178434369999998,3.4680479765000003,21.480274200000004,1.3321763875000001,-0.4376857875,11.34741974,-2.97814858,11.491131304500001,5.1526181695
738,6.149753999999973,26.17332077,3.5521160365,21.49980925,-5.143727183,-0.30803012849999994,12.667901515,-0.984201431,9.366185905,-2.5716697275000002
739,6.158086999999966,26.183143615,3.6427230835,21.607654600000004,0.858748198,-0.614188105,8.472745657,0.16795873649999993,14.7299428,6.5615227224999995
740,6.166420000000016,26.186409949999998,3.751006007,21.627746600000002,-3.6538848285,-0.05938983699999999,10.709546091,0.013761252499999987,12.00780058,-3.7829157115000003
741,6.17475300000001,26.212311745,3.84675169,21.75009155,0.18531870849999987,-0.30423975000000003,11.018782136999999,1.9469578115,16.051919935,7.8397004605
742,6.183086000000003,26.256890294999998,3.978718281,21.766239150000004,-3.2997773885,0.604126126,9.6889841575,4.98586303,14.351379396999999,-5.462199211
743,6.191418999999996,26.311797140000003,4.0902986525,21.8953209,0.9256255775000001,0.293736115,10.8950443255,5.2803064585,18.122405049999998,7.6925024985
744,6.1997519999999895,26.403206824999998,4.2199946645,21.906246200000005,-3.0334613325,0.5264228135,10.050549031,10.6923780425,13.80881214,-5.9568039175
745,6.208084999999983,26.50872612,4.344162583499999,22.020416300000008,-1.123883843,0.622042835,9.970649002,11.395401477,18.69872761,5.360799789
746,6.216417999999976,26.609821320000002,4.464649916,22.041900650000002,-0.5969171820000001,-0.980807662,11.496910093499999,11.76042652,13.361764430000001,-4.3905042405
747,6.224750999999969,26.728532795,4.570578814,22.132553099999996,-2.1593033669999997,-0.313392401,9.7388753885,13.15547514,15.498627665,3.7504246460000004
748,6.2330839999999625,26.828046795,4.6920697685,22.16502765,-0.7679433675,-1.2008648515,10.0423464775,11.447978497,14.052804945,-3.3094174865
749,6.241417000000013,26.922112464999998,4.788438558499999,22.22930145,-1.146855712,0.35434895749999995,11.567502495,10.409499647,13.06159878,1.392908692
750,6.249750000000006,27.016165735,4.887025595,22.262409199999993,-0.6793851849999999,-0.869916931,11.1420702955,10.7876257875,11.61354351,-2.075291395
751,6.258082999999999,27.116475105,4.9956514835,22.295913650000003,-2.087576866,0.5993380545,10.298129561,11.433448315,12.700149059000001,-2.5977834465000003
752,6.266415999999992,27.19893742,5.085080147,22.34448245,-0.5420557260000001,-1.3475481870000001,9.941354753,9.217047213499999,11.481435299000001,0.049294710499999894
753,6.274748999999986,27.27969265,5.1770524975,22.362854000000006,-1.6202943925,0.7191192505,11.52524042,9.2615394595,10.090825795999999,-3.3299471735
754,6.283081999999979,27.35177803,5.2688148025,22.407543200000006,-2.05500865,-0.04317230750000001,7.8385751265,7.978444576,11.50501299,-0.5502964855
755,6.291414999999972,27.410458565,5.365611315000001,22.432525600000005,-1.3177603785,-1.191295236,12.540100099,6.5646157265,10.9612612735,-2.9257159230000003
756,6.2997479999999655,27.460520745,5.450940847,22.457119000000006,-1.6853302715,0.294693172,13.482071399999999,5.523480296,9.7126503005,-2.346610129
757,6.308081000000016,27.50936222,5.569607019499999,22.487777749999992,-1.7772492765,-0.9775316195,10.825100422,5.3049906490000005,13.598317625,-3.5553590054999997
758,6.316414000000009,27.558134074999998,5.6812860965,22.51172255,-1.968981087,-0.1803078055,9.512887955,5.374578296999999,12.481467725,-3.8866729735
759,6.324747000000002,27.58905697,5.8137624265,22.55359645,-1.7402966025,-0.2330258785,8.927719592,2.987958863,15.67808628,-3.159253955
760,6.333079999999995,27.622257235,5.951709032,22.6052246,-1.822136402,-0.324607879,10.0035896315,3.1886210439999996,16.81083918,-2.4245541245
761,6.341412999999989,27.66987419,6.1120057105,22.642208100000005,-2.353922576,0.24061625450000002,11.501931195000001,5.0166840555,18.359912395000002,-5.2489151954999995
762,6.349745999999982,27.70653343,6.281074761999999,22.737819650000006,-0.9526033774999999,-0.01838198300000002,13.43072081,2.9863584640000003,22.521306995,0.40628039800000015
