,time,Euler_X,Euler_Y,Euler_Z,Acc_X,Acc_Y,Acc_Z,Gyr_X,Gyr_Y,Gyr_Z
0,0.0,-3.8665355445,4.1130088565000005,-137.0816765,-1.646742433,-1.1838195919999999,9.700020789,-42.39499283,-1.0681983385,-1.47675249
1,0.0083329999999932,-4.219704628000001,4.1770883795,-137.09630965,-1.4043437239999998,-0.020251058000000016,8.7729740135,-43.44226837,7.580891965,-1.626763061
2,0.0166659999999865,-4.613967538,4.204327941,-137.1140976,-1.258850768,-0.8688774255,10.339415075,-48.308506015,3.1699279545000003,-2.3933221700000002
3,0.0249989999999797,-5.0142083164999995,4.238762378500001,-137.1393776,-0.2893969115,-1.0276572105,9.6775364875,-49.00782013,4.1674647904999995,-3.0790556075
4,0.033331999999973,-5.430049658,4.3048291205,-137.17169185,-2.7720504995,-0.099684626,11.998774525,-50.76443291,7.9826946255,-3.5648692845000003
5,0.0416650000000231,-5.858807563999999,4.359086752,-137.2024002,-0.271972388,-0.37923419449999995,7.7113640310000005,-52.362770080000004,6.630313156500001,-3.451821208
6,0.0499980000000164,-6.310456991500001,4.4449090955,-137.24047855,-1.3167065235,-0.5804479865000001,9.8893203735,-55.00236702,10.464763401,-3.9148391485000005
7,0.0583310000000096,-6.7451598645,4.4961744545,-137.27599715,-0.774486456,-0.021831810499999993,7.2718987465,-53.017812725,6.381495595,-3.971318245
8,0.0666640000000029,-7.193219662,4.6198675635,-137.32106015,-1.9111959340000002,0.215981893,7.966238021500001,-54.512537005,15.131382944999999,-3.9371495249999997
9,0.0749969999999962,-7.635565281,4.723686337,-137.3623886,-0.9832691,-0.1345639005,10.293404102,-53.843212125,12.768179895,-3.7880864145000004
10,0.0833299999999894,-8.040512562,4.859286547,-137.40571975,-1.096288562,1.0753554699999999,7.4921040535,-49.348682405,16.57101488,-3.268653274
11,0.0916629999999827,-8.4129641055,4.998208522500001,-137.44710924999998,-0.9467241055000001,0.9275747535000001,9.453119755,-45.415819165,16.974934575,-3.0406976940000003
12,0.0999959999999759,-8.743071079,5.137919426,-137.4816017,-0.6705113945000001,0.697496891,8.742956877000001,-40.447492600000004,16.941655635,-1.9351971744999998
13,0.1083289999999692,-9.039994716999999,5.2871477605,-137.5146599,-0.7652368545,0.960782513,11.64781713,-36.40422058,18.063073154999998,-1.670371354
14,0.1166620000000193,-9.269377708,5.410257101,-137.53587339999999,-0.39635326899999995,1.3527555914999998,7.0233736040000005,-28.498307224999998,14.740520003,-0.518669635
15,0.1249950000000126,-9.488823892,5.536346197,-137.5604973,-0.506424971,0.1332375295,8.076217413,-27.18097019,15.170495747,-0.9925209585
16,0.1333280000000059,-9.6713418965,5.6489555835,-137.57888795,-0.46834173799999995,-0.40173986549999996,7.5420832635,-22.910692215,13.443130018000002,-0.254074484
17,0.1416609999999991,-9.8683247545,5.756763935,-137.60297775,-0.945947349,-0.156803807,10.6252884865,-24.479966165,13.0025023225,-1.2007837145
18,0.1499939999999924,-10.043931961,5.8622272015,-137.62485125,-0.19519037000000006,-0.4995147215,8.246360302,-22.0372982,12.6693991415,-0.7139270455
19,0.1583269999999856,-10.2239212965,5.9383525850000005,-137.64958575,-0.7645100355000001,-1.0194342135,8.602298498,-22.419258120000002,9.278373839,-1.874335766
20,0.1666599999999789,-10.429093363,6.02366066,-137.67821885,0.060311793999999974,-0.86083132,11.507636548,-25.486859324999998,10.4383208735,-1.8912796674999999
21,0.1749929999999722,-10.642843724999999,6.0740413665,-137.7101021,-0.5128744839999999,-0.7805265785,11.8100895895,-26.40637207,6.4135146139999994,-3.133122325
22,0.1833260000000223,-10.848357674999999,6.116405487,-137.74861905,-0.270736493,-0.41501027349999997,10.561446191,-25.358236315,5.5983662535,-4.0257019995
23,0.1916590000000155,-11.0519681,6.0926675795000005,-137.7777519,0.7158691290000001,-0.491334073,8.643570423,-25.22268295,-2.3683191835,-4.415320158
24,0.1999920000000088,-11.2683444,6.0484564305,-137.80041505,0.814766608,-1.203514218,8.3928346635,-26.8590517,-4.9374356565,-4.13925004
25,0.2083250000000021,-11.5103755,5.9615356925,-137.8147583,-0.17438454899999997,-0.7995701580000001,11.0316691425,-30.02914333,-10.112560271500001,-4.2185146805
26,0.2166579999999953,-11.771091465000001,5.8567540645000005,-137.82681655,-0.8718144895,-0.9421779809999999,13.676011085,-32.324033740000004,-12.280873298,-4.38024354
27,0.2249909999999886,-12.028280735,5.7504644395,-137.8392601,-0.8716342115,-0.505735647,11.890340805000001,-31.895729064999998,-12.398967982999999,-4.5101594925
28,0.2333239999999818,-12.284925935,5.636080742,-137.84851835,-1.4693068710000001,-0.10654808600000001,8.9669215685,-31.862503055,-13.450332163999999,-4.414797306
29,0.2416569999999751,-12.555113315,5.523432016,-137.85440065,-0.666219473,-0.8843718170000001,9.551901818,-33.51660919,-13.276231285000001,-4.0743969675
30,0.2499899999999684,-12.830338955,5.4003582,-137.8520203,-0.540596023,-0.5456791670000001,11.353825570000001,-34.259363175000004,-14.734376430000001,-3.340958476
31,0.2583230000000185,-13.11668968,5.292649269,-137.8507233,-0.9820055665,-0.389299065,11.747831345,-35.54109955,-12.85370064,-3.2377843855
32,0.2666560000000118,-13.40713215,5.183238268,-137.8435173,-1.9578126664999997,-0.805161208,12.090350149999999,-36.127735134999995,-13.244382380000001,-2.563962579
33,0.274989000000005,-13.703089235,5.097899914,-137.83600235,-1.309810773,-0.4969524445,11.5841040635,-36.764886855,-10.3950123785,-1.9835816025
34,0.2833219999999983,-14.00256443,5.0125620365,-137.8298149,-0.800517946,-0.4610469435,8.6198661305,-37.221990585,-10.37974739,-2.1026242374999997
35,0.2916549999999915,-14.32489681,4.9331879615,-137.8228607,-1.1654164195,-0.971519083,10.23753977,-39.879886625,-9.671144901,-2.0863594415
36,0.2999879999999848,-14.641427515,4.849622011,-137.8140755,-0.9752881675,-0.6162056924999999,10.464918377,-39.33967018,-10.227379726,-1.7620185019999999
37,0.3083209999999781,-14.982492445,4.780758023500001,-137.812767,-1.7294533029999999,-0.7703077045,9.765341757,-42.072946545,-8.263435245,-2.502860546
38,0.3166539999999713,-15.334577565,4.7153708935,-137.81179425,-0.4061073285,-0.6464417650000001,11.5971498505,-43.496183395,-7.8648002125000005,-2.2917351125
39,0.3249870000000214,-15.69527483,4.657822728,-137.8115921,-1.3752406835000002,-0.530992642,9.1543424135,-44.454696655,-6.8893067835,-2.2800296545
40,0.3333200000000147,-16.06659174,4.59248209,-137.80719755,-1.5362071395,-0.664240271,11.775915144999999,-45.79795265,-7.958461048,-2.0717855695000003
41,0.341653000000008,-16.453944685,4.573070526,-137.80727385,-1.5224119275,-0.8646039965000001,10.126879691000001,-47.680091860000005,-2.465549231,-1.0250710845
42,0.3499860000000012,-16.865465165,4.5386604075,-137.8112831,-0.9962447879999998,-0.9082574845,8.198238013000001,-50.559926985000004,-4.0787905454999995,-2.0887949465
43,0.3583189999999945,-17.31233692,4.5496228935,-137.83073425,-1.7109419405,-0.7769223455,10.517191410999999,-54.613750460000006,1.7107986805,-2.2743194105
44,0.3666519999999877,-17.76418209,4.527870059,-137.8358307,-0.7925560475,-1.3540640174999998,8.38337612,-55.40953064,-2.585616447,-1.7089608315
45,0.374984999999981,-18.22776604,4.5726293325,-137.8541069,-2.202379167,0.6034887585,11.851099489500001,-56.60188293,5.5534130335,-0.9386234875
46,0.3833179999999743,-18.67537498,4.585436344,-137.86712645,-0.3005542755,0.034217432500000006,6.3802664280000005,-54.87315941,1.6860547064999998,-1.2662557195
47,0.3916510000000244,-19.124517439999998,4.655354619000001,-137.90599824999998,-2.547171414,0.5030170825,12.7593009465,-54.65568161,9.2182973605,-2.2418409585
48,0.3999840000000176,-19.54855537,4.69756484,-137.9305649,-0.427980963,0.595095798,9.6099185945,-51.917715075000004,5.4581577795000005,-1.3473377825
49,0.4083170000000109,-19.941445350000002,4.772778511,-137.9675026,-1.5461025835,0.8455880585,11.508970259000002,-47.912244799999996,9.7683560825,-1.6895440515
50,0.4166500000000042,-20.30788803,4.8187685015,-137.99635315,0.246769771,0.18527410899999996,7.3698420525,-44.97611809,6.0836405775,-1.603505373
51,0.4249829999999974,-20.664282800000002,4.8862402435,-138.0384903,-1.98569566,1.2954286035,11.610850334999999,-43.469779965,9.1301044955,-2.4657458065
52,0.4333159999999907,-20.967959405000002,4.955017805500001,-138.07743455000002,-0.41638264050000007,1.0599587629999998,8.872717859,-37.328533175000004,9.0668176995,-1.6722533405
53,0.4416489999999839,-21.23888111,5.028124094,-138.11292265,-1.2166892585,0.324699387,11.341197966,-33.255050659999995,9.4845368875,-1.3825554850000001
54,0.4499819999999772,-21.455527304999997,5.094772339,-138.14177705,-0.8594850155,1.260621846,8.7244460605,-27.001074789999997,8.4087328295,-0.5538826585000001
55,0.4583149999999705,-21.647485735,5.171830416000001,-138.18141935,-1.3256563245000001,0.859609373,10.797129633499999,-23.754838945,10.1200778505,-1.539480537
56,0.4666480000000206,-21.796692845000003,5.2477011685,-138.2175865,-0.931401432,0.48543669300000003,9.09307003,-18.77936554,9.746604202,-0.9652346224999999
57,0.4749810000000138,-21.911211015,5.322985649,-138.25883865,-0.8010500965,1.3039893509999998,11.63990641,-14.453078745,10.005396843,-1.7148860394999998
58,0.4833140000000071,-21.97376156,5.399971247,-138.2976036,-1.0289472785,0.660971567,9.3917720295,-8.338267325,10.009979964,-1.2258142975000001
59,0.4916470000000004,-22.01013279,5.4794921875,-138.34102635,-1.078011811,0.46254531649999997,10.5063400245,-5.0290231705,10.577540157,-1.7559071929999999
60,0.4999799999999936,-22.01652813,5.5793106555000005,-138.3912392,-1.292816222,0.654575024,9.7752065655,-1.4926373065,13.025970459,-1.3192674075
61,0.5083129999999869,-22.000852585,5.674259663000001,-138.4371834,-1.1354601679999998,0.1358301975,12.308465958500001,1.2836126385,12.399150373000001,-1.3516121655
62,0.5166459999999802,-21.937434195,5.7800359725,-138.4834938,-0.197421342,0.99347651,8.781402110999998,6.866179466,13.5107574465,-0.6536304055
63,0.5249789999999734,-21.84650326,5.8739078045,-138.5221939,-1.4212923385,0.961681187,9.871093272,10.22597265,11.958622216999998,-0.5998021659999999
64,0.5333120000000235,-21.72489071,6.0039715765,-138.571785,-1.366759695,0.9162073735,11.8157839765,13.907473089,16.35308361,0.03228086250000006
65,0.5416450000000168,-21.56716156,6.1160526275,-138.607872,-0.995449647,0.618413687,10.559632303499999,18.225830555,13.868180275,0.4642134605
66,0.5499780000000101,-21.360392570000002,6.254276514000001,-138.64800259999998,-0.645984739,1.187431276,10.657215597499999,24.045355795,16.84664917,1.3282721935000001
67,0.5583110000000033,-21.112607955,6.3811233045,-138.67344285000001,-0.6159434020000001,0.788748324,8.8175551895,28.87490177,15.068791390000001,2.230604589
68,0.5666439999999966,-20.85033035,6.517437935,-138.7048531,-0.8113277255,0.5595722645,12.26002407,30.630060195,16.270345685499997,2.0595145820000003
69,0.5749769999999899,-20.557374955,6.6409938335,-138.72021865,-0.438342839,0.5504873880000001,10.563865187000001,34.16422081,14.2954130175,3.083778143
70,0.5833099999999831,-20.231588360000003,6.760002613499999,-138.7344818,-1.2160951384999998,0.30919780550000003,11.7057013525,38.01234436,13.6286368345,3.1115443110000003
71,0.5916429999999764,-19.890332225,6.868598223,-138.73574445,0.34979200349999995,-0.253237601,10.372752191,39.79582405,12.06790972,3.8573690650000003
72,0.5999759999999696,-19.537652015,6.955222845,-138.7348404,-0.819233641,-0.31455259049999995,9.221379043999999,40.971481319999995,9.409531595499999,3.3786126375
73,0.6083090000000198,-19.195867540000002,7.0432264804999996,-138.7314186,-0.4691538885,-0.753533423,12.675495145,39.8220253,9.5957093245,3.4022541045
74,0.616642000000013,-18.854808805,7.1067147255,-138.72307585,-0.513432518,-0.7353034615,10.638762952,39.44150734,6.545060873,3.211517334
75,0.6249750000000063,-18.51028919,7.172088385,-138.70746615000002,-0.762290776,-0.659354627,9.817773821500001,39.99110031,6.5968798390000005,3.778962612
76,0.6333079999999995,-18.1683588,7.229076147000001,-138.68637465,-0.482375197,-0.740903929,9.1389827735,39.342163084999996,5.3654984235,4.3468568325
77,0.6416409999999928,-17.83556652,7.3055706025,-138.6618996,-1.510428846,-0.8597596585,9.0517237195,38.41858673,7.593055487000001,5.1384146215
78,0.6499739999999861,-17.52273941,7.382850885,-138.6387901,-0.5924322305,-0.603258863,11.29338169,35.8237133,7.669614794,5.2303819654999995
79,0.6583069999999793,-17.216298100000003,7.496814966500001,-138.61756135000002,-2.1340223555,-0.37851328399999995,10.828015327,35.286520005,12.06191063,6.0371928215
80,0.6666399999999726,-16.90859413,7.610563040000001,-138.5932388,-1.3163800215,-0.9767460525,10.201413153499999,35.18807411,11.872827528,6.5466475485
81,0.6749730000000227,-16.621692654999997,7.7818555835000005,-138.57463835,-1.6660958605,-0.8686513005000001,8.838393688,32.96582985,18.80991411,7.5955395695000005
82,0.683306000000016,-16.349449155,7.938709736,-138.55714035,-0.6567422745,-0.82123363,8.416494608499999,31.00665188,17.142996785,7.10886693
83,0.6916390000000092,-16.106811524999998,8.1512408255,-138.55384065,-2.2745715079999997,-1.082361579,11.283255814,27.917373655,24.145519255,7.017438173
84,0.6999720000000025,-15.864278795,8.3506953715,-138.5462494,-0.6683318364999999,-0.962124854,9.140169146,27.578531265000002,22.442656515,7.274617434
85,0.7083049999999957,-15.636471745000001,8.623541832,-138.54304125,-2.5333362819999996,-0.28262737400000004,10.433799266000001,26.152364730000002,31.170752524999997,8.759786842499999
86,0.716637999999989,-15.40720606,8.888736248,-138.53375245,0.061473965500000005,-0.767718881,7.166355848,25.931505205,30.060811039999997,9.385850904
87,0.7249709999999823,-15.18817377,9.190972805,-138.53245925000002,-2.4690853955,-0.10789817600000001,11.255984306,25.125737190000002,34.7109251,9.208563329
88,0.7333039999999755,-14.96834612,9.505289077499999,-138.53221135,-0.7721486545,-0.3873806,10.9804034245,24.980559345,36.11098099,9.60786581
89,0.7416369999999688,-14.719786169999999,9.8570618645,-138.52612305,-2.3170517385,0.5484017880000001,10.90005231,28.561319349999998,40.384672165,11.029577734
90,0.7499700000000189,-14.45873499,10.238015652000001,-138.52150345,-0.7746831624999999,-0.04318582999999998,8.6328754435,29.846781735,43.81121254,11.758424285
91,0.7583030000000122,-14.174663545,10.625808714,-138.5137291,-1.9642205835,0.59162955,9.1405997295,32.751426695,44.637451175,11.931297775
92,0.7666360000000054,-13.874444485,11.062705520000002,-138.51290515,-1.503757358,-0.059275411,10.0762581845,34.650543215,50.55853653,12.45200539
93,0.7749689999999987,-13.53031635,11.503299235,-138.4997749,-1.2691809535,0.5787866115,9.979776618999999,39.81588173,50.77529526,13.56252098
94,0.783301999999992,-13.17100954,11.98392439,-138.496994,-1.198598266,0.1628639255,9.231194496,41.68603325,55.767034530000004,13.269180299999999
95,0.7916349999999852,-12.76054144,12.45728397,-138.48069765,-1.860846877,0.525537983,10.0712699905,47.670375825,54.700944899999996,14.144953730000001
96,0.7999679999999785,-12.332477095,12.977033615,-138.4742737,-1.839735985,0.2729847055,9.0858449955,49.850229264999996,60.469192505,13.82386112
97,0.8083009999999717,-11.867747309999999,13.4895916,-138.4503746,-1.0380623345,-0.0006600130000000001,9.420214653,53.950181959999995,59.32882881,15.154455665
98,0.8166340000000218,-11.39934063,14.031474110000001,-138.4364624,-0.893750906,0.173883244,10.013051033,54.453992845,63.126134875,14.2140193
99,0.8249670000000151,-10.895487785,14.546754835,-138.41534045,-1.510405451,-0.06551682949999998,10.085611105,58.67456627,59.96673012,13.891699315
100,0.8333000000000084,-10.3908639,15.111646655000001,-138.3982277,-1.4866441485,-0.5173585709999999,10.345195055,58.68249702,66.01748276,13.97632694
101,0.8416330000000016,-9.8731045725,15.63386822,-138.3647804,-0.6316836180000001,-0.643471718,9.904719354000001,59.902450564999995,60.78426933,14.360473635
102,0.8499659999999949,-9.365854263,16.192914965,-138.33849715,-0.997882962,-0.19475794600000002,11.291415215,58.663665775,65.406799315,13.683487894999999
103,0.8582989999999882,-8.835954666500001,16.693479535,-138.29761885,-0.116606176,-0.692845851,7.7723112125,61.031814575,58.34293175,13.67428541
104,0.8666319999999814,-8.3213605885,17.23321533,-138.2579422,-1.7440949085000002,-0.347511321,10.997602939,59.02717209,63.138103485,13.638711455
105,0.8749649999999747,-7.806752443500001,17.729656220000003,-138.20819855,-0.678159237,-0.9789312480000001,9.9099607465,58.783596035,57.96232605,13.521503925000001
106,0.8832979999999679,-7.297825336500001,18.255607605,-138.16444015,-1.1047803465,-0.24886207300000002,11.235720635,58.10825348,61.686977385000006,12.731675150000001
107,0.891631000000018,-6.7942540645000005,18.760793685000003,-138.10751725,-1.047636576,-0.705205828,8.378669739,57.099113465,59.144485474999996,13.39166498
108,0.8999640000000113,-6.2841238975,19.25041294,-138.0472374,0.09729611850000008,-0.998139441,9.312180040000001,57.50771904,57.37591553,12.963389875
109,0.9082970000000046,-5.8156809805,19.75412655,-137.9878502,-1.6056754364999999,-1.24866724,12.41258192,52.669145584999995,59.176452635000004,12.56683731
110,0.9166299999999978,-5.3423204425,20.21626568,-137.9242973,-0.41762483149999996,-0.75434481,10.7579896455,52.843120575,54.28473663,12.011268614999999
111,0.9249629999999912,-4.8993611335,20.707759860000003,-137.861969,-1.1545770169999998,-1.6105537415,10.211796284999998,49.394275664999995,57.8923378,11.752283095
112,0.9332959999999844,-4.463039398499999,21.123126985,-137.78845595,0.49206441650000005,-1.102231726,8.3694295885,47.845237729999994,48.797332765,11.771698950000001
113,0.9416289999999776,-4.0706261395,21.554617880000002,-137.72120665,-1.0382430555,-0.9924247565,9.576242445,42.99126244,50.85190773,10.857675075
114,0.9499619999999708,-3.7117580175000002,21.96006298,-137.65180585,-1.187638208,-1.9308219555,12.5619401945,38.625053405,47.812088015,10.505662916
115,0.958295000000021,-3.3451204299999997,22.369571685,-137.5844078,-0.6046153905,-0.630654216,10.9692490095,39.773397445,48.362039565,10.029557706
116,0.9666280000000144,-2.999313116,22.761831285,-137.5229416,-1.0891849100000002,-1.159716636,8.1724145415,37.26783371,46.41787529,8.9959778785
117,0.9749610000000076,-2.6708809139999996,23.11487675,-137.4569397,0.08324037499999999,-1.5622150895,10.6319003085,35.153133395,41.72783852,8.910447120499999
118,0.9832940000000008,-2.3601497415,23.49002266,-137.38819884999998,-1.036852658,-0.8599478005,11.690951824999999,32.630370140000004,44.440588000000005,9.156434537
119,0.991626999999994,-2.067656338,23.802627559999998,-137.31851195000002,-0.3965533375,-1.30545342,10.7757205985,30.564352035,36.968105315,8.6062350265
120,0.9999599999999872,-1.7962480785,24.12723541,-137.25341035,-0.6825163365000001,-0.9340800045,12.097327711,28.004110335,38.49819374,8.0528757575
121,1.0082929999999806,-1.5352995395,24.401151655,-137.18740845,-0.46558731750000004,-1.262811452,9.23626685,26.888713835,32.421345715,7.6828615665
122,1.0166259999999738,-1.2844989894999999,24.661956789999998,-137.12567905,-0.47553277000000005,-1.052421838,8.697634697,25.628987315,30.940351485,7.0783758165
123,1.024959000000024,-1.0630830825,24.889853475,-137.0685005,-0.266638279,-1.419753492,9.943138362,22.520621300000002,26.990015985,6.3046686649999995
124,1.0332920000000172,-0.849932343,25.090023045,-137.02199175,-0.4725137355,-0.4800472555,10.745071410000001,21.816022875,23.76009464,5.0377998354999995
125,1.0416250000000105,-0.665638536,25.277855875,-136.98540495,-0.860630773,-1.190337628,10.6807279565,19.088716509999998,22.258812905,3.7722623344999997
126,1.0499580000000035,-0.474943146,25.412146565,-136.95638655,0.4444740865,-0.9993537665000001,11.20211363,20.043263435,15.920842175,2.7458218335
127,1.058290999999997,-0.300573755,25.55539608,-136.9342804,-1.2559159995,-0.33275437350000003,11.038777828499999,18.626859664999998,16.944835665,2.032772422
128,1.0666239999999902,-0.119009141,25.647892,-136.90911485,-1.54263407,-0.7717611415000001,11.2328596115,19.156279565,10.9306104165,2.1931813955
129,1.0749569999999835,0.07769137950000002,25.76891422,-136.87351990000002,-0.510460183,-0.5605408585,10.5003461835,20.613054275,14.289934160000001,3.395950258
130,1.0832899999999768,0.288456168,25.844343185,-136.83174135000002,-0.6004225615,-0.29157415,8.0584292435,21.70500183,8.915512087,4.045245409
131,1.09162299999997,0.493534133,25.922392844999997,-136.78561015,-0.9428096715000001,-0.523294941,10.668943884499999,21.051402095,9.1682362565,4.435171008
132,1.09995600000002,0.7112358805,25.98524666,-136.73277665,-1.1498181969999999,-0.5727703175000001,10.819054604000002,21.95038414,7.458267209500001,5.202867985
133,1.1082890000000134,0.9526960250000001,26.071887015,-136.67119215,-1.5003446045,-0.011686712500000015,10.882899282,24.594894410000002,10.2596993465,6.024318695
134,1.1166220000000069,1.200633168,26.137188915000003,-136.601696,-1.2314501105,-0.684289664,10.292654038,24.68310833,7.838959813500001,6.9069211485
135,1.124955,1.474494278,26.18752003,-136.52569965,-0.20218755300000002,0.079192981,9.9122042655,27.69397831,5.9993198505,7.580487728
136,1.1332879999999932,1.7454586625,26.218813895,-136.45035554999998,-0.977805674,-1.094429672,9.7600221655,27.19165802,3.8487284164999997,7.415070772
137,1.1416209999999865,2.0340691805,26.237030985,-136.3760185,-0.5816688165,-0.2823887315,12.363308429,29.535505295,2.21961081,7.4628031255
138,1.1499539999999795,2.3228271009999997,26.23115921,-136.31552125,-0.992926177,-0.2074428275,10.661026477,30.02490425,-0.5757635829999999,6.116351366
139,1.158286999999973,2.6402560475,26.20287323,-136.2592659,-0.5149000435,-0.336942447,9.411037446,33.963050845,-3.3590478894999998,5.71643734
140,1.166620000000023,2.9738504885,26.148989675,-136.1993866,0.003457323000000012,-0.10641580850000001,7.432660341,35.47830582,-6.2565400605,6.332870722
141,1.1749530000000163,3.326920867,26.071313855,-136.13711925,-0.3616381285,-0.24331308899999998,9.108745335,37.924514775,-9.168436529500001,6.729906081999999
142,1.1832860000000096,3.688225627,25.99179077,-136.0713768,-1.3109931049999999,-0.4124187235,12.933086872,38.489574435,-9.1970860935,7.2663326265
143,1.1916190000000029,4.0940282345,25.886108395,-135.99067305,-1.073693052,-0.05221557600000004,10.786784172499999,43.333244324999995,-12.29246044,9.092391727
144,1.199951999999996,4.5035636425,25.77465725,-135.89831925,-0.779136721,-0.7995660900000001,9.1114253995,42.93074608,-12.689304113499999,10.5166611675
145,1.2082849999999894,4.916399479,25.613284115,-135.7948494,-0.336108092,-1.1605781615,10.311968324999999,43.012355805,-18.610420225,12.273136615
146,1.2166179999999829,5.3114783765,25.456152915,-135.69767380000002,-0.7552018014999999,-0.38346681,11.1000824,40.960979465,-17.929293635,11.78878164
147,1.224950999999976,5.68959713,25.267108915,-135.59994505,-1.661860168,-1.26716654,11.95638752,39.20248032,-21.794234275,12.246432304999999
148,1.2332839999999692,6.0659663675,25.091231344999997,-135.50572590000002,-0.433484197,-0.7749806345000001,9.662353994,38.951086045,-20.02678204,11.962445735
149,1.2416170000000193,6.427931547,24.880286214999998,-135.425621,-1.6294721065,-1.2581231595,9.601915359,38.19965553,-24.44391537,10.916999820000001
150,1.2499500000000126,6.779865265,24.686844825,-135.34783935000002,-0.723019004,-0.825369142,10.6658723355,36.93250084,-22.156237599999997,10.728925225000001
151,1.2582830000000058,7.1265933515,24.46080971,-135.27897645000002,-1.4087441564999998,-0.32536350199999997,8.7600631695,37.00338173,-26.244358060000003,10.256753443000001
152,1.266615999999999,7.466235876000001,24.23425674,-135.2202835,-0.06272505249999999,-0.7830694014999999,10.603529452,36.456680295,-26.21680832,9.439592838
153,1.2749489999999923,7.789543152,23.965091705,-135.18055345,-0.311313227,-0.5523080229999999,10.6743669535,35.654741290000004,-31.663355824999996,8.1049497125
154,1.2832819999999856,8.124707699,23.6929245,-135.14521025,-0.8767794074999999,-0.21646157100000002,11.968037129999999,37.156013485,-31.865790365000002,8.0143795015
155,1.2916149999999789,8.467289448,23.39597416,-135.1051445,-1.6035533545,-0.7864122245,11.100709438500001,38.005496980000004,-34.85500431,9.002567290999998
156,1.299947999999972,8.834022522000001,23.080393790000002,-135.06283565,0.3638134595,-0.3821425065,7.878552675,40.66868973,-36.785961150000006,9.9737617985
157,1.3082810000000222,9.1742949485,22.734372139999998,-135.02199554999999,-0.929896075,-0.822609782,9.237203121,37.70453072,-40.53479481,10.427327632499999
158,1.3166140000000155,9.5227303505,22.37668705,-134.98442075,-0.664252162,-0.421108926,11.934447763000001,38.761634825,-41.7177372,10.7538986225
159,1.3249470000000088,9.8739924435,22.014546395,-134.94455715,-2.4674277305,-0.9695752415000001,10.766173365,39.15879059,-42.318738935,11.191661835
160,1.333280000000002,10.23532677,21.649903295,-134.90309910000002,-0.33475904149999997,-0.5527730024999999,10.791512491,40.181926725,-42.315113069999995,11.835311412500001
161,1.3416129999999953,10.594608780000002,21.26556015,-134.8614769,-0.837823797,-0.3488550485,7.8044955730000005,40.0952301,-44.748750685000005,12.421432975
162,1.3499459999999883,10.95213461,20.874130245,-134.83192825,-1.4255529045,-0.43838313249999994,12.2280736,40.26015472500001,-45.552202225,11.670193195
163,1.3582789999999818,11.307442185,20.490553855,-134.80046465,-1.4340932965,-0.562899336,11.32563019,40.154432295,-44.709672929999996,11.89351177
164,1.366611999999975,11.683198449999999,20.095236775,-134.77844240000002,-1.6249720454999999,-0.46365861599999997,11.584395886,42.808782575,-46.01228333,11.515897272
165,1.3749449999999683,12.075637815,19.710297585,-134.74873355,-0.7555565235000001,-0.12345966700000001,8.9421286595,44.731033325,-44.742111205,12.325538635
166,1.3832780000000184,12.472017765,19.278381345,-134.73538205,-1.0289064049999999,-0.029272019499999996,8.565389870499999,45.65917015,-50.33819961499999,12.119287015000001
167,1.3916110000000117,12.883037564999999,18.885063175,-134.70735165000002,-0.7945905329999999,-0.446250498,9.636609552,47.09292603,-45.57913208,13.001707549999999
168,1.399944000000005,13.30410528,18.434088705,-134.6934166,-1.1268771290000001,-0.6920186429999999,10.3534235935,48.632902145,-52.357961655,13.43887949
169,1.4082769999999982,13.745031834999999,18.02412605,-134.6653099,-1.1699273584999998,0.6550883055000001,11.7942092395,50.714139939999995,-47.311582564999995,14.15065813
170,1.4166099999999917,14.209320545,17.547973634999998,-134.65919875,-1.0865543485,-0.1925591825,9.0461559315,54.13758087,-55.278909685,14.11359835
171,1.4249429999999847,14.68642664,17.11914349,-134.6421814,-1.0304581675,-0.24645175049999998,10.0959234235,55.503030775,-49.57518959,14.25643015
172,1.433275999999978,15.150173185,16.639953135,-134.6462669,-1.168955028,-0.34471318850000005,12.250439165,54.43904114,-55.681213375,13.98076248
173,1.4416089999999713,15.647157665,16.1979804,-134.64395905,-1.2711728735,0.290337279,12.363650799999998,58.422620775,-51.2917614,13.875268460000001
174,1.4499420000000214,16.150850295,15.738565444999999,-134.65943145,-1.963717207,-0.3195771055,10.117683647,59.617803574999996,-53.503740315,12.998096465
175,1.4582750000000146,16.678877829999998,15.314332010000001,-134.6646881,-0.9912353755,-0.172475375,9.313652040000001,62.411424635,-49.23230171,13.343542575
176,1.466608000000008,17.179115295000003,14.857291225,-134.68284605,-1.318160854,-0.7429588735,9.9060177785,59.24734497,-53.081710815,13.528671265
177,1.4749410000000012,17.68974209,14.410889625,-134.698658,-0.8550809619999999,-0.606082425,10.0789814015,60.631328585000006,-51.885456085,13.837491515
178,1.4832739999999944,18.197411535,13.978405475,-134.71131135,-2.1346395609999997,-0.8054330945,10.291152,60.00248146,-49.812982559999995,14.201967714999999
179,1.4916069999999877,18.695406910000003,13.555826660000001,-134.71559145,-1.473421991,-1.005926788,8.683199644,58.74557686,-48.490962984999996,15.10543442
180,1.499939999999981,19.1787138,13.142889499999999,-134.72045515,-1.1903733615,-0.3366419525,11.906579975,56.843421935,-47.054136275000005,15.104726315
181,1.5082729999999742,19.65137291,12.71919775,-134.7318802,-1.305240631,-0.6059544164999999,9.2554171095,55.867807385,-48.626729965,15.164432524999999
182,1.5166060000000243,20.124677655,12.33381081,-134.73446654999998,-1.6412662265,-0.539956078,11.46617174,55.614610670000005,-43.58348656,15.02562189
183,1.5249390000000176,20.58198166,11.95257616,-134.74139405,-2.2472109795,-0.4533823505,10.4327502235,53.880025865,-43.40323067,14.670616625000001
184,1.5332720000000108,21.04642391,11.581243515,-134.74733355,-0.8736711745,0.014343825999999999,11.976837634999999,54.65220642,-41.89515686,14.750726700000001
185,1.541605000000004,21.51200199,11.216114045000001,-134.74598695,-1.745776594,-0.3060831425,8.644151924,54.661403655,-40.99950218,15.570040225
186,1.5499379999999974,21.98432827,10.851695059499999,-134.75353619999999,-0.3545078039999999,-0.499106348,8.654478789999999,55.62177849,-40.956775664999995,14.894281385
187,1.5582709999999906,22.449119565,10.5055742255,-134.7579956,-1.665890336,-0.6511553825,10.305739642999999,54.692739489999994,-38.877485275,14.739759445
188,1.566603999999984,22.90923977,10.1517791735,-134.77396395,-1.5550305844999999,-0.7145686,12.368828775,54.322750095,-39.876693724999996,14.218612194999999
189,1.5749369999999772,23.380791664999997,9.8279166195,-134.78211975,-1.2253210545,-0.23688727600000004,9.780921938,55.604911799999996,-36.339881895000005,13.923288345
190,1.5832699999999704,23.837041855000002,9.507796763,-134.8054886,-1.762510061,-0.3532808275,9.7804465305,53.95935822,-36.31745338,12.343226905
191,1.5916030000000203,24.28186989,9.2075154805,-134.82616045,-0.8179079595000001,-0.843699425,10.186733005499999,52.661432265,-34.12653446,11.99743128
192,1.5999360000000138,24.709338185,8.895077942499999,-134.85308455,-1.8468385340000002,-1.024941087,11.644524097000001,50.556051255,-35.454245565,12.124693870000002
193,1.608269000000007,25.137911795,8.598209143,-134.87198254999998,0.177123075,-0.721525177,10.5126600255,50.6722641,-33.475118635,12.533382894999999
194,1.6166020000000003,25.525260924999998,8.288715124,-134.90206905,-2.0078389045,-1.3036364615,10.2374458305,45.74367714,-35.100639345000005,12.149573325
195,1.6249349999999936,25.887681004999997,7.978667259,-134.93505095,0.06036242849999998,-1.1026164,11.937377929,42.929553985,-35.44938278,12.151453494999998
196,1.6332679999999868,26.21150875,7.667569399,-134.9696045,-2.0983831879999997,-1.3933595045,10.200573445,38.204042435,-35.348202705,12.197783950000002
197,1.64160099999998,26.51850128,7.338214636,-135.02180865,0.6158352345,-1.4979951085,10.1240572945,36.471666334999995,-38.39912033,11.499144555
198,1.6499339999999734,26.789485935000002,7.015295267,-135.07843015,-1.4991493820000001,-1.1026927235000001,9.326409818,32.196139335,-37.68691063,10.809346676
199,1.6582670000000237,27.0166893,6.6695234775,-135.1662788,-0.310092449,-1.1593865155,12.23247385,27.3045187,-41.97271538,8.928579806999998
200,1.6666000000000167,27.23524475,6.3549230095,-135.2359543,-1.869925529,-0.70831728,13.2588925385,26.058153155,-37.40218353,9.3234710675
201,1.67493300000001,27.427809715000002,6.009248256499999,-135.33649445,-0.4475369455,-1.0683957335,10.0356011385,23.209965705000002,-42.590480805,7.886690616999999
202,1.6832660000000033,27.594010355,5.677122593,-135.4344444,-1.2755582335,-0.635959342,12.8296175015,19.93370056,-40.753541944999995,7.518470526
203,1.6915989999999963,27.73103523,5.322757006,-135.5512619,-0.618991977,-1.0187444385,9.6661195745,16.700336455,-44.374872205,6.9343762395
204,1.6999319999999898,27.86491108,4.9860658645,-135.66409679999998,-1.852163255,-1.0463685095000002,11.68897057,16.03358173,-42.006313325,6.4185934065
205,1.708264999999983,27.956954005,4.6595947745,-135.78122330000002,-0.5492371025,-0.7302435935,11.800041677500001,11.13902092,-41.40927124,5.511845827
206,1.7165979999999763,28.036595345000002,4.3217908145,-135.91307065,-1.6257156125,-0.6409045105,11.640925406000001,9.597990512500001,-43.152477265,4.669534087
207,1.7249309999999696,28.10229492,4.0305266379999996,-136.01751705,-1.8111395534999999,-0.489705056,12.455922601000001,7.6762759685,-36.968164445,4.9271351095
208,1.7332640000000197,28.15178585,3.701339483,-136.1486931,-0.3336585164999999,-1.097187728,8.3216426365,5.849263668500001,-42.198051449999994,4.357202216999999
209,1.741597000000013,28.185508730000002,3.4291648865,-136.2576828,-2.572150886,-0.7481922809999999,13.735209465,3.6864817145,-35.205044745,3.38447237
210,1.7499300000000062,28.195352555,3.148313284,-136.370327,-1.5043420195000001,-1.0136764645,9.1087045665,0.8817526215,-36.022172925,3.6799986365
211,1.7582629999999997,28.197559355000003,2.9159392715,-136.45931625,-2.574582994,-0.8018374145,13.297751902000002,-0.3193784355,-29.868174554999996,3.2591534849999997
212,1.7665959999999927,28.184539795,2.7133636475,-136.53076554999998,-1.5134979785,-0.5023397115,9.2772393205,-2.252824068,-25.433392525000002,3.52978006
213,1.774928999999986,28.15192509,2.5172397495,-136.6116905,-2.6258438225,-0.80610607,10.100271702499999,-4.6147019865,-25.57366562,2.056280434
214,1.7832619999999793,28.105399135,2.4042399525,-136.64461135,-1.291263789,-0.6948543229999999,12.0166034705,-6.4696323875,-13.7768132705,2.550615031
215,1.7915949999999723,28.035596849999997,2.267576486,-136.6933975,-2.5533718765,-0.4026169985,11.293577907500001,-9.32954073,-17.46647024,2.02938514
216,1.7999280000000226,27.980147365,2.177943349,-136.7155533,-0.451013267,-0.512280047,10.9798235885,-7.592995405,-10.703769564000002,2.3515412805
217,1.808261000000016,27.9022398,2.089679241,-136.7420349,-3.0936049815,-0.4582686425,10.5566983225,-10.428006171,-11.0756237505,1.6487759354999998
218,1.8165940000000087,27.82219696,2.028277904,-136.754776,0.18886234600000001,-0.052215308000000016,10.360322954,-10.578193187,-7.2001618125,1.7290633915
219,1.8249270000000024,27.732440949999997,1.9712384639999998,-136.7652473,-2.545159817,-0.17984813450000003,13.129425524999998,-11.953628065,-6.863683105,1.5614055695000002
220,1.833259999999996,27.63990879,1.910919547,-136.77767565,0.03806132100000004,-0.351692185,9.4944601035,-12.054482935,-7.1924005724999995,1.4676124640000001
221,1.841592999999989,27.5542593,1.8627295795,-136.78694535,-2.1643255355,0.1022303215,11.527103425,-11.46459913,-5.850612283,1.2001227735
222,1.8499259999999824,27.445089340000003,1.828151226,-136.79084775,-0.8362790065,-0.581679009,9.1917343145,-14.073718544999998,-4.0451802610000005,0.816024721
223,1.8582589999999757,27.32434082,1.777911633,-136.8025551,-1.822720736,-0.730230689,12.52797413,-15.679104804999998,-6.209802151,1.0250881315
224,1.8665919999999687,27.18766117,1.775446355,-136.78707889999998,-1.2815236449999998,-0.3845104945,10.0024442675,-17.40194416,0.4255747795000002,1.111497998
225,1.8749250000000188,27.032925605000003,1.761243522,-136.78533175,-1.9082937240000002,-0.5222147404999999,10.2073044785,-19.838347435,-1.6209272145000002,0.4541853665000002
226,1.883258000000012,26.862557415,1.8025998175,-136.7577324,-1.6265544,-0.6907600835,9.3068361295,-21.47422981,5.840068339,0.2011681795
227,1.8915910000000051,26.656527519999997,1.830686063,-136.73581695,-1.9015813175,-1.026364505,11.81138945,-26.06815052,3.9842903599999997,0.30097365399999987
228,1.8999239999999984,26.44684124,1.8903508485,-136.69631195,-1.0867610425,-0.18081855800000002,10.0494170215,-26.235770225000003,8.5138534585,0.7009534835
229,1.908256999999992,26.210855485,1.9736196695,-136.6565933,-1.8957773,-0.25279931749999995,10.40009165,-29.753917695,10.8682458385,-0.6927049160000001
230,1.9165899999999847,25.96082115,2.04387185,-136.6264687,-1.043426394,-0.22113966950000002,10.0914647605,-31.078125954999997,9.1569314015,-0.8059845564999999
231,1.9249229999999784,25.68498039,2.14079088,-136.58450695,-0.7953002755,-0.2754826695,11.68154192,-34.52022934,12.450748442,-1.049909532
232,1.933255999999972,25.42541504,2.2031787635,-136.5610504,-1.0911069515,0.276448235,9.9410502905,-32.234751705,7.9702093615,-1.0563895035
233,1.9415890000000215,25.155572895,2.2958999275,-136.53323745,-0.7082535179999999,0.049775172000000006,8.405341146000001,-33.730581285,11.275207997999999,-2.235740811
234,1.949922000000015,24.887639045,2.3432995080000003,-136.52170940000002,-0.9157138164999999,0.3569752875,12.002928735000001,-33.181301115,5.6117899415,-1.7991266475
235,1.9582550000000083,24.625935554999998,2.4049338105,-136.5074234,-0.325742569,0.9709858895000001,9.536375048,-32.671527865,7.2241303925,-2.0157464015
236,1.9665880000000016,24.3938961,2.4646918775,-136.4975853,-1.391395271,0.8397949935,10.625776767,-28.871030805,6.8853805065,-2.5646659730000003
237,1.9749209999999948,24.17733574,2.505917132,-136.4968338,-0.8046752435000001,0.7480077144999999,8.676883696,-27.191667555000002,4.325632572,-2.4550364609999997
238,1.983253999999988,23.97544384,2.567070723,-136.48722455,-0.9319965315000001,1.399510324,12.2712307,-25.23379898,7.0496425625,-2.572541356
239,1.9915869999999811,23.818000795,2.5898386835,-136.49656675,-1.19403219,1.3305209875,10.4334146975,-20.052597045,1.818835378,-2.6496908665000003
240,1.9999199999999744,23.699067115,2.6550042035,-136.48641205,-0.923810106,1.081118017,8.7274286745,-15.253500464999998,7.528109339999999,-2.643069744
241,2.0082530000000247,23.603794094999998,2.670744002,-136.50489805,-0.336183429,0.8990131165,12.4818878175,-12.5692276955,0.6094088549999999,-3.3466925620000003
242,2.016586000000018,23.55929947,2.6712395549999997,-136.52248,-0.5060449840000001,1.893465877,9.616229056,-6.19388175,-0.9165349004999999,-2.615149677
243,2.0249190000000112,23.55156231,2.6770371795,-136.5504837,-0.883307688,1.1063022015000001,9.6867327665,-1.9524258374999999,-0.931019664,-3.8489741085
244,2.0332520000000045,23.556295395,2.6441307665,-136.58287430000001,-0.6698532105,0.551431164,9.2785682655,-0.2230039835,-5.282807827,-2.619977653
245,2.0415849999999978,23.568466185,2.6200066805,-136.607933,-0.36302888749999995,0.433890745,11.0049324,0.45737415550000005,-4.0745396615,-2.0425432325
246,2.049917999999991,23.593934060000002,2.5735910535,-136.65045165,-0.961498916,0.480454579,11.1042690295,2.2532332535,-7.165538148,-2.9209964275
247,2.0582509999999843,23.634366035,2.5570588705,-136.67758179999998,-1.4797175525000001,0.5956320315,10.388792754,3.880595207,-3.3419350385000004,-2.6168528795
248,2.0665839999999776,23.667612079999998,2.511095524,-136.7245369,-0.6688108150000001,-0.174554259,11.7154736545,3.226164341,-7.335898733,-3.4147235154999995
249,2.074916999999971,23.713505745,2.4747760295,-136.76485825,-0.8791890440000001,0.4414294215,9.7344396125,4.5759193895,-6.1534234285,-3.1223369835000003
250,2.083250000000021,23.738632199999998,2.44244647,-136.81150435,-1.2398210315,-0.06679633,10.927966596000001,2.2912318110000003,-5.820399761,-3.983423591
251,2.091583000000014,23.748635290000003,2.4096710685,-136.86018755,-0.7684229014999999,-0.20671167950000002,10.613801478,0.2574038504999999,-6.1757335665,-4.253154278
252,2.0999160000000074,23.7417078,2.3767003415,-136.90275194999998,-1.031917274,-0.34917863450000003,11.014178278,-1.5265954735,-5.675909102,-3.41673398
253,2.1082490000000007,23.724357605,2.3497588635,-136.95054245,-1.3540406825,0.234606855,11.023571969999999,-3.0662935824999997,-5.4851611545,-4.4524976015
254,2.116581999999994,23.67724705,2.334505141,-136.98864365,-1.1972491145,-0.9255491775,8.897298098,-6.340689421,-3.50897813,-3.748695016
255,2.1249149999999872,23.576493265,2.3329004644999998,-137.02470019999998,-0.7133652715,-0.68184641,11.961844925000001,-13.159584044999999,-2.129100559,-4.4205052855
256,2.1332479999999805,23.46136379,2.3220945,-137.0649109,-1.60683766,-0.36656261999999995,9.565432551,-14.497608184999999,-3.1311807635,-4.25653553
257,2.1415809999999738,23.305508615,2.370956242,-137.0890465,-1.546504259,-0.996687323,9.0785775185,-19.78568459,4.010691285,-5.489401340500001
258,2.149914000000024,23.128762244999997,2.391778469,-137.1150398,-1.7671335935,-0.4733882695,10.722934244000001,-21.960912705,0.9155240060000001,-4.5266139505
259,2.158247000000017,22.90091324,2.473578811,-137.13523865000002,-0.320989817,-0.3642616605,9.570757389,-28.43985176,7.8765115735,-6.5460305215000005
260,2.1665800000000104,22.67301655,2.54011631,-137.1615791,-2.8032587765,-0.3916112785,11.609371665000001,-28.107403755,5.9867937565,-6.6996638775
261,2.174913000000004,22.417877195,2.6419023275,-137.1765175,-0.7708727419999999,-0.46228832,8.214621067,-31.68231678,10.369600294,-6.788931847000001
262,2.183245999999997,22.12883663,2.7546325325,-137.1810913,-1.3576318625,-0.5465819685,11.211999415000001,-35.568801879999995,12.167147635,-6.32242012
263,2.19157899999999,21.82448864,2.862175167,-137.1927261,-1.097686395,-0.26375898,10.518143655,-37.633024219999996,11.2279129,-6.5980696675
264,2.1999119999999834,21.483397484999998,3.008527994,-137.19211195,-1.831041634,-0.5021509675,8.6758053305,-41.826494215,16.242721080000003,-6.9753577710000005
265,2.2082449999999767,21.110487935000002,3.1571737530000004,-137.1895599,-1.111621946,-1.1416035,11.434988495,-45.940929415,16.494564535000002,-6.7124803065
266,2.21657799999997,20.70962143,3.3135470155,-137.17982105,-1.625362694,-0.47250057749999996,10.215627192,-49.056566235,17.819293975,-6.216667652
267,2.22491100000002,20.27074051,3.520206332,-137.16961285,-1.4559047820000002,-0.503666714,9.899155618,-53.91580963,23.429306985,-8.0375277995
268,2.2332440000000133,19.81769848,3.6979240175,-137.16638945,-1.189486444,-0.4831884355,9.397466662,-55.300592425,20.042318344999998,-7.577354908
269,2.2415770000000066,19.32092476,3.90232563,-137.1603966,-0.12032458200000001,-0.46494038400000004,8.602101326,-60.818647385,23.12107277,-8.019079447
270,2.24991,18.797925,4.090455889999999,-137.15950775,-1.357951909,-0.5297869895,10.826028345000001,-63.69447708,21.261808395,-7.888832569
271,2.258242999999993,18.24013996,4.287549137999999,-137.16169739999998,-0.9045062065,-0.574934274,9.0371661205,-68.070316315,22.11377907,-8.2282645705
272,2.2665759999999864,17.63702774,4.4863208535000005,-137.17159270000002,-0.7590963285000001,-0.2313481845,12.2992234255,-73.21212387,22.203335765,-9.140544417
273,2.27490899999998,17.018499375,4.650520325,-137.1951141,-1.431943566,-0.46603468800000003,9.2892613425,-75.15620422,17.739040375000002,-9.0362377165
274,2.283241999999973,16.366231915,4.854729891,-137.21725845,-0.778739065,-0.60028629,8.234350921,-78.98068619,22.606633185,-10.1668896665
275,2.291575000000023,15.659201144999999,5.016838312,-137.2502594,-1.436158046,-0.803007841,11.58199072,-85.65592194000001,17.363933085,-9.6751394275
276,2.2999080000000163,14.92341757,5.2096924785,-137.2768021,-0.9191165269999999,-0.25566161400000004,11.529085635000001,-88.93747329499999,21.38273573,-9.745125533
277,2.308241000000009,14.16782713,5.387215376,-137.3198013,-1.7833045275,-0.282412842,10.209803582,-91.35135269,19.08723545,-10.8362498305
278,2.316574000000003,13.393304345,5.561364651,-137.3542366,-0.428173751,-0.103028279,8.102591989,-93.46101761,19.186627389999998,-9.612792966499999
279,2.324906999999996,12.582193855,5.728389263,-137.39613725,-0.7296049745000001,0.21329437199999995,10.956827638,-98.01269531,18.180194855,-9.877998351999999
280,2.3332399999999893,11.78281355,5.876671313999999,-137.4454575,-1.693622351,0.5138288325,12.228835105,-96.260829925,16.03072548,-10.157461165499999
281,2.3415729999999826,10.97645855,6.041210413,-137.4954414,-1.3611530665,0.774853408,8.5378475185,-97.286209105,17.948088645,-10.170938017000001
282,2.349905999999976,10.1713061315,6.219618559000001,-137.5447121,-1.0273420365,0.7580061255,11.290929315,-96.920276645,19.839012144999998,-10.373739244
283,2.358238999999969,9.4124670045,6.360616684,-137.6035042,-1.9827608765,1.796669185,11.76162481,-91.457759855,15.26146364,-10.245133402
284,2.366572000000019,8.652470112,6.520611285999999,-137.6627274,0.470682375,1.4943856000000002,6.3386092185,-91.341236115,17.733139989999998,-10.543027875
285,2.3749050000000125,7.919939041,6.692267418,-137.7186928,-1.9602519275,0.746670127,10.213896275,-88.30029678,19.20168209,-10.019157885999999
286,2.3832380000000057,7.2538945675,6.835584879000001,-137.78276825,-1.267095685,1.615720779,11.142490625,-79.94572449,15.894420145,-10.58670902
287,2.391570999999999,6.628376484,6.995522499,-137.8367462,-2.03727299,1.9702764155,9.558379888000001,-75.439201355,18.047133445,-9.140732287999999
288,2.3999039999999923,5.9958188535,7.174759388,-137.89242935,-0.6511649195,1.3565455075,9.6699881555,-76.026996615,20.51679516,-9.590867041500001
289,2.408236999999985,5.4199147225,7.389170408,-137.94635775,-2.976681471,1.1693923625,10.0382373335,-69.458400725,24.74431801,-9.3896474835
290,2.416569999999979,4.913766861,7.5922710895000005,-138.0036583,-0.2349281275,0.9971771535,9.712909458,-60.76964188,23.5085392,-9.6340756405
291,2.424902999999972,4.4515776635,7.812077522,-138.06196215,-2.1833890675,2.0854170325,9.5623970025,-55.72352028,25.518778805,-9.530973197
292,2.433236000000022,3.983064771,8.022586106999999,-138.12065885,-0.22125822299999998,1.4497597815,8.164545296,-56.170761105,24.517401694999997,-9.470626356
293,2.4415690000000154,3.499608159,8.2616038325,-138.1850243,-1.5536282955,0.6663875505000001,8.6929705145,-58.13990593,27.93202877,-9.953344347
294,2.4499020000000087,3.055591941,8.5156469345,-138.25485609999998,-1.971621811,-0.6868284490000001,9.111439466,-52.98545837,29.798663140000002,-10.580622914
295,2.458235000000002,2.6502200365,8.775785923,-138.322979,-1.032526493,0.242021449,10.501507761500001,-48.61146927,30.567555425,-10.126040935999999
296,2.466567999999995,2.225975931,8.996361732499999,-138.4010353,-1.2121821940000002,0.5740321875000001,9.981704236999999,-50.50660896,25.865204815,-11.053574085000001
297,2.4749009999999885,1.7481632235,9.258025647,-138.4822464,-0.9966760575,-0.18080025900000002,8.752604486,-56.894262315000006,30.874797825,-11.104120255
298,2.4832339999999817,1.2222594025,9.52628565,-138.56315615,-1.7976626754999998,-1.458711803,10.88195419,-62.471525195,31.776685715,-11.107930185
299,2.491566999999975,0.69587535,9.7542562465,-138.65273665,-0.00803190450000002,-0.572287217,10.2068686475,-62.558111190000005,26.96756077,-11.5523509975
300,2.4998999999999683,0.11356258400000002,9.9953508375,-138.74245835,-1.28853631,-0.9183637800000001,8.774850845,-68.99481201,28.706798555,-11.466026305
301,2.5082330000000184,-0.539849747,10.196702480999999,-138.8348427,0.18938052649999998,-1.839916408,9.958167076999999,-77.6387558,23.98209858,-11.311197755
302,2.516566000000012,-1.227638066,10.360620020999999,-138.92867660000002,-0.25954616049999996,-0.23208177449999998,9.3807704465,-81.531284335,19.702756880000003,-11.371062755
303,2.524899000000005,-1.983804822,10.5179195385,-139.03430939999998,-0.3754749895,-1.8897082804999998,9.684072496999999,-89.63182449,19.008977889999997,-12.39005661
304,2.533231999999998,-2.8099759815,10.596858026,-139.13948055,0.24632632750000005,-1.8195659515,8.979952812,-97.81880190000001,9.836269614999999,-12.612699509999999
305,2.5415649999999914,-3.6967208385,10.6594705585,-139.251873,0.3248590229999999,-1.2192903755,11.318799498,-105.10718152999999,8.0462124355,-13.330628395
306,2.5498979999999847,-4.6503876445,10.647886755,-139.3634491,-0.811451256,-1.4502124785,10.384250166000001,-113.00292205,-0.573130608,-13.62302351
307,2.558230999999978,-5.654024601,10.6288180335,-139.48712925,0.481397572,-1.125852704,7.5292630195,-118.88615035000001,-1.170146227,-15.26476812
308,2.566563999999971,-6.721057892,10.5384836205,-139.60359195,-0.9279297295000001,-1.1110877695,14.379707334999999,-126.5090828,-9.467518808,-15.23501444
309,2.5748970000000213,-7.8193290235,10.431869032,-139.71276855,-0.2568152845,-0.49096684150000003,9.7008898265,-130.60873035,-11.270955921,-14.76078892
310,2.5832300000000146,-8.954671383,10.3066968925,-139.8260994,-0.665222794,-0.4932623655,8.5191330885,-134.85312655,-13.086188791,-15.820034979999999
311,2.591563000000008,-10.113911629499999,10.127161504,-139.91937635,-0.063898802,0.0682254135,11.272085190499999,-138.3000412,-19.64776611,-14.84735775
312,2.599896000000001,-11.287131785,9.960542678500001,-140.00549315,-1.9171519875,0.6040947365,12.99043512,-140.0830612,-17.969999315,-13.870020865
313,2.6082289999999944,-12.431881905000001,9.7689757345,-140.07878495,-1.026918873,1.2964313325,11.406636715000001,-137.03469845,-20.938163760000002,-13.67576408
314,2.616561999999988,-13.576213840000001,9.582359792,-140.14714055,-0.832326621,0.560672097,7.084700584,-137.0805664,-20.24795151,-12.930196285000001
315,2.624894999999981,-14.726940155000001,9.395504953,-140.2079506,-0.9478177430000001,0.361774564,12.457606315,-138.04022980000002,-20.20550919,-12.983887195
316,2.633227999999974,-15.833666325,9.179627894,-140.2587662,-1.678818643,1.628434956,12.377739429999998,-132.99779515,-23.689427379999998,-12.539830685
317,2.6415610000000243,-16.92971897,9.023910046,-140.31216435,-2.0360274315,0.9003320335,9.0545299045,-131.68193815,-16.377386089999998,-11.775190355
318,2.649894000000017,-17.996994015,8.876895666,-140.3623505,-1.037870735,1.1426232454999998,12.094943525,-128.3048439,-15.38261318,-10.858035090000001
319,2.6582270000000108,-19.010151865,8.7060201165,-140.398098,-2.2527974845,2.124280572,13.789442059999999,-122.10493085,-18.303013805,-11.025617122500002
320,2.666560000000004,-19.99305153,8.5601480005,-140.439579,-0.619543433,1.8480078574999999,7.8856561185,-118.3835297,-15.2405400295,-10.3078894595
321,2.6748929999999973,-20.93399143,8.4225497245,-140.4737892,-0.7498139145,1.4204133749999999,10.2468433375,-113.4725418,-14.25664854,-10.1028947825
322,2.6832259999999906,-21.78731823,8.265985727499999,-140.5025902,-1.307702303,2.1694611310000003,12.693293095,-103.05168915499999,-16.540286545,-10.148752215
323,2.691558999999984,-22.5623188,8.0992081165,-140.5135498,-0.8674577255,2.871419787,10.288724425,-93.957775115,-18.27280426,-9.2678694725
324,2.699891999999977,-23.305929185,7.9387526515,-140.52765655,-0.2471513005,3.0422093864999997,10.0481982245,-90.20724487499999,-17.474277495000003,-8.928752899
325,2.7082249999999704,-23.97452354,7.794937849,-140.5378761,-1.8908503054999999,1.8325772885,11.1512126925,-81.237205505,-15.548743725000001,-8.493872642500001
326,2.7165580000000205,-24.51828194,7.6423015595,-140.54000855,-0.9285795990000001,2.559890568,12.321651219,-66.382144925,-17.034228325,-7.678053856
327,2.7248910000000137,-24.973734855,7.4822514055,-140.52626415,-1.6875875589999998,3.4961315395,10.4718160605,-56.050310135000004,-18.34398556,-7.028387785
328,2.733224000000007,-25.382974625000003,7.3339226244999995,-140.50819015,-1.3527364135,2.8505923749999997,10.3651392435,-50.563129425,-17.462218285,-5.5615959165
329,2.741557,-25.74595928,7.2007837294999995,-140.49195865000002,-0.803046048,2.1022619010000003,11.0269637085,-45.008041385,-15.45197296,-5.612703680999999
330,2.749889999999993,-26.030529975,7.087646246,-140.4888725,-2.1710867285,1.3323756755,10.262424466999999,-35.374344825,-12.815510745000001,-5.548768759
331,2.7582229999999868,-26.238147735,6.972485781,-140.47628405,-1.1959728594999999,1.553742051,11.662945270000002,-26.27421856,-13.28630638,-5.217738627999999
332,2.76655599999998,-26.415461545,6.8447687625,-140.4651604,-2.124064088,1.9663425685,11.68562412,-22.651963235,-14.767588615,-5.537365675
333,2.7748889999999733,-26.570925715,6.7447869780000005,-140.46079635,-0.781266958,1.359268874,9.6772904375,-19.870072365,-11.199905874999999,-5.367759942999999
334,2.7832220000000234,-26.69567585,6.662364720999999,-140.46474455,-2.0325400235,0.586979538,11.5691137305,-16.15521145,-9.078214407499999,-4.7608041765
335,2.7915550000000167,-26.781152725,6.581506729,-140.47061155,-1.651775319,0.5071427975,12.2613606455,-11.321968080000001,-8.5765564445,-5.487825632
336,2.79988800000001,-26.844770435,6.511077881,-140.4750404,-1.5182758570000001,1.291327715,10.9526147855,-8.781509399499999,-7.7391765115,-4.262389302
337,2.808221000000003,-26.913144109999998,6.4431996345,-140.47880175,-0.5568003355,1.1520414950000002,9.7630720125,-9.335443022,-7.28123188,-4.5521883965
338,2.8165539999999964,-26.95901775,6.410334348999999,-140.50455475,-2.3801673655,0.25118920200000006,10.2796134965,-6.362525701500001,-2.530315161,-4.5689136985
339,2.8248869999999897,-26.956571574999998,6.3623478415,-140.51109315,-0.18360741449999998,0.502638318,11.701382635,-0.7749140560000001,-5.012526512,-3.7771523
340,2.833219999999983,-26.96591473,6.3185026645,-140.5233269,-1.9703498485000002,1.1939667465000001,11.136286735999999,-2.171011567,-4.4000265595000005,-3.7916753295000003
341,2.841552999999976,-26.979031565,6.3018038270000005,-140.5467987,-1.144169539,0.36367735300000004,9.4553217875,-2.444225371,-0.7509133814999998,-3.8431082959999996
342,2.849885999999969,-26.97667217,6.292641163,-140.5694809,-1.8136542439999999,-0.20994974700000002,10.932104112000001,-0.5942055580000001,-0.11808729199999979,-3.074425459
343,2.85821900000002,-26.94639969,6.2941305634999996,-140.5879631,-1.8439062835,1.0916540625,12.0834321955,2.6790696384999997,0.9310326574999999,-2.3202397825
344,2.866552000000013,-26.947162624999997,6.304774523000001,-140.61122135,-1.5509061515,-0.23131787799999998,9.533707142,-0.9674304725,2.0364662410000003,-2.067299187
345,2.874885000000006,-26.97083664,6.3665075305,-140.65307235,-1.6196490225,-0.08476588149999997,10.785052297499998,-3.4783620835,8.637543082,-1.5326278210000002
346,2.8832179999999994,-26.978577615,6.414528847,-140.69561385,-2.843315691,0.11768728149999999,11.9475779555,-1.569691718,7.102136135,-2.1061819195
347,2.8915509999999927,-26.992173195,6.495427847,-140.74541855,-1.199040428,0.03686079399999999,9.43814659,-2.1151728335,11.106040476499999,-1.34431836
348,2.899883999999986,-27.031936645000002,6.583624840000001,-140.79916,-1.16544354,-0.1346598705,10.0633320795,-5.273651361,12.01565313,-1.0964495539999999
349,2.908216999999979,-27.068362235,6.688381672,-140.86623765,-2.557153821,0.26308769,12.671580315,-4.59290266,14.602244375000001,-1.886693835
350,2.9165499999999724,-27.10491562,6.7701494695,-140.9225044,-0.46408720300000006,-0.286168761,8.739780426,-4.821124792,11.462307455,-1.7122223380000001
351,2.9248830000000225,-27.16226101,6.8904840945,-140.99818040000002,-0.9723229405,0.174260594,9.7959356305,-6.957186222,16.7361393,-1.920491815
352,2.933216000000016,-27.204010965000002,6.9685266015,-141.05654529999998,-0.711376488,0.24299959450000003,11.6210618015,-5.390131950500001,11.18017912,-2.121806562
353,2.941549000000009,-27.251204495,7.0556857585,-141.1175308,-0.983861685,0.0275374055,9.507535932500002,-5.9213588235,12.393974785,-2.157064676
354,2.9498820000000023,-27.290718079999998,7.136909961500001,-141.1702232,-0.57067351,0.092596859,12.83733368,-5.174652219,11.20653534,-1.3369864525000001
355,2.958214999999996,-27.323587415,7.174652338,-141.19997404999998,-1.010496661,0.1052647085,10.3897869575,-4.65342772,5.428399682,-1.568141878
356,2.966547999999989,-27.348369595,7.250730514500001,-141.2464218,-1.1975586265,0.266863614,10.5697319485,-3.5066656469999997,10.314507005,-0.9263580444999999
357,2.974880999999982,-27.374659535,7.266438484,-141.2544327,-0.4454299209999999,0.014203172499999996,12.7969017,-4.1624801155,1.8886728284999998,-0.49933028999999995
358,2.9832139999999754,-27.40023899,7.2810242175,-141.2626419,-0.17460381999999997,0.3435757615,10.762730596499999,-4.171496153,1.6800633965,-0.3003717885
359,2.9915469999999686,-27.407780645000003,7.250010252,-141.2512741,-0.8261856735,0.09290422500000001,11.0842847835,-2.235559404,-4.145344019,-1.0074528974999999
360,2.9998800000000188,-27.41715336,7.196385621999999,-141.2256889,-0.13264569649999997,-0.0008672769999999996,8.55143523,-2.6946818830000003,-7.455010893000001,-0.513879061
361,3.008213000000012,-27.431422235,7.1262493135,-141.17951965,-0.310821205,-0.07578358050000003,13.207921985,-3.583047509,-10.223436357,0.531796351
362,3.0165460000000053,-27.43716526,7.0145921705,-141.1139183,-0.9384110569999999,0.20213068650000002,10.827423572,-2.8435527085,-15.825083255,0.4941821395
363,3.0248789999999985,-27.435464860000003,6.923361063,-141.0569534,-1.3611332775,0.1100032405,10.6182780285,-1.831892267,-13.0585246085,0.5254826545
364,3.033211999999992,-27.433479310000003,6.791100502000001,-140.9785042,-1.628800452,-0.3921983685,12.041333195,-2.040802002,-18.735718730000002,0.702298164
365,3.041544999999985,-27.42273617,6.6913981435,-140.9122467,-0.7102208135,0.475876078,10.870286464,-0.880207807,-14.467577934500001,1.0619602205
366,3.0498779999999783,-27.41800022,6.573040962,-140.85258485,-2.277600646,-0.05665855499999999,11.83294153,-1.4465898165,-16.211432455,-0.506387044
367,3.058210999999972,-27.40188122,6.459538697999999,-140.7981262,-1.5124509480000001,0.11824163799999998,10.990408897,-0.023315357500000005,-15.29364872,-0.9565060439999999
368,3.0665440000000217,-27.407252315,6.3749923705,-140.76249315,-2.223182026,-0.377392873,11.219777104999999,-2.3183829785,-11.309466840999999,-1.139391482
369,3.074877000000015,-27.392779349999998,6.277388096,-140.71800995,-1.324241877,0.008971900000000005,11.810484885000001,-0.05297663800000002,-13.05117178,-1.1461667415
370,3.083210000000008,-27.40212822,6.2390720845,-140.7068596,-2.7456670105,-0.20713415699999999,9.035347222,-2.5016524789999997,-5.045312524,-1.1364457904999998
371,3.091543000000001,-27.424529075,6.1861925125,-140.67840575,-1.6602218745,-0.46994393700000003,12.233583450000001,-4.2095458505,-7.4189074055,-0.40207305200000004
372,3.0998759999999947,-27.44725418,6.190301657,-140.6711731,-2.1890432239999997,0.07312433399999999,9.5898461345,-4.0860344170000005,-0.30763292349999993,0.8157814445000001
373,3.108208999999988,-27.480240825000003,6.200746774500001,-140.67229079999998,-1.3938492535,-0.5058818030000001,9.566239594,-5.102023244,0.9571721554999999,-0.04200088999999996
374,3.1165419999999813,-27.502712250000002,6.220797538499999,-140.67779539999998,-1.624019921,0.2688869015,11.0784816735,-3.8650727275000003,2.0863625415,0.3234373335
375,3.1248749999999745,-27.544940949999997,6.2407231329999995,-140.6817169,-0.8678518535,-0.0959530475,9.1802244185,-6.1819317345,2.116491437,0.20407500899999997
376,3.1332080000000246,-27.55276871,6.2706670760000005,-140.70034405,-1.62554669,0.29005267500000004,11.810619835,-1.9509147035000003,3.866020441,-0.507200271
377,3.141541000000018,-27.55350208,6.280082226,-140.71281055,-1.2436025145,0.273593187,9.021198274,-1.074773401,1.46511513,-1.2903428075
378,3.149874000000011,-27.557744024999998,6.292691946,-140.73179629999998,-0.9232758284999999,-0.0394448245,11.900587555000001,-1.510580301,2.0246004165,-1.487175435
379,3.1582070000000044,-27.548339845,6.2857859135,-140.74069980000002,-1.347645402,0.36681272800000003,10.1207463755,0.09201288249999995,-0.4668641094999999,-1.816612661
380,3.1665399999999977,-27.527136804999998,6.2808902265,-140.75489425,-0.816898644,-0.0840223655,8.1553316115,1.4662035105000002,-0.11199176300000002,-1.926485002
381,3.174872999999991,-27.508076664999997,6.265490531999999,-140.7587509,-1.5938382445000001,-0.123673316,11.3101215375,1.206558466,-1.6565941574999998,-1.765384376
382,3.183205999999984,-27.47831631,6.237567902,-140.7592392,-0.42703563,0.14490190150000004,9.471891641,2.298774958,-3.3216792555,-1.7357615235
383,3.191538999999977,-27.438124655,6.2257220745,-140.76274105,-2.041311324,-0.28144615900000003,9.991603375,3.736566186,-1.301273823,-1.5223181845
384,3.1998719999999707,-27.401701925,6.2004613875,-140.76277545,-0.7447619735,-0.2472307085,8.554064989,3.079279423,-3.067823276,-1.5211140665
385,3.208205000000021,-27.366114615,6.184865713,-140.76124190000002,-1.8835093975,-0.11323226250000001,13.281070235,3.1442369225,-1.9864668845,-1.2019416095
386,3.216538000000014,-27.309111594999997,6.159183979,-140.7540512,-1.4502173065,-0.3469591885,9.1944651605,5.4365828035,-3.5199918744999996,-0.741615355
387,3.224871000000008,-27.23657131,6.1484627725,-140.7554283,-1.6873335835,-0.21023662400000004,11.2470660195,7.605417967,-1.3083180189999999,-1.23345983
388,3.2332040000000006,-27.187395095,6.134557962500001,-140.75859069999998,-1.7835828660000002,-0.6078814339999999,10.074188469,4.619348049,-1.7126767635000002,-1.1557334065
389,3.241536999999994,-27.139588355,6.1160213945,-140.7599716,-0.9035818280000001,-0.12199575900000001,13.284870145,4.662303209,-2.1509872674999997,-1.6694270075
390,3.249869999999987,-27.0831995,6.108084916999999,-140.75909425,-2.067736506,-0.7925189285,9.269950867,5.423660755,-1.3164505955,-0.3542897105
391,3.2582029999999804,-27.02829075,6.063815355,-140.7458191,-0.4347781835,-0.48850179850000003,9.5667426565,5.3271849155,-5.692271231,-1.527690418
392,3.2665359999999737,-26.99643707,6.0496037005000005,-140.74806975,-1.708069861,-0.5676595954999999,10.4545795905,2.5118345025,-1.8261086939999998,-1.0029702185000002
393,3.274869000000024,-26.96029949,5.9971973895,-140.7283859,-1.3752338590000002,-0.667234212,11.137817146000002,3.0001574755,-6.917292682499999,-1.271957815
394,3.283202000000017,-26.914325714999997,6.004415273499999,-140.7353134,-1.3808077570000001,0.244058477,10.801297428,4.262106657,0.7001326085000001,-0.30262565600000013
395,3.2915350000000103,-26.87261486,5.9565193655,-140.7195892,-1.1875377895000003,-0.652780485,8.4347056135,3.6928300855,-6.209428816,-1.4349351824999999
396,3.299868000000004,-26.825071335,5.9642634395,-140.7319298,-2.1878955429999998,-0.286120087,12.4930570135,4.547334194,1.0199655294999999,-0.834281374
397,3.308200999999997,-26.780010224999998,5.939264536,-140.72162250000002,-1.93564038,-0.5913197099999999,9.938252213,4.1321526765000005,-3.467066288,-0.731203154
398,3.31653399999999,-26.7182436,5.946999073,-140.7236748,-0.5305812504999999,-0.5249328295000001,11.91714144,6.1733891965,0.43727958200000017,0.2644606195
399,3.324866999999984,-26.66318798,5.9289104935,-140.70692825,-1.4793854355,-0.4441286175,7.876041889,5.2168393134999995,-3.0601459445000003,0.3472842875
400,3.3331999999999766,-26.627628325,5.8895919325,-140.69743345,-0.787545994,-0.8890581505,11.326600554999999,2.896854997,-5.2394630335,-1.0270413455
401,3.34153299999997,-26.587533,5.8674707415,-140.6859932,-1.81421265,-0.9790375235,10.4027886395,3.479258776,-3.2141582965,-0.4096293445
402,3.34986600000002,-26.530018804999997,5.8062598705,-140.6687431,-1.140494406,-0.738518834,9.115461229,5.4327669145,-8.0146316885,-1.3440175505
403,3.3581990000000133,-26.47028351,5.794263839499999,-140.6704559,-1.671393186,-0.23468133800000002,11.7505912785,6.009111643,-1.4265784025000001,-1.27929011
404,3.3665320000000065,-26.39918518,5.743646145,-140.65678405,-1.5939409135,-0.7510860559999999,8.7589312775,7.076009035,-6.691219091500001,-1.1035252215
405,3.374865,-26.32498741,5.7480151655,-140.6519737,-1.919578314,0.32564637099999993,12.835190775,7.7189147469999995,-0.024557710000000066,0.2629235985
406,3.383197999999993,-26.239390370000002,5.741164922499999,-140.63731005,-1.77592963,-0.1485552195,9.184357642999998,8.757404804,-2.0355443954999997,1.38770248
407,3.3915309999999863,-26.103466985,5.757605553,-140.6174507,-2.1273669005,0.5413901805,12.4643178,14.98980093,0.4793510439999995,2.4861891640000002
408,3.39986399999998,-25.897452355,5.793931723,-140.59574125,-1.7752767505,0.9519552885,8.375108719,23.10114956,2.2628734125000003,4.432558894
409,3.408196999999973,-25.62530422,5.834286213,-140.5696106,-1.9723392145,1.8059706685,10.835858344,31.239842415000002,2.7694432715,4.409597516
410,3.416530000000023,-25.286296845,5.8951160905,-140.54919435,-1.3999109865000001,2.201314092,10.30582881,39.101787564999995,5.019573555,5.519081354
411,3.424863000000016,-24.847574235,5.9775118825,-140.52226259999998,-1.7918338179999997,2.616086364,11.827628137,51.191263199999995,7.3595499995,6.6204004285
412,3.433196000000009,-24.30050564,6.080069542,-140.4901695,-2.212112308,1.9368108510000002,9.460655215,63.952919005,9.0761694905,8.7778391835
413,3.4415290000000027,-23.639216425,6.2267091269999995,-140.4537201,-2.4134068484999998,2.2017118335,9.263272285500001,77.720668795,14.0828819255,10.655007361500001
414,3.449861999999996,-22.897335055,6.3978273869999995,-140.4208832,-2.518757045,2.0507488255,11.1622996345,87.340351105,16.815080645000002,11.873064995
415,3.458194999999989,-22.060200690000002,6.5967216495,-140.3804016,-1.637188604,1.892013073,9.312165737,98.718978865,19.983944895,13.105900290000001
416,3.4665279999999825,-21.138463020000003,6.8412745,-140.36411285,-2.6459716560000004,1.989175141,9.446307184,109.10841365,26.096544265,12.76846695
417,3.474860999999976,-20.109801295,7.091904402,-140.33293535,-1.281024873,1.757124722,11.560466285,121.8246689,26.61509228,13.587262635
418,3.483193999999969,-19.0158205,7.3337008955,-140.3096428,-1.3275872485,1.617851108,10.0120921145,129.65397645,25.98076534,12.446483615
419,3.491527000000019,-17.828855515,7.597005128499999,-140.2917976,-2.596696615,2.04316318,11.569872858,140.99494935,29.08339119,11.51031494
420,3.4998600000000124,-16.596351624999997,7.8374979495,-140.2609596,-0.8991819919999999,0.247242391,8.2837238335,146.16088105,26.10741711,12.0879273405
421,3.5081930000000057,-15.295039175,8.105252265999999,-140.22782515,-0.454852745,0.40567183500000004,12.447579860000001,154.42772675,29.583930015,12.1196146
422,3.516525999999999,-13.95610809,8.3416101935,-140.1973305,-1.7679300905,1.2816874089999999,11.795511962,158.9240265,26.209510805,10.623236179500001
423,3.524858999999992,-12.54371929,8.5523900985,-140.14712525,-0.9169611185000001,0.736648917,10.518004894499999,167.45368960000002,23.03321171,11.115054605000001
424,3.533191999999985,-11.124009135000001,8.7668483255,-140.08619305000002,-0.73427552,-0.27613973599999997,9.8596501335,168.0632858,23.448482515000002,12.118314265
425,3.5415249999999787,-9.651504517,8.931060314,-140.0044365,0.05817961700000007,0.528465122,9.2336874,174.0305786,17.405111315,12.615530015000001
426,3.549857999999972,-8.159232855,9.109430313,-139.91591645,-2.002534628,1.1357088685,10.4434826375,176.2335968,19.30085993,13.322812084999999
427,3.558191000000022,-6.646724701,9.246489047,-139.7999573,-1.517019957,-1.105102837,10.97633648,178.15206905,14.322220805,15.282503604999999
428,3.566524000000016,-5.0876801015,9.3874993305,-139.6689072,0.16853120899999996,0.4814353285,11.0806264865,183.38854214999998,15.054976459999999,16.467759609999998
429,3.5748570000000086,-3.524398446,9.5227427505,-139.54170605000002,-2.2868362665,-0.1041507535,11.133621695,183.92635345000002,14.8227663055,15.786734580000001
430,3.583190000000002,-1.9466947315,9.599664686499999,-139.4079399,-0.9377549289999999,-1.3076321485,13.212898255,185.5299225,8.2678592215,15.575037479999999
431,3.591522999999995,-0.367833581,9.6876807235,-139.27063750000002,-0.07340556399999998,0.288809057,12.29475975,185.55313875,10.006713866,15.99482584
432,3.5998559999999884,1.185718745,9.6974086785,-139.1363678,-0.3338742405,-1.8688662054999998,7.955017328,182.57896425,1.061419249,15.10568619
433,3.6081889999999817,2.7243703605,9.663605692,-139.0110664,0.423461765,-2.1846832035,10.619383335,180.95318605,-3.775520563,14.484617709999998
434,3.616521999999975,4.217413187,9.629899026,-138.88072584999998,-1.0837210415,-1.254057616,12.593936442,175.4260178,-3.3305285275,14.886016365
435,3.624854999999968,5.668779373,9.4991397835,-138.76579665,0.0009500680000000261,-2.4638094905,9.5011603815,170.69503785,-14.69178462,14.464351175000001
436,3.6331880000000174,7.099854231,9.346882344,-138.65346905,-0.783918977,-2.8886224030000003,11.8561644555,168.3871155,-16.92123127,14.535373215
437,3.641521000000012,8.4655385015,9.1978316305,-138.5508232,-0.295110058,-1.2513657215,12.836094853999999,160.74082184999997,-16.303750039999997,13.984775540000001
438,3.649854000000005,9.751731872499999,8.987838508,-138.46440125,-1.3782248195000002,-2.2456499335,9.6050686835,151.50683595,-23.492478845,13.58204031
439,3.658186999999998,11.017912865,8.770144463000001,-138.38312145,-0.805471659,-3.1509460209999998,12.02411032,149.3050232,-24.183350564999998,13.70498276
440,3.6665199999999913,12.25798178,8.553735256,-138.30670550000002,-0.8241470455,-1.4191771745,11.0602135675,146.26145935,-23.86592674,13.463283064999999
441,3.6748529999999846,13.411994935,8.3430986405,-138.24754715,-2.2172480225,-1.93054229,11.490890024999999,136.2410049,-23.316046715,12.000486375000001
442,3.683185999999978,14.49665594,8.123503685,-138.1935234,-2.150485456,-3.2088581325,9.5932407355,128.09474945,-24.240608215,12.108133315
443,3.691518999999971,15.544606685,7.9038000109999995,-138.14717480000002,-0.449025363,-2.784586072,11.295792103,123.78333285,-24.263297554999998,11.69590664
444,3.699852000000021,16.557463645,7.671776533,-138.09887695,-1.6473517865,-1.85717839,10.927164791500001,119.6202469,-25.414777755,12.64941263
445,3.7081850000000154,17.486991879999998,7.474270344,-138.0488205,-0.9988478425,-2.0409421325,9.923381328,109.60014344999999,-21.146692275,12.156726835
446,3.716518000000008,18.338145255,7.283795594999999,-138.0026436,-1.9969579579999999,-2.3689498904999997,7.0547933574999995,100.22955705,-20.270924565,11.81856966
447,3.724851000000001,19.13030338,7.0886275765,-137.96221924999998,-1.6457163095,-3.0226720570000003,12.462212565,93.310966495,-20.86051798,11.606302259
448,3.7331839999999934,19.89926052,6.895229101,-137.92707825,-0.828745484,-2.832302213,11.567673684999999,90.5556221,-20.66898012,11.3090806
449,3.741516999999988,20.61547375,6.6983206275,-137.90953445,-0.7695529015,-2.1109660865,9.1194610595,84.52856827,-21.6731205,9.660744192000001
450,3.749849999999981,21.24132824,6.5246422289999995,-137.88401795,-0.8254655005,-1.8039595485,9.8438190215,73.564605715,-18.554371835,9.9370174385
451,3.758182999999974,21.779574395,6.3460254670000005,-137.87640765,-1.9648302795,-2.9009351729999997,12.009106639999999,63.310022355,-19.839226725,8.2160289285
452,3.766516000000024,22.29173565,6.176525354000001,-137.86418915,-1.332288146,-2.5866141315,10.335082054499999,60.142831799999996,-18.481402875,8.635716438500001
453,3.7748490000000174,22.780755045,5.9649045465,-137.88621899999998,-0.02673697499999994,-2.273414612,9.290024519,57.731142045,-24.69116592,6.806827307
454,3.7831820000000103,23.20002079,5.8017356395,-137.9026909,-1.9426808355,-2.0392696855,13.4543952945,49.349990844999994,-18.95277166,5.517493248
455,3.791515000000004,23.543453215,5.635540247,-137.92549895,-1.309285104,-2.0473895669999997,11.541394234999999,40.358427045,-19.61660862,4.944632053
456,3.799847999999997,23.84313583,5.5089230535,-137.9345932,-2.359653503,-2.0469518895,11.733041284999999,34.842138289999994,-14.530896663,4.710835218
457,3.8081809999999914,24.122776035,5.3352224825,-137.96541215000002,-0.7242065670000001,-2.2911208865,7.1533300895,32.80796051,-20.769766805,4.6584926845
458,3.816513999999984,24.379732134999998,5.2007124425,-137.98564149999999,-1.1515284780000001,-1.6342258454999998,12.4914488805,29.78793907,-15.881496906999999,4.0174047945
459,3.824846999999977,24.593571660000002,5.071211695500001,-138.0051918,-1.7238556145,-0.9664547594999999,9.904056788,24.819508555,-15.336179258000001,3.9005900625
460,3.8331799999999694,24.760738375,4.982674837,-138.0026054,-2.6782729625000004,-1.2560334805000002,13.2045846,18.814545635,-9.7247443215,4.2663215395
461,3.841513000000021,24.930023195,4.885784149,-138.00103380000002,-1.584765434,-1.3445819019999998,9.3767762185,19.1986599,-10.691912951,4.630044341
462,3.8498460000000136,25.099852560000002,4.8146141765,-138.0031624,-1.7068883774999999,-0.8413503765000001,12.648893829999999,19.174029349999998,-8.0341319905,2.9522337910000003
463,3.858179000000007,25.24030018,4.7675904035,-137.9834175,-1.4134244914999998,-0.6093451645000001,9.4580612185,15.584473135,-4.3284423355,4.112981081
464,3.866512,25.34767628,4.7321919205,-137.97050095,-1.417549148,-1.2992848755,11.326869966,11.502816204999998,-3.3743109700000002,2.748894215
465,3.8748449999999934,25.462575915000002,4.697253108,-137.96126555,-1.728469387,-1.7054190635,10.115001676999999,12.6046257,-3.5388319495000005,2.366000056
466,3.8831779999999863,25.580620765,4.68058145,-137.94923015,-0.7620097395000001,-0.8436246815,13.68194342,12.850599285000001,-1.3746584654999998,1.7372472285
467,3.89151099999998,25.674334530000003,4.696668862999999,-137.92493439999998,-2.5190463364999998,-0.406407146,8.83543396,9.880730628,2.7786258455000006,1.34895467
468,3.899843999999973,25.74532986,4.7285723685,-137.8946533,-1.798757136,-1.0812428295,12.1850776665,7.0655844210000005,4.823397428,1.1868420245000002
469,3.9081770000000233,25.851555825,4.751095891,-137.8634682,-1.5421493055,-0.848210007,10.4007034295,11.27930546,3.8442932965,1.737663299
470,3.9165100000000166,25.95650196,4.820685148,-137.8235397,-1.3966293935,-0.2551748235,11.943835258,11.041914465000001,9.3226230155,0.06442624350000004
471,3.92484300000001,26.038438794999998,4.886236191,-137.7719803,-1.819692075,-0.6605032384999999,7.4740548135000004,8.1951982975,9.5496557965,1.6547820569999998
472,3.933176000000003,26.118532185,4.969087601,-137.7219391,-0.6034657655,-1.1862264875,11.4556612945,7.9014422895,11.302219151500001,0.429115303
473,3.941508999999997,26.22914505,5.04805696,-137.67240525,-1.4147583840000002,-0.451122537,10.408327580000002,11.629852295,10.895773174,0.6935631409999999
474,3.9498419999999896,26.310956955,5.171681404,-137.60729215,-1.941374898,-0.2825224605,10.796333788,7.966125727,16.491250989999998,-0.13373211000000002
475,3.958174999999983,26.381521225,5.271766424,-137.5542679,-0.8087452945,-0.9752073884999999,9.3625187875,6.7304553985,13.355245589999999,-0.11253625150000002
476,3.966507999999976,26.48042107,5.401364565,-137.4761009,-1.6401367185,-0.6417373645,14.483401775,9.873983382999999,17.817383290000002,0.895492911
477,3.9748409999999694,26.573360440000002,5.5214090344999995,-137.40315245,-1.283388555,0.0182183795,9.064089775,9.1571426405,16.566664695,0.9115275745000001
478,3.98317400000002,26.666706085,5.6512708665,-137.32496265,-1.5520343185,-0.5385597049999999,11.99603367,9.155657053999999,17.84836435,0.8121439215000001
479,3.991507000000013,26.77093792,5.7884535790000005,-137.241951,-1.021690279,-0.4555309865,11.479674817500001,10.3590412155,18.947485444999998,1.004955292
480,3.999840000000006,26.85168934,5.9119622705,-137.1650505,-2.0335553885,-0.4719546885,12.344645499999999,7.601423979,17.0838179605,0.9079282279999998
481,4.008172999999999,26.959926605,6.020308256,-137.0956192,0.9496534615,-0.8980517385,9.3175892815,10.974729535000002,15.13322878,1.0700538755
482,4.016505999999993,27.04588318,6.1372737885,-137.02716825,-2.652701497,-0.2953023835,12.57061195,8.257417679,15.9345219155,0.2877946495
483,4.024838999999986,27.112488745,6.222513199,-136.97917940000002,0.6510955915000001,-1.174587816,10.1989035625,6.2447652815,11.4994103895,0.008996844499999934
484,4.033171999999979,27.19047642,6.31704092,-136.9181175,-1.6858490405000002,-0.2167261775,12.802920343499999,7.4170775415,13.136508227499998,0.7145021555
485,4.041504999999972,27.256978035000003,6.400761127,-136.86494065,-0.13184362650000014,-0.29444776500000003,10.1418578615,6.085347414,11.618496895,0.570979655
486,4.049838000000023,27.318319324999997,6.4379594325,-136.8396416,-1.490309015,-0.748196289,9.895087956000001,5.905106306,5.0806348324999995,0.08256110549999995
487,4.058171000000016,27.37213135,6.5212442875,-136.7910843,-0.8713848590000001,-0.6355321185,14.779486181500001,4.6149426700000005,11.3104271865,0.05940581500000001
488,4.066504000000009,27.409759525,6.542375326,-136.77107619999998,-1.204125911,-0.874720999,7.9691160925,3.1565699575,3.07682696,0.4125172345
489,4.074837000000002,27.444308284999998,6.586353064,-136.74703979999998,0.326910317,-0.8041840195000001,12.223536015,2.5778552295,5.769357681,-0.429621264
490,4.083169999999996,27.46638298,6.599461794,-136.7241135,-1.921495631,-0.841570303,8.90914774,1.2916811925,2.3860874180000002,1.1959415375
491,4.091502999999989,27.469124795,6.5887761115,-136.72442245,0.45354056350000005,-0.8399637784999999,9.4275064485,-0.9180143475,-1.3846991085000004,0.0123268515
492,4.099835999999982,27.44887352,6.6243748665,-136.70307155,-2.0132938625,-0.37421304,12.855968234499999,-3.806672454,4.718366625,-0.19386774299999998
493,4.108168999999975,27.402603145,6.6223790645000005,-136.7118301,-0.5072370765,-1.684715867,9.3352193825,-6.5953457360000005,-0.9296365975,-1.31350445
494,4.116501999999969,27.353980065000002,6.643365859999999,-136.69444655,-1.6895987095,-1.000800498,13.8083338725,-7.231040001,2.926439397,0.11059586699999999
495,4.124835000000019,27.267888069999998,6.643496752,-136.69845585,-0.3531549425,-0.8431898059999999,8.443794727,-11.379189965,-0.42652106300000003,-0.8534664215000001
496,4.133168000000012,27.15358734,6.646923542,-136.70426179999998,-2.2233788370000003,-1.3777827619999998,11.931280614999999,-14.87924862,-0.10575485300000054,-1.2150500415
497,4.141501000000005,27.029575344999998,6.682352781500001,-136.69158935000002,-0.6513124705,-0.30288897449999996,12.235720158,-16.0883708,4.250024795000001,-0.9556290654999999
498,4.149833999999999,26.882131575,6.6815690995,-136.70345305,-2.505807225,-0.6440767869999999,10.758857725499999,-18.810654640000003,-0.8727993999999999,-1.650812671
499,4.158166999999992,26.733299255,6.7089600565000005,-136.70599365,-0.13883459599999992,-0.4516130465,12.492758511,-18.889481545000002,2.56645107,-2.1573982835
500,4.166499999999985,26.57229805,6.712114334,-136.71966550000002,-1.8043285835,0.18622413300000001,7.6009076245,-20.32072544,-0.5430799725,-1.9908542335
501,4.174832999999978,26.41328621,6.742843628,-136.72689055,-0.05744692700000001,-0.052481692499999996,12.107847211500001,-20.141082765,2.6844622495,-2.9026957755
502,4.183165999999972,26.25541496,6.747573137,-136.74259945,-1.7015464304999999,-0.4842613265,10.653530595,-19.83715725,-0.4682865144999999,-2.2175788875
503,4.191499000000022,26.12261677,6.746320009,-136.76509855,-0.638772696,0.8344160245,12.746355535,-16.839265825,-1.5559058180000003,-2.889376223
504,4.199832000000015,26.01301098,6.7573273185,-136.773674,-0.7442954180000001,0.15320581199999994,7.500622034,-14.076100825000001,0.5221514679999997,-1.8829282225000001
505,4.208165000000008,25.90704918,6.7427442074999995,-136.80406184999998,-0.9953211544999998,0.00995156199999997,10.371871472,-13.550292015,-3.3913440684999996,-3.063437581
506,4.216498000000001,25.82275963,6.7584896085,-136.8205032,-0.5403267144999999,1.129642397,9.9496197715,-10.907158849999998,0.5695123665000006,-3.102204561
507,4.224830999999995,25.7558918,6.724468946,-136.85749815,-1.8567815425,-0.22281074550000002,11.6000819205,-8.7276296625,-5.834099772,-2.7470375895
508,4.233163999999988,25.72738743,6.731634140000001,-136.86868285,-0.17867660549999997,0.6980257925,9.6685960285,-4.3028718235,-0.0882740024999995,-2.1201286915
509,4.241496999999981,25.711013795,6.6895911695,-136.90463255,-1.695450425,0.707262397,9.137089727,-2.6809778809999996,-6.6386671655,-2.205462754
510,4.249829999999975,25.721734050000002,6.7030596735,-136.9142685,-0.608496785,0.11003147649999999,11.189019205000001,0.3589386939999999,0.7001969815,-2.242667079
511,4.258163000000025,25.743847844999998,6.6553885935,-136.94646075,-1.40153265,-0.1606647745,11.01433897,1.9220539335,-7.057094127,-1.488219112
512,4.266496000000018,25.79986763,6.653614044499999,-136.94636915,-0.5039001700000001,0.589442581,11.666695595,5.644993067,-0.46464884299999976,-0.4612676015
513,4.274829000000011,25.854738235,6.589714289,-136.9834442,-0.6947271825000001,-0.394348927,8.531746862,5.9011743065,-9.055107118,-1.1390266715
514,4.283162000000004,25.91965008,6.5725789070000005,-136.995903,-1.5607512595,0.5696613865,13.436710596,6.8587367535,-2.7480233905,-0.9580748379999999
515,4.291494999999998,25.97657394,6.508807898,-137.0376396,-1.0960868005,-0.484240979,9.962379455,6.2369127275,-9.2804474805,-1.5938203034999998
516,4.299827999999991,26.047997475000003,6.483692646,-137.05711365,-0.933725178,-0.41482810700000006,12.25778437,7.7010219095,-3.9009652435000004,-1.133308202
517,4.308160999999984,26.10395527,6.412783384,-137.09928895,-0.8812528849999999,-0.0935036765,8.443655968,6.1238908765,-10.065371751,-1.2225351930000001
518,4.316493999999977,26.13776016,6.3737814425,-137.13894655000001,-1.5123813149999998,-0.7066778765,12.662711139999999,3.4218569995,-6.41646904,-2.4856823685
519,4.324826999999971,26.167431829999998,6.324609994999999,-137.17787555,-1.5730662944999998,-0.5568946674999999,11.717199805,2.942499518,-7.560285926,-2.0061967375
520,4.333160000000021,26.202731135,6.291503667500001,-137.2134361,-1.1874747724999999,0.14710776499999997,10.3567540635,3.5783088805,-5.5771923065,-2.3467250465
521,4.341493000000014,26.214383125,6.2526943685,-137.24274065,-1.0046196875,-0.7450810075000001,10.7512094955,0.58866632,-5.9452044965,-1.5704726575
522,4.349826000000007,26.213404655,6.2138681415,-137.2751694,-1.2607402505,-0.248122461,9.7690525055,-0.7663651705,-6.0131284130000004,-1.6333175899999999
523,4.358159000000001,26.187803270000003,6.197725773,-137.3011627,-2.2075972555,-0.595329974,12.378294465,-3.9949375395000004,-3.3335089664999997,-2.4730932115
524,4.366491999999994,26.16250324,6.1949579715,-137.31747435,-0.8498424364999999,-0.8211603165000001,9.966337679,-3.8205428125,-1.2569870950000004,-1.7095455675
525,4.374824999999987,26.105023385,6.18748641,-137.3384705,-2.0352137145,-0.72218892,11.4942059525,-7.938019512,-2.1337647450000006,-2.4423179624999998
526,4.38315799999998,26.03103733,6.192062378,-137.35868075000002,-0.7167516945000001,-0.8387896865,10.8414645195,-9.619158268,-0.7291674599999993,-2.6539424655
527,4.391490999999974,25.92172909,6.1907582285,-137.38395309999999,-2.072261289,-1.561312854,8.9080922615,-14.038486955,-1.6879475094999998,-3.1919571165000002
528,4.399824000000024,25.76921463,6.2253558635,-137.39839555,-0.552337587,-1.0766291319999999,12.037996053499999,-19.15667725,2.6387861965,-4.0484470125000005
529,4.408157000000017,25.569442745,6.255065203,-137.42599485,-1.9272046090000001,-1.7629639805000001,11.114288329499999,-24.785333635,1.566298604,-4.986364126
530,4.41649000000001,25.336110115,6.2768404485,-137.4631157,-1.633309662,-1.8297674060000002,12.410920145,-28.661531445,0.19445657699999996,-5.7134773735
531,4.424823000000004,25.055133820000002,6.323281765,-137.4963875,-0.36131435600000006,-1.0660666825,8.914242505,-34.37979794,3.136949063,-6.353873968
532,4.433155999999997,24.696611405,6.3542618755,-137.54645155,-1.8717006,-2.5653007035,10.0527119655,-43.535131455,0.5317316055000001,-7.780773162999999
533,4.44148899999999,24.27666569,6.417378187,-137.5939903,-1.2338865399999999,-1.730106026,14.320181608,-50.873085020000005,4.325039266999999,-8.69800663
534,4.449821999999983,23.794225689999998,6.4780106545,-137.64362715,-2.8864117265,-1.6948356480000002,10.496077297,-58.298711775,3.9166344405,-9.0348482135
535,4.4581549999999766,23.248898505,6.548413277,-137.7037773,-0.333721131,-2.5034466980000003,10.9996037475,-65.849254605,4.6637850985,-10.500494003
536,4.46648799999997,22.6518898,6.6319890025,-137.7580185,-1.557407081,-1.829136312,10.241787912,-71.90748214499999,6.37953532,-10.5008611695
537,4.47482100000002,21.9656086,6.702130318,-137.83120350000002,-1.2257744074999999,-1.9179201125,8.438416716999999,-82.56707001000001,4.253898142500001,-11.84157276
538,4.483154000000013,21.202849385,6.7954969405,-137.89500045,-1.4885920885,-2.2096357345,13.6300919055,-91.69425964499999,7.334630069999999,-11.773506165
539,4.4914870000000064,20.38907337,6.896617651,-137.9685707,-1.6519127489999998,-1.585117638,11.2053580305,-97.762035375,8.0200293055,-12.930178165000001
540,4.49982,19.5058527,7.027488232,-138.02487945,-3.1468634604999997,-1.7469236255,12.76071739,-106.2660713,12.138219595,-12.48450518
541,4.508152999999993,18.579719545000003,7.154489279,-138.088974,0.1356211155,-1.104688764,7.612777232999999,-111.2995186,11.719111083,-12.4514904
542,4.516485999999986,17.587005615000002,7.2924981120000005,-138.154747,-2.878345907,-1.40037629,11.4733333595,-119.3092728,13.016042946499999,-13.516756059999999
543,4.52481899999998,16.54351759,7.4590101245,-138.21578599999998,0.6063240765000001,-1.5841454565,8.0122939325,-125.35686874999999,16.748900500999998,-13.015486715
544,4.533151999999973,15.447055339999999,7.5991232395,-138.2770195,-3.5818219385,-1.4766716359999998,12.9283499725,-131.78163145,13.867077408,-12.611084465000001
545,4.541485000000023,14.330640315,7.8050947184999995,-138.3244553,-0.9253674744999998,-0.8424666519999999,11.020762921,-134.29299165,22.211670161500003,-11.994770525
546,4.549818000000016,13.177636145000001,7.9829378129999995,-138.38032915,-2.7240204815,-0.7570570704999999,10.878929377,-138.5853195,18.899995325,-12.336785315
547,4.558151000000009,11.99475622,8.211316109,-138.4282875,-0.6349650625,-0.938008666,8.6599949605,-142.26342770000002,25.273181915000002,-11.86250591
548,4.566484000000003,10.7744970335,8.378299236,-138.491909,-1.251295924,-0.021585956500000003,11.859860897,-146.50102994999997,17.9504556635,-12.01583147
549,4.574816999999996,9.542727947,8.593274355,-138.5511856,0.0028483864999999664,-0.2855906785,9.9146988395,-147.89835355,23.92142773,-11.78725195
550,4.583149999999989,8.287178755,8.788618803,-138.6204796,-2.8526999355,-1.017472893,12.366284369999999,-150.5840073,21.704118729999998,-12.31060648
551,4.591482999999982,7.032120943,8.963188170999999,-138.69410325,0.069886014,0.5106821135,9.100822448999999,-150.37041475,19.340680120000002,-11.836655141
552,4.599815999999976,5.750771284,9.1385979675,-138.77451705000001,-0.317649968,-0.331831269,9.1287901425,-153.4441452,19.700529574999997,-12.2147140515
553,4.608148999999969,4.461101651,9.2450399385,-138.8699646,-0.6708019375,-0.8659647404999999,10.426628111,-154.09143065,11.4805035585,-12.900036335
554,4.616482000000019,3.1423208715,9.392812254,-138.9760208,-1.6686194835000001,0.22683126450000002,9.7587680825,-157.33099364999998,16.686278342,-14.260941505000002
555,4.624815000000012,1.7966814045,9.5337624565,-139.09607315,-1.601492822,-0.65597862,11.676490784999999,-160.24919895,16.029078965,-15.437953475
556,4.633148000000006,0.45062446550000007,9.635521889500001,-139.2237549,-0.356037736,-0.5289111285,8.419251204,-160.13385770000002,11.759381775,-15.998996255
557,4.641480999999999,-0.937573593,9.7543158555,-139.376564,-1.129029367,0.3920816665,10.256993293499999,-164.65820315000002,14.10006952,-18.492212295
558,4.649813999999992,-2.3353574875,9.828267099,-139.5254059,-1.2658807490000001,-0.14391522099999998,12.461449145,-165.81372069999998,9.173566818000001,-17.94008732
559,4.658146999999985,-3.7359308005000003,9.920398712499999,-139.671875,-0.647184334,-0.11943389499999998,9.5552258465,-166.22291565,11.72546196,-17.10188389
560,4.666479999999979,-5.1333022115,9.949661732,-139.82403945000001,-0.021486223000000026,1.299279213,9.838869097,-165.68176269999998,4.715829494,-18.297235970000003
561,4.674812999999972,-6.5141232015,9.951195239,-139.96370695000002,-0.42285591399999994,0.410297662,7.671223164000001,-163.9454193,1.5979375839999999,-16.81590414
562,4.683146000000022,-7.8948342799999995,9.921604156,-140.09954835,0.3542966245,0.594635129,11.8578167,-164.08081055,-1.7170306444999999,-16.652249335
563,4.691479000000015,-9.241551877,9.833536623,-140.22983555,-1.1860955355,1.894787133,11.769304755,-160.0983734,-8.381016015,-17.239786144999997
564,4.6998120000000085,-10.562546732000001,9.748821735,-140.3694649,-0.2927235365,1.37501812,10.332992553,-156.89549255,-7.453868389,-18.035571095
565,4.708145000000002,-11.82524252,9.6036858555,-140.48223115000002,-1.0501118600000001,1.641846478,12.007626535,-150.38557435,-14.739025115,-17.003601070000002
566,4.716477999999995,-13.044430729999998,9.427551749,-140.5875587,1.5182678104999998,2.4083724020000004,8.750372647999999,-145.4679718,-18.288275239999997,-16.57889938
567,4.724810999999988,-14.221761229999998,9.238030434,-140.68258285,-1.5378272530000001,1.223653913,10.8085598955,-140.5973358,-19.660786625,-16.823859695
568,4.733143999999982,-15.32170105,8.984971523,-140.7624321,0.35239107150000004,2.0735016465,11.486725329999999,-131.7021637,-27.36844635,-16.687561035
569,4.741476999999975,-16.39193392,8.7405314445,-140.82798765,-1.2773476835,1.6214016679999999,9.6915855405,-128.4061012,-26.299563405,-15.95195723
570,4.749809999999968,-17.3945694,8.4686346055,-140.892952,-0.7599404345,1.245936692,13.265628815,-120.3911095,-29.459593769999998,-16.534485815
571,4.758143000000018,-18.35952854,8.169462681,-140.93471525,-1.4159601625,1.4874035715,9.637858868999999,-116.2760696,-32.83758545,-16.205454825
572,4.766476000000012,-19.297439575,7.9023206235,-140.9918175,-0.5523345470000001,1.321676016,12.74672413,-112.80645755,-28.674496655,-16.451287745000002
573,4.774809000000005,-20.15597725,7.570601463000001,-141.01226805,-2.1322013135,1.8114057780000001,13.156635762,-103.8978119,-36.82968903,-16.235990525
574,4.783141999999998,-20.973187445,7.2811915869999995,-141.0450287,-0.7891288399999999,1.9999926685,8.1872599135,-98.77030564500001,-31.725643160000004,-15.456986425
575,4.791474999999991,-21.736159325,6.9975852965000005,-141.0560646,-1.1271713749999999,1.7692755465,11.80583,-92.592578885,-31.40763664,-14.106542585
576,4.7998079999999845,-22.417528150000003,6.685811043,-141.0587578,-2.169042051,2.4898608925000003,13.690274715,-82.93000793499999,-35.12791443,-14.03571749
577,4.808140999999978,-23.036247255,6.402184247499999,-141.04844665000002,-0.8072405755000001,2.7728995085,8.620548487,-75.591259005,-32.08544922,-12.436797615
578,4.816473999999971,-23.596479415,6.158910036,-141.0431671,-2.1814919115,2.013083458,9.163284781,-68.498365405,-27.644248965000003,-10.673326967
579,4.824807000000021,-24.070796965,5.918576002,-141.0257225,-1.440374448,1.9918823840000002,12.951710705,-58.337171555,-27.43063068,-10.207373618
580,4.833140000000014,-24.460840225,5.7027425765,-141.01039125,-2.8802582025000003,2.5553747414999997,11.597491739999999,-48.210359575,-24.967901230000002,-8.6331346045
581,4.841473000000008,-24.81299877,5.5140540595,-140.99585725,-0.27826887350000007,2.336327195,9.284789563,-43.605445865,-21.517322540000002,-8.348388195
582,4.849806000000001,-25.088187220000002,5.367218733,-141.00181959999998,-3.5420132874999997,1.436105907,10.094825506,-34.222670555,-16.2715458875,-7.7020959855
583,4.858138999999994,-25.272591589999998,5.2255380155,-140.99964905000002,-0.5573112370000001,1.533064246,12.112223625,-23.26021576,-15.735950946500001,-7.5244431495
584,4.866471999999988,-25.4074049,5.108136177,-141.00412749999998,-3.035089493,2.5261669159999998,11.8751101485,-17.421824455,-13.059502124000002,-6.201874733
585,4.874804999999981,-25.523080825,5.008138418,-141.0112839,-0.4192690849999998,1.2569261195,8.679643630000001,-14.92180824,-10.7113902575,-6.427791833500001
586,4.883137999999974,-25.599527360000003,4.9511430265000005,-141.0370636,-2.4281547665,0.10413468599999999,10.642339706000001,-10.1725928805,-5.3503275515,-5.549029827
587,4.891471000000024,-25.605924605,4.8732397555,-141.05469895,-1.6721383034999997,1.1377134025,12.584823610499999,-1.7211294769999999,-7.7576947215,-6.426023483
588,4.899804000000017,-25.58621979,4.8379621505,-141.0825615,-2.1808485985,1.1909297815,9.050189735,1.4270457925,-2.8579721449999997,-4.762620926
589,4.908137000000011,-25.580286025,4.815729618,-141.10661315,0.04059469700000007,-0.3967668935,8.0566823485,-0.19461059599999986,-1.4037818499999999,-4.210109353
590,4.916470000000004,-25.553632735,4.818415165,-141.1479225,-2.8963508605,0.352743775,13.118410585,2.385492414,1.991365626,-4.3317647575
591,4.924802999999997,-25.496455195000003,4.796684742,-141.166069,-0.825083077,-0.005492105999999969,8.9001228805,5.929926157,-1.674274504,-3.5533156989999997
592,4.93313599999999,-25.455747605,4.840397596000001,-141.2042923,-1.5119453075,-0.137608747,9.2448284635,4.020083904,6.2985981705,-1.9147539435
593,4.941468999999984,-25.427410125,4.8484089375,-141.22935485,-1.4431583285,-0.27906577650000003,11.6463818545,2.5398501155,1.913498998,-2.7933929565
594,4.949801999999977,-25.386425969999998,4.89545536,-141.2695465,-1.704723336,-0.20366574800000004,10.361286400000001,4.0654016735,6.7708289925,-1.9715085534999999
595,4.95813499999997,-25.375665665,4.941859007,-141.3059273,-1.7140488325,-0.6731814,11.194563389999999,0.5781901775,6.644026802000001,-2.0574195385
596,4.96646800000002,-25.35097313,4.980267286,-141.3346558,-0.8625940085,-0.341034621,10.205933094999999,1.9891888500000001,5.268534511,-1.220447898
597,4.974801000000014,-25.358120919999998,5.0433225635,-141.38177489999998,-1.6468054355,-0.3801726475,9.6242470745,-1.4704107645,9.0069649245,-2.360723689
598,4.983134000000007,-25.360492705,5.070381403,-141.408905,-0.8673697115000001,-0.822591126,10.518394472,-1.231276363,3.954505026,-1.673121858
599,4.991467,-25.3940773,5.1374139785,-141.4483261,-1.14041245,-0.4234344215,11.594568729999999,-4.733280301000001,9.040339469500001,-1.2944476605
600,4.999799999999993,-25.430581095,5.152625561,-141.46809765,-0.6937854735,-0.687084913,9.900434732,-5.4050397875,2.3122740985,-1.5188925865000003
601,5.008132999999987,-25.483645435,5.222786188000001,-141.5103569,-1.9741126895,-0.6408777085,10.981099603,-7.043403387,9.5244107235,-1.408379674
602,5.01646599999998,-25.55283737,5.229425668499999,-141.52145765,-0.4297950565,-0.740044735,9.2552537905,-9.397518633,0.9403178990000001,-1.0515093505000002
603,5.024798999999973,-25.626312255,5.2878069875,-141.5509262,-0.8970536330000001,-0.6406947675,10.9820618625,-9.6247921,7.590343237,-0.6183596255
604,5.033132000000023,-25.69528961,5.2763204575,-141.54592135,-0.07696145750000005,-0.768074505,7.8640456180000005,-9.553176403,-1.8503790345,-0.2558672424999999
605,5.0414650000000165,-25.789767265000002,5.318455934499999,-141.56627275,-2.2009356025,-0.05075935250000001,13.045460223,-12.256310465,5.3722023965000005,-0.4694001975
606,5.04979800000001,-25.889975550000003,5.3227396015,-141.5690613,-1.023797572,-1.5059688685000001,10.152291059,-13.232073305,0.2544715405000002,-0.24782434099999995
607,5.058131000000003,-25.98158932,5.369547128500001,-141.5844765,-1.578353524,-0.048128813500000034,12.408206465,-11.934967995000001,5.6152054355,0.29200857849999995
608,5.066463999999996,-26.08704281,5.384453058,-141.5832367,-0.63617192,-0.627201363,7.897619486,-13.927832125,1.2018904684999998,0.7476859090000001
609,5.07479699999999,-26.195961949999997,5.400440693,-141.59293365,-1.7005254625,-0.5912038085,12.646526340000001,-14.06951618,2.0022718915,-0.732298285
610,5.083129999999983,-26.30756092,5.4249277115000005,-141.60345455,-0.7605505585,-0.826271832,10.016630175,-14.527961255000001,2.838422536,0.016233034500000007
611,5.091462999999976,-26.413512230000002,5.4259922505,-141.5970764,-1.1695393324999999,-0.4730096985,10.744813917,-13.896775245,-0.45357060400000027,0.200232912
612,5.099795999999969,-26.525372505,5.4557766915000006,-141.60762785,-0.9496377704999999,-0.634752542,11.4181561485,-14.551335335000001,3.4164856675,0.2795729935
613,5.10812900000002,-26.62900162,5.4360342025,-141.59602734999999,-1.4339780805,-0.5765194145,9.8968739485,-13.720573425000001,-2.963951707,-0.3121478965
614,5.116462000000013,-26.747664450000002,5.474912166499999,-141.6175842,-1.8287734390000001,-0.13214314,12.822318316999999,-15.182994845,4.974285841,-0.456714758
615,5.124795000000006,-26.864074705,5.459838629,-141.6033707,-0.45273256299999987,-0.730324045,7.722216246,-15.33842182,-2.6026182175,0.2729325555
616,5.133127999999999,-26.989275935000002,5.476588011,-141.61180115,-1.1186460555,-0.19390330099999997,12.03450346,-16.0653553,1.8941030484999999,-0.3075245915
617,5.1414609999999925,-27.087020875,5.450556993499999,-141.5912819,-0.35018790850000003,-0.734773189,7.201338529499999,-13.190385339999999,-4.1199545855,0.3628129065
618,5.149793999999986,-27.191329005,5.449047804,-141.58216095,-1.3259008970000001,-0.48552680049999997,10.43764019,-13.77463293,-1.0128324034999996,0.5877827665
619,5.158126999999979,-27.32057381,5.4572455885,-141.58133315,-1.2750403140000002,-0.23565421250000002,13.266075134000001,-16.73220968,0.6173348430000001,0.09854447850000003
620,5.166459999999972,-27.424770355,5.445185423,-141.57559965000002,-1.762410834,-0.39425551900000005,11.128336431500001,-13.778821945,-1.9546483755,-0.2899340985
621,5.174793000000022,-27.533322335,5.4636571405000005,-141.58330535,-1.8562551145000001,-0.633338332,11.6181345005,-14.06495905,2.1657929425,-0.315938808
622,5.183126000000016,-27.631115915000002,5.4480004310000005,-141.5741348,0.11585292199999997,-0.4218433425,8.3705968855,-13.108408449999999,-2.521075965,-0.0736409445
623,5.191459000000009,-27.755016325,5.4537577630000005,-141.57585145000002,-1.6809438465,-1.064228177,10.96032572,-15.941767695,0.48065853000000036,-0.42595842300000003
624,5.199792000000002,-27.88611126,5.426894903,-141.5662994,-0.556926787,-0.7744944545000001,12.497894285000001,-17.11332321,-3.7334618579999996,-0.6659703255
625,5.208124999999996,-28.011558535,5.426018237999999,-141.56677625,-1.7321046595,-0.127626233,11.6578817355,-16.19921446,-0.2945700885,-0.5896398574999999
626,5.216457999999989,-28.132232665,5.4069812299999995,-141.55773165,-1.2227663995,-0.7675833105000001,11.406192304000001,-15.758366585000001,-2.881506324,-0.406337848
627,5.224790999999982,-28.24404144,5.3971247675,-141.54684070000002,-0.45591022049999996,0.019356131499999985,9.50129342,-14.76971054,-1.8808488865,0.190672431
628,5.233123999999975,-28.375364304999998,5.364666939,-141.53050615,-1.919171218,-0.530236691,10.4925987735,-17.088069439999998,-4.712106228500001,-0.4563946535
629,5.2414569999999685,-28.49136257,5.3398826125,-141.51403425,0.417039335,-0.41074073299999997,11.0970864315,-15.316092495,-3.7829551699999997,-0.09350487599999996
630,5.249790000000019,-28.613658905,5.3013675215,-141.4923019,-1.7710275800000002,-0.704337776,9.2462229725,-16.115621564999998,-5.658499449,-0.19680073849999996
631,5.258123000000012,-28.723563195,5.2588560585,-141.4688797,-0.7679378090000001,-0.3141426555,11.938035965000001,-14.590064524999999,-6.055488109500001,-0.4740363955
632,5.266456000000005,-28.819665909999998,5.2210609915,-141.447876,-1.2845558525,-0.18299470499999998,9.285176277,-13.03887844,-5.5407134615,-0.15764915950000002
633,5.274788999999998,-28.92328358,5.1715939045,-141.4270096,-0.8594065009999999,-0.5468842389999999,9.784108639,-13.776734825,-6.6316494635000005,-1.211489439
634,5.283121999999992,-29.025916100000003,5.149319887,-141.4281502,-1.7211301925000002,0.3652086425,13.8958542325,-13.57069397,-2.631665051,-1.602490753
635,5.291454999999985,-29.107183454999998,5.105189085,-141.4133911,-1.809042035,-0.2550494075,10.2302120945,-11.07087135,-5.722003698,-1.4913252445
636,5.299787999999978,-29.16659641,5.0882041455,-141.41872025,-0.9841662645,-0.24289353149999998,10.9964680665,-8.275857687,-1.842784405,-1.7955963314999999
637,5.3081209999999714,-29.222151755,5.0479917525,-141.40301515000002,-0.44598139800000003,-0.128359428,9.109359504,-8.010788440999999,-5.3637365699999995,-1.1592683234999999
638,5.3164540000000216,-29.271491055,5.003536224,-141.3899765,-1.0548187640000002,-0.36308539650000005,10.535634519,-7.2764935495,-5.804507194999999,-1.4517960625000002
639,5.324787000000015,-29.338014604999998,4.984745264000001,-141.3857155,-1.993483633,-0.7121874095,13.1301918025,-9.1865077015,-2.458818913,-1.109435707
640,5.333120000000008,-29.385788915,4.9507660865,-141.37789155000002,-0.6457892655,-0.531204373,10.124716757,-7.0918273925,-4.398349166,-1.3290910125
641,5.341453000000001,-29.43847084,4.944321394,-141.38966755,-2.2694824935,-0.403657831,11.580801961999999,-7.300339699,-0.22460460699999985,-2.1264173685000003
642,5.349785999999995,-29.471384999999998,4.903917074000001,-141.37609865,-0.19183100749999998,-0.40487696050000005,9.2016916275,-5.370959997,-5.4256275045,-1.0821631105
643,5.358118999999988,-29.505150795,4.883548975,-141.37265775,-1.1223072705000001,-0.4329448490000001,9.305583238,-5.2264442445,-2.5617377125000003,-1.3378700615
644,5.366451999999981,-29.563355445,4.8319869045,-141.3641281,-0.08405297249999999,-0.760741107,11.311905385,-8.291687249999999,-6.3095815785000005,-2.318204105
645,5.374784999999974,-29.605482105,4.782549619499999,-141.35152055,-1.2260211705,-0.5568820050000001,10.1968946445,-6.3930318355,-6.129468860499999,-2.0375996825
646,5.3831180000000245,-29.663279529999997,4.7325140235,-141.34933089999998,-1.183895871,-1.1310359835,10.832165719999999,-8.136785269,-5.7931662815,-2.911314249
647,5.391451000000018,-29.709699630000003,4.671967149,-141.32841489999998,-1.217923444,-0.8511001315,11.416562556999999,-6.9826595785,-7.777341545,-1.849591315
648,5.399784000000011,-29.761053085,4.607328534500001,-141.32248305000002,-1.038078211,-0.28991822899999997,9.4458222375,-7.452167987499999,-7.5289472365,-3.347781062
649,5.408117000000004,-29.82131767,4.5173574685,-141.30163955,-1.6492862700000002,-0.608927995,12.323412415,-8.5652732835,-10.841547729,-3.6958783865
650,5.4164499999999975,-29.860977169999998,4.4570537805,-141.30002595,-0.630834356,-0.19927438349999999,11.113438604999999,-6.078413248,-6.8467842359999995,-3.42169106
651,5.424782999999991,-29.888588905,4.370011091,-141.27597425,-2.064526081,-0.2207456825,9.004502893,-4.6251375675,-10.721046658,-3.2559154030000004
652,5.433115999999984,-29.912075045,4.3100510835,-141.2718391,-0.545141399,-0.625695899,11.4854421595,-4.149890542,-6.980391904999999,-3.1205567125
653,5.441448999999977,-29.93638992,4.238406062,-141.24968339999998,-1.7430510074999999,-0.473128304,9.7257187355,-4.269214392,-9.004326820500001,-2.472657561
654,5.449781999999971,-29.946748735,4.18991065,-141.2409477,-1.2861243485,-0.11317785050000001,12.478588105,-2.548693538,-6.1082528824999995,-1.9583108425
655,5.458115000000021,-29.96158123,4.1541724205,-141.23088075,-1.940229341,-0.4699600625,10.304329634,-3.0831471685,-4.538759829,-1.5220234394999999
656,5.466448000000014,-29.96320343,4.112346172,-141.2210312,-1.3692560194999999,-0.700821817,11.452794073500002,-1.4854847195,-5.508552196,-1.4301836045
657,5.474781000000007,-29.95421791,4.104122758,-141.21409605,-1.5078662930000002,-0.27554611149999997,10.3878040305,-0.1673185825,-1.496338725,-0.2228438485
658,5.4831140000000005,-29.929276465,4.060844063999999,-141.1895714,0.5167438979999999,-1.1014476119999999,6.9728146815,1.5347795485,-6.5682075025,0.103820935
659,5.491446999999994,-29.921248435000003,4.0460094215,-141.17131045000002,-2.062927793,-0.432965074,12.427592755,-0.3333116025,-2.8533556465,0.49682010699999996
660,5.499779999999987,-29.920885085000002,4.0213006735,-141.1501846,-1.056962103,-0.28572960199999997,12.119900705,-1.430824131,-4.471431969,0.9808011205
661,5.50811299999998,-29.905449869999998,4.031906724,-141.1341438,-1.8868794439999999,-0.736518502,10.943736792,0.5584287640000001,-0.07642632749999989,1.8092999459999999
662,5.5164459999999735,-29.905661585,4.0492693185,-141.12397765,-1.7957957385,-0.79838847,10.998702047,-1.3459256590000002,0.5349342825000001,2.3302936255
663,5.524779000000024,-29.903251644999997,4.0624120235,-141.09957505,-1.4089765545,-0.7701644095000001,10.088138106,-1.149253249,-0.30157589900000037,2.8978025915
664,5.533112000000017,-29.917949675000003,4.1100820305,-141.10033035,-2.0884213149999997,-1.0948550105,11.138629914,-2.9653602245,4.310241344,3.0189580915
665,5.54144500000001,-29.942653655,4.128879427999999,-141.08329774999999,0.09767663500000001,-0.875412166,10.828800204,-4.333711386,0.7372738125000002,2.4416964945000004
666,5.549778000000003,-29.981338505,4.1748099325,-141.09286880000002,-2.0111032724999998,-0.5711587220000001,11.28917408,-5.8182611465,4.6398653985,2.083686322
667,5.558110999999997,-30.036539079999997,4.2055561545,-141.08628844999998,-1.5455045699999999,-1.3222669360000001,10.210002899,-7.841082096,2.59009254,2.0185429975
668,5.56644399999999,-30.088344575,4.2574248315,-141.1000595,-1.0232252480000001,-0.35687083750000004,9.808846952,-7.3981592655,5.524779440500001,2.0327586605
669,5.574776999999983,-30.17147255,4.295528531,-141.11143115,-1.1549419535,-0.674349116,9.5890030845,-11.043347834999999,4.4385181815,0.6049507860000001
670,5.5831099999999765,-30.244549755,4.316434741,-141.12400435,-0.9866650405,0.03824107350000003,11.796675205,-9.89942932,2.2095738945,0.26773893849999997
671,5.59144299999997,-30.28185749,4.3675432205,-141.13418195,-1.231166184,0.8375386300000001,8.990532876,-5.605919123,5.6980093145,1.6117118825
672,5.59977600000002,-30.268013955,4.3903434279999995,-141.1297073,-1.1626090705,1.0221048895,9.184251307,0.416788578,1.3808834559999998,2.0924335569999997
673,5.608109000000013,-30.199699405,4.4303697345,-141.11703875,-0.9124220314999999,1.6568748059999998,10.1079611755,6.8828156575,3.169986412,3.273294687
674,5.616442000000006,-30.040727615,4.4504967925,-141.09265134999998,-1.0071381629999998,2.293757081,8.235600591,17.5866642,-0.069715619,4.0341542955
675,5.624775,-29.811119079999997,4.5098323825,-141.0703316,-1.868149638,2.0753833055,11.925366877,26.197782515,4.6139583585,5.375368356499999
676,5.633107999999993,-29.462520599999998,4.5524123905,-141.0334091,-1.0442283155,2.5272197725,10.887222765499999,40.171691895,1.5732522010000003,6.69941473
677,5.641440999999986,-29.01606464,4.614836693,-140.9960213,-1.542448841,2.6593430045,11.956728456,52.11997986,4.1268854135,7.044585228
678,5.649773999999979,-28.430831910000002,4.665036559000001,-140.94709395,-1.51284343,3.1344329120000003,8.641124248499999,68.42247963,1.7797124359999996,8.4036328795
679,5.658106999999973,-27.74267483,4.7495145794999996,-140.9084053,-2.4765969809999997,2.701241612,10.479569912999999,81.050048825,6.541218282,8.3702299595
680,5.666440000000023,-26.9466095,4.829553604,-140.86708829999998,-1.5330171585,2.4189803605,10.680645465000001,93.85393902999999,5.5721890925,9.199748754
681,5.674773000000016,-26.021174430000002,4.94157815,-140.82730485000002,-2.033072114,2.7664682865,11.521452905,109.4533043,9.6867992885,9.7724204045
682,5.683106000000009,-24.994416235,5.058414698,-140.79472735,-2.2390973570000003,2.2390300035,10.945218086,121.6120949,10.324448109,9.964277269
683,5.691439000000003,-23.8715477,5.2005794045,-140.76324465,-1.2848584655000002,2.9521434305,10.896893026499999,133.21991345,13.74781847,9.9990186675
684,5.699771999999996,-22.64205456,5.3534379004999995,-140.73525999999998,-2.4393036365,2.1154402495,13.4206681235,146.00355530000002,15.12881231,10.253271582
685,5.708104999999989,-21.316735270000002,5.502074003500001,-140.70450590000002,-0.9593663885,2.1159327625,10.290014984,157.55815885,14.93643141,9.629269600499999
686,5.716437999999982,-19.885742184999998,5.678745985,-140.68149565,-2.7800994515,2.0564669375,10.104315040500001,170.13282015,18.322517395,10.407721997
687,5.724770999999976,-18.390901565,5.847724438,-140.6443787,-0.34058845049999986,0.8137405295,10.76651597,177.80970765,17.48167658,10.3860602365
688,5.733103999999969,-16.83370781,6.0491058825,-140.611805,-2.982866347,1.7970992325,12.193343165,185.1781006,21.40093994,11.270534515
689,5.741437000000019,-15.189995285,6.2304453849999994,-140.56326295,-0.6410603524999999,1.1100619435,10.132283927,195.48645019999998,19.10356903,11.0880656255
690,5.749770000000012,-13.510094169999999,6.468299389,-140.51423645,-2.809706509,0.802517325,10.1857037535,199.6919327,25.84713173,12.81619787
691,5.7581030000000055,-11.775157929999999,6.662603617,-140.4354248,0.7456718684999999,0.513520643,11.5554318445,205.97208404999998,20.481616975,13.77502775
692,5.766435999999999,-10.010104656500001,6.902664185,-140.35743335,-3.5536967520000005,1.0786666870000001,14.9326334,209.48184205,26.257573125,14.407475475
693,5.774768999999992,-8.197278261,7.0881402495,-140.26027295,-0.598730941,0.2368512525,9.732366559999999,214.98737334999998,19.93481064,14.456775190000002
694,5.783101999999985,-6.3804404735,7.326482773,-140.15927125,-1.618370097,-0.569840476,10.1329512585,215.31697845,26.63719845,15.007646560000001
695,5.791434999999979,-4.5697226525,7.486658812,-140.04724885000002,0.47928988900000014,-1.0364454235,9.7187182905,214.4207535,17.643014905,14.66139555
696,5.799767999999972,-2.7469516995,7.651931524,-139.93600845,-1.1736789645,-0.06983128200000002,12.771022795,215.8150406,18.742738725,13.59128523
697,5.808101000000022,-0.984404683,7.791740656,-139.82458880000001,-1.6838961239999999,-2.5151000025,11.014009954,208.59825135,16.13351965,13.31791782
698,5.816434000000015,0.752989024,7.8887043,-139.70726015,0.5959890635,-2.160607576,11.77268982,205.41963195,11.3726596825,12.949337005
699,5.8247670000000085,2.450928211,7.977345466499999,-139.5928688,-0.4385737625,-1.6168401835,13.892928125000001,200.74627685000002,10.806113242,12.838604924999999
700,5.833100000000002,4.0730956795,8.007806778,-139.47097775,-1.309233189,-2.6276347635,11.5822734845,191.5085144,4.202953816,13.103286740000001
701,5.841432999999995,5.6691110135,7.986727953000001,-139.3541641,0.22515356550000004,-2.356413394,10.340579511,188.45323185,-1.555217147,13.574972155000001
702,5.849765999999988,7.206798315,7.9705238345,-139.2362976,-0.39913374199999996,-1.5469973685,10.996887685999999,181.43260955,-0.6757143735,12.956020355
703,5.8580989999999815,8.665045738,7.9085042475,-139.1274071,-1.9554495809999999,-2.763503194,9.835281369499999,172.0740204,-5.795549035,13.38935757
704,5.866431999999975,10.0874905585,7.7983613015,-139.03047945,0.6652356389999999,-2.577820003,11.295720577,167.90549470000002,-11.4663462655,12.671451565
705,5.874764999999968,11.471900940000001,7.7094378475,-138.9401398,-1.7464823875000002,-1.8103284835,12.950995445499998,163.55023195,-8.690495491,12.076327803
706,5.883098000000018,12.755475525,7.5884103775,-138.8606262,-0.845428139,-2.5083346365,10.621992590000001,151.57254030000001,-12.509589433,11.53656769
707,5.891431000000011,13.9732728,7.436876059,-138.7990532,-1.1965562115000001,-2.9533480405,10.705884455,144.0152359,-16.22439575,10.86012459
708,5.899764000000005,15.15572643,7.259894848,-138.74663925,-0.4019376785,-2.743053079,12.706386089999999,139.93801115000002,-19.282277105,10.641224859000001
709,5.908096999999998,16.28941536,7.0886175635,-138.6978302,-0.6256198735,-2.0221748355,10.603547097,134.15319825,-18.4375782,10.687597275
710,5.916429999999991,17.322104455,6.894053936,-138.67188265,-0.467197329,-2.4800701145,9.400799275499999,122.33107375,-21.70871735,9.162708282499999
711,5.9247629999999845,18.26047325,6.6992900375,-138.6517334,-2.574842453,-3.4249869585,13.362919805,111.1792221,-21.747550965,8.9520196915
712,5.933095999999978,19.159459115,6.486529112,-138.64861295,0.093618333,-3.2368202205000003,11.4983034155,106.6337891,-24.290042874999997,8.071130991
713,5.941428999999971,20.010876655,6.253951311,-138.65814975,-1.9657379985,-2.6126246450000004,12.27345133,101.102424595,-26.905220035,7.805745363
714,5.949762000000021,20.782800675,6.0263381005,-138.67196275,0.253111195,-2.4544268845,11.066962001499999,91.67039871,-26.387784005,7.546616316
715,5.958095000000014,21.46220207,5.788800001,-138.7023201,-1.856755376,-2.679414272,9.155024766,80.666290285,-28.12439442,6.402960062
716,5.966428000000008,22.073743825,5.553649902,-138.7431221,-0.1004278435,-2.496255517,10.8653569205,72.715305325,-28.176114079999998,5.6356992725
717,5.974761000000001,22.62476063,5.27183795,-138.80759045,-1.8810896874999998,-3.0873744485000003,11.48905802,65.620588305,-34.429576874999995,5.2570921185
718,5.983093999999994,23.10816765,5.0065408945000005,-138.87467955,-1.448517889,-3.3345868585,14.47415686,57.59397697,-32.60998249,4.6833376585
719,5.991426999999987,23.55218792,4.7261540890000004,-138.95090865,-0.5801246465000001,-2.024385214,9.573018791500001,52.860586170000005,-34.722200395,4.4929489270000005
720,5.999759999999981,23.93937588,4.459962845,-139.03409955,-2.0904970169999997,-2.1221833825000003,10.0940775875,46.059215545,-33.38764095,3.4709001930000003
721,6.008092999999974,24.274355885,4.1813937425,-139.11848450000002,-0.0904754065,-2.326829195,9.907952071,39.830671315000004,-34.85165405,4.0050663945
722,6.016426000000024,24.543769835,3.930191636,-139.1960373,-3.5641480684999998,-1.9081779714999998,13.81435156,31.789559365,-31.457040785000004,3.6482683419999997
723,6.024759000000017,24.789831165000002,3.7105938194999997,-139.2495804,-1.1980515120000002,-1.5224769115,9.5557074525,28.880786895,-26.84389305,4.752126693999999
724,6.033092000000011,24.997049335,3.5233891010000002,-139.2985687,-3.554069042,-1.5055326224999999,10.874778745,23.995965005,-23.01833534,3.7501455545
725,6.041425000000004,25.16504574,3.3394210335,-139.33260725,-0.7140221895,-2.105704606,10.272916795,19.347575185,-21.95736313,5.2311090235
726,6.049757999999997,25.302714345,3.1915268305,-139.35176465,-2.119167447,-1.2886959315,12.193002223499999,15.408967494999999,-17.201912399999998,5.104688406
727,6.05809099999999,25.434930805,3.0470240115,-139.36125565,-1.824975908,-1.0835680965,11.533092974999999,14.869596005,-16.39672995,5.956643581
728,6.066423999999984,25.534235955,2.9449714425,-139.3577347,-2.9225964545,-1.7471711635,9.7203474045,10.65365362,-11.034844395,5.274099648
729,6.074756999999977,25.60837841,2.866158009,-139.3407402,-2.4596282245,-1.1720763145,13.397288325,7.7363462445,-7.9015188215,5.4601365325
730,6.08308999999997,25.66836643,2.7985709905,-139.3242607,-1.61945349,-0.5609584595,9.983907222500001,5.8582959175,-6.6028888225,4.943867676
731,6.09142300000002,25.72225952,2.798644662,-139.2866554,-3.3035404684999996,-0.8924668615,11.50725365,5.185640812,1.7145850065000001,3.6052038984999997
732,6.0997560000000135,25.779066085,2.7717633839999998,-139.26871870000002,-1.2697972355,-1.1478963345,11.66902685,5.4553194045,-2.1346964835,2.941596344
733,6.108089000000007,25.81818104,2.809261501,-139.21700285,-2.4685458390000004,-0.960585609,8.4233989715,3.36049813,6.503616513500001,3.2009285690000002
734,6.116422,25.84793758,2.8515579105,-139.18392945,-0.8860347865,-1.1365890905,11.672576905,2.0873040554999998,6.1181527595,0.8984646800000002
735,6.124754999999993,25.85975647,2.8805756565,-139.14421465,-2.837278962,-0.5144495665,8.462173938500001,0.14070534700000004,4.954266429,2.3196183439999998
736,6.1330879999999866,25.84811306,2.9554306269999997,-139.0846977,1.2586000410000002,-1.477067485,8.952717781,-2.9754012825,10.94797325,1.947713137
737,6.14142099999998,25.843541145000003,3.0201591850000002,-139.03599165,-4.4664344785,-0.14184376599999998,11.8528251635,-1.9937609435,9.2960720055,1.3815229535
738,6.149753999999973,25.850404740000002,3.0811005829999996,-138.9860802,1.2159456014999999,-0.3492679744999999,8.7677502635,-0.632466748,8.923821448,1.6597770454999998
739,6.158087000000023,25.83318615,3.1883529425,-138.913929,-3.6272433695000004,-0.7174516169999999,9.521241187,-3.7116315365,15.13317585,1.7035902145000001
740,6.166420000000016,25.854393955,3.284749627,-138.853981,-0.04231452899999999,0.07670074700000007,13.33128405,1.0208616849999999,13.264602665,0.8734645245000001
741,6.17475300000001,25.88431358,3.382510662,-138.7863312,-3.721156359,0.43758286500000004,9.678766728,1.9086258115,13.886125565,1.705946505
742,6.183086000000003,25.913417815,3.5269751549999997,-138.70326615,0.7383009495000001,0.0035815240000000026,9.9938428425,1.8504371045,19.642014505,0.843112707
743,6.191418999999996,25.993879319999998,3.647582054,-138.6334114,-3.99421525,0.030383616499999988,11.063990115,7.821437121,16.485749245,0.6856997009999999
744,6.1997519999999895,26.07904148,3.766361475,-138.5719833,0.2084549670000001,0.6119459865000001,9.062446353999999,8.760225296,15.736994265,-0.14872169499999988
745,6.208084999999983,26.167348859999997,3.8987747429999997,-138.49990465,-1.9935519099999999,-0.003192633500000014,11.1266264925,8.708586694000001,17.878242489999998,0.2550859449999998
746,6.216417999999976,26.28972912,4.013583541,-138.44200515,-1.2354118079999998,-0.7608092725,11.2527627965,13.20037794,15.12763357,-0.3835546970000001
747,6.224750999999969,26.404298785,4.110822558,-138.38863755,-0.9922241865,-0.907308936,9.8912451285,11.996987820000001,13.102984905,0.057337522500000127
748,6.233084000000019,26.496951105,4.2315945625,-138.3283806,-1.801833242,-0.667810902,11.544261455000001,9.588013173,15.877578255,-0.5412364009999999
749,6.241417000000013,26.61005306,4.3184934854999995,-138.29151915,-0.58091563,0.26135218149999995,12.170352935,11.918653015,11.1107418515,-1.2215881345000001
750,6.249750000000006,26.704304694999998,4.423793197,-138.25266265,-2.223580301,-0.30532279600000006,8.249570609000001,9.958587169,13.074213505,-2.0437667370000003
751,6.258082999999999,26.788401604999997,4.5400136710000005,-138.2062569,0.206839621,-0.21348461549999997,11.843243125,8.3970263005,14.745733739999999,-1.8183225395000002
752,6.266415999999992,26.864755629999998,4.619908571,-138.1763039,-2.938866377,-0.6013046135000001,10.4450712215,7.790787696500001,9.889988897999999,-1.6717965009999998
753,6.274748999999986,26.9434433,4.7312146429999995,-138.13523485,-0.24977421749999995,-0.2829374695,8.597446678499999,7.874323606500001,13.91414833,-2.1284343895
754,6.283081999999979,27.01613903,4.803485632,-138.1071739,-2.6429848075000004,-1.2085376085,12.212216380000001,7.3025038245000005,8.97309065,-1.5134749
755,6.291414999999972,27.09227085,4.8762124775,-138.09142685,-0.092833787,-0.2064315225,10.660249709999999,7.806694746,8.4140861015,-2.750598073
756,6.299748000000022,27.15926743,4.991864204500001,-138.05821605,-2.1037636995,0.167925205,10.263141154,6.5930037495,13.88806725,-3.3298768995000003
757,6.308081000000016,27.19711208,5.088744879,-138.0400162,-1.502581507,-0.10138244900000001,11.152254579000001,3.1402798890000003,11.115605353,-3.871323228
758,6.316414000000009,27.211513515,5.222088814,-137.99567795000002,-2.1628680525,-0.46470027399999997,10.079865454,0.215101883,16.368858815,-3.1138589975
759,6.324747000000002,27.244958875000002,5.356858968999999,-137.9585495,-2.063525915,-0.6487565635,12.2566866885,2.36547488,16.196217060000002,-3.959243834
760,6.333079999999995,27.29631424,5.4791252615,-137.92100905,-2.995103121,-0.25145071750000003,9.41122055,4.68364048,14.81838846,-3.2457976195000002
761,6.341412999999989,27.35278702,5.6549515725,-137.85442735,0.364318492,0.023012399500000003,11.652122495499999,4.8365585805,22.174944875,-3.0883352755000004
762,6.349745999999982,27.396629335,5.8201687335,-137.7936287,-4.271422744,0.8451998235,11.44627333,3.3829375505,20.662600519999998,-3.256377101
763,6.358078999999975,27.41928291,6.032133818,-137.70632175,-0.738022655,-0.6208859090000001,7.413401604000001,0.5808544755,27.142400745,-2.8749430780000003
764,6.366411999999968,27.44383335,6.238894939,-137.6199112,-3.3513715265,-1.211777091,13.062526225,0.6186797915000001,26.504247665,-2.887045488
765,6.3747450000000185,27.474698065,6.444585323,-137.54547885,-0.5446275585,-0.460121855,10.628614905,1.640387483,25.762572289999998,-3.9321074485
766,6.383078000000012,27.486987114999998,6.7263975145,-137.4351807,-2.4884997605,0.26600616450000003,10.1320033095,-1.197543621,35.792772295,-4.5237094165
767,6.391411000000005,27.456727025,6.960504532,-137.35954665,-1.2053627820000001,-0.6429433819999999,10.352381231999999,-5.865433931,28.84436798,-5.455734253
768,6.399743999999998,27.452386855,7.219852685999999,-137.2769165,-1.2858348265000001,-0.881142423,10.695246222,-2.886918724,31.90034294,-6.146218419
769,6.408076999999992,27.467612265,7.4769494535,-137.1971245,-1.9581113904999998,0.43740317250000005,11.064898495,-0.5288576075,31.513002395,-6.2840873
770,6.416409999999985,27.475756644999997,7.72855401,-137.11357115,-0.9913165534999999,0.931119263,7.785822393,-1.498837441,31.096464155,-5.6955859664999995
771,6.424742999999978,27.513269425,7.976866484,-137.02668,-1.423184574,0.634090342,11.67395592,1.9572176929999998,30.960155485,-5.067793965
772,6.433075999999971,27.605584145,8.209673881499999,-136.93166349999998,-0.6155659455,0.7121178355,8.0738203525,8.33561039,29.726386069999997,-3.4635088444999997
773,6.4414090000000215,27.72704792,8.422610998,-136.83855054999998,-1.206619501,0.4039082155,9.036975384,11.806493519,27.531700135,-2.555803001
774,6.449742000000015,27.88106251,8.621026753999999,-136.74484255,-0.178562522,0.4862076785,11.1386761685,15.70796871,25.945295335,-1.8770895005
