,time,Euler_X,Euler_Y,Euler_Z,Acc_X,Acc_Y,Acc_Z,Gyr_X,Gyr_Y,Gyr_Z
0,0.0,-8.239295800333332,17.530242283333337,-34.977918,-2.321384549,-0.6508419639999999,10.926938057333333,26.89369456,-25.534775416666665,-2.2497819463333335
1,0.0027776666667401998,-7.987521171333334,17.33383369666667,-34.96753183333333,-2.083653768,-0.952198873,6.622549534,29.132985433333335,-23.911252973333333,-2.516930436
2,0.005555333333328833,-7.738537947,17.125443776666668,-34.94642129999999,-1.291281114,-0.42851113300000004,10.24028047,28.427862166666667,-25.517104466666666,-1.3637505173333333
3,0.008333000000069033,-7.465196768666666,16.936055503333332,-34.9294408,-2.129286597,-1.4493900536666668,7.848568598666667,31.49893125,-23.19273185666667,-1.4508136113333334
4,0.011110666666657667,-7.204123815,16.764115016666665,-34.92475889999999,-3.585579792666667,-0.2994196116666667,7.985573451333334,30.464701970000004,-20.939477919999998,-2.470821152
5,0.013888333333397868,-6.965846856333333,16.647641500000002,-34.95161693333333,-1.732967299666667,-1.0443631086666667,7.399689833333333,28.832187016666666,-13.917596816666666,-5.163300753
6,0.0166659999999865,-6.704830010666666,16.52917067,-34.97555286666667,-2.9392543633333332,-1.0448108913333334,6.936632077,31.42361895,-14.191320102333336,-4.820428530666667
7,0.01944366666672673,-6.476823806666666,16.436400413333335,-35.033699033333335,-2.642687877333333,-1.3251335223333334,7.547354539333334,28.657643633333333,-10.717628319333334,-8.272798855666666
8,0.022221333333315368,-6.263453960333334,16.459886233333332,-35.101150499999996,-3.484976212,-1.0523735283333333,7.179342906,27.183143613333332,3.267725448,-7.799450556333333
9,0.024999000000055564,-6.070006847333334,16.410989763333333,-35.16145073333333,-0.916015605,-2.0438252286666665,7.4311215876666665,24.57226117333333,-5.510632595000001,-7.917736530333333
10,0.0277766666666442,-5.889406522333334,16.490239143333334,-35.22017163333333,-5.094911734333333,-0.6327212453333334,4.047207355333334,22.93838056,9.777480919,-6.046461423333334
11,0.030554333333384403,-5.751393954,16.605542503333336,-35.27261606666667,-0.9144192733333334,-2.186328888,8.968808649333333,17.67324161666667,13.946021557666667,-5.022027333666666
12,0.03333199999997303,-5.612189928333333,16.71318213,-35.30390166666667,-4.114820321333334,-1.037222028,4.199380477666667,17.052953723333335,12.814018963333334,-2.6352790793333334
13,0.03610966666671323,-5.527842522,16.90925057666667,-35.33195493333333,-1.137006819,-2.153609673,4.317052445000001,10.402545611,23.30797704,-1.3039962203333333
14,0.03888733333330187,-5.470219612,17.15777842,-35.356870033333344,-3.646839877,-1.4292219676666669,4.410261949,7.079822859,29.55621655666667,-0.34656518666666664
15,0.0416650000000421,-5.427805265,17.371106466666664,-35.36618803333334,-1.27823929,-1.9908221563333335,4.287289579666667,4.7132140793333335,25.165246963333335,1.0250139433333334
16,0.044442666666630735,-5.3972633676666675,17.69182268666667,-35.37587226666667,-2.607286453,-1.1535398166666668,5.983025749,3.296748002333333,38.02919451333333,2.1338099736666667
17,0.04722033333337094,-5.448558807666667,17.977785110000003,-35.38410186666667,-2.018037676666667,-1.8179692033333332,4.302571534999999,-6.546378294666667,33.814747493333336,1.9600037536666666
18,0.04999799999995957,-5.488914966666667,18.31994501666667,-35.391062399999996,-0.5829280616666667,-1.187493324,2.779699246333333,-5.293393969666666,40.549502053333335,2.7417517896666666
19,0.05277566666669977,-5.56247743,18.66242472,-35.39816283333334,-2.38872838,-1.566821659333333,2.9873721599999996,-9.266753197,40.564769743333336,2.797010263
20,0.0555533333332884,-5.657789389333334,19.016989386666665,-35.40671796666667,-1.24567916,-1.1333810489999998,2.3265084823333333,-11.808292706666668,42.03594335,2.8138008913333334
21,0.0583310000000286,-5.754330635,19.358332316666665,-35.416572566666666,-0.819091439,-0.7116735083333333,2.6880955696666664,-11.895285604999998,40.445788066666665,2.592433532333333
22,0.06110866666661723,-5.871812343666668,19.7340374,-35.4278539,-1.8749313356666668,-1.7409203053333335,2.5107197363333333,-14.35124779,44.590009053333326,2.902205546333333
23,0.06388633333335747,-6.0059920946666665,20.083218256666665,-35.44396976666667,-0.5430460629999999,-0.5269641676666666,1.1768927573333334,-16.14156945666667,41.434319816666665,2.1622466843333332
24,0.0666639999999461,-6.137282212333333,20.425706863333332,-35.459294633333336,-0.8591260313333334,-0.14438686766666664,4.0472724436666665,-15.837521233333334,40.65367126333334,2.2586539983333336
25,0.0694416666666863,-6.273407459333334,20.774229046666665,-35.481852200000006,-1.4248805443333332,-0.8631496826666666,3.968155145333333,-16.068785986666665,41.4242452,1.6246200796666666
26,0.07221933333327493,-6.415402571666667,21.115223566666668,-35.522460966666664,-0.8593043783333333,-0.24349207699999997,2.8825373649999997,-16.000714300000002,40.766897836666665,-0.36421778799999993
27,0.07499700000001513,-6.564071337333334,21.45473099,-35.5584437,-0.24789174433333327,-1.1001716603333334,1.963242034,-16.98114490333333,40.51903152666667,0.2149082916666667
28,0.07777466666660376,-6.719693183666666,21.747828799999997,-35.5994746,0.21087643999999997,-0.8926433226666667,0.20526949566666666,-17.564849216666666,35.06630897666667,-0.8155667186666666
29,0.08055233333334397,-6.880930741666667,22.034334183333332,-35.6395696,-1.5352383493333335,-0.28705738966666666,1.4946173033333334,-18.267806373333332,34.244584403333334,-0.7452855509999999
30,0.0833299999999326,-7.0476400056666675,22.318586986666663,-35.677859,-0.5326712626666666,-0.6398188130000001,0.4758453766666666,-18.95959759,33.963927590000004,-0.462000191
31,0.08610766666667284,-7.19282341,22.583189646666664,-35.70484926666666,-0.1342673996666667,0.004653384333333362,3.1991366246666666,-16.90590604333333,31.465389886666667,0.5880947509999999
32,0.08888533333326147,-7.314376831,22.83100764,-35.7185974,-1.5794477856666667,-0.19464479866666662,3.772636811,-14.640119233333332,29.28422991333333,1.8630317250000001
33,0.09166300000000166,-7.428857644333334,23.077500663333335,-35.739786800000005,0.23831174766666666,-0.6499610346666667,1.3318044546666667,-13.440493426333333,29.207029343333335,1.1086020269999999
34,0.09444066666674188,-7.54216067,23.265309013333333,-35.7450485,0.5985419003333333,0.22120587033333328,1.441626608,-14.055436136666666,22.025117240000004,2.0048061213333335
35,0.0972183333333305,-7.658991813666667,23.43351300666667,-35.75140636666667,-0.551703125,-0.8478904963333332,2.2757546306666665,-14.430282276666667,19.67713483333333,1.604600221
36,0.09999600000007074,-7.7387828826666665,23.582907996666666,-35.7605006,-0.7653913546666665,0.09199821966666659,1.8166465563333334,-9.827194691333332,17.490219753333335,1.0349861776666667
37,0.10277366666665937,-7.787662664999999,23.69905726,-35.77192436666667,0.11864698933333336,1.2655760646666667,2.5387698013333333,-6.014257591333333,13.557116826666666,0.26496646766666665
38,0.10555133333339957,-7.810573895666667,23.780970256666667,-35.76812996666667,-0.19413981833333324,-0.6149564683333333,3.1957824233333336,-3.6339866320000005,9.277323881333333,1.3844324749999999
39,0.1083289999999882,-7.805064201333333,23.826421736666664,-35.75690206666666,-0.007550671666666675,0.1899534066666666,3.1372805436666664,-0.5843292076666665,4.815058151666666,1.5910710493333333
40,0.1111066666667284,-7.776815255333333,23.83682696,-35.73552706666667,-0.24822224766666667,0.9066149393333335,3.8112382886666665,1.6601654043333332,0.5212109883333333,2.1387802363333335
41,0.11388433333331703,-7.7060259186666675,23.821290333333334,-35.7077357,-0.7114034193333333,-0.6220392116666666,4.050979217,6.4510916069999995,-2.6913734376666665,2.392292896666667
42,0.11666200000005723,-7.602012157666667,23.76582845,-35.67738339999999,0.4002806146666667,0.5585015216666666,3.6685891549999994,10.324057897666666,-7.446943284666666,2.062629322333333
43,0.11943966666664586,-7.485882282333333,23.675371806666664,-35.641174299999996,-1.266155549,0.34591246633333333,3.536158681,11.483386199,-11.70456028,2.1406674779999997
44,0.1222173333333861,-7.342000166666668,23.55836868333333,-35.60960386666667,-0.027798473666666768,-0.1938944756666666,4.898702939666666,15.061999956666668,-14.782502493333334,1.2826503913333334
45,0.12499499999997472,-7.168805599333333,23.39647611,-35.56859333333334,-1.0751741726666666,0.7183918456666666,4.976372878,18.112302146666664,-20.257048286666667,1.6417368053333334
46,0.12777266666671494,-6.973986784666667,23.221658073333334,-35.5357539,-0.19403592733333333,-0.280774618,5.516807237999999,21.14563497,-21.673121769999998,0.6559466523333334
47,0.13055033333330357,-6.742849509,23.028670629999997,-35.497787466666665,-0.7356805006666666,-1.0947460833333333,5.267963568333333,25.242343899999998,-23.91467603,1.0184359746666667
48,0.13332800000004377,-6.4953980446666675,22.822895053333337,-35.45879366666667,-1.7446195606666668,0.4527186056666667,5.501612900333334,27.178070066666667,-25.433375039999998,1.0820361273333334
49,0.1361056666666324,-6.280355453666666,22.592437743333335,-35.425020833333335,-1.1363489630000003,-0.4545677626666667,7.913325069999999,23.56160672333333,-28.322553,0.2672725123333333
50,0.1388833333333726,-6.046024163666666,22.377401986666666,-35.381502766666664,-0.3244763906666666,-1.0131493856666667,8.254950362666667,25.412419,-26.563280743333337,1.6581095459999997
51,0.14166099999996123,-5.799623966333333,22.170524600000004,-35.348467500000005,-3.2073004050000002,-0.048419634333333406,4.5865224200000005,27.389055253333336,-25.51343917666667,0.7328108649999999
52,0.14443866666670147,-5.555841287,21.896287283333333,-35.30072020000001,0.1432386636666667,-1.9191883800000002,7.435854990333333,26.389396033333337,-33.63710403333334,1.6421825486666668
53,0.1472163333332901,-5.306364536333334,21.735922496666664,-35.2685979,-4.133812904333333,0.15247939533333335,8.629686592666667,27.840026223333336,-19.959460573333335,1.3862092096666665
54,0.1499940000000303,-5.081848144333333,21.399798076666666,-35.20955656666666,2.3832952183333336,-1.476226469,9.375123181333334,23.622887293333335,-41.125670113333335,2.5259538393333334
55,0.15277166666661893,-4.866113662666667,21.27903747666667,-35.15777333333333,-6.325152714999999,-0.38572752500000007,7.536004236333333,22.93917401666667,-15.386022566,4.190457483333334
56,0.15554933333335913,-4.635208924333334,20.973443983333336,-35.093991566666666,2.442727923333333,-0.998653114,9.218004068,24.271050770000002,-37.51547559,3.6305548350000003
57,0.15832699999994776,-4.393693447,20.726921083333334,-35.01673636666667,-5.316966573666667,-0.592696597,12.228689987333334,24.97243245333333,-30.60661697666667,6.007621765333333
58,0.16110466666668796,-4.157584031333333,20.541279473333333,-34.96205903333333,-0.1033318039999999,-0.9471625683333332,11.385946590333333,25.350596746666668,-23.05511093,4.0634509523333335
59,0.1638823333332766,-3.9596579076666667,20.226936976666664,-34.88398743333333,-2.350465741,-0.8060280329999999,12.390949884333333,19.76478831,-38.678222653333336,5.7155356416666665
60,0.16666000000001682,-3.764539082666667,20.04439989666667,-34.843365999999996,-2.5646522839999997,-1.457335159,10.85869964,21.07985877666667,-22.56848526,2.748541593666667
61,0.16943766666660545,-3.5534928640000003,19.72979736,-34.78091176666666,-0.4971112113333333,-1.337146322,13.78931395366667,22.042765936666665,-38.53035863333333,4.206452943333333
62,0.17221533333334568,-3.363867680333333,19.52506892,-34.73758696666666,-4.638177951,-0.5722608443333334,11.778688269666667,20.33694394666667,-25.215466180000004,3.0782741113333336
63,0.1749929999999343,-3.194113652,19.29684702666667,-34.6937205,-1.5327153206666664,-1.9247915346666666,13.954695065000001,17.90781434333333,-28.035792033333333,2.9754329223333333
64,0.17777066666667451,-3.004580577,19.02604230333333,-34.6515808,-2.1255361736666667,0.17817641266666664,13.97197056,20.394083023333334,-33.102617263333336,2.759090846
65,0.18054833333326314,-2.8310420513333336,18.883152643333336,-34.612958266666666,-3.286816835333333,-1.861694495,13.496658962666666,18.59568532333333,-17.757670083333334,3.125647505
66,0.18332600000000335,-2.6624635856666665,18.66786448,-34.57515463333333,-1.534240933666667,-0.7169618606666667,14.532241823333331,18.105242410000002,-26.41587448,2.6510038176666666
67,0.18610366666674358,-2.489713271333333,18.478405633333335,-34.53626250000001,-4.276112318,-0.6492057640000001,14.817116100000002,18.524487179999998,-23.315946896666663,3.063922646
68,0.1888813333333322,-2.3165107170000003,18.339930216666666,-34.49741363333333,-3.366287966666667,-1.05062009,15.067619963333334,18.63729985333333,-17.180716196666665,3.339257160666667
69,0.1916590000000724,-2.167869051333333,18.16735522,-34.45717366666667,-1.353753547,-1.216998746,11.705710411666665,15.605789823333332,-21.2764136,3.3883040026666666
70,0.19443666666666104,-2.055619994666667,17.994393666666667,-34.42912293333333,-2.4126402536666665,-1.790661623,14.323708536666667,11.756539662666667,-21.244394939999996,2.0699258646666667
71,0.19721433333340124,-1.927466114666667,17.848936716666667,-34.39930723333334,-3.3513522146666666,-2.311118602666667,13.989880877,13.57065455,-17.983789126666668,2.4252468346666665
72,0.19999199999998987,-1.82645909,17.708068846666666,-34.37117513333334,-3.0274301766666665,-1.2006343403333333,13.745949426666668,10.403621675333333,-17.387212116666664,2.2824298940000003
73,0.2027696666667301,-1.7491022349999998,17.578411103333334,-34.3539251,-1.5837952396666666,-2.0617988306666666,12.765645663333332,7.953883649000001,-16.02461942,1.1002597066666666
74,0.20554733333331873,-1.6866956553333334,17.442686716666667,-34.3257141,-2.782763004,-1.9991995096666664,15.78941345,5.796472867000001,-16.767894746666666,2.383631291666667
75,0.20832500000005894,-1.6101188263333335,17.35285187,-34.30240630000001,-3.096957365666667,-0.876860718,18.91491317666667,7.638068358333332,-11.257954437999999,1.9926515420000002
76,0.21110266666664756,-1.5751222373333336,17.251066843333334,-34.28024293333334,-2.5526339213333333,-1.7860067099999999,11.221428872333334,2.729888916,-12.651936216666668,1.8397812543333334
77,0.21388033333338777,-1.5912703673333333,17.167228066666667,-34.27014413333333,-3.3449335893333334,-3.0233707426666663,14.739287056666669,-2.999610881,-10.515259742333333,0.49257023133333333
78,0.2166579999999764,-1.5551062026666667,17.067041396666667,-34.25648246666667,-3.175673922,0.783262685,16.48552386,3.1779030163333335,-12.444320042333333,0.8583589396666667
79,0.21943566666671663,-1.5460328263333334,16.993467966666667,-34.243543,-2.059610168,-2.1858364740000003,13.955836294333333,-0.07326952633333324,-9.274321397,0.8841013856666665
80,0.22221333333330526,-1.5741414626666668,16.940045676666667,-34.23381043333334,-3.5926346183333333,-1.9698985516666665,13.36995125,-4.383876721,-6.827718178333334,0.5713642143333332
81,0.22499100000004546,-1.6054656903333333,16.87687619333333,-34.22442626666667,-2.0089259746666666,-0.6979358793333333,17.988892240000002,-4.789447943333333,-8.015860398666666,0.4848602813333332
82,0.2277686666666341,-1.6598141986666668,16.840552013333333,-34.2115504,-3.2238940396666664,-3.3142181236666666,15.573654173333333,-7.654695749999999,-4.765930970333333,0.9819304943333331
83,0.2305463333333743,-1.7416060766666668,16.812187509999998,-34.204483033333325,-3.1781565346666665,-1.8130982223333332,11.613717238,-10.765109538666666,-3.853559534,0.34487862399999997
84,0.23332399999996292,-1.839358131,16.805995623333335,-34.1968104,-3.819902897,0.14271712300000003,14.975646496000001,-12.678092639333334,-1.1349242626666667,0.5009291020000001
85,0.23610166666670315,-1.8951053223333334,16.821954090000002,-34.194953899999994,-1.8068674206666666,-3.104989946,14.934096019999998,-7.453281402666668,1.4784791469999998,-0.11743701500000003
86,0.23887933333329178,-2.0268543959999996,16.819474536666664,-34.18865966666667,-3.9698605536666665,-1.7562119859999996,12.319522499666666,-16.7254041,-0.6943937933333335,0.341211627
87,0.24165700000003199,-2.2096161446666667,16.814730963333332,-34.1933848,-1.9128890833333336,-0.40585799366666664,14.096491176666666,-22.449764249999998,-0.971134298,-0.9339720803333332
88,0.24443466666662061,-2.355135043666667,16.841156643333335,-34.19713083333334,-2.919823627,-2.2472054956666665,17.316319784333334,-18.054305393333333,2.804388185333334,-0.5589710026666667
89,0.24721233333336082,-2.4989680450000002,16.856598853333335,-34.20508066666667,-2.6074893476666667,-1.8678408859999998,14.320135433333334,-17.675138156666666,1.4736295540000002,-1.2170307636666668
90,0.24998999999994945,-2.6940343380000003,16.885698316666666,-34.210736600000004,-2.9388324420000003,-2.362861792,9.389633892666668,-23.902153013333333,3.158398946333333,-0.8530185023333333
91,0.25276766666668965,-2.891463995,16.883005460000003,-34.22091676666667,-2.6990388233333333,-1.7031439146666667,16.794629257333334,-24.020682016666665,-0.7029958663333332,-1.5580333173333336
92,0.2555453333332783,-3.0395305156666663,16.92009354,-34.22803753333334,-3.193450292,1.086714566,19.051654813333332,-18.22477309,4.116921901666667,-0.9480471710000001
93,0.2583230000000185,-3.2624266150000003,16.93601227,-34.238212600000004,-2.5366746583333333,-2.0823814866666663,12.470048426666667,-27.08175341333333,1.551933725666667,-1.4187135693333335
94,0.26110066666660714,-3.5011966226666664,17.00082842666667,-34.25838976666667,-3.255315820333333,-2.510365764,11.651638349333332,-28.647346496666668,7.526757479,-2.215995947666667
95,0.26387833333334737,-3.731725851666667,17.0029939,-34.2775752,-2.8500295876666666,-1.4066050053333334,17.078054113333334,-27.672211966666666,-0.02539179700000001,-2.539243181333333
96,0.266655999999936,-3.9698286056666667,17.085721333333332,-34.31015526666666,-3.293862342666667,-2.3239391646666667,13.308003743333332,-28.130720773333334,9.799523672,-3.399865707
97,0.2694336666666762,-4.264185031333334,17.136309943333334,-34.34822843333334,-3.642157634,-0.4124936513333333,14.207953453333332,-34.668195086666664,5.932071208666667,-4.279861132333333
98,0.2722113333332648,-4.553891976666667,17.296601613333333,-34.412686666666666,-3.487276475,-0.05791496233333334,14.031361895666668,-33.19434102666667,19.37265587,-6.210444132666666
99,0.27498900000000503,-4.848799705333334,17.378847756666666,-34.47881063333334,-2.1339331566666666,-2.653381467,13.3132267,-33.71230888333333,10.038160959,-7.1046495436666675
100,0.27776666666674527,-5.126677354333332,17.531324386666665,-34.54046626666667,-3.2655887603333333,-1.1272881080000001,10.880656880333333,-31.811890283333337,18.461194356666667,-5.809951623333333
101,0.2805443333333339,-5.377205848666667,17.635983146666668,-34.5915171,-1.988081236666667,-0.0008861820000000131,16.062229157333334,-28.92321968,12.636772793333336,-5.043515761666666
102,0.28332200000007407,-5.562447706666667,17.834398906666667,-34.651161200000004,-3.8318977756666666,-0.2143152953333333,14.885557175999999,-20.738935469999998,23.977418263333334,-4.831685940666667
103,0.2860996666666627,-5.754207928666666,17.992402393333332,-34.70362343333333,-2.803151369,0.14923524733333338,14.402613002999999,-21.776510556666665,19.032519343333334,-4.493188540333333
104,0.28887733333340293,-5.963389873666667,18.16051165,-34.752415966666675,-3.0338598093333338,-1.2170194189999999,13.434796653333335,-23.97751363333333,20.25382709333333,-3.8228304386666667
105,0.29165499999999156,-6.098209381,18.37974103666667,-34.79405213333334,-2.9458254176666667,-0.17846021033333334,14.95413462,-15.318507193333332,26.252599713333336,-2.3429401120000004
106,0.2944326666667318,-6.171797752333333,18.522796630000002,-34.82250976666668,-2.128902932,1.1050379673333333,13.302089693333334,-8.441049892333334,17.021612166666667,-1.7046361366666665
107,0.2972103333333204,-6.242980480333333,18.78495979,-34.84796143333333,-3.630593061333333,-1.8745911370000001,11.499639831333333,-8.288991928,31.18832334,0.15036034566666667
108,0.2999880000000606,-6.290785789333333,18.96448008333333,-34.8565394,-1.01953276,-2.124702135666667,13.53695933,-6.064467509,21.138507843333333,1.015437921
109,0.3027656666666492,-6.344930648666666,19.130118049999997,-34.8474935,-2.720132748333333,-1.1601728473333335,15.175716083333334,-7.584254106333333,19.230500536666668,2.833665192333333
110,0.30554333333338946,-6.433439095666667,19.310197829999996,-34.84861503333333,-1.8946946063333334,-2.444719870666667,13.859566686666668,-11.238468486666667,21.091266,1.930396557
111,0.30832099999997814,-6.511355559000001,19.443021776666665,-34.8404897,-1.8743236066666666,-0.976084719,13.903751056666666,-10.401465098333333,15.338836670000001,2.310106039
112,0.31109866666671826,-6.583836873666667,19.537487666666667,-34.8327128,-2.685054699666667,-0.5695606966666666,13.414934473333332,-9.664838153666667,10.768329619666666,1.7916351953333336
113,0.31387633333330694,-6.645272095999999,19.65291404666667,-34.83800506666667,-2.5895431836666667,-1.9431729016666666,14.421816826666666,-7.884512344333333,13.432458879999999,0.6193138163333334
114,0.3166540000000471,-6.686063448666666,19.789169946666664,-34.84662123333333,-3.643173535666667,0.12997948133333329,16.231978736666665,-5.211820378666666,15.978140196666667,0.5798343813333333
115,0.31943166666663575,-6.727329731,19.86352221,-34.850181600000006,-0.2294512166666666,-0.5605658689999999,14.496549603333335,-5.527688821333334,8.496255237666666,0.24931613600000002
116,0.32220933333337604,-6.750492095999999,19.951377233333332,-34.848498033333335,-3.499645153666666,-0.9320791353333334,12.431797027666667,-3.51633962,10.057623309333334,1.0641692479999998
117,0.3249869999999646,-6.764892419,20.00485166,-34.84583533333333,-2.0147615670000003,-1.419708222,12.192381543333333,-2.545991262,5.936902205,0.6727065243333333
118,0.3277646666667048,-6.751300494,20.05243237666667,-34.83173370000001,-2.3156805633333333,-1.1984636386666667,11.449826558333333,0.37491989133333337,5.092775821666666,1.8898310656666666
119,0.33054233333329347,-6.716090519999999,20.073226293333335,-34.8225988,-0.8311739463333333,-1.5648254553333334,16.10693709,3.142721812,1.9569706119999999,0.9251650176666667
120,0.33332000000003364,-6.681750933666667,20.08444722666667,-34.8025589,-3.7159956296666667,0.11448443933333334,15.072768211333333,2.604088227,0.7054248653333332,2.063508749
121,0.3360976666666223,-6.6944966316666665,20.086460113333334,-34.79721576666666,-0.9088447096666669,-1.7779407103333333,13.381730714,-2.4489728559999997,-0.24868865066666668,0.24380461366666642
122,0.3388753333333625,-6.704670906,20.038541159999998,-34.762415566666675,-2.752022385666667,-2.6133609213333333,12.538480123333335,-3.34819901,-6.555289427333332,2.860922416333333
123,0.34165299999995113,-6.724425156666666,19.948382693333333,-34.7438863,-0.954431216,-1.5305345256666667,14.230717023333334,-3.8134901523333333,-11.400533992,0.43489122399999997
124,0.34443066666669137,-6.755462964666667,19.860991796666667,-34.72117359999999,-2.855663398666666,-2.0069976053333334,11.561673163333333,-5.361768881333333,-11.089957712999999,0.9683374563333333
125,0.34720833333328,-6.812718073666667,19.75558599,-34.71111296666666,-2.117200911,-0.872329215,12.9446462,-7.950818221,-13.112856546666668,-0.742705961
126,0.34998600000002017,-6.866407394333334,19.6116937,-34.684478766666665,-2.2407976326666668,-0.9544608593333334,13.728617349999999,-8.226710637333333,-17.85581271,0.5681708853333335
127,0.3527636666666088,-6.9257179896666665,19.472578683333335,-34.673367799999994,-1.8504497210000002,-1.0840112466666667,12.82261499,-8.244290191666668,-17.159890809999997,-1.126915589
128,0.35554133333334903,-6.989910761666667,19.332319260000002,-34.655181866666666,-2.6046001313333336,-1.7204879916666667,8.845543384333334,-9.136501948,-17.330548603333334,-0.34995910499999994
129,0.35831899999993766,-7.058236599,19.19808578333333,-34.65064493333333,-2.1518681446666665,-1.7040854756666668,10.071318945333333,-9.05902799,-16.46284326,-1.8481018143333336
130,0.3610966666666779,-7.125729084,19.016018550000002,-34.6351471,-2.7730210496666667,-1.6787567536666668,9.514358203,-9.40382735,-22.27891477,-1.306825787
131,0.3638743333332665,-7.193657080333334,18.865510939999997,-34.63554123333334,-2.3447241583333334,-0.44497771533333336,10.494767824999998,-8.822634378,-18.326297123333333,-2.6779563426666666
132,0.36665200000000664,-7.2859509786666665,18.768377940000004,-34.649711599999996,-3.421399950666667,-1.2174340886666666,8.478179296,-11.233057656333335,-11.715117772,-3.428824703
133,0.3694296666665953,-7.4058767953333335,18.642489753333333,-34.67326606666666,-2.281637351,-1.6302184463333333,10.310203551999999,-14.166936556666665,-15.077624956666668,-4.967605432
134,0.3722073333333356,-7.505297979000001,18.59185028,-34.70482126666667,-4.306621233666667,-0.6207304546666667,5.2430400053333335,-11.433799107666667,-5.937722125666667,-4.684481144
135,0.3749850000000758,-7.624032338666666,18.553681693333335,-34.726069100000004,-1.768510858,-0.8068010906666666,7.207925638,-14.126142818333335,-4.631896058,-3.394109090333334
136,0.3777626666666644,-7.750544071333334,18.5589002,-34.74993386666667,-2.6216946243333332,-1.3662412566666668,7.417840957999999,-14.966135663333333,0.5984678270000003,-2.961433013666667
137,0.3805403333334046,-7.873280684000001,18.584121066666665,-34.77243293333333,-3.299333890333333,-0.65814094,6.318102518666667,-14.573102949999999,2.938691934,-2.500325451333333
138,0.38331799999999316,-7.980450471333334,18.64800199,-34.78380326666667,-2.1415723513333336,0.23919433833333334,6.119810342666667,-13.107045491333333,7.39411815,-0.5712701480000001
139,0.38609566666673345,-8.087823550000001,18.734968820000002,-34.79315183333333,-1.3420930703333334,-1.341220908333333,8.088081519,-13.238457043333334,10.062670547333333,0.00610044133333328
140,0.3888733333333221,-8.185178756666668,18.805028913333334,-34.80248516666666,-3.028161207666667,-0.3363508583333333,6.220002651333334,-11.997428259333333,8.067439714333334,-0.18791011966666668
141,0.3916510000000623,-8.253014564666666,18.922161740000004,-34.8069814,-0.7189890816666668,-0.37097771966666665,7.403228918333333,-8.691766737666667,13.593388874666667,1.09442842
142,0.39442866666665094,-8.326935768,18.94186783,-34.79448956666666,-0.7253738886666666,-0.43305055266666664,8.181934676333332,-10.032790344333334,1.7313732503333334,1.3935685160000002
143,0.3972063333333911,-8.396164576333334,19.034664789999997,-34.81226093333333,-2.8033203283333337,-0.7156835323333333,5.690697867333334,-8.331786791666667,10.907501104,-0.7211778163333334
144,0.39998399999997974,-8.450870832000001,19.06955528,-34.80886329999999,-0.21663061766666666,0.04266748800000005,6.886081137666667,-7.380388260666666,3.7083482743333334,0.5965340536666667
145,0.40276166666672,-8.481140772333333,19.03303972666667,-34.80563096666667,-0.8187661570000001,-0.8894156516666666,7.562720894666666,-4.460603754,-4.817171205666667,-0.6371882356666667
146,0.4055393333333086,-8.467597325333335,19.057256696666666,-34.81279246666667,-3.017230749,0.47670147,6.743485452000001,1.2171586953333333,2.5928735733333332,-0.7238283453333333
147,0.40831700000004884,-8.458292007333332,19.002365113333333,-34.80340066666667,1.8832444950000002,-0.5287206766666667,7.978249270666667,0.04506015766666671,-7.071015595333333,-0.32580006133333317
148,0.41109466666663746,-8.438385963666667,18.879364013333333,-34.780385333333335,-3.048191706666666,-0.571010361,6.617862343666666,0.795480321,-15.387240565666668,0.09560465800000006
149,0.41387233333337764,-8.379785537666667,18.889146803333333,-34.78734336666667,-2.631754001,0.20798483466666673,5.226907749666666,6.607021649666667,0.8727582296666666,-0.9974695046666667
150,0.41664999999996627,-8.288567225333333,18.683624903333335,-34.74479676666667,0.6843191386666666,-0.31649483333333334,5.987051409333333,8.615307489666668,-25.48955408666667,0.8284160293333335
151,0.4194276666667065,-8.207184791666666,18.67079099,-34.7569936,-5.385381380666668,0.212711364,7.718412617666666,9.532773971333334,-1.7561037536666666,-1.919654687333333
152,0.42220533333329513,-8.094777902,18.549535753333334,-34.751604699999994,1.8572964269999999,-0.7407093446666666,8.203579150333333,12.594788553,-14.886435348333336,-1.8963762819999996
153,0.42498300000003536,-8.003842830333333,18.435570396666666,-34.7680308,-5.735369046333333,-0.824621568,2.5483195780000005,10.823905627333334,-13.695444740333334,-4.055542071666667
154,0.427760666666624,-7.911588669,18.426069260000002,-34.80480193333334,0.8892486793333334,-1.0792907273333332,6.403651326333335,11.788631440666668,-0.9465115856666669,-4.757440487666667
155,0.43053833333336416,-7.821604092666667,18.28553581333333,-34.824755333333336,-4.5289293126666665,-0.12197532766666667,5.011799076666667,10.837972641,-16.808925152333334,-4.854532559333333
156,0.4333159999999528,-7.716128667333333,18.311274209999997,-34.86347196666667,-0.14873864266666664,-1.2885331313333332,7.393781026666666,13.430281006666666,3.275032839666667,-4.375941038333333
157,0.436093666666693,-7.646979013999999,18.258781433333333,-34.883995066666664,-3.417024215,-0.6122433643333333,3.2007675170000005,8.366703510666667,-6.360147159,-3.4867608696666665
158,0.43887133333328165,-7.586011250666666,18.26779874,-34.89824420000001,-2.042228778333333,-1.9426283836666667,3.984546502666666,7.152732213333333,0.8908799103333335,-1.8647844393333333
159,0.4416490000000219,-7.507863362666666,18.295199076666666,-34.90617116666666,-0.5289411743333334,-0.5084590873333333,6.085856914666667,8.979989368666667,2.9697446823333338,-0.8420380753333334
160,0.44442666666661057,-7.461139043,18.382907866666667,-34.90999093333334,-4.4709997973333335,-0.7066951296666666,1.7083855173333333,5.052396218,10.084450442333333,0.5841368836666669
161,0.44720433333335063,-7.412772973333333,18.412693023333333,-34.910919166666666,-0.14863416566666665,-1.1204309863333333,2.5118362506666667,5.147603432666666,3.1443737350000003,-0.014898786999999913
162,0.4499819999999393,-7.344168345333333,18.51127561,-34.90525053333334,-2.824129263333333,-0.19044729100000002,4.342970371333333,7.312988599333333,11.264813901000002,1.7718692520000001
163,0.45275966666667955,-7.321152369,18.649496080000002,-34.91742963333333,-1.2587833403333335,-0.3894212746666666,3.1459305286666663,2.544732173,16.192246436666668,0.36202756566666655
164,0.4555373333332681,-7.299321810333333,18.784491856666666,-34.9225591,-2.207358166666667,-1.069283664,3.103610158,2.0823864936666667,15.751422884999998,1.1357438960000001
165,0.4583150000000084,-7.258223056666666,18.954444883333334,-34.93984223333333,-1.9928979673333334,-0.532563418,3.4296358330000003,4.924504478666666,20.050246236666666,0.269961208
166,0.46109266666659704,-7.2125830650000005,19.125034966666664,-34.956876099999995,-2.0485524733333333,-0.9751615130000001,0.5051379206666665,5.425416787333333,20.158055623333333,0.2789136766666667
167,0.4638703333333372,-7.166253407666666,19.330162050000002,-34.98000843333334,-2.38466496,-1.1343735653333333,2.6057290240000004,5.800795536,24.320952096666662,0.10853586600000013
168,0.46664800000007745,-7.127387364666666,19.5448157,-35.002004,-0.7418545883333335,-0.3125719626666666,4.3172958790000004,4.820366819666667,25.488409676666667,0.3444391443333334
169,0.4694256666666661,-7.126897335333333,19.760481513333335,-35.02636463333332,-2.266475002,-0.49439272,2.7802457410000003,0.34943811099999983,25.583017986666665,0.1321738163333334
170,0.4722033333334063,-7.130126635333333,20.00224304,-35.06241863333334,-1.128134335,-1.5407396953333332,2.7569561200000003,0.3796076773333333,28.887430823333332,-0.8148065803333334
171,0.47498099999999494,-7.134146849666666,20.25351397,-35.09687296666666,-2.7401676180000005,-0.13987862099999995,0.8551453153333334,0.24301095800000008,29.984106063333332,-0.4917510349999999
172,0.4777586666667351,-7.148283958333333,20.505263646666666,-35.13839976666667,0.2647969623333333,-1.325561285,0.4627482893333334,-0.6660859733333334,30.145521799999997,-1.2343601783333333
173,0.48053633333332374,-7.162462075666667,20.747209546666667,-35.164843266666665,-2.952846070333333,-1.131727457,1.5498138963333334,-1.2967341833333332,28.769618353333332,0.28562001399999987
174,0.48331400000006397,-7.1864391963333345,21.011948903333334,-35.21732840000001,-0.8595429659999999,0.657601456,1.2189783653333333,-1.3055853843333336,31.83844884333334,-2.2294655333333333
175,0.4860916666666526,-7.211026032666666,21.251609166666665,-35.24538676666666,-0.7691665093333334,-1.0473118226666667,3.5142348206666667,-2.458118481,28.51138242,0.09244623300000003
176,0.48886933333339283,-7.239762147333334,21.496794383333334,-35.278216066666666,-0.49347877499999987,-0.7814966043333333,2.936707879,-2.705096681666667,29.23016230333333,-0.2822734713333333
177,0.49164699999998146,-7.251442750333333,21.711603166666666,-35.3003006,-0.940643708,0.06369687633333336,2.453359444666667,-1.131795466,25.467838286666666,0.426220993
178,0.49442466666672163,-7.273795128,21.928999583333333,-35.32522073333334,0.013311843000000026,-0.8835315903333333,-0.3586404916666667,-2.273439993666667,25.821166993333332,0.16422984999999998
179,0.49720233333331026,-7.284463087333333,22.09369214333333,-35.33877056666666,-0.3787495296666667,0.11678268533333336,-0.7250414266666668,-1.3731927076666668,19.37442239,0.6576117076666665
180,0.49998000000005055,-7.265900453,22.25714175,-35.3647461,-1.0866844903333333,0.6545073986666666,2.8111353319999997,2.7148448623333334,19.41464424333333,-0.7481280216666667
181,0.5027576666666391,-7.236036777333333,22.401197436666667,-35.375595100000005,-0.14577455966666664,-0.785300553,2.695726871333333,3.3769137063333337,16.87718200666667,0.5863186420000001
182,0.5055353333333793,-7.194497426333332,22.504462563333334,-35.383229566666664,0.2779019276666666,0.5302614769999999,2.641428788333333,4.639997959,11.976037340666666,0.39010512866666663
183,0.5083129999999679,-7.147653579666667,22.560101826666667,-35.39166516666666,-0.07452364766666664,-0.7905556556666667,3.4833631513333327,5.296772321333333,6.334866047000001,-0.47493505466666663
184,0.5110906666667081,-7.1009138426666665,22.58704122,-35.39174396666667,-0.43030703099999995,-1.0547309320000002,-0.7144253253333334,4.935056766,2.781671762333333,0.03235927733333336
185,0.5138683333332968,-7.058086077333333,22.55258369666667,-35.3957901,0.5820595426666667,0.7717010380000001,0.831532985,4.622763713333334,-4.463208516333333,-1.3267107356666665
186,0.516646000000037,-6.980496724333334,22.47450193,-35.3903478,-0.47426786533333337,-0.242168784,5.173905809666667,8.369488399333333,-9.781025329,-0.8829955083333334
187,0.5194236666666256,-6.870565096333333,22.342124306666665,-35.381924966666666,0.2315152486666666,-0.30523931933333337,7.381811300666667,12.115314802999999,-16.316063563333334,-1.3722531796666668
188,0.5222013333333658,-6.770020802666667,22.174140933333334,-35.368848199999995,-0.5124082566666667,0.04351198666666667,4.785731871666667,10.773660977666665,-20.59809875666667,-1.289834964
189,0.5249789999999546,-6.662100951,21.97323099666667,-35.35201263333333,-0.7506018480000002,-1.0649963716666666,5.1042356490000005,11.506758054,-24.590310413333338,-1.3568422746666666
190,0.5277566666666947,-6.536222775666666,21.730175653333333,-35.3306122,0.07740630700000024,-0.17732568333333332,4.648745218999999,13.451743126666665,-29.65700404,-1.3138786156666666
191,0.5305343333332834,-6.4114419620000005,21.449148179999998,-35.30442303333333,-2.3885496059999998,-0.4682186046666667,4.933255434333333,13.126568793333334,-34.26554235,-1.302433898
192,0.5333120000000235,-6.272097905666667,21.11885643333333,-35.277737933333334,0.6397042176666666,-0.990591645,4.538873155666667,14.882888156666667,-40.12688700333333,-1.7351869789999999
193,0.5360896666666121,-6.112445354333334,20.734747566666666,-35.2398478,-1.3196591736666667,0.012505715,7.261253675,16.83031432,-46.715496066666674,-1.14840885
194,0.5388673333333523,-5.969228903333334,20.390769956666663,-35.21677653333334,-0.5135902563333333,-0.13921289633333334,8.592472714333333,15.551071166666667,-41.742771149999996,-2.0989791553333332
195,0.541644999999941,-5.801879564666667,19.89051056,-35.15405783333333,-1.6561027166666669,-1.4522162676666666,6.692160924333334,16.77438609,-60.84887313666667,0.4896986683333333
196,0.5444226666666813,-5.632154783,19.50064214,-35.11024473333333,0.524841954,-0.014257639666666636,10.675245283333334,17.958069166666668,-47.47877121333334,-0.07027232633333316
197,0.5472003333332699,-5.440586408000001,18.94241015333333,-35.01024373333333,-2.342744867,-0.8735524813333333,6.254376093333334,18.300495146666666,-68.15820312666666,4.438263138333333
198,0.5499780000000101,-5.264401436,18.488690056666666,-34.933250433333335,-1.3676045536666666,-0.3841608166666666,10.933869043666666,17.548414546666667,-55.46427409,3.28767829
199,0.5527556666665987,-5.078015327666667,17.892502466666667,-34.82970426666666,-0.9772726893333331,-1.234117498,12.511102675999998,17.77312596666667,-72.71524047666666,4.915566324666666
200,0.5555333333333389,-4.857230027333333,17.43839582,-34.736729933333336,-3.908445914666667,0.13790893066666668,10.744596320999998,22.425072353333334,-55.65485000333333,5.531003715333334
201,0.5583110000000792,-4.663593768999999,16.778099376666663,-34.63939666666666,0.9434157213333333,-1.0347403286666668,12.459497294666667,19.12099170666667,-80.28761800333334,4.1472714139999995
202,0.5610886666666678,-4.479455948000001,16.316227913333336,-34.557566333333334,-5.144754886666667,-0.7862929106666666,14.211586951333333,18.601837160000002,-56.43324788333333,4.624116182333333
203,0.563866333333408,-4.260452588666666,15.698681196666664,-34.475809733333335,-0.6418135266666668,-0.5813611546666667,12.748043061999999,22.88830757,-75.00702667333333,3.3605326713333334
204,0.5666439999999966,-4.049961487666667,15.218297640000001,-34.401201900000004,-4.376235803,-0.16176886366666665,14.74895096,22.181893666666667,-58.536844886666664,4.078691244
205,0.5694216666667368,-3.8340496223333336,14.666744863333335,-34.33078256666666,-2.1725629566666664,-0.981254071,13.299705823333333,23.052511850000002,-67.00742976000001,3.2048623563333334
206,0.5721993333333254,-3.619874477333333,14.210512796666668,-34.26182046666667,-3.5003519356666666,-0.8999328166666668,13.65869808,22.919746399999998,-55.58764648333332,4.14279898
207,0.5749770000000657,-3.3908263046666662,13.688046453333333,-34.19201149999999,-1.572795828,-0.4657575586666667,14.744820593333335,24.7955087,-63.481844583333334,3.9123131040000003
208,0.5777546666666543,-3.186088403333333,13.3283151,-34.126584366666656,-5.315499782666667,-1.5304778616666666,16.624220213333334,22.00022506666667,-43.957430523333336,4.8533625203333335
209,0.5805323333333946,-2.969238361,12.86296749,-34.06315866666666,-2.6995063223333333,-0.7099221153333334,14.522615432999999,23.637783053333333,-56.57743200000001,4.020188987
210,0.5833099999999831,-2.7578209243333327,12.589240709999999,-34.00231423333333,-6.207998513666666,-0.19744497533333336,13.561768213333332,23.032605489999998,-33.565456386666675,5.182523846666666
211,0.5860876666667233,-2.561976035666667,12.21931076,-33.943049099999996,-0.8155742486666665,-0.6309468843333333,17.032658893333334,21.296212513333334,-45.090166726666666,4.45887959
212,0.588865333333312,-2.361553351,11.99044355,-33.88171640000001,-5.572625319,-1.768519481,10.543337504666665,21.78787168,-28.166531563333336,5.728408733999999
213,0.5916430000000521,-2.2104154426666667,11.779088656666666,-33.827740999999996,-1.506990790333333,-2.1092107096666664,17.189162256666666,16.12424946,-26.011269886666668,4.939552247333334
214,0.5944206666666408,-2.0559233029999997,11.56069883,-33.76340993333334,-5.905445734333333,-0.3604626756666667,17.848883313333335,16.249939283333333,-26.88657443,6.312818050333333
215,0.597198333333381,-1.917607267666667,11.492303213333335,-33.725504566666665,-2.815056403333333,-2.6212382316666667,12.482801437666666,15.003142036666668,-8.776169460333334,3.8296111776666666
216,0.5999759999999696,-1.8162599006666664,11.325451213333332,-33.67350006666667,-2.8913802803333333,-1.1768434246666668,14.160946845666667,10.209019979666666,-20.61390845,5.137074709
217,0.6027536666667098,-1.6945941843333332,11.3000501,-33.63137056666667,-5.477046887,-0.06894902399999998,16.946555133333334,12.919753393333332,-3.627467294666667,4.503230790333333
218,0.6055313333332986,-1.6171996593333333,11.300210003333333,-33.59101106666667,-3.760849555,-2.411749283666667,12.462840715333334,7.619945209333333,-0.5319732029999994,4.393618226
219,0.6083090000000387,-1.5562280419999999,11.262971556666665,-33.55446116666667,-0.9539218346666668,-1.3395262556666667,17.567576093333333,5.7850947669999995,-5.012061198666667,3.8491070266666667
220,0.6110866666666274,-1.4805611369999998,11.362388293333334,-33.5132624,-6.027562936,0.2974810800000001,19.31205559,7.387454509666667,11.394563357000001,4.785286426333333
221,0.6138643333333674,-1.4416739543333332,11.46595319,-33.49033863333333,-2.038624247,-0.5512817103333333,12.522336166,3.454750259666666,11.926835696,2.6475690206666664
222,0.6166419999999562,-1.4485616686666667,11.519738516666669,-33.4551468,-2.554852326666667,-2.967158397,12.073801993333333,-2.3875157036666668,5.9499177146666655,3.861055898
223,0.6194196666666962,-1.4419605733333334,11.669933640000002,-33.42894743333334,-4.208114147,-1.060766518,15.479051747,-0.5108207066666667,17.502267833333335,3.2401550313333334
224,0.622197333333285,-1.4402416943333334,11.795844393333335,-33.396377566666665,-2.7889258863333333,-2.3748850026666664,10.345530351333332,-1.3276158573333332,14.62394174,3.774685223666667
225,0.6249750000000253,-1.4801990986666667,11.977621396666668,-33.378809633333326,-2.7590327659999994,-1.6654274463333334,17.086432770000002,-5.855689338333334,21.306894936666666,2.237327815
226,0.6277526666666139,-1.4865992866666666,12.12475872,-33.35356396666667,-3.517694155333333,0.6003537176666667,20.298088073333332,-2.1543716193333333,17.190161386666666,3.004751841333333
227,0.6305303333333542,-1.5354112386666667,12.350645383333335,-33.331998199999994,-3.6585705280000003,0.19628023100000003,15.345647970666667,-7.045896292333334,26.584982553333333,2.9134299353333333
228,0.6333079999999427,-1.6168529193333334,12.538938523333334,-33.32679493333334,-1.935934004,-4.086808045333333,13.796056113333334,-10.644381204666667,22.180624643333335,0.8071689803333332
229,0.6360856666666829,-1.6672516266666666,12.757332483333334,-33.315757733333335,-3.7044558523333335,0.20977727566666662,16.055333453333333,-6.987842002,25.71759351,1.6976355713333335
230,0.6388633333332715,-1.7389107546666667,12.927159943333335,-33.308403,-1.1219773293333333,-1.887483577,13.282606124666666,-9.544650238000001,19.961149853333335,1.0504963399999998
231,0.6416410000000118,-1.819544792,13.133505820000002,-33.29802956666668,-3.8631216286666668,-1.5732763930000002,13.08110428,-10.60637951,24.266063053333337,1.6756294966666667
232,0.6444186666666002,-1.9145512183333333,13.320664406666666,-33.29426829999999,-2.417423189,-0.762244324,17.062781333333334,-12.248072625666666,22.042581556666665,0.7855931519999997
233,0.6471963333333405,-2.0077519020000003,13.510095596666666,-33.29235333333333,-2.2416417403333333,-2.2133371033333336,15.60907332,-11.903915722,22.27677727,0.6708540916666665
234,0.6499739999999293,-2.1173185906666667,13.687347726666665,-33.292182933333336,-2.910079121666667,-1.6207926756666664,12.298466521666667,-13.880054156666667,20.876948676666668,0.39948411800000017
235,0.6527516666666694,-2.2166123389999997,13.854626016666666,-33.2891388,-3.628005504666667,0.6833818353333333,16.31449922,-12.659064293333335,19.59650866,0.7491654553333337
236,0.6555293333334097,-2.296155929333333,14.033718106666667,-33.293167133333334,-1.6621100703333334,-1.5239873726666666,15.784155526666668,-10.152571199999999,21.094863256666667,-0.018042167000000237
237,0.6583069999999983,-2.3758517903333334,14.202681223333334,-33.28574373333333,-3.9611912169999997,-1.5378328559999999,16.805728910000003,-10.447295665666667,19.795159656666666,1.3143652280000004
238,0.6610846666667386,-2.4945213796666668,14.388079323333335,-33.28373716666667,-1.327613632,-0.9312236706666667,13.921758493333334,-15.016985896666666,21.816294990000003,0.8250643806666664
239,0.663862333333327,-2.645268043,14.547194163333335,-33.26951086666667,-3.6983907620000003,-2.6150151889999997,14.470700263666666,-19.194747923333335,18.5785834,2.133350849
240,0.6666400000000673,-2.7598941326666666,14.729689596666667,-33.26328783333333,-2.2767235439999998,-0.003737409999999978,14.561789510000002,-14.653376101000001,21.43277104666667,1.3896636070000001
241,0.6694176666666559,-2.893158992,14.86956819,-33.2368698,-3.4613958196666665,-0.9603560170000001,12.359077454,-17.496998153333333,16.201767286666666,3.5382414656666668
242,0.6721953333333962,-3.024893761,15.076001483333334,-33.22853596666667,-1.5834831796666666,-2.2996468940000003,13.19747321,-16.765151023333335,24.27138583,1.8870230116666666
243,0.6749729999999848,-3.1573312283333332,15.20120303,-33.19640353333333,-3.5598265330000003,-0.3495896856666667,17.87354691666667,-17.60171604,14.39496072,4.1718273560000005
244,0.677750666666725,-3.2941584586666663,15.392388983333333,-33.1860962,-1.1284441550000002,-0.8521376850000001,14.155210974333334,-17.43124358,22.414831160000002,2.143195549666667
245,0.6805283333333136,-3.4574921130000003,15.487803456666667,-33.161160833333334,-3.2202143666666667,-1.5794443686666666,14.870137216666668,-21.125654856666667,10.861192859666666,3.1971408476666667
246,0.6833060000000538,-3.6173375450000003,15.654106773333334,-33.14770253333334,-2.6409184536666666,-0.22239054233333333,14.863790830000001,-20.286138533333332,19.410996756666666,2.4696323873333332
247,0.6860836666666424,-3.7745091913333333,15.726443926666667,-33.125183066666665,-1.9975652696666666,-2.4230787753333334,16.052280743333334,-20.317398710000003,8.081580163333333,2.7644514043333337
248,0.6888613333333827,-3.941570441,15.876277923333333,-33.1233724,-3.208129008666667,0.1915375686666667,13.758870761333334,-20.770410536666663,17.491543133666664,1.1162999073333333
249,0.6916389999999714,-4.107499758333334,15.943822226666667,-33.11295573333334,-1.412251552,0.149641802,16.108076413333333,-20.987196603333334,7.614536306000001,1.351937056
250,0.6944166666667115,-4.277364571666666,16.043593726666668,-33.121521,-3.158733686,-1.722608288,14.263662972333334,-20.77011172,11.579801798666667,-0.39721639966666683
251,0.6971943333333002,-4.442102273333333,16.12125047,-33.12928006666667,-1.913556735,-1.8231738806666666,13.711503666666665,-20.235179266666666,8.971352020666666,-0.5946687956666667
252,0.6999720000000403,-4.601284026999999,16.12913958333333,-33.133921300000004,-1.7406189836666666,-0.49740833033333337,13.658734638333334,-19.61692555666667,0.5535926026666669,-0.7513811589999998
253,0.702749666666629,-4.736766656333334,16.175714813333332,-33.14014436666667,-1.6914119716666667,-0.7757907606666666,15.244217236666666,-16.785916963333335,5.237392862,-0.6331073300000002
254,0.7055273333333694,-4.876359463,16.110852559999998,-33.131904600000006,-1.5516270796666667,-0.21608550366666668,16.987145423333335,-17.690546036,-8.269250233666666,-0.016422549666666637
255,0.7083049999999577,-5.045022011,16.08772437,-33.12471263333334,-3.5581642786666663,-1.4591979233333336,15.513876916000001,-21.214539213333335,-3.2212009233333334,0.21980464433333324
256,0.7110826666666981,-5.193753878333333,16.023110706666667,-33.118041999999996,-0.60914582,0.029472926999999965,15.785529453333332,-18.74576950333333,-8.224060058333334,-0.23480958233333324
257,0.7138603333332867,-5.327650706,15.880796113333332,-33.11470796666667,-2.889208794,-0.8960658309999999,15.3090957,-16.888367333333335,-17.43792057,-1.5445987780000001
258,0.7166380000000269,-5.4665242833333325,15.806019463333334,-33.113609333333336,-3.276893894,-1.3216973146666666,11.191551369,-17.39690780666667,-9.339477856999999,-0.9993441700000001
259,0.7194156666666155,-5.5726346966666656,15.631961823333334,-33.1082179,-1.3288095793333332,-0.7512796126666667,15.377942083999999,-13.624010246333334,-21.268864949999998,-1.7825899920000001
260,0.7221933333333558,-5.630524635,15.52895705,-33.1078466,-5.144421418333334,1.0640201866666668,19.685423533333335,-7.661301532999999,-12.733881789,-1.4124633773333333
261,0.7249709999999444,-5.716434955666666,15.422194163333335,-33.112027499999996,-1.489290853,-0.7729391253333332,15.048368134999999,-10.875262102333336,-13.089570682333333,-2.1509954133333338
262,0.7277486666666846,-5.804631074333333,15.291107813333333,-33.10191090000001,-4.599381128666667,-0.47319354633333327,14.415022216666665,-11.590035916333335,-16.184574443333336,-0.7744463283333332
263,0.7305263333332733,-5.852247079333334,15.21747621,-33.1056849,-2.9343734186666666,-0.10538470733333338,15.119781176666665,-6.292244287,-9.141444048333334,-1.6962345440000002
264,0.7333040000000134,-5.881384054666666,15.111933073333333,-33.09082793333333,-2.6751183523333335,-1.5338344476666668,12.324983756333333,-4.670064951,-13.175892669333331,0.1556880473333336
265,0.736081666666602,-5.898471514333333,15.025092123333332,-33.086425766666665,-3.2747279406666667,-1.4199004766666665,13.540493012333334,-2.902080128333333,-10.838221233333334,-0.9146202403333336
266,0.7388593333333423,-5.887289206333333,14.969979606666667,-33.070989000000004,-3.5018955073333333,0.6869970363333334,15.555547393333333,0.18075553533333336,-7.173724333333333,0.7266630333333334
267,0.7416369999999309,-5.901422977666667,14.844189010000001,-33.0693639,-0.9087496596666668,-1.2832875153333332,15.106829643333333,-2.43798542,-15.433475813333331,-1.7363169193333334
268,0.7444146666666711,-5.922089577,14.738237063333335,-33.05977376666666,-4.2272613046666665,-1.0067152776666666,15.879276596666665,-3.503878633333333,-13.181737582000002,-0.43801208333333336
269,0.7471923333334113,-5.942685763,14.63438066,-33.065030433333334,-0.6406459013333333,-0.491952777,13.071227075333335,-2.995286584,-12.738553999999999,-2.2530152796666667
270,0.7499699999999999,-5.968681017333334,14.474756876666667,-33.058390333333335,-2.681919058,-1.1517723603333332,12.333010673333334,-4.023524056,-19.49716886,-1.6090740363333331
271,0.7527476666667402,-5.9875146546666675,14.369685169999999,-33.05829876666666,-3.847270886,-1.2436167896666666,14.292173703000003,-2.9455307323333333,-12.978935243666667,-1.654171616
272,0.7555253333333288,-6.0014419556666665,14.25941658,-33.05203246666667,-3.204649249666667,-1.138286551,13.624229114666667,-2.648653229,-13.662664096666667,-0.7349405683333335
273,0.758303000000069,-6.021799087666667,14.113923069999998,-33.04906463333332,-1.2332408823333334,-0.5381396276666667,13.566033999333333,-3.208504498,-17.81023216,-1.8505351839999997
274,0.7610806666666576,-6.037645976,13.987831433333334,-33.042717,-5.342816273333333,-0.1435316603333333,15.435035390000001,-2.800272385333333,-15.521923063333332,-1.2064266003333335
275,0.7638583333333977,-6.047589461,13.868231139999999,-33.041781099999994,-1.3498057026666668,-1.313674579,13.516539256333333,-1.8907405533333332,-14.695491793333332,-1.761388838
276,0.7666359999999864,-6.050820350666666,13.726909,-33.037874833333326,-2.6133844656666665,-0.16664386299999998,14.899076143333334,-1.2710048206666666,-17.295670506666667,-1.511889497333333
277,0.7694136666667267,-6.049275875333333,13.595143636666668,-33.04028573333333,-3.5945939226666668,0.3667357713333333,14.959378880000001,-0.4267030956666666,-16.134137473333336,-2.2930893453333336
278,0.7721913333333154,-6.036259969333333,13.486619633333333,-33.0354843,-2.942303021666666,-1.4719895916666668,12.384671526666667,0.6655261120000001,-13.4242506,-0.9943875156666667
279,0.7749690000000555,-5.981917222333333,13.33586534,-33.0250778,-2.3930483063333337,-0.7038328446666666,12.6173865,5.531693696999999,-18.533180236666666,-0.9991860243333334
280,0.7777466666666442,-5.901255290000001,13.167167983333334,-33.0119934,-3.7427538236666664,0.14075680299999996,15.51456229,8.554723341333334,-20.722919783333335,-0.667878618
281,0.7805243333333843,-5.837822437333333,13.03864924,-32.999791433333336,-2.9834949573333334,-1.2540976803333332,14.289383569,6.591044664333334,-15.895111083333333,-0.505753239
282,0.783301999999973,-5.767311096,12.884617489999998,-32.986020399999994,-2.336826861,-0.7489062350000001,15.443120956666666,7.330323537333332,-18.946037926666666,-0.39820330833333334
283,0.7860796666667134,-5.690380096666668,12.74007193,-32.97734833333333,-2.9745165706666667,0.988421152,15.709825833333333,8.310434659,-17.796955426666667,-1.0777749419999998
284,0.7888573333333017,-5.615385532,12.625263213333334,-32.965799966666665,-3.4963343936666664,-1.7755764920000001,11.4133625,7.923769634333333,-14.259541513333332,-0.13774917533333322
285,0.791635000000042,-5.513532638666667,12.494808196666668,-32.94790903333334,-2.3402335263333334,-1.8341611623333334,9.394065856,11.074492455333333,-16.199096360000002,0.19006641700000002
286,0.7944126666666307,-5.388053099333334,12.343393643333334,-32.934193900000004,-3.3957610976666666,-0.16539977,13.691785175666666,13.914954187666666,-18.66484769,-0.152963996
287,0.7971903333333709,-5.264278411666667,12.242938359999998,-32.92073313333333,-2.411716441333333,-0.4683210226666667,11.190034866,13.808660666666668,-12.572521526666668,0.17049650366666658
288,0.7999679999999595,-5.1715281803333335,12.124772069999999,-32.9359792,-2.549928069,-1.9475581050000004,12.143527188666667,10.731638910000001,-14.354889235333333,-3.130820592333333
289,0.8027456666666998,-5.1091696419999995,12.032635690000001,-32.955256166666665,-2.988581737,-1.2701451183333334,12.836065294333332,7.278231144,-11.249433197,-3.626899560333333
290,0.8055233333332884,-5.070955912333333,11.97552363,-33.00585683333333,-4.512132564999999,-1.5462331770000002,9.869159538333333,5.067576527666667,-6.733261595666666,-6.533901532333334
291,0.8083010000000286,-5.081534226666666,11.993812243333332,-33.06326803333333,-3.1217029689999998,-2.490400155333333,8.017313480333334,-0.535564184,2.3804639196666666,-6.918141206333334
292,0.8110786666666173,-5.079519907666666,12.00740719,-33.118563333333334,-5.374713579666666,-1.0424783926666665,5.529948075666667,0.8741199643333335,1.781415065,-6.496923129
293,0.8138563333333574,-5.125555992333333,12.13975302,-33.18106336666666,-2.2706199486666665,-1.4409418900000002,8.195979040666666,-4.644049962,16.063651403333335,-6.280612309666666
294,0.816633999999946,-5.191218058333334,12.267905233333332,-33.234123200000006,-3.0989434716666664,-1.7759945393333334,5.480649312333334,-7.308498382666666,15.46708234,-4.877732753666667
295,0.8194116666666863,-5.2728897733333335,12.424389840000002,-33.27926126666666,-3.1663140060000003,-0.9513068396666666,8.115903218,-9.343833288,18.75378672,-3.9346421956666666
296,0.8221893333332749,-5.340989589666666,12.67970689,-33.316508,-3.7872077226666665,-0.4762359063333333,4.745421747333333,-7.923305830666666,30.49412409333333,-1.7788888216666665
297,0.8249670000000151,-5.458369414000001,12.88705158,-33.34279123333334,-0.6626959246666666,-1.6909052333333332,7.552892685000001,-14.097986216666667,24.65978813,-1.1152269840000002
298,0.8277446666666037,-5.571067332999999,13.277263643333333,-33.383796700000005,-6.517796039666667,-0.235312462,1.9561386903333335,-13.175554596666666,46.62978363,-0.32431173300000005
299,0.8305223333333439,-5.708188533666667,13.50523758,-33.421541866666665,1.2883744636666667,-1.954572598333333,3.9120583530000004,-16.136048313333333,27.237733206666665,-1.9857199193333332
300,0.8332999999999325,-5.811633428,14.004953383333332,-33.486867266666664,-5.512679577,-0.13151204566666672,6.305107909999999,-11.315588317,60.00978724,-1.6075942316666667
301,0.8360776666666728,-5.954748153666666,14.272897723333335,-33.53772223333333,-0.4210350413333333,-1.6633888283333331,2.6041633286666666,-16.401765503333333,32.163721083333336,-2.9684458573333337
302,0.8388553333332615,-6.095229466666667,14.724876723333333,-33.60299429999999,-2.834248741333333,-0.7440751840000001,4.078036348,-15.619183223333335,54.31326802666667,-2.13806661
303,0.8416330000000016,-6.283061504333333,15.149057386666664,-33.6762543,-0.8143757383333335,-0.5006679443333334,5.713656107666666,-20.990285233333335,51.109723409999994,-3.3200481336666665
304,0.8444106666667417,-6.437684218,15.55878353,-33.741366066666664,-3.7067533333333333,-1.3501054940000001,1.011840433,-17.212535223333333,49.278860726666665,-2.283699353333333
305,0.8471883333333304,-6.57213974,15.969410896666666,-33.8157832,0.542606622,-0.364667823,1.2488815786666667,-14.41249784,49.51213328,-3.3403488796666667
306,0.8499660000000707,-6.686913331333334,16.35576407,-33.868667633333324,-2.9876975216666666,-0.44485612366666666,3.829132318333333,-12.742575964000002,46.36261240666666,-1.0071302256666665
307,0.8527436666666594,-6.796420256333334,16.76354471666667,-33.9431483,0.247023781,0.749422113,5.863744257666666,-11.273751099333333,49.160414376666665,-3.1465953686666666
308,0.8555213333333995,-6.907446066666668,17.134408316666665,-33.997858666666666,-2.150999687666667,0.32904144133333335,2.8197123209999995,-12.161178907666667,44.53036753,-1.2506432533333334
309,0.8582989999999882,-7.008371512,17.49820455,-34.072860733333336,-0.035482069000000095,-0.6693428543333333,0.8726240793333333,-10.101756176666667,43.94155756333333,-3.5974658826666666
310,0.8610766666667283,-7.060569604333334,17.80095037,-34.12077586666667,-0.47664394000000004,-0.5999004243333333,-0.9656435646666667,-5.288283666333333,36.330047606666675,-1.2999503906666667
311,0.863854333333317,-7.085917314,18.07133611,-34.17787426666667,-0.6087439060000003,0.327552746,1.7456577223333334,-1.5898307759999997,32.564363480000004,-2.835536599333333
312,0.8666320000000574,-7.082126458666667,18.28853607,-34.220352166666665,0.7276919283333334,-0.2161684136666667,3.886361519333333,1.2816421983333337,26.07966740666667,-1.9163777829999997
313,0.8694096666666457,-7.073933601666667,18.468772253333334,-34.268351233333334,-0.9916036923333333,0.03557908266666673,4.542111198333333,2.1447997093333333,21.681680999999998,-3.1178042489999993
314,0.872187333333386,-7.07264328,18.59097226333333,-34.31467693333334,1.6579132873333335,-0.969619294,2.85065039,1.1623098053333332,14.80979411,-3.765456040666667
315,0.8749649999999747,-7.062565485666667,18.665761313333334,-34.34881083333334,-1.4988811809999998,-0.5313203433333333,0.8982981520000001,1.8592394986666667,8.941324870666667,-3.1038738250000004
316,0.8777426666667149,-7.048163891000001,18.66610845,-34.383143133333334,2.5488345623333335,-1.2000482083333333,0.9236532846666666,2.2986425956666667,0.12615021066666676,-4.201404571333334
317,0.8805203333333035,-7.023031076,18.61950493,-34.395609533333335,-1.8408595723333334,-0.4843475023333333,0.5176139076666667,2.8241579133333334,-5.81684494,-2.4487306290000004
318,0.8832980000000438,-6.995119890000001,18.500895183333334,-34.4119034,2.3985668816666665,-0.5270798526666667,1.2759736380000002,3.249102552666667,-14.289151506666665,-3.8986105920000007
319,0.8860756666666324,-6.958987395333334,18.35183589,-34.40090180000001,-2.340233038,-0.14954597766666666,1.2203987443333335,3.2334829666666667,-18.358742396666667,-1.291160106666667
320,0.8888533333333726,-6.921531836333333,18.14377721,-34.4059601,1.7100322146666667,-0.7077539163333332,1.326927304,3.9959039290000007,-25.11818695,-3.9630154770000003
321,0.8916309999999613,-6.870948632666667,17.911553063333333,-34.38466136666666,-2.234116395,-0.28373879733333335,1.4410577616666667,4.581387201999999,-28.386878330000002,-1.2982428270000002
322,0.8944086666667013,-6.819793065333333,17.63603655333333,-34.382952366666665,0.8517041803333334,-0.7590503246666667,2.693196455666667,5.402538299666666,-33.26775868666667,-4.118465562333333
323,0.89718633333329,-6.754588127333334,17.344165166666667,-34.3626175,-1.7105445466666669,-0.6154019633333333,3.4210842053333335,6.374528566666666,-35.469170889999994,-2.186630726
324,0.8999640000000303,-6.696284294333334,17.029574713333332,-34.35859936666667,-0.29903447633333335,-0.6701389673333332,4.259049971666667,6.2002158960000004,-37.965880076666664,-4.330843687
325,0.9027416666666189,-6.6320454280000005,16.716551783333333,-34.34152473333334,-2.1551112333333333,-0.8144706286666666,2.428939978333333,6.380249818,-37.94971975,-2.789103890333333
326,0.9055193333333591,-6.5759703316666664,16.405295053333333,-34.33131406666667,-0.9915265043333332,-0.10769048333333331,1.6728386319999997,5.750052690333334,-37.68471527333333,-3.5021353563333335
327,0.9082969999999477,-6.510302861666666,16.095310209999997,-34.31618246666667,-1.762033542,-0.9582225183333333,1.2981953916666666,6.623670737666667,-37.54812622,-2.8709526659999995
328,0.9110746666666879,-6.442215760333333,15.787498789999999,-34.300509133333335,-1.0200416243333332,-0.13846157,3.5211778483333336,7.022019068333333,-37.35379791333333,-2.7344293596666667
329,0.9138523333332765,-6.367660999333334,15.500024476666667,-34.28104656666667,-2.2210505006666668,-1.135933141,2.028071403666667,7.564980983999999,-34.92397244666666,-1.9895451066666665
330,0.9166300000000168,-6.285570780666667,15.237043063333337,-34.274083466666674,-2.5947076479999995,0.44717251266666674,2.2843979593333334,9.011161009333334,-31.902856826666664,-3.0473575589999995
331,0.9194076666666052,-6.198510329,14.995933853333332,-34.262003566666664,-0.5638755660000001,-1.205162575,2.6887043316666666,9.315328757,-29.31041971666666,-2.1238356233333335
332,0.9221853333333456,-6.123880704,14.765472410000001,-34.24487046666667,-2.7706495126666666,-0.5896897316666667,3.4361197946666664,7.788125991666667,-28.16164144,-1.3687570096666664
333,0.9249629999999343,-6.05526193,14.568754833333335,-34.235043833333336,-1.2180414446666668,-0.9540049033333332,1.506475846,7.196695170333332,-23.986005146666667,-1.7272579670000001
334,0.9277406666666744,-5.989390691333334,14.384368899999998,-34.211779266666674,-2.6122857729999995,-0.48701300733333336,3.049346288,6.575083732333333,-22.745869319999997,-0.020950516000000086
335,0.9305183333332631,-5.938395023000001,14.242414156666667,-34.196156833333326,-0.5459795593333334,-1.333914866,1.4584798613333334,4.901029428,-17.519123077666666,-0.3212402763333338
336,0.9332960000000033,-5.884638468666666,14.079443933333332,-34.174522366666665,-3.374350071,-0.13618878533333326,3.183249712,5.184088627333334,-20.166463213333333,0.11730538666666668
337,0.9360736666667435,-5.828195254333334,13.99201266,-34.16366576666667,-0.37708473199999987,-1.2797409893333334,2.2876002393333335,5.715445836333333,-10.962680498000003,-0.1926658949999999
338,0.9388513333333321,-5.783646424666666,13.871519723333336,-34.13565573333333,-2.5778493883333335,0.23486862600000002,1.8358673256666667,3.886550903333333,-15.171369553333335,1.418068409
339,0.9416290000000723,-5.736976464333334,13.794612566666666,-34.12830859999999,-0.8443446160000002,-1.2389535506666667,3.226158897,4.658931096333333,-9.666725476000002,-0.436833540666667
340,0.944406666666661,-5.676543235666667,13.732419013333335,-34.102826400000005,-3.174040158666667,-0.39056696499999993,2.440975964,5.858164310333334,-8.177803710000001,1.8660786943333336
341,0.9471843333334014,-5.63372914,13.6722339,-34.09499613333333,0.9527986843333327,-0.20732147,2.257252415,4.1903105573333335,-7.681276004333333,-0.13529364266666674
342,0.9499619999999896,-5.579500198333332,13.639534313333334,-34.07203930000001,-4.957954645,-0.9668243329999999,3.0093074640000004,5.1740249,-4.612112860666667,1.9325642583333333
343,0.95273966666673,-5.536395232,13.627123833333334,-34.0703379,0.9942211310000003,-0.8772644003333334,1.38626194,4.418306569333333,-1.9219346046666663,-0.28245230533333326
344,0.9555173333333187,-5.483135382333334,13.624311446666667,-34.041575099999996,-3.885817289333333,0.509246071,2.911721706333333,4.880528131999999,-1.086816311,2.906349222
345,0.9582950000000588,-5.429796695666667,13.648118340000002,-34.043210333333334,-0.2938747406666667,-0.6783281170000001,1.54727904,5.7681042950000005,2.427918176,-0.2656751076666668
346,0.9610726666666475,-5.371899287000001,13.674058913333333,-34.02332053333333,-2.5560019806666667,-1.5581878819999997,3.1828427316666663,5.675188541333333,2.461280505,2.2038234146666666
347,0.9638503333333878,-5.311458269666667,13.72673607,-34.02678933333333,-1.6527861950000002,1.0480404246666666,2.738803913,6.674203953,5.8905106389999995,-0.16402084633333347
348,0.9666279999999764,-5.241438389,13.791785560000001,-34.02563223333333,-1.2515703043333333,-1.1234379213333334,4.734150727666666,7.677329540333333,7.339541833333333,0.4480783539999999
349,0.9694056666667166,-5.191229979,13.85351181,-34.019467666666664,-1.1928007600000001,-1.4944333233333333,2.7786043583333337,5.143377304333334,6.877769074333333,1.0465808313333334
350,0.9721833333333053,-5.149106502666666,13.924228666666666,-34.024765,-1.1382121539999999,-0.8618531226666667,3.8642627400000005,4.527034839,8.074641229333333,-0.24110243733333325
351,0.9749610000000453,-5.131503582000001,14.000775653333333,-34.02846016666667,-1.5086205400000001,-1.0885804893333333,1.2943963930000002,1.5145057836666667,8.761669795333333,0.02022262433333329
352,0.977738666666634,-5.141624291666666,14.055193586666666,-34.04176843333333,0.328018258,-1.4867810409999997,3.4475092089999997,-1.5414988796666667,6.199725151,-1.2077411513333332
353,0.9805163333333743,-5.145348389666666,14.10927614,-34.045356766666664,-2.6357141736666665,-1.1287586889999999,4.721614122333333,-1.05301402,6.076059818333333,-0.2022712626666666
354,0.9832939999999629,-5.156785647,14.176496826666666,-34.068389866666664,-0.9368454233333333,0.0036724209999999813,3.5894366503333335,-1.3767738736666668,7.830955029666666,-2.260439347333333
355,0.9860716666667031,-5.172655900333333,14.207614266666667,-34.07227326666667,-0.5592362086666666,-0.5452843753333333,5.672084093,-2.4964360396666665,3.332475970333333,-0.48411337533333326
356,0.9888493333332917,-5.1976426443333335,14.22778829,-34.07399493333333,-0.9140240353333334,-0.24056581166666677,7.399752457999999,-3.626420935,2.005330085666667,-0.3919704553333334
357,0.9916270000000319,-5.232650438666666,14.211046853333334,-34.06437426666667,-0.4591418109999999,-0.8385077816666667,7.133057594333333,-5.170071761333333,-2.5352888903333333,0.5411904653333334
358,0.9944046666666205,-5.205666542333333,14.171210923333334,-34.04389956666666,0.06617101033333335,-1.0063661336666667,4.955866117333334,1.9584648013333332,-5.394026278999999,1.5073341826666666
359,0.9971823333333608,-5.187062899666667,14.009543103333334,-34.00097403333333,-1.2544293576666667,-0.14185706266666667,7.882733981000001,0.29608456299999997,-20.20778719333333,2.8378235099999998
360,0.9999599999999492,-5.148611704666667,13.861117680000001,-33.959114066666665,1.8366145293333336,0.46409547600000006,10.752161025666666,2.747701209,-18.601818401333333,2.8309932950000003
361,1.0027376666666896,-5.085095882333333,13.55185763,-33.898358666666674,-1.9931945206666668,-0.01772545766666671,11.419837314666665,5.1858276923333335,-38.02622349666667,3.3944282136666666
362,1.0055153333332782,-4.993091901,13.307264006666665,-33.8523992,-0.5077060460000001,0.10828573500000001,13.366436320333333,9.109237035333335,-30.13424428,2.3070125580000003
363,1.0082930000000185,-4.860948880666666,12.870128316666666,-33.79367063333334,-0.13335276133333338,-0.4406076566666666,9.527732847333334,13.591345785,-53.282517750000004,1.884751906
364,1.0110706666666072,-4.696923096999999,12.461022696666667,-33.743021633333335,-0.7611892073333334,0.4497802393333333,12.197738326666666,17.679136593333332,-49.835393266666664,1.4103747606666666
365,1.0138483333333472,-4.507550716333333,12.019480706666668,-33.69425966666666,-2.416998471,-0.8752671476666666,12.679755846666666,20.779452643333332,-53.70130157333333,1.0888172390000002
366,1.0166259999999359,-4.282075007666666,11.507973990000002,-33.64247386666667,-1.394880573,0.1316987276666667,14.183001203333333,25.128579456666667,-62.09309387666667,0.9746041596666667
367,1.0194036666666761,-4.027842680333333,11.040608723333333,-33.596811933333335,-4.118191878,0.24317522833333335,13.513685225000001,28.745986303333336,-56.75949605333333,0.9456552786666667
368,1.0221813333332648,-3.7649486863333337,10.543238638333333,-33.54876456666666,-0.45988938200000007,-1.7125765283333332,15.099316277999998,29.793170293333333,-60.36236572333333,1.1931589943333334
369,1.024959000000005,-3.4742565156666667,10.028780298666666,-33.4859721,-4.096211870666667,-0.5126365423333333,13.886502583333332,32.83035151333333,-62.50305938666667,3.1717906396666664
370,1.0277366666667453,-3.1970097223333336,9.597373326333333,-33.44061786666667,-3.055033465333333,-0.8204681476666668,14.526793163333332,31.660348889999998,-52.429209390000004,2.0093406836666667
371,1.0305143333333338,-2.913760185333333,9.071009318333333,-33.38740029999999,-0.78041025,-1.0542538663333334,16.463152566666665,32.26285934333333,-63.839945476666664,2.5865625936666667
372,1.033292000000074,-2.6460545063333334,8.694010734333332,-33.339192733333334,-5.328790823666667,-1.5509528023333334,13.117892581,30.533515933333334,-45.89202372333333,3.2201960086666666
373,1.0360696666666627,-2.410288334,8.275507609333333,-33.29683173333333,-1.8539752760000001,-1.5974631906666668,16.82778136,26.862174353333334,-50.826264699999996,2.3952930766666665
374,1.038847333333403,-2.147445162,7.829882939666667,-33.24651083333333,-4.831221779333333,0.07962066566666666,15.36893781,29.982430773333334,-54.099239350000005,3.5792179903333334
375,1.0416249999999916,-1.9397861163333332,7.549577872,-33.2105255,-2.172629846,-1.7328470150000002,13.950248400333335,23.655752183333334,-34.195435206666666,2.7132389150000003
376,1.0444026666667316,-1.7907892069999998,7.129572709333334,-33.168780000000005,-1.7467861173333332,-2.8963043690000005,12.320363837,16.53112952,-50.96734110666667,3.0023637216666668
377,1.0471803333333203,-1.6250646909999997,6.8304355936666665,-33.13271076666666,-5.009331146666667,-1.0697883716666665,14.636923152333333,18.685415903333336,-36.45086415666666,2.9590334000000005
378,1.0499580000000606,-1.5172121523333333,6.589035033999999,-33.0960083,-3.3022695186666664,-2.165066163,14.503596623999998,11.709592502,-29.498606363333334,3.204104185
379,1.0527356666666494,-1.4326190156666667,6.300871213333333,-33.06494899999999,-2.4841821986666672,-1.184939772,14.69424534,9.064589976666666,-35.11136627333333,2.550561577333333
380,1.0555133333333895,-1.3344604569999998,6.219138622333333,-33.034406,-5.758076192333334,-2.4099897146666667,15.164047241666665,10.649547256333333,-10.308173337666666,3.0664813520000003
381,1.058290999999978,-1.2977312803333334,6.053753376333333,-32.99970246666666,-2.0228165783333334,-0.8024749163333333,17.649942398333334,3.3051253553333333,-20.381371496666667,3.3167295256666662
382,1.0610686666667182,-1.3075621523333334,5.994791666666667,-32.967463200000005,-4.660729567333333,-1.501254339,15.030750273333334,-2.292742968,-7.581982294333334,3.268739755
383,1.0638463333333068,-1.3392726579999998,6.034542401333334,-32.941357933333336,-5.084961414333333,-3.0883087713333333,13.706724166,-4.808812896666667,4.256069819666666,2.8683974743333334
384,1.066624000000047,-1.3759538329999998,5.967037201,-32.9108709,-1.8892881673333335,-0.910824314,14.001776775333333,-5.495748042999999,-8.609184104999999,3.056406105666666
385,1.0694016666666357,-1.4516967533333334,6.092737674666666,-32.898740133333334,-4.884305994,-1.321140488,13.446574050333332,-9.917655626,14.601497333333333,1.4907320736666667
386,1.072179333333376,-1.5650949876666667,6.216287771666667,-32.887082433333326,-2.4030417600000002,-2.2968743243333334,19.060329436666667,-14.473450023333333,14.361315094333333,1.346772035
387,1.0749569999999646,-1.6640029353333332,6.303206125999999,-32.87721506666667,-4.671391357333333,0.17891206333333334,18.275623003333333,-12.656202636666668,9.946016471999998,1.118813594
388,1.0777346666667047,-1.7820820016666665,6.547952016,-32.88753763333333,-2.6610126893333335,-2.147223274,11.638035695333334,-14.731286050000001,28.97089386,-0.8551832833333334
389,1.0805123333332933,-1.9599322876666667,6.743700822000001,-32.88706463333333,-4.095876376,-1.5378292800000002,14.054915110000001,-22.033817293333332,23.03993543,0.464056809666667
390,1.0832900000000336,-2.0921260516666664,6.948289235333334,-32.89373270000001,-2.709990859,0.10254208733333336,14.542875450000002,-16.4586455,24.121145883333337,-0.291639308
391,1.0860676666666222,-2.2007363239999997,7.281718413,-32.897433,-4.271952152333333,-2.917610367,13.812725063333332,-13.683688163333334,39.57893753,0.6564519206666667
392,1.0888453333333625,-2.340390125666667,7.563064098333334,-32.90456386666667,-2.010149042,-0.1058727106666667,15.85633882,-17.308128356666668,33.32431920333333,-0.005195459000000143
393,1.0916229999999512,-2.4724306266666667,7.858102639333333,-32.91073606666667,-2.8565456570000003,-0.13629177433333334,17.956764223333334,-16.45803515,34.980137506666665,0.4012643296666667
394,1.0944006666666912,-2.5916279953333334,8.197697480333334,-32.92761993333333,-2.6590858696666664,-0.9885081349999999,14.442207017333333,-14.682329813333332,40.34735361666667,-0.5912207066666668
395,1.0971783333332799,-2.732715288666667,8.512530804,-32.92965443333334,-3.2747323116666665,-1.9782986343333333,14.907351493333332,-17.629138626666663,37.33797963333333,1.1057218709999999
396,1.0999560000000201,-2.8696560860000004,8.826615492333334,-32.94505053333334,-1.661968251,-1.5781309603333333,14.731811206666665,-16.795923553333335,37.27304331333334,-0.34988172833333336
397,1.1027336666666088,-3.0062342483333335,9.159103393666667,-32.95659129999999,-3.0940975346666666,-1.3382601440000002,15.21540578,-16.916698136666668,39.50516637333333,0.304837942
398,1.105511333333349,-3.1403010683333332,9.527252515333334,-32.9716975,-3.38449649,1.005478998,16.500356993333334,-16.444153783333334,43.753185269999996,0.1894431110000001
399,1.1082889999999377,-3.2986524900000003,9.856259029666667,-32.98838043333334,-1.5494240523333334,-2.014566342,11.763079008666667,-19.414930979999998,39.12054952,-0.12270029366666657
400,1.1110666666666777,-3.458582798666667,10.158926963666667,-33.00181070000001,-2.9063778320000004,-2.0009195406666667,14.673114776333334,-19.53809738,35.888225553333335,0.12284294766666666
401,1.1138443333332666,-3.585507075,10.480237642333334,-33.006182333333335,-1.8755365413333331,-1.3494950833333332,15.769039470000001,-15.883172989999998,38.10579045666666,1.4888209499999998
402,1.1166220000000067,-3.741270224333334,10.770892143,-33.013605733333335,-2.08763665,-1.089472371,13.99299971,-19.173742930000003,34.408255260000004,0.963664969
403,1.1193996666665953,-3.889663378333333,11.083694776666666,-33.026084899999994,-3.1133533320000004,-0.8933181443333332,15.860538483333334,-18.2612079,37.140316006666666,0.6231658456666666
404,1.1221773333333356,-4.047173738333334,11.322942413333331,-33.03459166666667,-1.9712392886666665,-0.020981629999999935,16.913132033333333,-19.342639286666667,28.25309372,0.6098758279999998
405,1.1249550000000756,-4.208262602666667,11.59642633,-33.04990643333333,-1.734911044666667,-1.9683322906666667,14.175410586666667,-19.706698736666667,32.44695854333333,0.19448480999999992
406,1.1277326666666643,-4.376120885333333,11.813011169999998,-33.04951730000001,-4.074735724666667,-1.0402864816666668,15.239178656666667,-20.807499566666664,25.46548334666667,1.6128579773333331
407,1.1305103333334046,-4.515287558,12.085551896666667,-33.061854033333326,-1.1082360946666667,-1.0063751936666667,13.718478840000001,-17.12187322,32.301283520000005,0.7071800030000001
408,1.1332879999999934,-4.665291627333334,12.288541476666666,-33.07102203333333,-3.1701508263333333,-0.8940420746666667,14.705800056666666,-18.44031016,23.911792756666667,0.5644282103333333
409,1.1360656666667335,-4.824300925,12.532339416666668,-33.08802289999999,-2.044817527333333,-0.5495866536666667,12.713361896666667,-19.370861689999998,28.899935403333334,0.06126586633333334
410,1.138843333333322,-5.015370846000001,12.700747806666667,-33.08845519999999,-2.966729362666667,-1.8219671046666666,14.7681071,-23.586280189999997,19.70030085,1.2970077196666665
411,1.1416210000000622,-5.172004858666667,12.970615066666666,-33.11475626666667,-2.5640903313333334,-1.3348201186666666,15.619132679999998,-18.80219904666667,32.099765143333336,-0.5538655916666667
412,1.1443986666666508,-5.314742723999999,13.121192299999999,-33.12036133333333,-2.674278974666667,0.06850096599999993,15.245070776666665,-17.664135613333332,17.6215868,0.6185118556666667
413,1.147176333333391,-5.473922888333334,13.380324046666665,-33.153628000000005,-1.7697312833333336,-1.4397138756666668,12.472962696000002,-18.87934049,30.88661003333333,-1.3048765066666668
414,1.1499539999999797,-5.648428122000001,13.502169606666667,-33.1718343,-2.3902023236666667,-1.8065053226666665,15.597141583333334,-21.128282226666666,14.331852277666668,-1.0963448686666666
415,1.15273166666672,-5.840714613666667,13.705076536666667,-33.20150756666666,-2.487620155,-0.44422980166666665,15.632227579666667,-22.92760213,24.134096143333334,-1.3572529056666667
416,1.1555093333333086,-6.033295472666666,13.847340586666666,-33.226710033333326,-1.8259158930000001,-1.3220993526666667,14.677676833333331,-23.107501983333332,16.863245962,-1.5349172750000004
417,1.1582870000000487,-6.227796713333333,13.983210246666667,-33.266156499999994,-3.510429303,-0.23447199666666665,13.21421528,-22.868477503333335,16.251261073333335,-3.1679913003333335
418,1.1610646666666373,-6.417120298,14.15276718,-33.2949651,-1.9046445289999998,-1.0653555193333333,11.726031779000001,-22.604037603333335,20.181387583333336,-1.4872403543333332
419,1.1638423333333776,-6.591518084333334,14.240881916666666,-33.32375336666666,-1.8879698913333332,-0.7681232093333333,15.082097692,-20.757480303333335,10.438724201,-2.47472473
420,1.1666199999999662,-6.7253108023333334,14.413684843333334,-33.348386133333335,-4.346181710333333,0.05766386799999997,15.220085779999998,-16.05333201,20.51279386,-0.7908317049999999
421,1.1693976666667065,-6.864330291999999,14.51973343,-33.37209066666666,-0.4943225580000001,-0.009885962000000026,14.769070623333334,-16.63415527333333,12.519778094333333,-1.6230683723333332
422,1.172175333333295,-7.000073433,14.608379046666668,-33.38659666666666,-3.8164701463333337,-1.1646741926666666,14.604405086666667,-16.58549817333333,10.350939116333333,-0.750941741333333
423,1.1749530000000352,-7.1305891673333335,14.739748320000002,-33.399452200000006,-2.730890989666667,-0.6393486346666667,14.283082643333335,-15.929119426666666,15.378554979999999,0.08985467766666681
424,1.177730666666624,-7.247553189333334,14.788819946666665,-33.40005493333334,-0.7346548833333332,-1.1823552796666668,12.538944245666665,-14.76134491,5.445177158,0.2868065836666666
425,1.1805083333333641,-7.355181058333333,14.850516316666665,-33.40723673333334,-3.0628588596666666,-0.1133630573333333,13.658213613333333,-13.351247469999999,6.9958723386666675,-0.2384169100000002
426,1.1832859999999528,-7.467628161333333,14.898835499999999,-33.40939843333333,-3.2896096710000005,-0.9539034766666666,15.14071687,-14.222174963333336,5.347946504666667,0.3335613013333332
427,1.186063666666693,-7.562500954,14.932229360000001,-33.412818933333334,-1.5499445199999997,-1.0152266223333333,15.191827140000001,-11.940033911,3.5757684703333332,-0.23225694900000007
428,1.1888413333332817,-7.642947673666666,14.916520436666667,-33.41922506666666,-2.3798726596666664,-0.6551577383333332,12.515175820000001,-10.243727048,-2.208058437,-1.1369394463333333
429,1.1916190000000217,-7.730027357666667,14.902222313333333,-33.422670999999994,-3.796068986,-0.06607248133333334,14.260138193333333,-11.011861005333335,-2.0957356493333337,-0.9890044729999999
430,1.1943966666666106,-7.797309716666667,14.872032483333333,-33.428036999999996,-0.9336942533333333,-0.6363205710000001,14.33128802,-8.674761137333334,-3.9498604536666666,-1.283042907666667
431,1.1971743333333507,-7.838369369333333,14.821579613333334,-33.42472836666667,-2.849346081666667,-0.44291408366666674,14.570467313333333,-5.724026045666666,-6.489977359666667,-0.7936701380000001
432,1.1999519999999393,-7.892842133666666,14.760795913333332,-33.43117523333334,-2.1300787133333334,-0.03942981333333332,13.813254673333335,-7.048991203666667,-7.546436946,-2.0773655573333336
433,1.2027296666666798,-7.933747450333333,14.700755436666666,-33.421992,-3.4821196400000005,-1.6312928993333333,11.775780361333332,-5.888584455,-7.713667392666667,-0.30305898200000003
434,1.2055073333332682,-7.928930282666666,14.632678033333335,-33.41706846666667,-1.9466474753333334,-0.744320482,13.331691106666668,-0.3448359966666666,-8.624368667333334,-0.6735948326666668
435,1.2082850000000083,-7.894483407666667,14.507236480000001,-33.38861083333333,-2.8575374683333337,0.6519247643333334,13.99124241,2.5928014116666667,-15.80424372,0.8169322806666663
436,1.211062666666597,-7.864932855,14.39963945,-33.3738327,-2.521679202666667,-0.736596902,14.560089750000001,2.331503075,-13.478154343333335,-0.18397359066666663
437,1.2138403333333374,-7.806249777666667,14.292563756666667,-33.350049299999995,-3.664222161,0.6459876996666667,16.396297456666666,5.646237692333334,-13.545732496666668,0.6303915183333334
438,1.2166180000000775,-7.745943228333334,14.184089663333332,-33.340273533333324,-1.6437391443333331,0.19892596433333332,14.795243260000001,6.175299008666666,-13.498977343333332,-0.7696182726666665
439,1.219395666666666,-7.664630413,14.066420553333336,-33.323651633333334,-3.3271662393333337,-1.840744435666667,11.563447633666668,8.573044142333334,-14.685621263333331,-0.34973249833333336
440,1.2221733333334062,-7.546663602333335,13.936886153333333,-33.31812286666668,-2.2224341236666665,-0.8883728299999999,11.893003782000001,13.232949893333334,-15.938562076666669,-1.5592840909999997
441,1.2249509999999948,-7.402521610333333,13.79522165,-33.296246833333335,-3.7134057676666665,-0.12030398833333329,13.970111209999999,15.965653261333335,-17.617194493333333,-0.059246182333333376
442,1.2277286666667349,-7.256636778333333,13.665762899999999,-33.28260293333333,-1.4424946306666666,-1.200376642,14.752410887666668,16.378088633333334,-16.073051133333333,-0.5244851113333333
443,1.2305063333333237,-7.107623259333333,13.51901881,-33.249443033333336,-4.070421218666667,0.12465317066666666,15.648644448666667,16.226956366666666,-18.372238793333334,1.2530491153333332
444,1.233284000000064,-6.983649731,13.397825556666666,-33.22820026666666,-2.215776404,-0.8868726690000001,14.295436223333333,13.540390013333335,-15.201990126666667,0.5739080906666666
445,1.2360616666666526,-6.8576547303333335,13.290315309999999,-33.19367726666667,-4.389578580999999,-2.540773789333333,11.414270242999999,13.437976839333333,-13.717584606666668,2.1060460806666668
446,1.2388393333333925,-6.710447947,13.170760153333333,-33.165138233333344,-2.1426696973333335,-1.3041441046666666,10.790201504333334,16.13025538333333,-15.106841086666668,1.5139255523333333
447,1.2416169999999813,-6.5605556169999995,13.037240026666666,-33.1268031,-2.294176062,-0.9599285123333333,11.79178365,16.221142450333332,-16.85455195333333,2.2660796243333334
448,1.2443946666667216,-6.425284862333334,12.94697825,-33.09796906666667,-3.552208105666667,-1.196306457,12.701184271999999,14.718531134666668,-11.604679584000001,1.9764591953333335
449,1.24717233333331,-6.313039620666667,12.832796096666668,-33.06825763333334,-2.1168766590000003,-1.3547307053333333,13.729856806999999,11.962748368,-14.423546156999999,1.5555785956666668
450,1.2499500000000505,-6.236278057,12.716333073333333,-33.046671566666674,-3.2261073590000002,-1.6826850176666668,11.867434502666667,7.875691892333333,-14.635959626666667,0.9190217256666667
451,1.252727666666639,-6.166852474333333,12.651848476666666,-33.05031586666667,-2.8438618183333335,-1.7928211093333333,8.58123652,7.711777368666667,-8.069552103666666,-1.630392849333333
452,1.2555053333333792,-6.132033666000001,12.607253393333332,-33.0823822,-2.9680027166666663,-1.4051070613333334,6.528236548,4.2477710523333325,-5.3802791039999995,-4.368217389000001
453,1.258282999999968,-6.110818386000001,12.558389663333335,-33.12829083333333,-2.806059082333334,-2.3258013923333336,8.578701180000001,3.040828228,-5.684016545666666,-6.353342851000001
454,1.2610606666667084,-6.083372116,12.564302759999999,-33.19636786666668,-4.464970588333334,-1.2277276713333334,7.056115786333334,4.303294504666667,1.08510452,-7.896267731999999
455,1.2638383333332965,-6.128917853,12.61125533,-33.2649892,-2.5307489633333335,-1.419637253,10.127537884666667,-4.382771173999999,6.039760490333333,-7.7874407770000005
456,1.266616000000037,-6.189197222333334,12.70603148,-33.33301546666667,-4.409971237333333,-1.5768766799999998,4.913716991666667,-6.177915016666667,11.708281197,-6.876124859
457,1.2693936666666257,-6.276723861666667,12.83512211,-33.39125823333334,-1.56093808,-1.6317894263333335,6.229967276333333,-9.676672458666667,15.724721273666669,-5.495471557000001
458,1.2721713333333657,-6.400932470666667,12.976570446666669,-33.43829853333333,-3.6617437996666666,-1.4414738416666666,5.994317133999999,-14.373830159999999,17.01584244,-3.7465313076666664
459,1.2749489999999544,-6.5155522029999995,13.285902336666666,-33.48318733333334,-2.891195853333334,-2.039497335666667,4.838667631333333,-13.255488078333334,37.06076685666667,-1.4394058606666664
460,1.2777266666666947,-6.6571606,13.366526923333334,-33.499204033333335,-0.02379684633333327,-0.47385981166666663,3.148927371333333,-17.27811305,9.352540970333331,-0.8746881486666666
461,1.2805043333332833,-6.827094713666668,13.798112233333335,-33.55680086666667,-5.735625664666667,-2.0589116416666666,6.001192410333334,-19.51295852666667,51.81310145333333,-0.9626716576666666
462,1.2832820000000238,-7.016110261333334,13.876746176666666,-33.5769221,2.533978025,-0.3219169876666667,4.222163199333334,-22.813756306666665,9.163287639333333,-1.3256955939999997
463,1.2860596666666122,-7.230069955,14.284742353333334,-33.63759356666666,-5.569071292666667,-1.6558754046666666,7.921383580666666,-24.678244906666666,49.05837631,-1.2833022473333335
464,1.2888373333333523,-7.432407697333333,14.45788924,-33.659060133333334,1.4038167943333333,-1.2810438076666668,0.4487684553333331,-24.351381303333337,20.43764146,0.03180782033333326
465,1.291614999999941,-7.659189701,14.769559226666665,-33.70302326666667,-3.4740820326666664,-0.23120583799999997,3.8479048810000003,-26.636626563333333,37.336719513333335,-0.5100377899999998
466,1.2943926666666814,-7.898166656666667,15.013481773333334,-33.7308375,0.0851787726666667,-0.8848321440000001,4.558467229333334,-28.551111223333333,28.957942329999998,0.6271816490000002
467,1.2971703333332698,-8.097736994666667,15.25652949,-33.766517633333336,-1.861754139,-0.518820544,1.3186409476666665,-23.57396316666667,29.04102961,-0.37594636266666664
468,1.29994800000001,-8.290249506666667,15.49008846,-33.804130566666664,-1.2836057843333333,0.5121815006666667,4.446341514333333,-22.65529060333333,27.878588993333334,-0.42523935433333326
469,1.3027256666665987,-8.481950124,15.686911263333334,-33.839266466666665,-0.572258075,0.7480532923333333,4.597904086,-22.59729957333333,23.53661283,-0.9312415120000002
470,1.3055033333333388,-8.675610224666666,15.898840266666667,-33.88161723333334,-1.383013924,-0.5005788953333333,3.5939844446666664,-22.554098763333332,25.439301173333334,-1.3977278716666668
471,1.3082810000000789,-8.816176414666666,16.033506393333337,-33.91670226666667,1.104265531,-0.896473835,-0.9361189206666664,-16.425955456666667,16.15755748666667,-1.886792342
472,1.3110586666666677,-8.892713864666668,16.159190813333336,-33.939781233333335,-3.287677208333333,0.527267297,1.907643516666667,-9.194340071,14.84938685,-0.4523895976666668
473,1.313836333333408,-8.951025327000002,16.22193527,-33.96192423333333,1.6815644503333331,0.7229099966666667,4.357378681666667,-6.927923759333333,7.387775262333334,-1.7181102039999996
474,1.3166139999999966,-9.014832497,16.282313979999998,-33.972335833333325,-2.305568616,0.31417377799999996,6.009913920333332,-8.120750905,6.8904267143333335,-0.18506256766666684
475,1.3193916666667365,-9.078434308,16.299908000000002,-33.98984529999999,1.6699691216666668,0.30335916333333335,3.221221725,-7.692330639000001,1.9464261533333331,-2.0093557043333337
476,1.3221693333333253,-9.097703933666667,16.27898661,-33.98798623333334,-1.9959521143333336,-1.0719426823333333,0.7502387363333334,-3.216699838666667,-2.9491204843333336,-0.3163404859999999
477,1.3249470000000656,-9.082302411333334,16.23496945333333,-33.990610733333334,0.7527147930000001,0.10976451633333335,1.0192167756666666,1.302936571,-5.636472940666667,-1.4876705006666666
478,1.327724666666654,-9.036919275999999,16.140243213333335,-33.97887420000001,-1.256909132,-0.33757510766666665,3.113057524,4.220185597666667,-11.874787330333334,-0.5992451580000001
479,1.3305023333333945,-8.986315409333335,16.029393193333334,-33.9713974,0.24775250733333345,0.71910883,4.206712484333333,5.190316914,-13.733306567666666,-1.5912714003333335
480,1.3332799999999831,-8.925903638333333,15.886341413333334,-33.9526393,-0.683797876,-0.42996457233333335,3.3136599063333336,5.819714386666667,-17.737735746666665,-0.701177001
481,1.3360576666667232,-8.855025609666667,15.7123607,-33.93819426666667,-0.778305014,0.43334454633333336,1.9131474083333335,7.385052761333334,-21.33839353,-1.9392591316666667
482,1.3388353333333118,-8.762861887666666,15.519634563333334,-33.92195126666667,-0.286174049,-0.6364270346666666,0.8274722496666667,9.752450945,-23.590220770000002,-1.869400561
483,1.3416130000000521,-8.650134404333334,15.293889683333333,-33.90977476666666,-1.0522487563333331,-0.07511142166666668,1.6294515726666667,12.466506003333334,-27.43751208,-3.0715892043333333
484,1.3443906666666408,-8.520864804666667,15.046530406666667,-33.8962631,0.28398338966666664,-0.053372224333333364,3.7909324966666667,14.336109163333333,-30.03198623666667,-3.0966956216666666
485,1.347168333333381,-8.391793568666666,14.792214709999998,-33.88293203333333,-2.0375243823333333,-0.38744924199999997,4.177114804333333,14.383172986333335,-30.850338616666665,-3.3344905373333336
486,1.3499459999999697,-8.259573618333333,14.533331556666667,-33.874468500000006,-0.9069414336666668,-0.05412223933333338,2.6129248539999996,14.885048866666667,-31.330332439999996,-3.760881940333333
487,1.3527236666667097,-8.118692874666666,14.27686691333333,-33.86163076666667,-1.7431782683333334,-0.08192071333333328,2.081040899,15.825759249999999,-31.111852646666666,-3.279667417
488,1.3555013333332984,-7.968042691666667,14.022285779999999,-33.854187,-1.002899408,-1.0052000136666668,2.3993831473333334,17.149965923333333,-30.818817773333336,-3.689529896
489,1.3582790000000386,-7.827547709,13.771186826666666,-33.831601466666676,-1.7630844116666669,-0.666602105,1.57782497,15.492040000000001,-30.632002513333333,-1.9180602033333336
490,1.3610566666666273,-7.695146242666667,13.520874659999999,-33.819531766666664,-0.8519938393333334,-0.44018150866666667,2.0201851923333334,14.844643593333336,-30.41534995666667,-2.880144298
491,1.3638343333333678,-7.553972880333333,13.272484143333335,-33.79914603333334,-2.5029916586666663,-0.8489245973333333,3.7032026449999997,15.65385596,-30.28120168,-1.982868413
492,1.3666119999999562,-7.423195044333333,13.072452863333334,-33.788147,-1.197794596,-0.29539414266666664,2.135591755333333,14.711313249999998,-24.429322560000003,-2.1209240756666663
493,1.3693896666666963,-7.307966868,12.841487883333334,-33.7643814,-1.083517074333333,-0.8275444506666667,1.6090671220000001,12.447367666666667,-28.26002693,-1.1653456489999998
494,1.3721673333332849,-7.197726249666666,12.64819209,-33.74521383333333,-1.8169642286666667,-1.1120365263333334,2.6942965389999998,12.039428713333331,-23.756724673333334,-0.9628954233333332
495,1.3749450000000254,-7.084086418333334,12.443816503333332,-33.71770476666667,-1.796020364,-0.39319696033333335,0.9738839963333333,12.193685847333333,-25.155696236666667,-0.23267535333333336
496,1.3777226666666138,-6.982498804666666,12.279018723333332,-33.703674299999996,-0.9438007276666668,0.12708576533333335,2.796902935,11.156098046666665,-20.295035679999998,-1.0501755476666668
497,1.380500333333354,-6.895036697333333,12.087161383333333,-33.67033133333334,-1.6852000643333334,-1.9156993230000001,3.100998958,8.904486338333333,-23.73802058,0.718005975
498,1.3832779999999427,-6.804440339333333,11.932016053333333,-33.656008400000005,-1.4994829496666666,0.2838355700000001,2.519566099,9.849941570333334,-19.16109085,-0.8023921646666669
499,1.3860556666666828,-6.72752285,11.773829143333332,-33.63840993333334,-1.6618373793333332,-0.3513872723333334,3.0013031163333337,8.058711845666666,-19.503905616666668,-0.5914292336666667
500,1.3888333333332719,-6.670922120666667,11.633796693333332,-33.62546029999999,-0.9140887953333333,-1.5458586810000001,1.6746767956666666,5.800234476666667,-17.340412456666666,-0.696152687
501,1.3916110000000117,-6.609093507,11.477099099999998,-33.6148987,-1.5451309683333332,-0.5347400900000001,4.8373092810000005,6.436035633333333,-19.237306913333335,-1.3293835023333334
502,1.3943886666666003,-6.562744776333333,11.370014823333333,-33.619697566666666,-2.2329320113333337,0.26905016099999995,1.8446492749999999,4.986610889666666,-13.160689989,-2.3101868233333334
503,1.3971663333333406,-6.533316771,11.246709189999999,-33.62501523333333,-0.100102027,-1.9328372876666666,2.9570765493333333,2.9488266309999998,-15.057972590666665,-2.6852348643333332
504,1.3999439999999295,-6.515885988666667,11.137415246666668,-33.63497666666666,-2.466895292333333,-0.5695545676666667,2.932842394,1.600040237,-13.33849907,-2.9515755173333336
505,1.4027216666666693,-6.500263214,11.051155406666666,-33.658770266666664,-1.9778794446666668,-0.04364633566666661,3.537701527333333,1.7279495596666667,-10.424846808,-4.219574968
506,1.4054993333334096,-6.4956955910000005,10.988173803333334,-33.6637853,-1.7106523813333334,-1.7292343529999998,2.4947180946666667,-0.06616584466666679,-7.871631145333333,-1.7872292600000002
507,1.4082769999999982,-6.499747594333333,10.924373945333334,-33.6639811,-1.4884977933333332,0.4252879516666667,3.8058954873333337,-1.1566492913333333,-8.059293270333333,-1.21709458
508,1.4110546666667385,-6.497391859333334,10.846036275000001,-33.6543096,-0.3209013540000001,-0.7642676433333332,6.468099117666667,-0.6750075023333332,-9.896462758,-0.2272450526666665
509,1.4138323333333271,-6.496892293333333,10.791653949333332,-33.64346316666666,-1.7523966629999999,-0.26414775833333337,8.631936073,-0.8533981246666666,-7.088018417666667,0.18131049499999996
510,1.4166100000000672,-6.511299769000001,10.714110375666666,-33.63645423333333,-0.3238391726666666,-0.6889363896666666,6.283602396666666,-2.612720554,-9.760133822,-0.5919061503333335
511,1.4193876666666558,-6.494701226666667,10.54994265,-33.6099396,-1.2331730920000001,-0.44452384100000003,5.646267414,0.7232654693333335,-20.377468743333335,0.5106581846666666
512,1.4221653333333961,-6.500551541999999,10.442352610999999,-33.6060918,0.41544294333333337,-0.6932429276666667,10.299677847333333,-1.4732708930000002,-13.314764819333334,-1.3662626346666666
513,1.4249429999999847,-6.476684888333334,10.180097581666667,-33.557034800000004,-1.5958601036666666,0.10694579766666672,7.534644763666667,1.107919112,-32.348906836666664,1.7689763303333335
514,1.427720666666725,-6.446273645000001,9.960399944999999,-33.52864076666667,0.18873884299999996,-0.7344872950000001,10.983396530333332,2.4025074539999998,-27.009166083333337,-0.07621006199999998
515,1.4304983333333137,-6.418354193,9.605901082666668,-33.47199503333333,0.0008105436666666262,-0.397978311,10.813002426333334,1.4840739966666667,-43.45419947333334,1.5241390170000002
516,1.4332760000000537,-6.361270427666667,9.301679294333333,-33.4178518,-2.7011683933333335,0.31097620699999995,8.948836009666666,5.094883124,-37.427747090000004,1.938590387666667
517,1.4360536666666424,-6.292679468666667,8.832594395,-33.34558106666666,1.2726974486666667,-0.3899576070000001,14.596947989999999,6.170841456666667,-57.33314768666667,1.943754931
518,1.4388313333333826,-6.190194607,8.43077898,-33.29028573333333,-3.2645368576666662,-0.021050164666666666,10.415368556333334,10.619674046333333,-49.08792241333333,0.9354672196666667
519,1.4416089999999713,-6.109143734333334,7.936009724666666,-33.218666066666664,0.07926555466666663,-0.5375080606666667,13.813046137,7.801040650666667,-60.37160237333333,1.722865394
520,1.4443866666667118,-5.989926497,7.495944341,-33.157236733333335,-4.4173572063333335,-0.214727918,11.117287158333333,12.624919253333333,-53.726343793333335,1.3511877656666667
521,1.4471643333333002,-5.848629633666666,7.020689487666666,-33.099044799999994,-1.7265043756666667,0.20015912733333333,13.450882273333333,15.37715753,-57.88376744666667,0.6889399113333333
522,1.4499420000000403,-5.728483199999999,6.634882768000001,-33.056086233333325,-4.142757654,-0.9620338083333332,12.785263063333332,13.10209624,-47.01271311333333,0.027381718
523,1.4527196666666289,-5.592321713666666,6.246796766999999,-33.027732833333324,-3.5636009373333337,-0.3511198593333333,9.773045857333333,15.255599976666666,-47.126838683333325,-1.5253056286666666
524,1.4554973333333694,-5.4696919123333325,5.922278563333333,-33.01619723333334,-3.644920190333334,-1.2936098773333333,13.113969166666665,13.856903713333333,-39.32628886333333,-2.7688646716666665
525,1.4582749999999578,-5.356245041,5.688508669333333,-33.02329253333333,-3.7149299780000002,-1.322823743,10.147614160333333,13.019371986666668,-28.301584246666668,-3.786871952
526,1.461052666666698,-5.259446779666667,5.478019396333333,-33.02695463333333,-3.7170870303333334,-0.9479609033333333,9.943901855333333,10.928021429666666,-25.536339440000003,-3.157627066
527,1.4638303333332867,-5.199766317999999,5.353688716666667,-33.04612986666667,-3.623545885,-1.1791713236666668,13.562014900000001,6.700369517000001,-15.103057223333332,-3.9544246793333335
528,1.4666080000000268,-5.170898755333334,5.313517888333333,-33.06483203333334,-2.8174046676666666,-2.159789045666667,11.978612579999998,2.952937146,-5.027566671000001,-3.042770425333334
529,1.4693856666666154,-5.159974416,5.332869688666666,-33.0790558,-5.221612374,-1.9176932873333332,9.018379530333334,0.7686234713333334,2.0196139016666668,-1.8082409946666667
530,1.4721633333333557,-5.185915788,5.4084129333333335,-33.089960733333335,-2.5716725786666665,-1.6560901403333335,12.648774146,-3.695498347333334,8.706646441333334,-0.8628407319999999
531,1.4749409999999443,-5.259265264,5.582693259,-33.083358733333334,-4.499842802666667,-0.7584297260000001,13.618409790000001,-9.566177685,20.321902590000004,2.2446147773333336
532,1.4777186666666846,-5.347952842666667,5.825349649,-33.081153866666675,-4.2944839,-1.7538455723333335,11.315273601666666,-11.380978899666667,28.53415425333333,2.548645774666667
533,1.4804963333332735,-5.4654754,6.064649741,-33.06738023333333,-3.6543147463333336,-0.658301433,12.641504605666666,-14.954068183333334,28.00062751666667,3.8932944933333338
534,1.4832740000000133,-5.592347621666666,6.421058337000001,-33.074017833333336,-2.587874194,-1.0460559399999998,13.49398772,-15.841071446666668,42.20830663,2.889527320666667
535,1.486051666666602,-5.678534030666667,6.728947798666667,-33.05834196666667,-2.948991219333333,-0.08316658900000003,12.279158113666668,-11.264444825,36.161970776666664,5.061790227
536,1.4888293333333422,-5.806142648000001,7.166396935666666,-33.0773061,-1.3470125993333335,-0.09199475266666667,14.110774042000003,-15.72142124,52.01012039,2.548765023666667
537,1.4916069999999308,-5.875477791000001,7.498007456333333,-33.0702947,-2.978800038333333,0.2650810876666667,12.021190959333333,-9.145712693,39.07821146333333,4.481725215666667
538,1.4943846666666711,-5.902745406,7.973839918666667,-33.10045113333333,-2.613114794,0.31539895133333334,15.132392883333333,-3.457261582333334,56.71689351333333,1.8418560823333336
539,1.4971623333334112,-5.917452653000001,8.283562024333333,-33.09844206666667,-1.9370030166666667,0.20116781733333333,14.248885790333334,-2.533187151,36.516855873333334,3.7182052606666662
540,1.4999399999999998,-5.907411734333333,8.753396193,-33.12951913333333,-4.283550103666667,-0.15771015466666663,12.528509141999999,1.0796256363333334,56.01245625666667,1.6860317386666666
541,1.5027176666667401,-5.864912987,9.076444308333334,-33.12815856666667,-0.8193813959999998,-0.046878129333333345,15.289668083,4.356791764333334,38.12712224333333,3.679943363
542,1.5054953333333287,-5.788309892000001,9.422188123,-33.15223186666666,-2.616299092666667,0.205760049,12.618929543,8.985499700666667,41.108163196666666,0.9861601093333334
543,1.508273000000069,-5.702908516000001,9.835124015,-33.180132566666664,-1.185099761,-0.824217816,13.109776496333334,10.075603804666667,49.223681133333336,1.2139612830000002
544,1.5110506666666577,-5.599082629000001,10.103358905666667,-33.19867196666667,-0.9215875860000002,-0.9710645179999999,16.23243967666667,12.197280726333332,31.79012425666667,0.5334258476666667
545,1.5138283333333977,-5.431381543333334,10.504690168333333,-33.22212726666667,-3.8703658576666666,-0.33557387200000005,17.866809206666666,19.878784813333333,47.79503123,1.453094005666667
546,1.5166059999999864,-5.2538617453333325,10.745944022333333,-33.23991646666667,-1.5126854183333334,1.1979428826666667,13.768383343000002,21.040813763333333,28.553811393333334,0.22002689033333325
547,1.5193836666667266,-5.047749519333333,11.082656543333334,-33.26663463333333,-1.8217887480000001,-1.0776675343333333,12.015471458333332,24.59769821,40.11762237333334,0.08587137866666679
548,1.5221613333333153,-4.8176476159999995,11.282242776666669,-33.286641466666666,-0.2920434076666667,-0.9332115440000001,14.873668673333333,27.41230901,23.603937786666666,-0.7039236226666667
549,1.5249390000000556,-4.572550773333333,11.524551709999999,-33.29393006666666,-3.641832510666667,-2.461231947,14.153897920333334,28.84564717666667,28.642681123333332,1.133951505
550,1.5277166666666442,-4.314210415000001,11.68625641,-33.30181376666667,-0.9599824149999998,-0.11320213499999998,16.479408266666667,30.535086313333334,18.944862046666668,0.18294469533333313
551,1.5304943333333842,-4.074897925,11.83334096,-33.324412033333324,-1.52983286,-2.4719225963333336,13.321394603333333,28.53972943333333,17.384994824333333,-1.701714118333333
552,1.5332719999999729,-3.8365284603333336,11.980671246666667,-33.3345515,-2.060531929,-0.6472939999999999,16.61341095,28.180384953333334,17.261302312999998,-0.38610134533333323
553,1.5360496666667134,-3.6073416866666665,12.040789603333332,-33.348996500000005,-1.7883536316666666,-1.022962292,16.828202886666666,27.136123656666665,6.892911474333334,-1.5567320186666667
554,1.5388273333333018,-3.385267575666667,12.145988463333333,-33.3630905,-1.3872202236666666,-1.946201146,11.154292424666666,26.320918399999996,12.246013323,-1.2803456386666665
555,1.541605000000042,-3.1963660716666666,12.104642233333335,-33.37858836666667,-1.2085393566666667,-3.050766150333333,12.397736866999999,22.351282756666667,-5.273448466666667,-2.4587881166666663
556,1.5443826666666307,-3.006792545333333,12.142417906666667,-33.3943227,-2.185079003333333,-2.0060029426666666,13.679050763333334,22.458060583333335,4.176206986,-1.9927968086666665
557,1.5471603333333708,-2.857136408666667,12.02918466,-33.41179403333333,0.47914117566666664,-2.854995251,13.5631237,17.679927826666667,-13.887315113,-3.0901367263333337
558,1.5499379999999594,-2.731641848666667,11.987322490000002,-33.42107896666666,-2.6835840543333336,-2.080290198,15.258427937999999,14.61061891,-5.412524064333333,-1.728876114
559,1.5527156666666997,-2.667882839666666,11.820359546666667,-33.43395743333333,-1.1184414823333333,-2.62126561,15.870415053333334,7.257924397666667,-20.370893479999996,-2.7884220880000004
560,1.5554933333332883,-2.627652724333333,11.694444656666667,-33.44977313333333,-2.8207601306666668,-2.7288218736666665,15.087025643333332,4.528862436666667,-15.451461156666667,-2.9547436633333333
561,1.5582710000000286,-2.6416256426666664,11.518903413333334,-33.472015366666675,-2.08312424,-2.3617550136666665,13.561428390000001,-1.8444906869999997,-21.353780743333335,-3.9350180626666664
562,1.5610486666666175,-2.6732581456666664,11.35601902,-33.49098716666667,-2.513677279,-2.9514231083333335,12.424516043333332,-4.046568433333333,-19.855065026666665,-3.508634885333333
563,1.5638263333333573,-2.7449200946666665,11.153891246666667,-33.51484933333334,-1.6459154886666667,-3.485408783,14.359808286666668,-8.716513475,-24.538822176666667,-4.311331192666667
564,1.566603999999946,-2.8411054613333335,11.005657829999999,-33.53328703333333,-3.309248129666667,-1.0099178756666667,16.955625536666666,-11.833055493333333,-18.085312523333332,-3.429491281666667
565,1.5693816666666862,-3.024157762333333,10.789663315333334,-33.549649566666666,-1.6056128143333332,-3.061046441333333,12.599152566333336,-22.280263266666665,-26.227780023333334,-3.586538911
566,1.5721593333332748,-3.2173976100000004,10.625079791333333,-33.56976826666667,-3.4783697126666664,-2.655049582333334,14.579612096666667,-23.44965553333334,-20.018593473333336,-3.8344377680000004
567,1.5749370000000151,-3.421078920333333,10.41640218,-33.59118143333334,-2.566536903333333,-0.4458332856666667,14.585989636666667,-24.653137843333337,-25.29618263,-4.307487209333334
568,1.5777146666666038,-3.6428627176666666,10.256052015666667,-33.618860866666665,-2.2154429356666667,-3.6423683563333333,14.552769660000001,-26.73160489,-19.431200663333332,-4.834948023
569,1.5804923333333438,-3.8864416283333334,10.090489069333334,-33.63518526666667,-4.185561100666667,-1.7329870860000003,12.421350160333333,-29.574782056666663,-20.136327106666666,-3.5639050406666666
570,1.5832699999999325,-4.164176543333333,9.967836062333333,-33.67282613333334,-2.271009842333333,-0.4427110033333333,15.60461585,-33.22965939666667,-14.808861733333332,-5.850571314333333
571,1.5860476666666727,-4.468259970666666,9.849171321666667,-33.705952966666665,-3.304944674,-2.7358174326666664,13.039934793333332,-36.50923919666667,-14.331730205333335,-5.337501287333333
572,1.5888253333332614,-4.786909261999999,9.752266564666666,-33.74276733333333,-2.272497515,-2.64900135,14.039985656666666,-38.15625127333333,-11.672407149666666,-5.738715331000001
573,1.5916030000000017,-5.128116925333333,9.693680127666667,-33.770426433333334,-3.8072186709999998,-1.72496899,10.846597990666666,-41.096978506666666,-7.143338680333334,-4.224489609333333
574,1.5943806666667417,-5.4506521223333335,9.676248551333332,-33.81823730000001,-2.464443922,-1.193293774,13.939184507333332,-38.416895546666666,-2.0025104283333333,-6.221124808
575,1.5971583333333303,-5.773020426333333,9.674840929,-33.85709636666666,-3.641444445,-1.1694229046666667,15.578674952,-38.60702133,-0.14829031633333342,-4.958820104666667
576,1.5999360000000706,-6.120861530333333,9.703946110999999,-33.897084533333334,-2.4712047079999997,-2.3670307000000004,13.697080293333334,-41.60526784333333,3.5392769176666667,-4.8222799300000005
577,1.6027136666666593,-6.469800949,9.730483374666667,-33.936342866666664,-4.614758729999999,-0.7889088293333334,12.384119353333332,-41.77727127,3.2430796619999995,-4.624336719333333
578,1.6054913333333996,-6.7862138750000005,9.824822425999999,-33.98345183333334,-3.0088374220000005,0.4757270666666667,14.784925460000002,-37.696796416666665,11.459930898000001,-4.661481539333334
579,1.6082689999999882,-7.074188868333334,9.891519227000002,-34.02860006666667,-2.3829592070000003,-1.5690417883333332,12.443026861,-34.318084080000006,8.150847751999999,-4.703948577333333
580,1.6110466666667282,-7.359007835666667,10.035790444666667,-34.083457966666664,-3.6084519326666666,-0.396783995,11.751658915666667,-33.71913274333333,17.569853783333333,-4.734882036999999
581,1.6138243333333169,-7.652192434,10.117442765,-34.14020539999999,-1.9677816136666666,-1.605882565,13.254441576666665,-34.68877983,10.162134329666666,-5.757945855333333
582,1.6166020000000574,-7.913684209,10.277680395666668,-34.202013666666666,-4.4658023516666665,-1.6553060413333334,13.841395696333334,-30.751176196666666,19.610145250000002,-5.036929925333333
583,1.6193796666666458,-8.115432103666668,10.473819096,-34.26404826666666,-2.616340717,0.47199068966666663,15.013164203333334,-23.56763521666667,23.90319506333333,-4.3811785379999995
584,1.622157333333386,-8.288901488,10.605503082333334,-34.30616506666667,-2.7052915889999998,0.4304032526666666,11.757620654666667,-20.58131090666667,15.917172429999999,-3.0827219486666664
585,1.6249349999999747,-8.430029551333334,10.816172282666665,-34.3556315,-3.2473291559999997,-1.804907431,13.31499926,-16.527559915999998,25.431625999999998,-2.499670147666667
586,1.6277126666667148,-8.55251503,10.997875533333334,-34.39177703333333,-2.0357625883333337,0.1613506176666667,14.732693671333331,-14.566060068,21.757248559999997,-1.3866744836666667
587,1.6304903333333034,-8.679746945666666,11.159601529999998,-34.42580413333333,-1.563818623666667,-2.0497967403333335,13.507923123333333,-15.188618343333333,19.366399766666667,-1.4591497680000003
588,1.6332680000000437,-8.791444778666666,11.34181754,-34.462610899999994,-2.867629885666666,-1.9238103433333331,13.521208760999999,-13.24041589,21.824010213333334,-1.3057715346666667
589,1.6360456666666323,-8.872214317333333,11.511798859999999,-34.502388033333325,-3.7660918633333336,0.38243647433333333,12.684012413333333,-9.453402361333334,20.453564646666667,-1.887411356
590,1.6388233333333726,-8.952271143666666,11.655898093333334,-34.54252116666667,-0.24834819633333347,-1.7077105043333336,11.475271225333335,-9.340327263666666,17.360517503333334,-2.311685462666667
591,1.6416009999999615,-9.015907287666666,11.766955056666665,-34.56639353333333,-2.605029305,-1.7919656040000003,13.081677116666668,-7.754386583333333,13.177394867000002,-1.0895698966666665
592,1.6443786666667013,-9.081409454333333,11.86489296,-34.59461976666667,-2.0292391233333333,0.03180766099999999,15.239052773333334,-7.8525231673333336,11.69069322,-1.8269954126666665
593,1.64715633333329,-9.146963755333333,11.960059803333332,-34.622795100000005,-1.943141207,-1.8231958946666669,14.024170873333333,-7.875858069,11.373409428666667,-1.8291640279999999
594,1.6499340000000302,-9.185028712,12.017638523333332,-34.64278156666666,-1.8179513416666666,-1.382520000333333,12.290116626666666,-4.781494538,6.746366501,-1.5268985829999997
595,1.6527116666666188,-9.207023620333333,12.052331606666668,-34.6544215,-1.6848792733333333,0.36971832333333327,12.554483413333335,-3.041686098,3.902085229666666,-1.080822567
596,1.6554893333333591,-9.207658768,12.063242913333333,-34.66476439999999,-1.8731507263333336,-1.3304075996666667,12.864630063333335,-0.5204131503333335,1.047648132,-1.3471679686666667
597,1.6582669999999478,-9.190461794666666,12.06931591,-34.669204699999995,-2.2803402943333335,-1.1708479923333333,14.294496536666665,1.4739713669999999,0.3723030090000001,-0.76243337
598,1.6610446666666878,-9.182388941666666,12.051186876666668,-34.66654713333333,-1.7324548960000001,-0.9197081026666666,14.031309922666665,0.19271723433333335,-2.644558826666667,-0.3521317033333333
599,1.6638223333332764,-9.181604067666667,12.010457036666667,-34.65995026666666,-1.9557158913333332,-2.0782888333333336,12.437614443333333,-0.7712362206666666,-5.374063491666667,-0.41051508
600,1.6666000000000167,-9.154652913666666,11.971673013333335,-34.65704343333334,-3.284586827,-0.28850480166666675,13.417700768333333,2.450129469,-5.102551937,-0.6893515586666666
601,1.6693776666666054,-9.126967112333332,11.913245519999998,-34.64986926666666,-2.367119789,-0.9411316516666667,11.179843902333333,2.433758179333333,-7.480382442333334,-0.6554385223333333
602,1.6721553333333457,-9.105687459333334,11.869150163333332,-34.64198556666666,-1.7595991193333331,-2.343066096333333,12.117192583333333,1.6632349490000002,-5.8276228906666665,-0.22407757233333325
603,1.6749329999999343,-9.067979177,11.807027496666668,-34.622889166666674,-2.5871305466666668,-0.9706857996666667,14.466145833333334,3.3377871,-8.136076768333334,0.653739492
604,1.6777106666666743,-9.033902168666666,11.726638793333334,-34.604797333333345,-1.8148772716666663,-0.082571685,14.089102109999999,2.929526279333334,-10.319963771,0.3341333866666667
605,1.680488333333263,-8.986894925666666,11.67238458,-34.58253733333334,-2.870345195,-1.9696200686666667,12.910154660000002,4.386117855666666,-7.262839954333333,1.1897557479999998
606,1.6832660000000033,-8.913632393,11.591670036666665,-34.552510566666676,-2.4447367190000002,0.11099979423333332,12.21965917,7.371235847333334,-10.560913722,1.6201817193333332
607,1.6860436666667435,-8.824060122333334,11.492205936666666,-34.521814966666675,-1.7680681546666666,-0.554066335,11.296690939666668,9.298485915999999,-12.770372073333334,1.3469419283333337
608,1.6888213333333322,-8.732603391333333,11.405466713333333,-34.49631246666666,-1.9540349839999998,-1.370609204,10.731235026,9.640103500666667,-11.215673446666665,1.1842318973333334
609,1.6915990000000722,-8.647670746000001,11.320392923333335,-34.47736103333333,-2.110576629666667,-1.6504523356666665,12.121847468666667,9.040456930666666,-10.858551026999999,0.2759122946666667
610,1.6943766666666609,-8.581550598,11.218857130000002,-34.478141799999996,-3.279406428333333,-1.718613078,11.196231525666667,7.2023911473333335,-12.506054558,-2.0542322
611,1.6971543333334014,-8.547643343666666,11.201386450000001,-34.5233434,-3.2213214236666663,-2.342393239,8.009816169,4.4145497879999995,-1.71095411,-5.945269584666666
612,1.6999319999999898,-8.557324092,11.118995346666665,-34.578743,-1.1280805766666668,-2.1609385016666667,10.604299861,-0.6062716643333332,-9.276764708333333,-8.115799109
613,1.70270966666673,-8.585183779666666,11.149109206666667,-34.6525574,-5.330269416,-2.3763844966666667,5.200300356333334,-2.3629815976666664,4.447853108333333,-8.404428481666665
614,1.7054873333333187,-8.695469220666666,11.184650736666667,-34.73738353333333,-0.5140577356666666,-2.7086804706666663,7.940979837,-11.971007028666667,5.242975870666666,-9.474208354666667
615,1.7082650000000588,-8.824517568,11.219542506666668,-34.79695636666667,-4.483195781666667,-2.385149956,5.679410959333333,-14.834214213333333,4.786772568333333,-6.639143107999999
616,1.7110426666666474,-8.964389801000001,11.40887737,-34.85169983333333,-3.3600566386666664,-0.7485719916666668,7.654904007333333,-16.21653239,22.96573066666667,-3.0445572706666666
617,1.7138203333333877,-9.148399353,11.562067033333333,-34.869992599999996,-1.0542034306666668,-2.167249828333333,7.465795118999999,-22.366645176666665,18.074463844333334,0.3664131563333332
618,1.7165979999999763,-9.354099273666668,11.77050368,-34.881019599999995,-4.706115881666666,-0.8212902146666666,1.9747123916666667,-25.135024386666668,24.424568176666668,2.5441589356666667
619,1.7193756666667166,-9.555247624666665,12.083363533333333,-34.90342966666666,-0.526669224,-2.2857335206666662,6.569508393666666,-24.306299206666665,37.04899533333333,3.154669205333333
620,1.7221533333333054,-9.772647223,12.324415843333334,-34.925488800000004,-4.110374371333333,0.6369008620000001,2.7988167999999995,-26.240954083333335,28.470561346666667,2.153372129
621,1.7249310000000453,-10.002816834999999,12.631085396666668,-34.971801733333336,1.0845862229999998,-1.9681372243333335,5.789089281999999,-27.165011086666667,36.769582109999995,0.5611238283333334
622,1.727708666666634,-10.240978558666667,12.98199177,-35.033861800000004,-4.7457647320000005,0.5104719796666667,2.9133356659999996,-27.641342159999997,42.24478594666666,0.11746788033333348
623,1.7304863333333742,-10.478939693333333,13.248351733333335,-35.0945155,0.6648948986666666,-1.4765751956666666,3.3556373120000003,-27.66146787,32.301661173333336,-1.6305545173333336
624,1.7332639999999628,-10.685949643333332,13.59978644,-35.160161366666664,-1.9731058276666669,0.024357458000000037,4.2119663560000005,-23.723306653333335,42.37005106666666,0.06159559866666697
625,1.7360416666667031,-10.907154720000001,13.920630773333334,-35.23174286666666,-0.2593381799999999,-0.8055018879999999,2.7124279736666668,-25.260287603333335,38.962879179999995,-1.3537325859999996
626,1.7388193333332918,-11.102850916666666,14.21511682,-35.279324833333334,-2.8221916953333337,0.16300572933333338,3.692097624,-22.813465116666663,35.25715764333333,1.1459147136666672
627,1.7415970000000318,-11.274892806666665,14.494229316666667,-35.33961233333333,1.3692333773333332,-0.8609187203333333,3.835333585333333,-19.589359916666666,33.79589653,-0.7791075706666669
628,1.7443746666666204,-11.445401510000002,14.767658233333334,-35.379903133333336,-2.413516879,-0.3583553333333333,2.114355052666667,-19.980566659999997,32.60294977666667,1.7314864793333336
629,1.7471523333333607,-11.602656683333334,15.020267170000002,-35.43558503333333,1.3388982963333333,-0.5007985833333334,3.190134937333333,-17.881382626666667,30.561362583333334,-0.6479407153333335
630,1.7499299999999494,-11.713235856666666,15.237215993333331,-35.462458266666665,-2.359781901,-0.08831530333333333,3.8463928699999994,-13.194620768333335,25.643681843333336,2.0665238699999997
631,1.7527076666666896,-11.821727116666665,15.424332933333332,-35.50784050000001,1.3532384633333334,0.03597500933333333,3.0274780193333335,-12.271738530666667,22.613403636666664,-0.9261540970000001
632,1.7554853333332783,-11.912236530000001,15.572822573333333,-35.51927183333333,-1.861450394,0.055850863666666695,3.2196034836666665,-11.294285616666668,17.2365125,2.1996020476666662
633,1.7582630000000183,-11.986176173333334,15.684155783333333,-35.54513806666667,0.8702469666666665,0.08083609633333333,2.915424029,-8.699890295333335,13.238099257666667,-0.5039561193333335
634,1.761040666666607,-12.033510846666667,15.767520266666667,-35.5427958,-1.0794006983333333,-0.5806010636666666,1.0473848976666666,-6.575179258666668,9.271654288999999,2.1638351283333335
635,1.7638183333333473,-12.0596482,15.803218843333335,-35.54654946666667,0.348891636,0.21076912200000006,0.9034100769999999,-3.6591006119999996,3.8143571206666667,0.12182164199999986
636,1.7665959999999359,-12.055922186666669,15.792783420000001,-35.528531400000006,-0.04275008033333331,-0.5059787036666666,2.1117474636666667,-0.9631977133333335,-2.1114369033333333,1.5881296793333337
637,1.7693736666666762,-12.037426633333334,15.754416783333333,-35.51120246666667,-0.2906539143333333,0.5435261653333333,2.2678972683333334,1.0119331676666665,-5.385039567333333,0.6462255713333335
638,1.7721513333332648,-12.006614683333334,15.650996843333333,-35.479304,0.9094004233333332,-0.33946246900000004,2.765084684,1.8650838933333331,-13.350397746666665,0.787731409
639,1.7749290000000049,-11.95214526,15.53150876,-35.443305933333335,-1.0493670703333333,0.6766043206666666,2.390624245,4.720790783666667,-15.353037836666667,0.747341911
640,1.7777066666667451,-11.871104560000001,15.347351073333334,-35.40267946666666,1.369629572,-0.28676109499999997,2.2508182923333333,7.654391289,-23.037160873333335,-0.20375235833333308
641,1.7804843333333338,-11.761769296666666,15.142829579999999,-35.35276543333334,-1.3950245776666665,0.4436421396666666,2.0099544126666666,10.867197036999999,-25.664120989999997,0.2778666809999999
642,1.783262000000074,-11.631269136666667,14.890222230000001,-35.31138863333333,1.3196177883333333,-0.30773095300000003,3.1909555196666672,13.632908506666666,-31.10035324333333,-1.7084193230000002
643,1.7860396666666627,-11.474494933333334,14.61614418,-35.254547099999996,-1.7098332410000001,0.28718042400000005,3.9062358539999997,16.373107273333332,-33.99092737666666,-0.48671543566666653
644,1.7888173333334028,-11.316553753333332,14.319750786666665,-35.21823883333333,0.7648564179999999,-0.31600848633333334,3.788487990666667,17.147836686666665,-36.15945689,-3.1285650730000003
645,1.7915949999999914,-11.14793587,14.00757122,-35.16304016666667,-2.114136735666667,-0.44967240099999994,1.9114404123333335,17.896649043333337,-38.43096288,-1.3796242476666667
646,1.7943726666667317,-10.973814330000002,13.682925223333333,-35.130556733333336,0.6442701393333333,0.08088656766666667,2.3311917779999995,19.27469317,-39.43238067666667,-3.9987090940000005
