SampleTimeFine,Euler_X,Euler_Y,Euler_Z,Acc_X,Acc_Y,Acc_Z,Gyr_X,Gyr_Y,Gyr_Z,Mag_X,Mag_Y,Mag_Z,
677533002,-1.656869888,6.972851753,-136.673645,0,0,0,0,0,0,-0.478515625,-0.537597656,-0.797851563, 
677541335,-1.754315972,6.999443531,-136.6739197,-1.484193325,0.215589941,8.127493858,-10.17500019,1.986704588,-0.218950525,-0.476074219,-0.529785156,-0.805175781, 
677549668,-1.824201822,6.963585377,-136.6978302,-1.149733782,0.10226775,9.213147163,-6.6245327,-5.403886795,-3.275317907,-0.481933594,-0.528320313,-0.807128906, 
677558001,-1.90138483,6.96957922,-136.6833954,-0.171241894,-0.326818734,12.12589073,-8.05700779,-0.527448297,1.44754982,-0.477539063,-0.529785156,-0.802734375, 
677566334,-1.952108026,6.933125496,-136.6990356,-1.989814281,-0.69868201,9.032747269,-4.344788551,-5.511824608,-2.322134972,-0.4765625,-0.534179688,-0.804199219, 
677574667,-2.026346207,6.92628479,-136.6961365,-1.603416443,0.510034859,8.593121529,-7.537142754,-2.023934603,0.024218263,-0.484375,-0.5234375,-0.802734375, 
677583000,-2.118834019,6.964319229,-136.7187042,-1.63913548,-1.07247746,7.403046608,-9.255577087,3.455373287,-2.825608969,-0.483886719,-0.524902344,-0.809570313, 
677591333,-2.159799576,6.936597824,-136.7057648,-0.839724004,0.422436327,10.2278862,-3.690755129,-4.572934628,1.122684717,-0.487792969,-0.533203125,-0.801269531, 
677599666,-2.219657898,6.944059372,-136.727005,-0.942694068,0.675874293,10.29592896,-5.316261292,-0.199739829,-3.158568621,-0.482421875,-0.521484375,-0.819335938, 
677607999,-2.284124374,6.974981308,-136.7161713,-1.748289585,-0.691554427,7.126903534,-6.480247498,2.467508793,1.142074704,-0.485351563,-0.525390625,-0.802734375, 
677616332,-2.356301785,6.946157932,-136.7358551,-1.20639658,-0.254530549,10.93077755,-6.820738316,-4.550778866,-3.15301013,-0.483886719,-0.526855469,-0.810058594, 
677624665,-2.395112514,6.992097855,-136.7250214,-1.551216722,-0.741742849,11.61631393,-3.400289536,4.26332283,1.221017718,-0.481445313,-0.523925781,-0.817871094, 
677632998,-2.416196585,7.014836788,-136.7434692,-1.64822185,0.884266019,6.641260624,-0.710487664,1.627490282,-2.698895216,-0.486816406,-0.522460938,-0.806640625, 
677641331,-2.482205868,7.03262043,-136.7316589,0.585140944,0.571517944,8.861797333,-6.575148106,0.8694368,1.109698296,-0.478515625,-0.51953125,-0.811035156, 
677649664,-2.531588078,7.061844349,-136.7453308,-2.86661458,-1.581885815,12.15118027,-4.310594082,2.38405776,-1.768227458,-0.481933594,-0.525878906,-0.811035156, 
677657997,-2.54122901,7.071668148,-136.7445984,-1.293019772,0.501178205,8.644087791,0.24539718,-0.01736645,-0.153659791,-0.479003906,-0.521972656,-0.811035156, 
677666330,-2.592459202,7.123939514,-136.7616425,-0.305486023,0.016950633,6.147904873,-4.342637539,5.169478416,-2.41070962,-0.483398438,-0.518066406,-0.814941406, 
677674663,-2.632310152,7.156699181,-136.7475128,-1.715070605,-0.1503582,9.425005913,-3.578846455,2.659103394,1.564146161,-0.4765625,-0.520507813,-0.803222656, 
677682996,-2.650207758,7.149416447,-136.7638397,-0.675245464,0.197694406,12.94340229,-0.350556403,-1.971168876,-2.665468216,-0.476074219,-0.522949219,-0.803710938, 
677691329,-2.645290375,7.188164711,-136.7758026,-0.815416813,-0.047614999,8.808275223,2.265924931,3.504040003,-1.456476808,-0.482421875,-0.517578125,-0.821777344, 
677699662,-2.642435551,7.189416885,-136.7759399,-2.248664141,0.379368246,6.169287682,1.758968115,-1.039912462,-0.305987686,-0.482910156,-0.521484375,-0.800292969, 
677707995,-2.663131952,7.206410408,-136.7966766,0.122807264,0.325718075,10.43216324,-0.758847296,0.959214687,-2.664648771,-0.485839844,-0.513183594,-0.813964844, 
677716328,-2.637127638,7.225278854,-136.7967987,-2.054303408,-0.822091639,10.48731804,4.623151779,1.056600094,-0.205733553,-0.479492188,-0.51953125,-0.809570313, 
677724661,-2.61580348,7.218442917,-136.7971497,-0.010657709,0.364208609,8.798774719,3.978031874,-2.009180307,-0.373967826,-0.477050781,-0.519042969,-0.822265625, 
677732994,-2.625771999,7.226230145,-136.8029785,-2.540031672,-0.367634684,9.932538033,0.389707774,-0.241439775,-0.933177829,-0.48046875,-0.51953125,-0.817382813, 
677741327,-2.580609083,7.253246784,-136.8166504,-1.615350962,0.327826798,7.933976173,7.040623188,2.122997522,-1.77363205,-0.484375,-0.520996094,-0.810546875, 
677749660,-2.537011862,7.24050951,-136.8031158,0.167866707,0.312497795,8.154213905,6.569040298,-2.789544344,0.886060476,-0.478515625,-0.522949219,-0.805175781, 
677757993,-2.527608156,7.278112888,-136.8186493,-1.750346661,0.038634107,9.80883503,2.777543783,3.399227142,-1.941328645,-0.480957031,-0.517578125,-0.821777344, 
677766326,-2.497765541,7.285540104,-136.8091278,-2.081501007,-1.139480829,10.57392025,4.929293156,-0.364080787,0.891132116,-0.4765625,-0.5234375,-0.820800781, 
677774659,-2.46674943,7.294291019,-136.8175964,-0.261295021,0.069966488,9.964652061,5.264737129,-0.098819718,-1.256275892,-0.48046875,-0.520996094,-0.809082031, 
677782992,-2.414028883,7.318226814,-136.8028107,-1.970694542,0.691290617,7.258277416,7.629572392,1.600672364,1.313280463,-0.483398438,-0.523925781,-0.806640625, 
677791325,-2.365651369,7.339088917,-136.8059387,-0.859941006,0.352599323,9.069849968,7.347507954,1.311256766,-0.590843678,-0.479003906,-0.524902344,-0.812011719, 
677799658,-2.330922842,7.35925293,-136.7979736,-0.681917787,-0.904942095,11.35226822,5.459737778,1.187693715,0.749075472,-0.473144531,-0.520507813,-0.82421875, 
677807991,-2.242846727,7.360655785,-136.8005981,-2.112359762,-0.443887413,8.788255692,12.02384758,-1.011813521,-0.599270642,-0.474609375,-0.5234375,-0.812011719, 
677816324,-2.197766066,7.380284309,-136.7852783,-1.203190088,0.410043687,7.137607574,6.719112873,1.096506953,1.189640284,-0.478515625,-0.528808594,-0.799804688, 
677824657,-2.158005714,7.416849613,-136.7950592,-0.887629271,-0.025553646,8.206809998,6.336513996,3.237652302,-1.290214777,-0.481933594,-0.525878906,-0.801757813, 
677832990,-2.070719242,7.40415144,-136.7709808,-0.999080598,-0.192236945,11.82914829,11.58886623,-2.836136103,2.525729895,-0.470214844,-0.525390625,-0.810546875, 
677841323,-2.022068024,7.435623169,-136.77388,-1.620575905,-0.448109567,9.253175735,7.367180347,2.581492662,-0.484467715,-0.469726563,-0.526367188,-0.814453125, 
677849656,-1.970978498,7.453621387,-136.7744904,-1.727430582,-0.037595816,6.883548737,7.554113388,0.968512833,-0.29177177,-0.481933594,-0.52734375,-0.805664063, 
677857989,-1.91072917,7.455901146,-136.7708588,0.198421791,-0.512119293,11.51306248,8.587389946,-0.931564152,0.14849855,-0.479980469,-0.529296875,-0.807128906, 
677866322,-1.856178164,7.474794388,-136.769104,-1.638532996,-0.058031555,8.510717392,8.00259304,1.050606489,0.006006539,-0.469726563,-0.533691406,-0.804199219, 
677874655,-1.816760778,7.46736145,-136.7792053,-0.919298172,0.100044832,7.769506931,6.302369118,-2.043068171,-1.524251938,-0.477050781,-0.530761719,-0.810546875, 
677882988,-1.809625506,7.492826939,-136.7787933,-1.620643735,-1.166140318,10.41631794,2.334135532,1.845902562,-0.130171552,-0.477539063,-0.53125,-0.810546875, 
677891321,-1.746204853,7.491193771,-136.7785492,-1.875364542,-0.200576067,8.86932373,9.020091057,-1.387958646,-0.270486325,-0.478027344,-0.530761719,-0.801757813, 
677899654,-1.702219248,7.495196819,-136.7826843,-0.418311417,0.5390324,8.019412994,6.882276535,-0.698679507,-1.166446686,-0.477050781,-0.533203125,-0.804199219, 
677907987,-1.689112782,7.524390221,-136.7751617,-1.745799541,-1.488198519,8.310976982,2.867116451,2.283982754,0.704839647,-0.478027344,-0.538085938,-0.805664063, 
677916320,-1.664552331,7.477769852,-136.7735748,-0.512372732,-0.279060662,11.7746706,4.408377171,-6.802296162,-0.275506765,-0.474609375,-0.533691406,-0.801269531, 
677924653,-1.633804917,7.513133049,-136.7691956,-2.054083109,-0.381863177,8.769804001,5.034696102,3.034992456,0.349928886,-0.474609375,-0.530273438,-0.811523438, 
677932986,-1.617627978,7.519533634,-136.7692871,-1.366442561,0.887523413,6.102187634,3.42840147,-0.43779853,-0.275993407,-0.474609375,-0.534179688,-0.809082031, 
677941319,-1.631641984,7.512305737,-136.7585602,0.549808919,-0.896081328,12.24967957,-0.436082333,-2.093912363,0.956268966,-0.473632813,-0.531738281,-0.803710938, 
677949652,-1.604779959,7.486205101,-136.7591248,-2.49103117,-1.009364963,10.76024914,4.764234066,-4.326243877,-0.815685272,-0.469726563,-0.536132813,-0.791503906, 
677957985,-1.602440357,7.490350246,-136.7461548,-1.11014092,0.531606019,6.860444546,1.492579818,-0.736844718,1.260745525,-0.473632813,-0.540039063,-0.802246094, 
677966318,-1.630925059,7.513493538,-136.7744598,-1.657806277,-0.659030795,6.353307724,-1.494155049,1.665219784,-3.540553093,-0.4765625,-0.526367188,-0.812011719, 
677974651,-1.613559365,7.485315323,-136.7507324,-0.679686487,-0.444311559,12.39202118,3.125871897,-4.650290489,2.432264328,-0.471679688,-0.530761719,-0.798339844, 
677982984,-1.625931382,7.490605354,-136.769165,-1.291560054,-0.164732754,9.708470345,0.288608432,-0.511849284,-2.46319294,-0.473144531,-0.537597656,-0.803222656, 
677991317,-1.638317943,7.467939377,-136.7645111,-1.187278628,-0.13117072,7.026155949,-0.079480968,-3.940877914,0.220730662,-0.473632813,-0.536621094,-0.804199219, 
677999650,-1.666213989,7.454542637,-136.7688141,-1.62734735,-0.43975243,11.242342,-1.866970301,-2.783678055,-0.851161003,-0.475585938,-0.532226563,-0.80859375, 
678007983,-1.665342689,7.470211983,-136.7593384,-0.895266116,-0.354630828,9.516285896,1.371424675,0.656172633,0.887341082,-0.471679688,-0.528320313,-0.806152344, 
678016316,-1.671100378,7.436037064,-136.78302,-1.694540858,0.455944866,8.492116928,1.162335515,-5.22509861,-3.226215124,-0.46875,-0.537597656,-0.805664063, 
678024649,-1.705987215,7.442854881,-136.7675476,-0.104401901,-1.041532874,10.35005379,-3.013309717,-0.427194238,1.571343899,-0.469726563,-0.538574219,-0.806152344, 
678032982,-1.70220089,7.391426563,-136.7813263,-2.738366365,0.158899009,8.673254967,2.147100687,-7.326953411,-2.086817741,-0.479003906,-0.529296875,-0.802246094, 
678041315,-1.712151527,7.413956165,-136.7754669,-0.589594483,0.407054186,8.479880333,0.200392976,1.4754951,0.4742347,-0.477539063,-0.532226563,-0.802246094, 
678049648,-1.728416681,7.440839767,-136.7832489,-2.902834892,-0.351810336,6.372955799,-0.417512059,2.060959816,-1.121878028,-0.472167969,-0.537109375,-0.806640625, 
678057981,-1.734792352,7.405052185,-136.7745209,0.843455672,-0.355151653,12.12830734,0.513296485,-5.515564919,0.613909185,-0.47265625,-0.53125,-0.801269531, 
678066314,-1.736560822,7.406712055,-136.7765045,-2.872762918,-0.702514172,11.13756275,1.302547812,-1.003104687,-0.530035317,-0.473632813,-0.528320313,-0.8125, 
678074647,-1.732378721,7.408063412,-136.7707214,-0.415662318,0.847527623,5.98336792,1.826589346,-1.050234914,0.398928881,-0.479492188,-0.534179688,-0.801757813, 
678082980,-1.756571293,7.395395279,-136.7748566,-1.679593444,-0.565393209,9.789896965,-1.36119163,-2.714186907,-0.796986938,-0.481933594,-0.534667969,-0.803222656, 
678091313,-1.739035249,7.408511639,-136.7660522,-1.013385892,-0.363002598,12.02453995,3.448278189,0.333612651,0.815237164,-0.474121094,-0.529296875,-0.812988281, 
678099646,-1.727028131,7.401357174,-136.7669678,-1.788268685,0.690470278,9.270251274,2.868064642,-2.046679974,-0.42768091,-0.47265625,-0.530761719,-0.809082031, 
678107979,-1.748263121,7.40171814,-136.7696838,-0.049992774,-0.797809482,9.14073658,-1.092421412,-1.136887789,-0.614306152,-0.479003906,-0.532714844,-0.797363281, 
678116312,-1.716113806,7.370874882,-136.7596436,-2.608807802,0.016001128,9.686432838,5.179979324,-4.944776058,0.800432026,-0.478027344,-0.528808594,-0.806152344, 
678124645,-1.723086476,7.405612946,-136.7679443,-0.556010723,0.065696262,8.649718285,0.706094801,3.005203009,-1.15768671,-0.481445313,-0.530273438,-0.8046875, 
678132978,-1.71494472,7.409357071,-136.7726288,-3.032796621,0.071741454,7.839384556,2.528137684,-0.741813898,-0.832334578,-0.474609375,-0.533203125,-0.807128906, 
678141311,-1.703947425,7.396191597,-136.7711639,1.074721813,-0.426209122,12.2552166,2.772856236,-2.795486212,-0.15724577,-0.472167969,-0.533203125,-0.805664063, 
678149644,-1.698511004,7.419643879,-136.765564,-3.282096386,-0.312832087,8.955410957,1.979454994,1.600979328,0.456125468,-0.473632813,-0.536621094,-0.80078125, 
678157977,-1.687364578,7.364113808,-136.7785797,0.260350615,0.266407281,11.7384119,2.952514648,-7.806681633,-2.039456844,-0.473632813,-0.53125,-0.803710938, 
678166310,-1.660154223,7.389678955,-136.7745667,-2.605888844,-0.769321322,9.034881592,4.684959412,1.845236897,0.247420728,-0.477050781,-0.536132813,-0.794921875, 
678174643,-1.626098156,7.360661983,-136.770813,-0.753053844,0.899801373,7.367131233,5.442038536,-4.685022831,0.054622356,-0.477050781,-0.533203125,-0.803710938, 
678182976,-1.626084089,7.384784222,-136.7816162,-2.110491514,-0.041504201,11.44928455,1.6443187,1.720982194,-1.49712646,-0.473144531,-0.533203125,-0.810058594, 
678191309,-1.577554584,7.377137184,-136.7803192,-1.102366328,-1.204635739,9.214341164,7.218053341,-2.113481998,-0.165314272,-0.470703125,-0.538085938,-0.796875, 
678199642,-1.570286512,7.388283253,-136.7649689,-0.791603148,0.432116896,9.41871357,2.151864767,0.087511048,1.243379116,-0.467285156,-0.534179688,-0.813476563, 
678207975,-1.574150562,7.392246246,-136.7745972,-1.77060318,-1.292022705,10.98782253,1.097838879,-0.684079349,-1.42653358,-0.474609375,-0.533691406,-0.793945313, 
678216308,-1.533539772,7.389761925,-136.7625732,-2.183485985,0.539571643,8.955140114,6.193175793,-1.538749576,0.892079771,-0.475585938,-0.534179688,-0.802734375, 
678224641,-1.541116357,7.434009552,-136.7622833,-0.117744893,-0.41517067,5.075602055,0.500412464,4.114862442,-0.117851101,-0.47265625,-0.53515625,-0.809082031, 
678232974,-1.540984988,7.453042507,-136.7637939,-2.963732481,0.374128044,10.02401543,1.516324162,1.077783108,-0.430652112,-0.477050781,-0.532714844,-0.804199219, 
678241307,-1.534392357,7.46682024,-136.756134,-0.611029863,-1.000890851,14.0895977,2.144743919,0.416039199,0.659374416,-0.473144531,-0.538085938,-0.8046875, 
678249640,-1.515650511,7.51376152,-136.7669373,-2.101135969,-0.551698983,7.044131279,3.833260059,4.474436283,-1.427353382,-0.471191406,-0.537109375,-0.805175781, 
678257973,-1.508339643,7.49832201,-136.755722,-0.659421206,0.618697524,6.824172497,2.115543604,-3.078549147,0.988363683,-0.479980469,-0.53125,-0.801269531, 
678266306,-1.528086066,7.572151661,-136.7640991,-2.195850849,-0.383789152,11.87449074,-0.761921108,7.670171261,-1.063528776,-0.476074219,-0.538085938,-0.806152344, 
678274639,-1.493589401,7.610202789,-136.7573242,-1.322621346,-0.274413139,8.255509377,5.445650101,3.352045298,0.630609632,-0.477050781,-0.539550781,-0.798828125, 
678282972,-1.500726461,7.630661964,-136.7656708,-0.302489847,0.523246825,9.338057518,0.789110541,1.275755405,-1.512033939,-0.475097656,-0.53125,-0.809570313, 
678291305,-1.529502511,7.690282345,-136.7466278,-2.397150278,-1.495280504,9.930035591,-2.280127764,5.882373333,2.115287304,-0.47265625,-0.53515625,-0.802246094, 
678299638,-1.514390826,7.69260931,-136.7707825,-1.45106566,0.826062202,9.356196404,3.615308762,-0.837354958,-3.15797925,-0.474121094,-0.537109375,-0.809082031, 
678307971,-1.505965233,7.74479866,-136.7542267,-0.12949273,0.005177556,7.003467083,2.157858372,5.017277718,1.838551164,-0.476074219,-0.538085938,-0.810058594, 
678316304,-1.50339973,7.798243999,-136.7639618,-3.111109018,-0.369850069,8.718412399,1.983194947,5.236612797,-1.612902761,-0.473144531,-0.533691406,-0.800292969, 
678324637,-1.506054878,7.800784111,-136.7566071,-0.029197905,-0.378464073,12.78549957,0.974685729,-0.908741832,0.588243723,-0.471679688,-0.538085938,-0.801269531, 
678332970,-1.496276736,7.851476669,-136.7794495,-2.691591263,-0.91811341,8.897220612,3.018829823,4.937924862,-2.857523918,-0.474121094,-0.535644531,-0.802734375, 
678341303,-1.480033994,7.86038065,-136.747467,-0.035846997,0.970865905,6.310757637,2.893883705,-0.247612819,3.563055515,-0.471679688,-0.533203125,-0.810058594, 
678349636,-1.514581084,7.910731792,-136.7750397,-1.97377038,0.019794684,10.14655685,-2.278923988,4.935004234,-3.414505482,-0.474121094,-0.531738281,-0.8046875, 
678357969,-1.491747379,7.93108511,-136.7450714,-0.99514854,-1.169355631,10.52227402,3.65941596,1.157084703,3.33209157,-0.472167969,-0.5390625,-0.80859375, 
678366302,-1.50464499,7.942238808,-136.7550812,-0.940420032,0.388249159,9.426317215,0.093402304,0.15600349,-1.495154023,-0.470214844,-0.53515625,-0.811523438, 
678374635,-1.525779247,7.969771385,-136.7432251,-2.018275499,-0.613372743,9.591517448,-1.318031788,2.07453537,1.199194431,-0.472167969,-0.532226563,-0.80859375, 
678382968,-1.506283522,7.952840805,-136.7505341,-1.786996484,0.304894656,10.16018009,3.977673292,-3.211743355,-1.552888751,-0.472167969,-0.541015625,-0.804199219, 
678391301,-1.512066007,8.00508213,-136.734436,0.080852255,0.085877575,5.518816471,0.499157369,4.999424458,1.840626121,-0.465332031,-0.532226563,-0.80859375, 
678399634,-1.513773203,7.977147102,-136.7438507,-3.078255177,0.088366941,10.82067776,1.365994453,-4.51151228,-1.500891685,-0.472167969,-0.5390625,-0.803710938, 
678407967,-1.500693202,8.014621735,-136.7280121,0.27694422,-0.271626562,13.69503403,2.720039845,3.25471139,1.704332829,-0.471679688,-0.52734375,-0.812988281, 
678416300,-1.489074707,8.029011726,-136.7393494,-3.765556812,-0.264370978,5.632944107,3.052896976,0.546185136,-1.605961561,-0.467773438,-0.541015625,-0.806152344, 
678424633,-1.501100421,8.011678696,-136.7277985,1.299377918,-0.225998685,13.18460846,-0.222382784,-3.306900263,1.024070024,-0.465820313,-0.532714844,-0.807128906, 
678432966,-1.463162422,8.014228821,-136.7298279,-4.026863098,-0.139013797,10.66008091,6.05501318,-0.904899657,-0.539948106,-0.469726563,-0.541015625,-0.805175781, 
678441299,-1.452587605,8.014624596,-136.7187195,0.708497822,0.023231855,7.671927929,2.546119213,-1.202998281,1.057137966,-0.469238281,-0.538574219,-0.799804688, 
678449632,-1.450757742,8.018722534,-136.7281799,-2.850918055,-0.259463638,7.320793152,1.792189837,-0.670964897,-1.403071046,-0.469726563,-0.538574219,-0.805175781, 
678457965,-1.417916417,7.989336491,-136.7207489,0.385439813,0.662620842,12.49533749,5.230900288,-4.73750639,0.498875648,-0.465332031,-0.536132813,-0.801757813, 
678466298,-1.40926373,8.025607109,-136.7164001,-3.371203661,-0.833687067,9.628875732,2.43162322,3.120671749,0.340297908,-0.458007813,-0.537597656,-0.803222656, 
678474631,-1.372805238,7.982188702,-136.7256165,-0.225648552,0.176362127,8.661400795,5.942899704,-6.373436451,-1.51467216,-0.462402344,-0.540527344,-0.799804688, 
678482964,-1.345716596,7.970355511,-136.7212372,-1.542987466,-0.079247713,10.09381294,4.627429485,-2.649357319,0.304668576,-0.461914063,-0.539550781,-0.797363281, 
678491297,-1.305898428,7.984381199,-136.7116699,-1.453042388,-0.241508871,6.575392723,6.082984924,0.44167909,0.882525682,-0.465820313,-0.538574219,-0.793457031, 
678499630,-1.268866658,7.997044086,-136.7164612,-3.48316288,0.946163595,6.615043163,5.937520504,0.341604233,-0.828261912,-0.465820313,-0.539550781,-0.803710938, 
678507963,-1.238429666,8.01833725,-136.6997375,0.824908793,-1.084661007,11.82925701,4.786416531,1.319350839,1.748568654,-0.460449219,-0.542480469,-0.797851563, 
678516296,-1.188467026,8.025107384,-136.7090302,-3.532552004,-0.83298707,9.501887321,7.611590862,-0.381985128,-1.365776896,-0.460449219,-0.545410156,-0.796875, 
678524629,-1.121206045,8.058246613,-136.7151794,-0.775380135,1.417801738,4.63780117,9.589034081,2.797573805,-0.945651889,-0.465820313,-0.543457031,-0.802246094, 
678532962,-1.120367289,8.140221596,-136.7193604,-1.649110436,-0.480348617,8.212759018,1.633560658,8.627016068,-0.58113575,-0.466796875,-0.541503906,-0.812988281, 
678541295,-1.105302215,8.177289963,-136.7280426,-1.142340183,-1.287751198,12.5471077,3.369898558,3.276919127,-1.236911416,-0.458007813,-0.54296875,-0.810058594, 
678549628,-1.040441871,8.216435432,-136.7300873,-2.419853926,-0.001873368,8.55314827,9.324901581,3.48856926,-0.758565605,-0.463867188,-0.54296875,-0.809570313, 
678557961,-0.990736246,8.261106491,-136.731781,-0.662919998,0.200183332,6.304741859,7.40816164,4.171214104,-0.400529802,-0.469726563,-0.542480469,-0.807617188, 
678566294,-0.942669332,8.351361275,-136.7346039,-1.625112891,-0.24095729,8.219944954,7.3226614,9.619925499,-0.738970637,-0.469238281,-0.541015625,-0.810546875, 
678574627,-0.917432487,8.391172409,-136.7317963,-1.698037028,-0.43913421,9.210713387,4.393955708,3.579858541,0.114559673,-0.466796875,-0.536621094,-0.819335938, 
678582960,-0.917873263,8.419710159,-136.7364807,-0.256267965,-0.649279535,11.33005333,1.544243932,2.219383717,-1.143854856,-0.470703125,-0.539550781,-0.803222656, 
678591293,-0.863206387,8.455032349,-136.7209625,-2.256332397,-0.151552618,9.197936058,7.750726223,2.989911079,1.619344592,-0.466796875,-0.545898438,-0.806640625, 
678599626,-0.841742337,8.477775574,-136.7225952,-0.441604108,0.326649994,8.04942131,4.018348694,1.541708231,-0.445713341,-0.470214844,-0.544921875,-0.806152344, 
678607959,-0.864099085,8.501590729,-136.7229919,-1.830123186,-1.275698066,10.76655388,-1.262064576,1.668114185,-0.299891442,-0.462890625,-0.539550781,-0.818847656, 
678616292,-0.848697603,8.460316658,-136.7120209,-0.583653152,-0.071098842,13.41436195,3.160527468,-6.18722105,0.641675055,-0.468261719,-0.544433594,-0.797851563, 
678624625,-0.860236168,8.488924026,-136.7193451,-2.35058403,-0.935206592,7.257900715,0.159666345,2.254500866,-1.11206758,-0.45703125,-0.545898438,-0.810058594, 
678632958,-0.865294576,8.419729233,-136.7249451,-0.023856986,0.571320236,7.870690346,0.954757988,-9.509311676,-1.076771379,-0.467773438,-0.540039063,-0.79296875, 
678641291,-0.881205857,8.430080414,-136.7257538,-2.092642784,-0.394135952,11.94283009,-0.43019107,0.02652354,-0.366539657,-0.454101563,-0.548339844,-0.796386719, 
678649624,-0.875251174,8.365644455,-136.7182465,-0.529708028,0.02075181,9.581957817,1.996719599,-8.936091423,0.479075938,-0.457519531,-0.539550781,-0.791992188, 
678657957,-0.907576978,8.350311279,-136.7258148,-2.865579844,-0.678378046,10.39286423,-2.333175182,-3.017587423,-1.221568584,-0.458496094,-0.544921875,-0.80078125, 
678666290,-0.904897511,8.275242805,-136.7157898,-0.725280702,-0.342146516,10.77011967,1.610892177,-10.24198055,0.761908293,-0.458007813,-0.546875,-0.795410156, 
678674623,-0.936732173,8.28232193,-136.7137146,-2.274751186,0.004804149,10.59857178,-2.44329071,-0.345254272,-0.034169391,-0.457519531,-0.540039063,-0.800292969, 
678682956,-0.946905553,8.217550278,-136.7019958,-2.128089666,-0.815178156,10.37257576,0.042353142,-9.010961533,0.976914287,-0.459960938,-0.549804688,-0.796386719, 
678691289,-0.944344401,8.221606255,-136.7060394,-1.817072034,-0.30159694,11.02028084,1.837936521,-0.725036561,-0.730389833,-0.459472656,-0.541992188,-0.795410156, 
678699622,-0.945047796,8.21628952,-136.6920471,-1.139261127,0.274905026,4.801382065,1.089795947,-1.855930567,1.358617425,-0.455566406,-0.549316406,-0.789550781, 
678707955,-0.955423832,8.19186306,-136.7025299,-0.673932433,0.488223284,12.78640842,0.34849447,-4.10168457,-1.588620543,-0.4609375,-0.539550781,-0.806152344, 
678716288,-0.950054467,8.217821121,-136.6985168,-2.51078701,-0.853979886,11.86956406,2.040468216,1.887115955,0.236201659,-0.461425781,-0.54296875,-0.794921875, 
678724621,-0.944961607,8.219302177,-136.7066803,-1.191668868,-0.073167101,7.198074818,2.165594101,-0.996854782,-1.261706114,-0.4609375,-0.546875,-0.797851563, 
678732954,-0.999533534,8.269236565,-136.7154694,-2.231949091,-1.034882545,10.09605694,-4.933147907,4.790976048,-1.233888865,-0.470703125,-0.540039063,-0.808105469, 
678741287,-1.008180022,8.313239098,-136.7116547,-2.904068708,-0.849649251,11.26177025,0.310329229,4.081256866,0.251006693,-0.463867188,-0.544433594,-0.807128906, 
678749620,-1.019421697,8.366621971,-136.7208862,-1.01158905,0.513803005,8.485080719,0.328489751,5.210409641,-1.622149587,-0.466796875,-0.540527344,-0.809082031, 
678757953,-1.044812679,8.457889557,-136.7240143,-1.953362465,0.134836093,4.415471077,-1.578528404,9.765900612,-0.468305081,-0.461914063,-0.546386719,-0.806152344, 
678766286,-1.080961466,8.494377136,-136.7087402,0.052128144,-0.354358256,13.64652061,-3.095608473,3.129969835,1.288408875,-0.465820313,-0.537597656,-0.812011719, 
678774619,-1.115859509,8.563467026,-136.7132721,-2.449225187,-1.0452075,11.90516663,-2.693747044,7.107605934,-0.672860444,-0.461914063,-0.538574219,-0.801757813, 
678782952,-1.127091646,8.59352684,-136.7070923,-1.243715882,0.294835538,7.016032219,0.055057794,2.37919116,0.198266983,-0.463378906,-0.540039063,-0.805664063, 
678791285,-1.203715086,8.683744431,-136.6996613,-1.489412904,-0.774140954,9.279486656,-7.864057064,9.584938049,0.805401325,-0.465820313,-0.536132813,-0.805175781, 
678799618,-1.246641397,8.713776588,-136.7024231,-2.215302467,-0.556795955,11.31909561,-3.686836243,2.418201685,-0.543969572,-0.461914063,-0.543945313,-0.8046875, 
678807951,-1.285898447,8.775787354,-136.7050781,-0.122449502,0.285811931,9.968653679,-3.24770546,6.256263733,-0.444406956,-0.463867188,-0.534667969,-0.817382813, 
678816284,-1.342494845,8.825823784,-136.7073364,-1.855220675,-0.25401479,6.311047077,-5.290876865,4.785750866,-0.373660505,-0.462402344,-0.540527344,-0.805664063, 
678824617,-1.398874164,8.796875,-136.7002716,0.912362218,-0.116423398,15.29847908,-5.481779575,-4.684331894,0.459532201,-0.459472656,-0.531738281,-0.808105469, 
678832950,-1.426200271,8.823360443,-136.7099762,-3.297889709,-0.060343239,8.738363266,-1.636698365,1.983835459,-1.355556607,-0.458984375,-0.536621094,-0.811035156, 
678841283,-1.473310471,8.810354233,-136.7059174,-0.846624851,0.517852128,7.29146862,-4.266460419,-2.79010725,0.172908887,-0.450683594,-0.536132813,-0.8046875, 
678849616,-1.526145458,8.836495399,-136.7278442,-1.403387785,-1.174793601,8.666984558,-4.523012638,2.012728214,-2.813441992,-0.449707031,-0.538574219,-0.800292969, 
678857949,-1.514876366,8.809934616,-136.7201233,-2.052162647,1.401781678,11.03958321,2.624831438,-4.402497292,0.53704083,-0.44921875,-0.536621094,-0.808105469, 
678866282,-1.524926901,8.832427979,-136.7289276,-0.621084571,0.540900886,9.825092316,0.420649737,1.507922769,-1.263242841,-0.451171875,-0.534667969,-0.800292969, 
678874615,-1.5163486,8.821660042,-136.7359467,-1.659148932,-1.171435118,8.17143631,2.57257843,-2.461066723,-1.161323786,-0.450195313,-0.536621094,-0.80859375, 
678882948,-1.485929012,8.780158997,-136.7323151,-1.361738682,0.494170487,10.26241302,5.043558598,-6.206253529,0.017328033,-0.44921875,-0.538085938,-0.812011719, 
678891281,-1.495910645,8.838396072,-136.7411194,-1.989504099,-0.138595745,8.39815712,0.422980666,5.795156479,-1.13724637,-0.448730469,-0.5390625,-0.807617188, 
678899614,-1.486161351,8.871667862,-136.7671967,-2.030322075,-0.31833297,6.3699646,3.064807415,2.880154371,-3.279313564,-0.450683594,-0.541992188,-0.804199219, 
678907947,-1.461240411,8.897520065,-136.7534027,-0.265098929,0.087361813,9.720767021,4.148263931,1.868725061,1.420578241,-0.444335938,-0.537597656,-0.80859375, 
678916280,-1.462839603,8.917086601,-136.7969055,-3.52816987,-1.068121433,10.04542637,2.080093622,1.258593798,-5.407574177,-0.448242188,-0.5390625,-0.810546875, 
678924613,-1.416306973,9.025673866,-136.8036194,-0.525843501,0.482483447,5.646636486,7.1253829,11.8560009,-0.763458192,-0.456054688,-0.537109375,-0.802734375, 
678932946,-1.372131348,9.090147972,-136.8145599,-2.261330366,0.407435864,5.24788475,6.969056606,6.546140194,-1.404300451,-0.455078125,-0.534179688,-0.810058594, 
678941279,-1.377325654,9.170953751,-136.8311615,-1.87253356,-0.322514892,7.098545551,1.153140068,8.51889801,-2.037894011,-0.449707031,-0.538574219,-0.809082031, 
678949612,-1.38645792,9.315997124,-136.8100891,-1.38380897,-0.054304559,8.359071732,-0.086652972,16.14909935,2.61835146,-0.454101563,-0.536132813,-0.812011719, 
678957945,-1.375402451,9.421573639,-136.824295,-0.76886785,-1.053762078,11.5507803,3.017651558,11.51473999,-1.669587255,-0.452148438,-0.532714844,-0.818847656, 
678966278,-1.359802127,9.557748795,-136.7876129,-2.204756737,-1.257115126,4.824115276,2.607798576,15.01185226,4.422798157,-0.443359375,-0.539550781,-0.825683594, 
678974611,-1.327489018,9.661141396,-136.8022614,-1.671523929,1.185196877,6.70402956,5.585581303,11.25403881,-1.737004161,-0.448242188,-0.536621094,-0.812988281, 
678982944,-1.304882526,9.755343437,-136.7595215,0.363813788,-0.152434662,12.06706238,3.356092691,9.967536926,4.753170013,-0.446777344,-0.536621094,-0.810058594, 
678991277,-1.304915428,9.859139442,-136.7900543,-1.911601067,-1.111175776,5.362604618,2.079658508,11.31387424,-3.616474628,-0.453125,-0.53515625,-0.809570313, 
678999610,-1.278063655,9.943002701,-136.7547455,-0.213123873,1.032293558,7.253508568,3.907925606,8.776117325,4.106180668,-0.446777344,-0.532226563,-0.822753906, 
679007943,-1.301269054,9.978239059,-136.7659149,-0.71423763,-0.689219534,11.39783382,-1.140525222,3.065575838,-1.519129038,-0.446777344,-0.535644531,-0.815429688, 
679016276,-1.310087681,10.0153513,-136.7530823,-0.71060437,-1.462266207,7.000489235,0.125625029,3.1969769,1.368632793,-0.444824219,-0.536621094,-0.823242188, 
679024609,-1.280924678,10.01184273,-136.7544861,-1.97841537,0.775572538,9.665073395,4.943662167,-1.607831001,-0.471583635,-0.441894531,-0.540039063,-0.817871094, 
679032942,-1.279519796,10.02121735,-136.7371368,0.988584518,0.606767893,8.470238686,1.333080053,-0.130606979,1.418119073,-0.44140625,-0.537597656,-0.812988281, 
679041275,-1.285514235,9.956946373,-136.7510223,-2.41251564,-1.602127671,7.528477192,1.02304554,-8.889318466,-2.079876184,-0.440917969,-0.538574219,-0.811035156, 
679049608,-1.294860363,9.913771629,-136.7364197,0.312999308,0.272819936,11.18815327,-0.00968218,-6.409398556,1.313152075,-0.44140625,-0.534179688,-0.807128906, 
679057941,-1.28244853,9.859347343,-136.7359467,-2.459069252,-0.268698633,7.957987785,2.893089056,-7.721641541,-0.384648979,-0.441894531,-0.538085938,-0.801269531, 
679066274,-1.287460089,9.750937462,-136.7417145,0.668993115,0.062167127,8.728579521,0.974403977,-14.20386219,-1.247131586,-0.438964844,-0.541503906,-0.801269531, 
679074607,-1.318781137,9.666604996,-136.7342529,-2.534877062,-0.778117239,9.993436813,-2.496440411,-11.32943344,0.359073192,-0.437988281,-0.544433594,-0.800292969, 
679082940,-1.305224657,9.55167675,-136.7453766,-1.231832623,0.157488197,8.830589294,3.31070447,-14.96711636,-1.933055401,-0.436523438,-0.543945313,-0.80859375, 
679091273,-1.306011796,9.470856667,-136.7527313,-1.899072766,0.449650168,8.13117981,1.508793831,-10.88707542,-1.375049114,-0.443847656,-0.541503906,-0.806640625, 
679099606,-1.305627227,9.392738342,-136.7645569,-0.742506862,-0.130679533,7.900764942,1.692371249,-10.53183174,-1.907338619,-0.442871094,-0.536132813,-0.812988281, 
679107939,-1.291905284,9.241224289,-136.7566376,-1.048873544,-0.474281788,10.99333,2.90687108,-19.39047241,0.23038733,-0.444335938,-0.542480469,-0.801269531, 
679116272,-1.282833099,9.164782524,-136.7732239,-2.045245647,-0.325514764,10.02719116,2.86240387,-10.33790684,-2.441651583,-0.443359375,-0.540527344,-0.8046875, 
679124605,-1.267651677,9.099359512,-136.7553864,-2.798269749,0.517358124,5.28531599,2.895727634,-9.087034225,1.644344211,-0.442382813,-0.5390625,-0.810546875, 
679132938,-1.265427828,9.008162498,-136.7647858,0.356566072,-0.219239786,9.409444809,1.901741743,-12.12759781,-1.640847802,-0.44921875,-0.541503906,-0.811523438, 
679141271,-1.244880915,8.943632126,-136.7326508,-3.141470194,-0.867288947,12.60634232,3.319362164,-9.035627365,3.356912613,-0.451171875,-0.534667969,-0.795410156, 
679149604,-1.209074378,8.893817902,-136.7410431,-0.537103772,0.160261527,7.943617344,5.866697788,-7.145860672,-1.416006327,-0.448242188,-0.540527344,-0.798339844, 
679157937,-1.21559608,8.837843895,-136.7203827,-3.003451824,-0.057616066,6.842381954,0.249367386,-7.958547592,2.010960817,-0.453613281,-0.54296875,-0.801269531, 
679166270,-1.226539373,8.862879753,-136.7188416,-1.239085913,-1.077584624,10.14924526,0.113740005,1.789218187,-0.037396777,-0.458984375,-0.537597656,-0.812011719, 
679174603,-1.171522021,8.808671951,-136.7089691,-2.362727642,0.478175759,8.996209145,7.834280968,-7.720515728,0.741801083,-0.460449219,-0.538085938,-0.8046875, 
679182936,-1.14221096,8.781608582,-136.6967163,0.699666739,-0.163114041,9.696405411,4.755910397,-4.487024307,1.064412355,-0.453613281,-0.541015625,-0.806152344, 
679191269,-1.14966917,8.78450489,-136.6831665,-3.76906848,-0.967751205,7.921487331,0.312250346,-0.896498322,1.328392744,-0.458984375,-0.541992188,-0.810546875, 
679199602,-1.162079573,8.770430565,-136.6981049,-1.576295614,-0.012222391,9.135033607,0.198420689,-2.844409943,-2.099265814,-0.462890625,-0.537597656,-0.807617188, 
679207935,-1.170155048,8.790932655,-136.6886597,-1.117817402,-0.665535867,10.7423172,0.270806491,1.245812297,0.876403809,-0.460449219,-0.5390625,-0.809082031, 
679216268,-1.152404308,8.780067444,-136.6936493,-1.108298898,0.398611218,8.535378456,3.682187557,-2.505353689,-0.926671863,-0.447753906,-0.543457031,-0.809570313, 
679224601,-1.172626972,8.766946793,-136.7008362,-1.468068957,0.343601167,8.42715168,-0.881437123,-2.748638153,-1.178280473,-0.448730469,-0.544433594,-0.805175781, 
679232934,-1.228287578,8.80684185,-136.7049103,-1.574015141,-2.014256001,9.625006676,-5.153532982,3.581062317,-0.639331341,-0.454101563,-0.540039063,-0.806152344, 
679241267,-1.219647527,8.784984589,-136.7176819,-2.818047285,0.724389732,9.675098419,2.730849028,-3.804840565,-1.858620048,-0.452636719,-0.543457031,-0.797363281, 
679249600,-1.201533437,8.788590431,-136.7257996,-0.284700662,0.87498337,8.134973526,3.735823154,-0.7372545,-1.245492101,-0.452148438,-0.541992188,-0.796875, 
679257933,-1.207784772,8.82281971,-136.7296295,-1.668331265,-0.117823429,7.258071423,0.733681321,2.924492359,-0.662230372,-0.448730469,-0.538085938,-0.811035156, 
679266266,-1.218685746,8.789707184,-136.7329865,-1.384509325,-0.586270869,10.43317318,0.210228816,-5.17873764,-0.776239455,-0.453125,-0.535644531,-0.807617188, 
679274599,-1.219604969,8.806572914,-136.7399445,-2.938926697,-0.71473968,12.8108387,1.432027817,0.849816263,-1.077257872,-0.456054688,-0.547363281,-0.798339844, 
679282932,-1.192843199,8.82528019,-136.7473755,-0.26799944,-0.052088737,5.856538773,4.801990032,1.048096061,-1.116857409,-0.459472656,-0.54296875,-0.802734375, 
679291265,-1.18027854,8.816652298,-136.7520142,-1.344346523,0.8728863,6.252450943,3.049412727,-2.23850441,-0.861713946,-0.454101563,-0.535644531,-0.814453125, 
679299598,-1.22655201,8.834897995,-136.745163,-1.67303431,-0.881477237,11.73386288,-4.265795231,0.979398787,0.562680781,-0.450683594,-0.5390625,-0.80859375, 
679307931,-1.244990826,8.864004135,-136.7684937,-1.809372783,-1.525729299,11.19931602,-0.367487431,2.361721992,-2.983494759,-0.458496094,-0.538085938,-0.81640625, 
679316264,-1.214876533,8.831076622,-136.7491913,-2.139094591,0.599791408,7.179640293,4.715081692,-5.216109276,1.906506062,-0.45703125,-0.541503906,-0.808105469, 
679324597,-1.235813975,8.873896599,-136.7606506,-0.550705552,0.76300627,6.288117409,-0.888071179,3.976059437,-1.542233109,-0.458496094,-0.54296875,-0.80859375, 
679332930,-1.255592227,8.896956444,-136.757843,-1.939882636,-0.47446236,9.371544838,-0.970958769,1.541503072,0.106414333,-0.458496094,-0.534179688,-0.817871094, 
679341263,-1.257176042,8.895752907,-136.7572021,-1.664415956,-0.324651301,12.16554451,1.212667704,-1.337037563,-0.22025682,-0.458007813,-0.536132813,-0.8046875, 
679349596,-1.273510337,8.90014267,-136.7635498,-2.275505304,-0.92471236,10.8096838,-0.332908183,-0.666277409,-1.382169724,-0.45703125,-0.543945313,-0.806640625, 
679357929,-1.265624046,8.950093269,-136.7840118,-0.641005874,0.460202932,6.013665199,2.741991282,4.855934143,-2.587063789,-0.45703125,-0.541015625,-0.814453125, 
679366262,-1.273335695,8.956385612,-136.7702332,-1.498306036,0.89059335,7.325862885,0.265299439,-0.500758231,1.408206582,-0.457519531,-0.534667969,-0.80859375, 
679374595,-1.311788082,8.978007317,-136.7974396,-1.431520581,-0.156894669,12.19026089,-2.691748857,1.476289392,-3.459151506,-0.454589844,-0.536621094,-0.80859375, 
679382928,-1.30947113,9.009968758,-136.7956085,-1.865722179,-1.697435141,11.36223316,1.698210835,2.61233139,0.003470728,-0.445800781,-0.538574219,-0.809570313, 
679391261,-1.296073794,9.004959106,-136.8016815,-1.714426398,1.063142896,6.276730061,3.179687262,-1.802166343,-1.042576194,-0.445800781,-0.541015625,-0.8046875, 
679399594,-1.323774576,9.040305138,-136.8128052,-1.082658291,0.634362936,7.075768471,-1.701143742,3.080124378,-1.51444149,-0.452148438,-0.5390625,-0.812988281, 
679407927,-1.336262941,9.112595558,-136.815155,-1.556410789,-0.557707429,10.31688499,-0.03942031,7.488847256,-0.371688187,-0.461425781,-0.532226563,-0.80859375, 
679416260,-1.30315578,9.095678329,-136.8245392,-1.541332841,-0.168751076,11.2598896,5.602613926,-3.221963167,-1.447844505,-0.455078125,-0.539550781,-0.809570313, 
679424593,-1.287107825,9.104969025,-136.8407135,-1.4828794,-0.084295005,9.026561737,3.647634029,-0.033990089,-2.185432196,-0.454589844,-0.539550781,-0.814453125, 
679432926,-1.301374674,9.141046524,-136.8523102,-0.187652588,0.430197477,6.837043762,-0.043185599,3.141880274,-1.551351547,-0.447265625,-0.539550781,-0.819335938, 
679441259,-1.289243102,9.131803513,-136.8660126,-2.421035528,-0.379748642,8.316497803,3.165292263,-2.288017273,-1.923654675,-0.456054688,-0.538574219,-0.817871094, 
679449592,-1.266744137,9.136786461,-136.8772888,-1.29749918,0.198895171,11.09085369,4.32874155,-0.563410759,-1.618204951,-0.459472656,-0.540527344,-0.807128906, 
679457925,-1.272247434,9.133687973,-136.8897095,-0.306317031,-0.430876881,10.75289726,0.98995173,-1.530296803,-1.774349213,-0.451171875,-0.542480469,-0.810058594, 
679466258,-1.25815773,9.133176804,-136.905304,-2.701122046,0.133039072,7.622894764,3.443872213,-1.237423658,-2.172138453,-0.452148438,-0.538085938,-0.80859375, 
679474591,-1.234834909,9.135913849,-136.914566,-2.165679932,0.365021616,7.437170982,4.388167381,-0.838635743,-1.3812989,-0.449707031,-0.537597656,-0.8125, 
679482924,-1.219899893,9.168595314,-136.9243317,-1.221537709,0.061132506,10.00840569,3.426915884,2.730131865,-1.356837153,-0.450683594,-0.543457031,-0.805664063, 
679491257,-1.185933948,9.23274231,-136.9334869,-2.991385221,-1.387707591,11.72635269,5.704123497,6.5021348,-1.233812094,-0.447265625,-0.542480469,-0.802246094, 
679499590,-1.161855221,9.297868729,-136.9437103,-1.743494034,0.010483752,6.743867874,4.500408649,6.648291111,-1.343697309,-0.442871094,-0.5390625,-0.799316406, 
679507923,-1.173193932,9.329880714,-136.95047,-0.803868651,0.08872731,7.854843616,0.185229361,2.665071487,-1.015092134,-0.440429688,-0.543457031,-0.8046875, 
679516256,-1.172751307,9.4344244,-136.9499359,-1.675462246,-0.363641083,11.93122578,1.490787029,11.32217121,0.034335889,-0.444335938,-0.537109375,-0.809570313, 
679524589,-1.141363978,9.511605263,-136.9552155,-1.839368463,0.088061869,7.949850559,5.284408569,8.081482887,-0.731849849,-0.44921875,-0.540527344,-0.808105469, 
679532922,-1.130258441,9.566061974,-136.9420624,-1.35665369,-0.214735374,7.952161312,2.517046928,5.283153534,1.414200425,-0.448242188,-0.540039063,-0.803710938, 
679541255,-1.144539952,9.648144722,-136.9400635,-2.078312159,-0.043102164,9.446171761,-0.305808395,8.625940323,0.144400254,-0.446777344,-0.542480469,-0.812988281, 
679549588,-1.103095889,9.760578156,-136.9360504,-0.621578813,0.197532609,9.081995964,6.306135654,12.28967285,0.446161628,-0.446289063,-0.541015625,-0.812011719, 
679557921,-1.026336789,9.831881523,-136.9251251,-2.333722353,0.093619347,7.704503059,10.40244198,7.339056492,1.154523373,-0.439941406,-0.542480469,-0.821777344, 
679566254,-1.007485271,9.929145813,-136.9125977,-0.970533669,0.258536667,9.118082047,3.453196287,10.42715931,1.391326904,-0.444335938,-0.544433594,-0.816894531, 
679574587,-0.999450803,10.01369381,-136.9196625,-1.135671258,-1.367223144,9.553889275,2.525448561,8.966687202,-0.953438818,-0.442871094,-0.538085938,-0.822753906, 
679582920,-0.923603177,10.10096169,-136.9011383,-1.197066545,0.704286277,7.996669292,10.15977383,9.216785431,2.075048447,-0.443847656,-0.54296875,-0.811035156, 
679591253,-0.891787469,10.17759895,-136.8943481,-1.434478402,0.396184117,7.862945557,5.118249893,7.965555191,0.675844491,-0.4453125,-0.538085938,-0.8125, 
679599586,-0.879879475,10.25961304,-136.8949585,-0.667087138,-1.419057727,11.49043941,2.855898142,8.649479866,-0.212444514,-0.440917969,-0.545898438,-0.806152344, 
679607919,-0.798689127,10.30117702,-136.8792725,-2.664254904,0.517131805,8.541577339,10.82172108,3.769583225,1.630922556,-0.437011719,-0.546386719,-0.80859375, 
679616252,-0.74540025,10.38903809,-136.8761597,0.017396435,0.786342859,6.406704903,7.775725842,9.323569298,0.212226763,-0.437011719,-0.548339844,-0.810058594, 
679624585,-0.696465135,10.45303822,-136.871521,-1.470311165,-0.581853449,8.853072166,7.185676575,6.480951786,0.350825369,-0.439941406,-0.548339844,-0.8125, 
679632918,-0.609393716,10.45135307,-136.8520966,-0.046123441,-0.088602252,12.73304367,11.47362804,-1.443797588,1.98921454,-0.437988281,-0.546386719,-0.811523438, 
679641251,-0.54922998,10.49592304,-136.8418121,-1.793750048,-0.545492887,7.684911251,8.438674927,4.126005173,0.988235652,-0.434082031,-0.543457031,-0.814941406, 
679649584,-0.466778129,10.48043537,-136.8273468,-0.242471084,0.673652112,7.530077457,10.99266911,-3.065127373,1.398319483,-0.4296875,-0.556152344,-0.797363281, 
679657917,-0.377949744,10.44617558,-136.7995758,-0.066360071,-0.740988135,12.67112827,11.46855831,-5.326865196,2.950363398,-0.424316406,-0.557128906,-0.801757813, 
679666250,-0.300244123,10.40691376,-136.7788544,-1.200072646,-0.672024488,7.858120918,10.31939888,-5.935894012,2.128350973,-0.429199219,-0.551269531,-0.80078125, 
679674583,-0.256329417,10.3394928,-136.7650604,-2.314818144,-0.033713706,8.399095535,6.386820316,-9.28956604,1.295811296,-0.429199219,-0.557617188,-0.802734375, 
679682916,-0.213075191,10.29513836,-136.7502441,0.043030951,-1.312892795,9.037449837,6.317893028,-6.536010265,1.444041133,-0.432128906,-0.552734375,-0.805175781, 
679691249,-0.155849904,10.20547485,-136.7245941,-1.205087662,0.626309276,9.596124649,7.769169331,-11.9726572,2.697217703,-0.435058594,-0.553222656,-0.789550781, 
679699582,-0.166346133,10.12621689,-136.7281647,-0.653590798,-0.772129834,10.76202393,0.229695693,-10.70162964,-0.741045535,-0.430664063,-0.5625,-0.797363281, 
679707915,-0.163381696,10.02092552,-136.7160797,-2.516664028,-1.947947621,8.9352808,1.517605543,-13.83066654,1.096917033,-0.436523438,-0.551269531,-0.808105469, 
679716248,-0.189953953,9.941558838,-136.7227936,-0.159675419,0.186959937,10.01611137,-1.599660516,-10.72304249,-1.120904684,-0.437011719,-0.552246094,-0.801757813, 
679724581,-0.227763444,9.866993904,-136.7198486,-2.800283909,-0.530540466,8.164693832,-3.183183908,-10.14049816,0.021964211,-0.435058594,-0.557617188,-0.7890625, 
679732914,-0.286570311,9.792682648,-136.7256012,-0.279944867,-0.546313107,10.44780636,-5.491795063,-10.11572838,-0.989324331,-0.438476563,-0.553710938,-0.802246094, 
679741247,-0.361815721,9.70941925,-136.726593,-1.579243898,-0.476397723,10.00401688,-7.556814671,-11.19057751,-0.460339069,-0.4375,-0.553222656,-0.796386719, 
679749580,-0.398503572,9.60988903,-136.723587,-1.281713843,0.113724068,9.2631464,-3.048504114,-13.13761902,-0.018032422,-0.438964844,-0.55078125,-0.801269531, 
679757913,-0.481056899,9.567115784,-136.7147217,-3.170233727,-0.189688236,8.044480324,-8.670419693,-6.330738544,0.715187967,-0.439453125,-0.553710938,-0.79296875, 
679766246,-0.550907135,9.543181419,-136.7319946,-0.347907215,0.723022521,7.947410583,-6.584140778,-4.054401398,-2.358635902,-0.44140625,-0.552734375,-0.79296875, 
679774579,-0.584895968,9.454060555,-136.7230225,-1.450016856,-0.162643418,10.41375923,-2.84335947,-11.89640331,0.663267851,-0.444335938,-0.543945313,-0.803222656, 
679782912,-0.640467405,9.411558151,-136.728714,-1.02225554,-0.771742821,10.82075024,-5.104866028,-6.293238163,-1.017141223,-0.4453125,-0.546875,-0.797363281, 
679791245,-0.693842471,9.385043144,-136.7430115,-2.193237305,0.675150692,7.292001247,-4.672087669,-4.360131741,-2.019477367,-0.446289063,-0.546875,-0.801757813, 
679799578,-0.73575294,9.343575478,-136.7360382,-2.004066706,-0.908231437,8.490584373,-3.751921892,-6.177078247,0.469803512,-0.447753906,-0.548828125,-0.808105469, 
679807911,-0.776527166,9.303434372,-136.7481537,-0.234610692,0.183116987,11.30519867,-3.242762089,-5.990785122,-1.793303728,-0.448730469,-0.545410156,-0.807128906, 
679816244,-0.795347929,9.284000397,-136.7533264,-1.607671618,0.600030839,8.440487862,-0.703930378,-3.523007393,-0.944217503,-0.441894531,-0.549804688,-0.812011719, 
679824577,-0.848488986,9.243522644,-136.7403412,-1.840540051,-0.891501069,7.399986744,-5.214904785,-6.069549561,1.173068047,-0.455566406,-0.545898438,-0.802734375, 
679832910,-0.92409128,9.23048687,-136.7591095,-1.448337436,0.071592055,10.11999702,-7.26803875,-2.729964972,-2.488602161,-0.45703125,-0.543945313,-0.807617188, 
679841243,-0.925097704,9.241412163,-136.7591553,-2.183526993,0.17250517,9.016452789,1.325575113,0.111511573,-0.233063906,-0.449707031,-0.540039063,-0.813964844, 
679849576,-0.918805897,9.201117516,-136.7508545,-0.060405422,-0.10070093,8.032396317,2.009551764,-6.042756081,0.611373305,-0.443847656,-0.541015625,-0.801757813, 
679857909,-0.961893737,9.219888687,-136.7653198,-2.492522001,0.835491836,9.948038101,-3.47956562,1.088848233,-1.971860528,-0.443847656,-0.54296875,-0.803710938, 
679866242,-0.966458559,9.234093666,-136.7673645,-2.059231997,-0.633291245,10.14512062,0.943820655,0.510530174,-0.504651606,-0.451660156,-0.55078125,-0.796386719, 
679874575,-0.931871951,9.207937241,-136.766861,-0.710386157,0.620745778,8.468352318,5.55410099,-4.330189228,-0.285291344,-0.447265625,-0.544921875,-0.8125, 
679882908,-0.917784691,9.242930412,-136.7703552,-1.271787643,1.158243179,8.529921532,3.212678432,3.004076242,-0.66440773,-0.448242188,-0.543457031,-0.809570313, 
679891241,-0.888130486,9.272737503,-136.7734985,-1.875185132,-1.037352085,9.813763618,5.062615395,2.384570122,-0.588333428,-0.448730469,-0.544433594,-0.796386719, 
679899574,-0.850718439,9.241718292,-136.7678375,-0.033577297,0.067116104,11.55075455,5.794952869,-4.924132824,0.319934666,-0.446289063,-0.542480469,-0.802246094, 
679907907,-0.810935557,9.275274277,-136.7782745,-2.042865515,-0.467191517,8.858421326,6.389458656,2.853157043,-1.47220397,-0.440917969,-0.546386719,-0.814941406, 
679916240,-0.754557252,9.269433975,-136.7653351,-1.320482373,0.407764405,5.388366222,7.963657379,-1.918326735,1.219532132,-0.455078125,-0.548828125,-0.811523438, 
679924573,-0.733777463,9.258795738,-136.7782898,0.106397517,0.010912915,10.32095718,4.158868313,-2.447747469,-1.846991181,-0.457519531,-0.541503906,-0.814941406, 
679932906,-0.676741481,9.24961853,-136.7680817,-2.216768265,-1.137587667,11.52703094,8.153741837,-2.310967922,0.542496681,-0.454589844,-0.548339844,-0.802734375, 
679941239,-0.643535495,9.227051735,-136.7787476,-1.267928123,0.467570662,7.554217815,5.638217926,-3.888650417,-1.581883907,-0.451171875,-0.545410156,-0.803222656, 
679949572,-0.636946023,9.220962524,-136.7845154,-0.234896958,-0.58578831,8.278863907,2.315232515,-1.913947105,-0.984560013,-0.451171875,-0.550292969,-0.803710938, 
679957905,-0.575550735,9.182100296,-136.7756805,-1.458688259,-0.16832979,10.19626427,8.611929893,-5.865046024,0.701971054,-0.453613281,-0.545898438,-0.812988281, 
679966238,-0.557825685,9.156080246,-136.773056,-0.496380895,-0.088912465,10.22938251,3.524736166,-4.32030201,-0.011321492,-0.458007813,-0.543945313,-0.803710938, 
679974571,-0.543617725,9.132758141,-136.7793274,-2.030506849,-0.900602221,7.708045006,3.239726782,-3.982219219,-1.064911723,-0.452636719,-0.549804688,-0.798828125, 
679982904,-0.514176548,9.064709663,-136.7702484,-0.804220617,0.629856288,9.707036972,4.803015709,-9.368947029,0.741877973,-0.448730469,-0.558105469,-0.795410156, 
679991237,-0.488493949,9.048632622,-136.7711487,-0.833066046,-0.65743506,8.922151566,4.555607319,-3.119916439,-0.467254907,-0.447753906,-0.55078125,-0.795898438, 
679999570,-0.449396729,8.980319977,-136.7733307,-0.955588222,0.613193512,7.483614922,6.146481991,-9.386260033,-0.620376825,-0.446289063,-0.551269531,-0.801757813, 
680007903,-0.447494805,8.921739578,-136.7555389,-0.605666459,-0.799319744,12.32433033,1.30971992,-8.238025665,1.759557128,-0.448242188,-0.551757813,-0.797851563, 
680016236,-0.413376629,8.841825485,-136.7577057,-1.86531806,-1.175336957,9.537405014,5.579228878,-10.77818871,-0.595812738,-0.452148438,-0.553222656,-0.799316406, 
680024569,-0.383314669,8.760099411,-136.7527924,-0.878231525,0.791992903,7.705925465,4.931240559,-11.00326157,0.220346496,-0.451171875,-0.552734375,-0.794921875, 
680032902,-0.397895843,8.707868576,-136.7509155,-0.787640691,-0.61788851,8.933161736,-0.335520893,-7.459531307,-0.100945711,-0.451171875,-0.553710938,-0.802734375, 
680041235,-0.381634295,8.577871323,-136.7402344,-0.286334962,-0.551373601,12.48808956,3.214165211,-16.79628372,0.836497188,-0.456054688,-0.548339844,-0.795898438, 
680049568,-0.37037307,8.499762535,-136.750412,-2.343000889,-0.162057206,10.77108097,2.947289228,-10.55649757,-1.563851595,-0.456542969,-0.552734375,-0.791503906, 
680057901,-0.375622422,8.439669609,-136.7420807,-1.073253036,-0.284722298,4.572098255,0.635937452,-8.408974648,0.648129821,-0.453125,-0.55859375,-0.794433594, 
680066234,-0.40571928,8.341245651,-136.7508087,-1.197920322,0.187390178,9.586545944,-2.012126684,-12.99061966,-1.382784605,-0.45703125,-0.550292969,-0.794921875, 
680074567,-0.411717594,8.268380165,-136.7370758,-1.271797776,-1.025820613,13.7277298,0.455280244,-9.947110176,1.276165247,-0.455078125,-0.55078125,-0.790527344, 
680082900,-0.39098385,8.170983315,-136.7520294,-1.440998316,-0.192459226,8.554096222,4.194447041,-12.86149788,-2.142938614,-0.458984375,-0.558105469,-0.788085938, 
680091233,-0.424594939,8.076998711,-136.7475281,-0.603984892,0.353632748,7.530220985,-2.659731627,-12.46934509,0.181489706,-0.459472656,-0.5546875,-0.791015625, 
680099566,-0.473639727,8.053665161,-136.7563324,-2.886283398,-1.258935452,9.769390106,-4.324169636,-3.983013868,-1.362549186,-0.458984375,-0.547851563,-0.800292969, 
680107899,-0.476805359,7.981334686,-136.765976,-1.255987406,0.162943661,10.37278175,1.196120739,-9.86158371,-1.513314605,-0.459960938,-0.553222656,-0.79296875, 
680116232,-0.508749783,7.924151421,-136.7697144,-0.405085027,-0.393484414,8.97581768,-2.311454058,-8.046071053,-0.847011507,-0.466308594,-0.55078125,-0.791503906, 
680124565,-0.561802626,7.877802849,-136.7664185,-1.312733173,-0.230458677,9.346138954,-5.006788731,-6.756676197,0.045478072,-0.462402344,-0.555175781,-0.790527344, 
680132898,-0.627171993,7.825305939,-136.7853241,-3.16719079,0.353458166,7.109323502,-6.079820156,-7.461580276,-2.610039473,-0.4609375,-0.550292969,-0.797851563, 
680141231,-0.723893583,7.838833809,-136.7852478,-0.371520251,-1.181092262,10.19333363,-10.16137314,0.432534814,-0.231783226,-0.462890625,-0.547851563,-0.804199219, 
680149564,-0.76415056,7.812011242,-136.796814,-2.689695835,-0.940013409,10.25370502,-3.227649927,-4.391561031,-1.711901903,-0.467285156,-0.544921875,-0.798828125, 
680157897,-0.782276809,7.761972427,-136.8101044,-0.120508797,0.851540506,9.135510445,-0.544558585,-7.175392151,-1.954135537,-0.466796875,-0.547363281,-0.790527344, 
680166230,-0.859365523,7.725633144,-136.8030243,-1.188763976,0.180072427,8.121515274,-7.918743134,-5.561977863,0.545442343,-0.466796875,-0.546386719,-0.799804688, 
680174563,-0.947216749,7.741957188,-136.8289642,-1.893035769,-0.167427987,7.954576492,-8.709020615,0.814955473,-3.348626137,-0.471191406,-0.544921875,-0.805664063, 
680182896,-0.988112152,7.7445755,-136.8181763,-2.894501448,-0.35465309,8.902814865,-3.628973484,-0.895063818,0.994716108,-0.472167969,-0.541992188,-0.80859375, 
680191229,-1.035956621,7.692269325,-136.8321381,1.173671365,0.020839814,11.46448994,-4.10340023,-7.437528133,-2.064635038,-0.46875,-0.545410156,-0.793457031, 
680199562,-1.075224042,7.680660725,-136.8187561,-2.838052988,0.261863142,11.1294136,-3.427030802,-2.609271049,0.927324951,-0.464355469,-0.545898438,-0.799804688, 
680207895,-1.103778124,7.685400009,-136.8301849,-1.003216863,0.307549238,4.910501003,-1.828292847,-0.596222579,-1.641693234,-0.471679688,-0.540039063,-0.808105469, 
680216228,-1.1345855,7.677834511,-136.8262177,-2.956009626,0.540898621,7.746802807,-2.314784288,-2.107539415,0.200213686,-0.473144531,-0.541992188,-0.807128906, 
680224561,-1.134569645,7.702639103,-136.8339996,-0.884587407,-0.094054483,13.91298866,1.540401697,1.802384019,-1.160299301,-0.468261719,-0.546386719,-0.7890625, 
680232894,-1.076003313,7.719300747,-136.8397064,-1.329325438,-0.008827977,10.25569439,8.610852242,0.825200975,-1.228458762,-0.463867188,-0.544433594,-0.799804688, 
680241227,-1.023607612,7.696674824,-136.8409271,-1.058907151,0.793183029,5.298099041,7.755619049,-3.904762506,-0.486081362,-0.466796875,-0.541015625,-0.802734375, 
680249560,-1.02722466,7.758553505,-136.8500061,-3.066210985,-0.332990646,8.691386223,1.126706243,6.25372839,-1.239395976,-0.472167969,-0.541015625,-0.801269531, 
680257893,-0.982305765,7.801957607,-136.8525543,-0.048702881,-0.682838261,12.16837215,6.84549427,4.022601128,-0.508212149,-0.4765625,-0.546875,-0.799316406, 
680266226,-0.875886619,7.811625004,-136.8443756,-2.567986965,-0.229690745,10.32016563,14.09709358,-0.050331984,0.617725909,-0.467285156,-0.543457031,-0.802246094, 
680274559,-0.811761439,7.817097187,-136.8303375,0.387148052,0.69387424,7.34216547,8.879290581,-0.558825791,1.383898735,-0.465332031,-0.545410156,-0.800292969, 
680282892,-0.786958635,7.874903202,-136.8370972,-2.025105238,-0.453828007,7.746325493,4.533630371,5.752790928,-0.977592826,-0.473144531,-0.547851563,-0.808105469, 
680291225,-0.713352382,7.904830933,-136.8082733,-2.610685587,-0.928135633,10.47012901,9.771664619,2.354652643,3.179969311,-0.46875,-0.545898438,-0.799316406, 
680299558,-0.623895168,7.948343277,-136.8153687,-1.450754523,0.506897688,10.18247318,12.35096836,4.041708946,-1.439827561,-0.471191406,-0.547363281,-0.796386719, 
680307891,-0.548013628,7.999675751,-136.8017578,-0.603146791,-0.572797716,9.184183121,10.29296589,4.951808453,1.386255264,-0.466796875,-0.553710938,-0.790527344, 
680316224,-0.480604619,8.041676521,-136.7917328,-2.099282503,-0.054456741,6.97373724,9.369674683,3.833772421,0.949609458,-0.470703125,-0.5546875,-0.788574219, 
680324557,-0.444382757,8.089319229,-136.7973328,-1.23728931,0.008973917,9.142570496,5.854786873,4.531581402,-0.911072731,-0.465332031,-0.55078125,-0.799804688, 
680332890,-0.377710968,8.210269928,-136.782074,-1.738311291,-1.203467131,10.75816441,9.185048103,13.30422878,1.657535791,-0.465332031,-0.551269531,-0.805664063, 
680341223,-0.275523633,8.22251606,-136.772644,-1.00446856,-0.387787372,10.28518867,13.51408482,0.272394627,0.835882246,-0.470214844,-0.553222656,-0.801757813, 
680349556,-0.228309244,8.299598694,-136.7651672,-1.900204778,-0.355805695,8.359988213,7.035885811,8.051131248,0.293372691,-0.463378906,-0.548828125,-0.795898438, 
680357889,-0.194044009,8.416532516,-136.7626038,-0.787438869,-0.201162636,4.575306892,5.482254505,12.84061146,0.061461378,-0.463378906,-0.5546875,-0.803222656, 
680366222,-0.156250104,8.461449623,-136.7561798,-1.075930357,-0.525027096,10.61718082,5.87778759,4.191602707,0.452846825,-0.464355469,-0.552734375,-0.803710938, 
680374555,-0.132853791,8.542683601,-136.7491608,-1.700532556,-1.999309421,12.85407352,4.095858097,8.554067612,0.56498605,-0.463378906,-0.548339844,-0.806152344, 
680382888,-0.088573582,8.583053589,-136.7533112,-1.888638616,-0.18586719,6.100461483,6.8971591,3.650477409,-1.159377337,-0.46484375,-0.553710938,-0.798339844, 
680391221,-0.092382103,8.670304298,-136.7563324,0.525628924,-0.028506035,7.192883015,1.051554203,9.273084641,-0.626293778,-0.465332031,-0.555664063,-0.798828125, 
680399554,-0.126623511,8.736699104,-136.7503967,-1.894116163,-0.784622848,10.52522087,-2.802966118,6.775337219,0.426028788,-0.461425781,-0.552246094,-0.806640625, 
680407887,-0.165327281,8.747527122,-136.75914,-0.028298363,-1.327963233,10.76159954,-3.069840431,0.111229822,-1.329455733,-0.461425781,-0.552246094,-0.79296875, 
680416220,-0.199747831,8.822480202,-136.7550812,-2.953286648,-1.204859734,6.792118073,-2.687112331,7.798727036,-0.184217572,-0.460449219,-0.556640625,-0.797363281, 
680424553,-0.206086904,8.838340759,-136.7458496,-0.252273619,0.352413416,8.152509689,0.481918991,0.707913399,0.809063911,-0.459960938,-0.5546875,-0.80078125, 
680432886,-0.282466501,8.881833076,-136.7460175,-1.949628472,-0.669325411,10.3155098,-7.707015514,4.023164272,-0.256808311,-0.460449219,-0.552734375,-0.794921875, 
680441219,-0.372011662,8.906356812,-136.7275543,-0.982356369,-1.926138997,6.874690056,-9.627264023,1.735530853,1.901203632,-0.458984375,-0.551269531,-0.80078125, 
680449552,-0.46758163,8.930318832,-136.7308807,-0.735564351,-0.042090334,11.05504131,-9.993009567,1.687145591,-0.668864548,-0.458984375,-0.553222656,-0.799316406, 
680457885,-0.5303424,8.955756187,-136.7182617,-0.981156111,0.432054728,10.07810974,-6.353355408,1.84815681,1.229598641,-0.453125,-0.552734375,-0.80078125, 
680466218,-0.647064924,8.955938339,-136.717392,-1.334697247,-0.664596379,8.742679596,-12.56570435,-1.171774507,-0.161677077,-0.443847656,-0.550292969,-0.802734375, 
680474551,-0.792784631,8.979668617,-136.7287292,-1.137219787,-1.593086362,6.212152004,-15.85933781,1.673288584,-1.606038451,-0.452636719,-0.548828125,-0.804199219, 
680482884,-0.89403218,8.952163696,-136.7242279,-1.495133162,1.15294373,11.68367386,-10.77329731,-4.500729084,0.200674742,-0.451660156,-0.543945313,-0.805664063, 
680491217,-1.001289964,8.973432541,-136.7344666,-0.029664613,-0.693189979,8.818948746,-11.21550083,1.380594492,-1.475636125,-0.453125,-0.540039063,-0.798828125, 
680499550,-1.115063667,8.919628143,-136.7433472,-1.765464544,-0.550093472,7.568574905,-12.0730648,-7.627714634,-1.465749145,-0.451171875,-0.540527344,-0.805664063, 
680507883,-1.255161166,8.903032303,-136.7456818,-0.328529894,-0.146754548,11.74823093,-15.35461044,-3.177216291,-0.61415267,-0.446777344,-0.547851563,-0.797363281, 
680516216,-1.332866311,8.85118103,-136.7536316,-2.558358669,-0.010359602,9.326183319,-7.720105648,-7.389758587,-1.340111256,-0.449707031,-0.538574219,-0.812988281, 
680524549,-1.411930919,8.805567741,-136.757019,0.529387951,0.848395169,8.19517231,-8.0120821,-6.654067039,-0.825546861,-0.453613281,-0.534667969,-0.807617188, 
680532882,-1.519824743,8.776101112,-136.7622681,-2.240903139,-0.74834305,8.330898285,-11.38816643,-4.710125446,-1.000568986,-0.452148438,-0.534179688,-0.805175781, 
680541215,-1.582683563,8.670309067,-136.7582245,0.13076143,-0.121386901,12.73613262,-6.156792164,-13.89290714,-0.150355577,-0.454589844,-0.537597656,-0.806152344, 
680549548,-1.63536942,8.637674332,-136.7733154,-2.918054342,-0.004857416,9.187669754,-4.635638714,-5.056455612,-2.193731546,-0.451171875,-0.536621094,-0.814941406, 
680557881,-1.667927265,8.588405609,-136.7688904,-0.711559176,1.153230309,4.25639534,-2.572258472,-7.115071297,0.05918169,-0.459472656,-0.532714844,-0.805175781, 
680566214,-1.718889594,8.519604683,-136.7834625,-1.018387318,-0.219817117,10.30618095,-4.394711494,-9.390487671,-2.260405302,-0.458496094,-0.530273438,-0.806640625, 
680574547,-1.718640208,8.476337433,-136.7769318,-1.676592946,-0.674397528,13.06023216,1.327137589,-6.403635979,0.326466233,-0.457519531,-0.534179688,-0.806152344, 
680582880,-1.72181344,8.42029953,-136.790741,-2.380874872,1.111016989,7.981961727,1.320503473,-7.860444546,-2.128184319,-0.454101563,-0.534667969,-0.811523438, 
680591213,-1.751407743,8.389076233,-136.7930298,0.099594824,-1.268396616,7.408517838,-2.050803661,-4.924925327,-0.704673171,-0.4609375,-0.533203125,-0.8046875, 
680599546,-1.720321178,8.335621834,-136.787262,-2.708732367,0.465680957,10.67998505,5.044429302,-7.623590946,0.198266998,-0.457519531,-0.530273438,-0.8046875, 
680607879,-1.707864285,8.297598839,-136.7814941,0.370581597,0.879526138,11.05267525,2.809663773,-5.773396969,0.251339674,-0.458984375,-0.534179688,-0.801269531, 
680616212,-1.713622928,8.264259338,-136.7932587,-2.820440054,-1.519708276,7.343048096,0.966693997,-5.146462917,-1.79891324,-0.458007813,-0.537597656,-0.810058594, 
680624545,-1.710133791,8.194892883,-136.7723236,-0.209564507,0.20788458,10.90532875,1.473881483,-9.584846497,1.940521598,-0.4609375,-0.531738281,-0.8046875, 
680632878,-1.698222041,8.172436714,-136.7874908,-2.408293486,-0.428536117,8.755892754,3.145312548,-3.829507351,-2.164274693,-0.4609375,-0.529296875,-0.806152344, 
680641211,-1.652273178,8.108509064,-136.7775421,-0.292587161,0.768462241,6.741277695,6.800311089,-8.891444206,0.672514558,-0.461425781,-0.540039063,-0.802246094, 
680649544,-1.666322947,8.087596893,-136.7793274,-1.64606142,-0.484521061,10.83933067,-0.242285028,-3.69311142,-0.58111012,-0.459472656,-0.537597656,-0.801757813, 
680657877,-1.645643353,8.020581245,-136.7770538,-1.86155355,-1.483281493,11.93295383,3.858438253,-9.238440514,-0.255501986,-0.4609375,-0.529785156,-0.810058594, 
680666210,-1.612817168,8.00223732,-136.7879639,-2.817632437,-0.032952785,8.578947067,5.566574574,-3.352877855,-1.590900064,-0.465332031,-0.533691406,-0.812988281, 
680674543,-1.615029812,8.023475647,-136.7792053,-0.100194037,0.159070924,5.594110489,1.002758861,1.327598453,0.81879741,-0.465332031,-0.536132813,-0.804199219, 
680682876,-1.605345011,7.986933231,-136.7834473,-1.41338098,0.139710978,11.5817852,2.733641386,-5.552014351,-1.234760046,-0.467773438,-0.533203125,-0.802246094, 
680691209,-1.60026145,7.977869987,-136.7727356,-1.327120185,-0.988876522,13.02315331,1.890138507,-2.308995247,0.921817899,-0.456542969,-0.535644531,-0.813476563, 
680699542,-1.581166744,7.993679523,-136.7811584,-2.473945141,-0.730604112,4.966163158,3.846117973,0.732836008,-1.243468642,-0.46484375,-0.534667969,-0.809082031, 
680707875,-1.602621913,8.006412506,-136.7809296,-0.966749668,0.528409123,7.723060608,-1.163962126,0.335328788,-0.224560022,-0.473144531,-0.534179688,-0.8046875, 
680716208,-1.602760315,8.060305595,-136.7741241,-2.030205011,-0.964907229,11.85757542,1.326010466,5.250675201,0.689138174,-0.466308594,-0.532714844,-0.807128906, 
680724541,-1.56983304,8.030716896,-136.7765961,-0.067230172,-0.095638864,10.2530899,5.40681982,-4.732025623,-0.685565114,-0.46484375,-0.537597656,-0.802734375, 
680732874,-1.576018214,8.058877945,-136.7766418,-1.305060387,-0.357820421,7.017011166,0.711832345,2.18749404,-0.188264608,-0.46875,-0.537109375,-0.813476563, 
680741207,-1.587815881,8.065994263,-136.7680817,-1.805999756,-0.313545138,7.959654808,-0.144284993,-0.365771294,0.747564316,-0.467773438,-0.53515625,-0.811035156, 
680749540,-1.593360901,8.065511703,-136.778717,-0.03024119,-0.113523379,11.93705368,1.013772964,-1.202690721,-1.878189564,-0.470703125,-0.528808594,-0.812988281, 
680757873,-1.579822659,8.033075333,-136.7744598,-1.224366307,-0.588838458,8.373240471,2.967319489,-5.097206593,0.10375046,-0.467773438,-0.533691406,-0.812011719, 
680766206,-1.592801452,7.99032259,-136.7617035,-0.575060666,0.127271518,7.837245464,-0.250097394,-6.344978809,0.606378555,-0.467285156,-0.536132813,-0.811035156, 
680774539,-1.624454021,7.988387108,-136.7757721,-2.571630001,-0.756866992,8.973757744,-2.149700403,-1.375817537,-1.971143484,-0.472167969,-0.536621094,-0.801269531, 
680782872,-1.58480382,7.977434158,-136.7662354,-1.592078686,0.256982207,9.578780174,6.100632191,-2.523412228,0.472774774,-0.471679688,-0.539550781,-0.8046875, 
680791205,-1.573908567,7.945165634,-136.763031,0.278623879,-0.004840609,8.898685455,2.714916945,-5.069851398,-0.060936268,-0.459472656,-0.536132813,-0.803710938, 
680799538,-1.564658523,7.909348011,-136.7604675,-1.944483638,-0.166162208,8.898859978,2.481801748,-5.496046543,-0.104864679,-0.465820313,-0.533203125,-0.811035156, 
680807871,-1.571129918,7.871556759,-136.7528076,-1.599969745,-0.189783007,10.01540565,0.510991156,-5.749371529,0.489808172,-0.461914063,-0.531738281,-0.810058594, 
680816204,-1.567373991,7.880996704,-136.7553406,-0.734665275,-1.560889721,7.903921604,1.944696665,-0.047975454,-0.554445744,-0.468261719,-0.534667969,-0.805175781, 
680824537,-1.549250364,7.806208611,-136.7394257,-0.646038294,0.235796452,10.54947376,3.328967333,-10.21470165,1.357183099,-0.466308594,-0.534667969,-0.795410156, 
680832870,-1.575626254,7.798643589,-136.7272034,-1.677964211,-0.419624299,10.65097523,-1.907722712,-2.135356426,1.134953976,-0.465820313,-0.536621094,-0.806640625, 
680841203,-1.569879889,7.738385677,-136.7362061,-1.779396534,-0.365386993,6.99612093,2.289515495,-8.38566494,-1.554425359,-0.465332031,-0.532714844,-0.812011719, 
680849536,-1.555882692,7.733181953,-136.7255554,-1.049261212,0.134293869,9.188877106,2.921392918,-1.850474954,0.955987215,-0.469726563,-0.531738281,-0.805664063, 
680857869,-1.545492053,7.736406803,-136.7253265,-2.289861441,-0.390216053,7.626420498,2.657156944,-0.804440737,-0.257038862,-0.473144531,-0.533691406,-0.800292969, 
680866202,-1.537934899,7.706939697,-136.7348022,-0.30810535,-0.00013032,11.37559319,2.515945673,-4.6929636,-1.526070714,-0.467285156,-0.53125,-0.802734375, 
680874535,-1.526232719,7.700245857,-136.735672,-2.287078381,-1.271008372,9.869277,2.833792686,-1.990840912,-0.421405405,-0.467773438,-0.53515625,-0.809082031, 
680882868,-1.48099792,7.674026012,-136.7318573,-0.896672547,0.767747283,7.699656963,6.822416782,-4.345583916,0.064227708,-0.474609375,-0.536132813,-0.805175781, 
680891201,-1.469086528,7.708689213,-136.7415924,-1.783789039,-0.155340195,8.593049049,3.04121685,3.000515699,-1.352790236,-0.476074219,-0.529785156,-0.803222656, 
680899534,-1.436580896,7.710802078,-136.7341461,-1.278875351,-0.778251231,9.046169281,5.195527077,-0.961276591,0.595185161,-0.467285156,-0.536621094,-0.809082031, 
680907867,-1.415919781,7.672840595,-136.7366486,0.060034603,-0.741717041,11.79151726,3.933642626,-5.737921715,-0.703623116,-0.46875,-0.541503906,-0.801757813, 
680916200,-1.368543386,7.66835165,-136.7294769,-2.365788698,-0.328626305,7.290723324,7.026305199,-1.749452353,0.54221499,-0.477539063,-0.534667969,-0.814941406, 
680924533,-1.357300162,7.668608665,-136.7248993,-1.625662446,0.1867892,7.05346632,2.689558744,-1.173900485,0.249802813,-0.473144531,-0.533691406,-0.812011719, 
680932866,-1.348682642,7.696684837,-136.7298584,-1.720370054,-1.200661778,8.472568512,2.629621029,2.203938007,-1.249769449,-0.478027344,-0.538574219,-0.803710938, 
680941199,-1.317017913,7.630828381,-136.7220306,-0.451664656,-0.549342096,13.90436172,5.087820053,-9.11469841,0.453717798,-0.475097656,-0.537109375,-0.806640625, 
680949532,-1.329078555,7.679030418,-136.7270355,-2.548148632,-0.682867765,7.045897484,0.136715993,4.613366604,-1.113092303,-0.467773438,-0.538085938,-0.804199219, 
680957865,-1.343940616,7.614890099,-136.7434235,-0.290394843,-0.123466939,8.200273514,-0.106965065,-8.84131813,-2.4205966,-0.471191406,-0.5390625,-0.803222656, 
680966198,-1.347899795,7.654700756,-136.738327,-1.583432794,-0.769721687,10.35639286,0.899892032,3.570329666,0.432304233,-0.470703125,-0.534179688,-0.801269531, 
680974531,-1.326712132,7.583208084,-136.7411194,-0.64391917,-0.095830962,10.03456402,4.001289845,-9.761381149,-0.825854242,-0.46875,-0.5390625,-0.804199219, 
680982864,-1.358489752,7.590772629,-136.7463684,-2.081976891,-0.468837112,8.746447563,-2.275082111,-0.267489463,-0.884920657,-0.468261719,-0.541503906,-0.796386719, 
680991197,-1.375527263,7.525624752,-136.7489929,-1.947016358,-0.814135551,7.536518097,-0.552191794,-9.002175331,-0.742018878,-0.46484375,-0.536132813,-0.807128906, 
680999530,-1.381061435,7.52429533,-136.7503357,-0.4889898,-0.081735536,10.31103039,0.771257401,-1.34587431,-0.456522495,-0.471679688,-0.536621094,-0.807128906, 
681007863,-1.35417974,7.45927763,-136.7461548,-1.647804856,1.037062287,8.339318275,4.574049473,-9.003302574,0.015996091,-0.468261719,-0.537597656,-0.799804688, 
681016196,-1.37138164,7.435874939,-136.7299042,-0.603227615,-1.066624284,10.68017864,-0.815736532,-4.037930489,1.243251085,-0.46875,-0.541503906,-0.804199219, 
681024529,-1.373398185,7.370199203,-136.7399292,-2.273066759,-1.552789927,8.765677452,1.327777982,-9.04177475,-1.674377084,-0.470214844,-0.535644531,-0.802246094, 
681032862,-1.356466055,7.302233219,-136.7271729,-0.839519978,0.623821437,11.70102024,3.287036657,-9.382314682,1.070098758,-0.47265625,-0.534667969,-0.794433594, 
681041195,-1.366590023,7.287112713,-136.7243652,-2.093105793,-0.8635692,6.744146824,0.19877927,-3.012874126,0.009438845,-0.476074219,-0.540039063,-0.794433594, 
681049528,-1.381597161,7.21304369,-136.735611,-0.624365509,-0.217401505,9.159317017,-0.215876818,-10.04592991,-1.845685363,-0.471679688,-0.541015625,-0.796386719, 
681057861,-1.410075307,7.182744026,-136.7288361,-1.480044842,-1.093904376,12.72472095,-2.105695009,-4.845726967,0.424594402,-0.473632813,-0.534179688,-0.801757813, 
681066194,-1.403838515,7.100223541,-136.7367706,-1.511483192,-0.487322539,9.452881813,2.319330692,-11.07065296,-1.437855363,-0.473632813,-0.535644531,-0.798339844, 
681074527,-1.447060108,7.104085445,-136.7374268,-2.695851088,-0.507733762,7.425864697,-3.761936426,-0.72693187,-0.360212922,-0.473144531,-0.538574219,-0.800292969, 
681082860,-1.501475096,7.130861282,-136.7489624,-2.057941437,-0.436271548,4.845376015,-4.902231216,2.053967237,-1.559522748,-0.475585938,-0.536621094,-0.805664063, 
681091193,-1.560129642,7.132605076,-136.7461548,-1.182822704,-0.262501091,12.35583401,-5.666125298,-0.990195036,0.044607189,-0.475097656,-0.535644531,-0.801269531, 
681099526,-1.599734426,7.169857025,-136.7542877,-2.48842454,-1.819521308,12.54331017,-3.134106636,3.304479599,-1.424842954,-0.470214844,-0.536621094,-0.796875, 
681107859,-1.6340909,7.180462837,-136.751709,-1.292464018,1.025270343,6.770757198,-2.748305082,0.072424255,0.048065111,-0.470703125,-0.536132813,-0.806152344, 
681116192,-1.724407315,7.25630188,-136.767395,-1.546862841,-0.615190685,7.478018761,-9.142591476,7.951747417,-1.862590432,-0.474121094,-0.531738281,-0.811523438, 
681124525,-1.777720094,7.335318565,-136.743042,-2.048623323,-0.699812591,10.10161591,-5.354784489,8.199463844,2.893499851,-0.478515625,-0.53125,-0.807617188, 
681132858,-1.822729945,7.399237156,-136.7617798,-1.081753731,0.274683356,11.92217922,-3.609353781,6.546397686,-2.606069326,-0.475585938,-0.530761719,-0.815917969, 
681141191,-1.879269123,7.494820595,-136.7554016,-1.586592436,-1.007761478,7.664684296,-5.470663071,10.24860287,0.836292028,-0.479492188,-0.53515625,-0.800292969, 
681149524,-1.940300941,7.556323528,-136.7539215,-1.287243485,0.444084674,6.390993595,-5.841992855,6.182316303,-0.209754974,-0.475585938,-0.528320313,-0.805664063, 
681157857,-2.024877548,7.658856869,-136.7732086,-1.022729993,-0.013767104,9.483426094,-8.429569244,11.18482971,-2.15958786,-0.474609375,-0.5234375,-0.822265625, 
681166190,-2.037875891,7.77310133,-136.77565,-2.660099745,-0.849011004,9.085090637,-0.05563413,12.50975132,-0.126124516,-0.474609375,-0.528808594,-0.811035156, 
681174523,-2.055830002,7.816263676,-136.7873993,1.15928328,0.730777681,10.7589798,-0.549476624,4.035228252,-1.504733801,-0.474609375,-0.52734375,-0.811523438, 
681182856,-2.088544607,7.902951717,-136.7933655,-3.416527033,-0.522264481,7.802239895,-2.318396091,9.231794357,-0.990681946,-0.471191406,-0.53125,-0.807128906, 
681191189,-2.102939606,7.945055485,-136.8031921,0.097118206,0.004128748,8.979413986,-0.108553126,3.886947155,-1.254329085,-0.469726563,-0.524414063,-0.813476563, 
681199522,-2.094361305,7.999924183,-136.8052063,-0.709612191,0.007915203,9.700362206,2.477703571,5.398776531,-0.293359846,-0.467773438,-0.526855469,-0.823730469, 
681207855,-2.040295839,7.995791912,-136.8056488,-0.818365872,0.152240977,10.19704437,7.910176277,-1.685545087,-0.364234477,-0.473632813,-0.524414063,-0.825195313, 
681216188,-2.046767235,8.016810417,-136.7891083,-1.985517144,-0.393648356,9.285142899,0.455971807,1.264587522,1.3899436,-0.474609375,-0.526367188,-0.8125, 
681224521,-2.02562356,8.010088921,-136.8082123,-1.45854044,-0.709651649,6.935856819,4.271724701,-1.917532921,-2.592442513,-0.468261719,-0.532226563,-0.809082031, 
681232854,-1.970187545,8.002562523,-136.7767334,-0.498758316,0.626064539,11.91545296,7.631850243,-2.22126627,3.057071686,-0.461914063,-0.528320313,-0.814453125, 
681241187,-1.920621634,7.9942379,-136.7832336,-1.487182021,-0.584305227,6.803458691,7.504369736,-2.173240185,-1.033611417,-0.465820313,-0.52734375,-0.8125, 
681249520,-1.908200383,7.952088833,-136.7761841,-1.350319743,-0.591145575,11.00168896,2.786662102,-6.274385929,0.373903781,-0.461425781,-0.530761719,-0.806640625, 
681257853,-1.901542664,7.946771622,-136.7850647,-2.449784279,-1.924854517,10.00390434,2.361107349,-1.792893887,-1.370566487,-0.463378906,-0.5390625,-0.798339844, 
681266186,-1.859384179,7.91006279,-136.7759247,-1.299360752,1.033469081,9.972171783,6.358131409,-5.64017725,0.689829767,-0.4609375,-0.533203125,-0.810058594, 
681274519,-1.858267188,7.917795181,-136.7906494,-1.373455524,-0.407111049,8.097776413,1.791395545,-0.208013207,-2.014098644,-0.462402344,-0.531738281,-0.809082031, 
681282852,-1.852489471,7.898074627,-136.7771606,-0.880627573,-0.769978285,10.23392105,1.924077272,-3.618728161,1.258004785,-0.464355469,-0.528320313,-0.803222656, 
681291185,-1.860387683,7.86650753,-136.7868958,-1.809348702,-0.39309907,12.67028999,0.672258377,-4.949233532,-1.583164692,-0.462402344,-0.534667969,-0.797851563, 
681299518,-1.814805984,7.873528004,-136.780426,-2.634055376,-0.680683076,7.431392193,6.777539253,-0.373250604,0.501513898,-0.461914063,-0.532714844,-0.804199219, 
681307851,-1.807644606,7.893587589,-136.7872009,-1.403427362,0.786192179,7.213356018,2.384800673,1.239639282,-1.022494674,-0.461425781,-0.529785156,-0.802734375, 
681316184,-1.82893157,7.939237118,-136.8051147,-1.17127037,-0.150191426,8.69311142,-0.799676478,4.340909004,-2.25428319,-0.463867188,-0.534179688,-0.81640625, 
681324517,-1.818127275,7.919741154,-136.7933502,-1.44172132,-1.898818254,13.66345406,2.515971184,-3.574364424,1.029192924,-0.467773438,-0.530761719,-0.805664063, 
681332850,-1.812614441,7.928331852,-136.8196259,-1.278724194,-0.689862311,10.24447727,2.590687752,-0.06662263,-3.659915924,-0.468261719,-0.53125,-0.799804688, 
681341183,-1.783804059,7.95405674,-136.819458,-2.07578516,0.921827614,3.728353739,4.91241312,1.882172465,-0.172588691,-0.469726563,-0.534667969,-0.804199219, 
681349516,-1.820664167,7.979854584,-136.829361,0.359644324,-0.511921465,10.37715626,-2.844819307,1.941751122,-1.372948527,-0.467773438,-0.540527344,-0.799316406, 
681357849,-1.853207707,7.97755003,-136.8314972,-2.938151121,-1.849194169,12.15591908,-2.45532918,-1.460907817,-0.556648552,-0.467285156,-0.537597656,-0.802246094, 
681366182,-1.849578738,7.983023643,-136.8427277,-1.217391491,0.491464913,7.695784569,2.076302528,-0.503370941,-1.580321431,-0.46484375,-0.532714844,-0.80859375, 
681374515,-1.851571083,7.988244534,-136.8462219,-0.87419188,-0.453068227,7.994203091,1.233210087,-0.55103904,-0.689970613,-0.466796875,-0.534179688,-0.813964844, 
681382848,-1.828235269,8.011383057,-136.8525848,-1.88045013,-0.1659251,10.45249844,4.36211729,1.595139503,-0.946650982,-0.466796875,-0.536132813,-0.804199219, 
681391181,-1.850493193,8.005652428,-136.8465271,-1.852699637,-0.07305976,9.002651215,-1.315521479,-1.914945841,0.410327256,-0.468261719,-0.534667969,-0.806152344, 
681399514,-1.895940781,8.059796333,-136.8725586,-0.615960836,-0.76693666,7.482589722,-3.602334499,5.404334545,-3.173245192,-0.463867188,-0.53515625,-0.806640625, 
681407847,-1.892147899,8.076618195,-136.8401794,-2.284410954,-0.696292102,10.40902233,1.323397756,0.698436022,3.616511822,-0.463867188,-0.534179688,-0.813964844, 
681416180,-1.898141623,8.061000824,-136.8663025,-0.89872098,-0.32964623,12.72978401,1.177524805,-2.974683762,-3.450826645,-0.460449219,-0.536132813,-0.810546875, 
681424513,-1.898835063,8.124695778,-136.8526001,-3.007433653,-0.829723954,5.651003838,1.100118518,6.39470911,1.585277796,-0.456054688,-0.536621094,-0.801269531, 
681432846,-1.890064478,8.19197464,-136.866806,-1.400444031,0.955976009,6.243163109,2.756028175,6.921313286,-1.73398149,-0.457519531,-0.530273438,-0.80859375, 
681441179,-1.918381572,8.242215157,-136.8648834,-0.796304822,-0.168780535,10.54227543,-1.976471305,4.809495449,0.153698221,-0.454101563,-0.532714844,-0.809082031, 
681449512,-1.952979922,8.344457626,-136.8747253,-1.478006721,-1.853307009,8.692412376,-2.566853762,11.11139107,-1.049389601,-0.453125,-0.534179688,-0.807128906, 
681457845,-1.943176508,8.387827873,-136.8755798,-2.617357731,0.177662686,8.406797409,2.604596615,4.013763905,-0.218335748,-0.465332031,-0.533691406,-0.80859375, 
681466178,-1.934432745,8.514183044,-136.8768463,-0.102548987,-0.370613188,12.9001255,2.537077665,13.95485497,0.019095417,-0.465332031,-0.532226563,-0.814453125, 
681474511,-1.91943264,8.533067703,-136.8839874,-0.830603957,-0.334498644,7.521034241,3.34228611,1.101732254,-1.065193534,-0.46484375,-0.530761719,-0.809570313, 
681482844,-1.937427521,8.603416443,-136.8772278,-0.760881186,-0.089864463,3.951143742,-0.76509726,7.217336178,0.410609007,-0.464355469,-0.526855469,-0.813964844, 
681491177,-1.975408554,8.717012405,-136.8771973,-2.00355649,-0.654842079,8.98029995,-3.101525784,12.4165144,0.179158792,-0.458496094,-0.526367188,-0.810546875, 
681499510,-1.974178076,8.730681419,-136.8914795,-0.443412781,-0.97402209,12.04276371,1.821645856,0.50704658,-1.931953788,-0.460449219,-0.529296875,-0.816894531, 
681507843,-1.986069679,8.77136898,-136.8870392,-1.58251214,-1.062871695,8.459769249,-0.093722492,3.670378923,0.401490331,-0.461914063,-0.52734375,-0.815429688, 
681516176,-1.97183919,8.817670822,-136.8947906,-0.686553359,0.995136499,7.098234653,3.30793786,4.37938118,-1.007792234,-0.458984375,-0.528320313,-0.818847656, 
681524509,-1.995593429,8.821546555,-136.885437,-1.107597232,-0.593072355,10.5151968,-1.609086275,-0.764380038,0.831220329,-0.459960938,-0.525878906,-0.817871094, 
681532842,-2.049425602,8.878904343,-136.8904572,-1.950080156,-2.272981167,6.872524261,-4.910326004,5.695133209,-0.642200112,-0.461425781,-0.5234375,-0.819335938, 
681541175,-2.072818041,8.855933189,-136.8850861,-1.355617523,0.687207103,9.682847023,-1.446384788,-3.983346701,0.251160383,-0.458984375,-0.524414063,-0.825195313, 
681549508,-2.081897974,8.900982857,-136.8889008,-0.607020557,-0.416985542,9.595843315,0.3961882,4.226874352,-0.552140474,-0.451660156,-0.52734375,-0.814453125, 
681557841,-2.110997915,8.854552269,-136.8796844,-1.113433361,-0.57756716,7.88627243,-2.24962163,-6.799324989,0.594621718,-0.449707031,-0.526367188,-0.818847656, 
681566174,-2.197376728,8.887019157,-136.9033661,-1.06761992,-0.845422328,7.569945812,-8.469297409,2.795499563,-2.945996046,-0.452636719,-0.520996094,-0.818847656, 
681574507,-2.21570158,8.848011017,-136.8873138,-2.555691719,-0.628576934,11.8108263,-1.080357432,-5.94186306,1.424804926,-0.453125,-0.52734375,-0.817382813, 
681582840,-2.262946129,8.843178749,-136.8961182,0.639379919,-0.384049863,10.19682312,-4.047228336,-1.741742373,-1.352354884,-0.456054688,-0.52734375,-0.812011719, 
681591173,-2.319396257,8.760224342,-136.8971558,-1.707872272,-0.326585948,5.304759026,-5.296281338,-11.14439583,-0.80779618,-0.453125,-0.527832031,-0.806640625, 
681599506,-2.404666424,8.728084564,-136.8936768,-0.779890418,-0.916249812,10.58839607,-8.881276131,-5.062731266,-0.039599612,-0.450683594,-0.522460938,-0.819824219, 
681607839,-2.430501223,8.686020851,-136.8871307,-2.740747452,0.466616035,8.537740707,-1.804804325,-6.265804768,0.266759425,-0.453125,-0.522460938,-0.818847656, 
681616172,-2.472736597,8.633719444,-136.8935852,-0.045235064,0.136071429,10.30450344,-3.490759134,-7.439858913,-1.322975159,-0.454589844,-0.520019531,-0.816894531, 
681624505,-2.539774656,8.604849815,-136.8840179,-2.892156363,-2.011821032,7.695725441,-6.803832054,-4.702260971,0.689599216,-0.456054688,-0.520019531,-0.81640625, 
681632838,-2.588283062,8.511394501,-136.8869934,0.596292555,0.32422778,12.46508026,-4.309390545,-12.38904285,-1.141882658,-0.459472656,-0.522949219,-0.813964844, 
681641171,-2.621614695,8.497968674,-136.8849945,-2.707115412,0.047705416,7.469695091,-2.575331926,-2.820306301,-0.130273998,-0.458496094,-0.51953125,-0.814453125, 
681649504,-2.668910027,8.437759399,-136.8805542,-0.621021152,-0.191781834,6.112184525,-4.340178967,-8.432822227,-0.101867832,-0.461425781,-0.518066406,-0.8203125, 
681657837,-2.755201578,8.409832954,-136.8841705,-1.556883812,-0.834867716,11.30736065,-8.877151489,-4.519580841,-0.879464805,-0.463867188,-0.516113281,-0.818359375, 
681666170,-2.778167963,8.321109772,-136.8728333,-1.352999687,-0.425642431,11.59801102,-1.492362261,-11.90006733,0.50965935,-0.466796875,-0.516113281,-0.812988281, 
681674503,-2.841680288,8.327782631,-136.8753815,-2.49029088,-0.600876272,7.52016449,-6.161709785,-0.375965774,-0.558313549,-0.461914063,-0.516601563,-0.8203125, 
681682836,-2.886474371,8.294768333,-136.8829956,-0.982828915,0.146928206,5.747461796,-3.782146931,-5.112601757,-1.415212154,-0.466308594,-0.516113281,-0.821777344, 
681691169,-2.909983873,8.277164459,-136.875824,-1.490862012,0.831406295,12.72591114,-1.487264872,-3.356463909,0.463041306,-0.466308594,-0.513183594,-0.817871094, 
681699502,-2.933588266,8.279761314,-136.8721466,-1.529538751,-1.107208014,9.274842262,-1.482808113,-0.902696788,0.159000382,-0.463378906,-0.521484375,-0.822753906, 
681707835,-2.95959878,8.240866661,-136.8828735,-2.079500437,0.434806973,9.115077972,-1.522074699,-5.787460327,-1.806008577,-0.459960938,-0.512695313,-0.823730469, 
681716168,-2.988496065,8.250341415,-136.8725891,-0.918097854,-0.944097817,9.720333099,-2.132641315,-0.110269278,0.611834407,-0.45703125,-0.519042969,-0.812988281, 
681724501,-2.974247456,8.234414101,-136.869278,-1.820473194,0.855377436,7.725783348,3.065678358,-3.122093916,0.001652118,-0.454589844,-0.524414063,-0.818359375, 
681732834,-3.004128218,8.242472649,-136.8731079,-0.505665243,-0.06243794,8.66745472,-2.066915035,-0.213084817,-0.675549805,-0.460449219,-0.515136719,-0.828613281, 
681741167,-3.011780024,8.235121727,-136.8700562,-2.263635874,-1.37813282,9.911802292,0.44416368,-2.091658831,0.020811569,-0.459472656,-0.513671875,-0.811035156, 
681749500,-3.028894424,8.191084862,-136.8641357,0.677410185,-0.247842699,11.9227314,-0.655775666,-6.500841618,-0.18503724,-0.456054688,-0.520019531,-0.809082031, 
681757833,-3.035228014,8.181005478,-136.866394,-3.302623034,-0.255615771,6.425029755,0.691597223,-2.385197639,-0.625935137,-0.4609375,-0.510253906,-0.818847656, 
681766166,-3.047473669,8.126507759,-136.8567963,-0.337929547,0.204792112,9.684790611,-0.178633675,-7.791031361,0.497031391,-0.462890625,-0.514648438,-0.813964844, 
681774499,-3.055948973,8.132078171,-136.8585815,-1.438436627,-0.113458693,7.214493752,0.428359628,-0.513001859,-0.470712781,-0.459960938,-0.520019531,-0.817871094, 
681782832,-3.04276967,8.074295998,-136.8524933,-1.395995617,0.710179031,11.87110901,2.932304621,-8.165586472,0.060308717,-0.462890625,-0.515136719,-0.820800781, 
681791165,-3.057516098,8.088445663,-136.845108,-2.080246925,-1.026890755,11.37128925,-0.442460269,0.447391033,0.665752351,-0.460449219,-0.514160156,-0.810058594, 
681799498,-3.033738613,8.039443016,-136.856842,-1.488866091,0.02239126,7.944854736,4.465111256,-6.990252495,-1.998960495,-0.46484375,-0.517578125,-0.823730469, 
681807831,-3.014661789,8.008499146,-136.8436584,0.063017756,0.636330485,10.02749443,3.48149991,-4.981533527,1.073838353,-0.470703125,-0.514160156,-0.816894531, 
681816164,-2.982865095,7.988768578,-136.8427277,-2.249655247,0.239952251,9.759297371,5.292579651,-3.558227062,-0.60623759,-0.467285156,-0.518066406,-0.815917969, 
681824497,-2.911154985,7.93907547,-136.8406219,-0.971969366,0.776252866,10.27256012,9.985722542,-7.160485744,-0.349557459,-0.46484375,-0.519042969,-0.81640625, 
681832830,-2.850734234,7.92684269,-136.8537445,-1.44361186,-0.359543383,8.53207016,8.914305687,-2.590111732,-1.928598523,-0.471191406,-0.517578125,-0.81640625, 
681841163,-2.774819613,7.897461891,-136.8365326,-1.955785871,0.266502231,10.29079342,10.27854443,-4.82118845,1.525801778,-0.458007813,-0.520507813,-0.812988281, 
681849496,-2.70657444,7.854787827,-136.8621063,-1.978939056,-0.598535359,12.23647404,10.02411842,-6.162246704,-3.575926781,-0.461425781,-0.520019531,-0.822265625, 
681857829,-2.574734211,7.864022732,-136.8553162,-1.459264874,-0.140403062,6.454332352,17.12423325,-0.121565178,0.563039422,-0.466796875,-0.521484375,-0.812011719, 
681866162,-2.476769924,7.85053587,-136.8621826,-1.496356487,0.870557964,7.853467464,13.31275558,-2.784395695,-1.174207807,-0.458007813,-0.52734375,-0.810058594, 
681874495,-2.388196707,7.880441666,-136.8631897,-1.869748235,-1.30482769,12.08983421,12.0585804,2.400374174,-0.261828691,-0.459960938,-0.524902344,-0.810058594, 
681882828,-2.256775141,7.849543095,-136.8762054,-1.960235,-0.570466161,10.62997723,17.43216896,-4.846035004,-2.021962643,-0.462890625,-0.52734375,-0.808105469, 
681891161,-2.174839973,7.86882019,-136.8772888,0.253319085,0.096467286,7.185224533,11.29348373,1.109672904,-0.328451365,-0.462402344,-0.527832031,-0.80078125, 
681899494,-2.093730688,7.872785091,-136.9020233,-2.198584557,-0.031904567,7.769775391,11.55282879,-0.605879247,-3.212563753,-0.465820313,-0.532226563,-0.803222656, 
681907827,-2.016667604,7.896318436,-136.8979797,-0.944778919,0.18285349,10.81260204,10.5959053,1.613402486,0.286610544,-0.463867188,-0.534667969,-0.805664063, 
681916160,-1.954741001,7.887355804,-136.9246674,-1.548777342,-2.236812592,10.700634,9.314220428,-2.169833183,-3.506793976,-0.462402344,-0.530273438,-0.812988281, 
681924493,-1.847670555,7.880164146,-136.9147949,-1.934736252,0.182515025,8.811592102,14.09965134,-2.092811108,0.849918842,-0.464355469,-0.534667969,-0.809082031, 
681932826,-1.78979373,7.894590378,-136.9312286,-1.506687164,0.596871257,6.606433392,8.656266212,0.586168885,-2.157281876,-0.471679688,-0.532226563,-0.810058594, 
681941159,-1.744052529,7.94973135,-136.9354248,-0.587122858,-0.314031154,8.054088593,6.972437859,5.438503742,-0.589998305,-0.466796875,-0.531738281,-0.810058594, 
681949492,-1.678593397,7.914946079,-136.918808,-1.867298961,-1.154598713,12.00243473,9.065917015,-5.429629326,1.238205194,-0.466796875,-0.53515625,-0.802734375, 
681957825,-1.624287724,7.95287323,-136.9277191,-1.693092585,-0.745133281,10.37451363,8.078972816,3.389441967,-1.222080708,-0.471679688,-0.538574219,-0.804199219, 
681966158,-1.546976686,7.983240604,-136.9302063,-2.112975359,0.845936954,6.349613667,10.7597599,2.444763899,-0.471148282,-0.465820313,-0.536132813,-0.803710938, 
681974491,-1.519561648,8.020754814,-136.9246063,0.686200023,0.2259482,8.836043358,4.610139847,3.291569948,0.490269274,-0.467285156,-0.541503906,-0.805175781, 
681982824,-1.519258261,8.016242981,-136.9310608,-2.719510555,-1.913342357,12.57607841,1.59127152,-1.72844851,-1.098338366,-0.462890625,-0.541992188,-0.806640625, 
681991157,-1.456793785,8.051967621,-136.9414978,-1.214661479,0.31475988,8.089616776,9.11463356,3.111706972,-1.427097321,-0.465332031,-0.543945313,-0.798339844, 
681999490,-1.405947447,8.05919838,-136.9384155,-1.229078293,0.038119979,7.665762424,7.464104176,-0.333471775,0.092992477,-0.464355469,-0.541015625,-0.807128906, 
682007823,-1.377674818,8.111053467,-136.9500122,-1.320377588,-0.630104244,8.688258171,5.003471851,5.063716412,-1.520998716,-0.458496094,-0.543945313,-0.807128906, 
682016156,-1.358455539,8.122677803,-136.9424133,-2.64577651,-0.58596307,9.544755936,3.620353699,0.166607767,0.636449635,-0.460449219,-0.545898438,-0.803222656, 
682024489,-1.337776899,8.151925087,-136.9537354,0.30077523,-0.492892861,10.23725319,4.088659763,2.349273682,-1.558088422,-0.461425781,-0.541015625,-0.8046875, 
682032822,-1.2634269,8.187456131,-136.9307709,-2.635452986,0.353733718,9.408332825,9.964078903,2.989809036,2.599575996,-0.458496094,-0.543945313,-0.814453125, 
682041155,-1.230330586,8.208568573,-136.930481,-0.228452235,0.125429869,8.292570114,5.38107729,1.340738773,-0.206476361,-0.4609375,-0.541503906,-0.809082031, 
682049488,-1.241986156,8.261930466,-136.9222717,-2.269359827,-1.25733757,7.820511818,-0.059476253,5.180798531,0.558684886,-0.4609375,-0.541503906,-0.812011719, 
682057821,-1.198043823,8.323485374,-136.9076996,-2.166644812,0.11693915,9.833674431,6.435436726,6.157086372,1.592834234,-0.461425781,-0.541992188,-0.814941406, 
682066154,-1.143039942,8.337315559,-136.8980713,-0.049912076,-0.513313711,11.34373379,7.92398262,0.434353471,0.556763887,-0.46484375,-0.542480469,-0.808105469, 
682074487,-1.104935884,8.375130653,-136.8964386,-1.296474814,-0.888376355,6.49425602,5.957268715,3.341901779,-0.010809206,-0.462402344,-0.543945313,-0.807617188, 
682082820,-1.104501843,8.414670944,-136.864502,-1.585760355,0.551052392,6.820569992,0.982241929,3.470127106,3.28501296,-0.457519531,-0.542480469,-0.811035156, 
682091153,-1.119188786,8.490889549,-136.8807983,-0.956272304,-1.098013639,12.29016018,-0.060859419,7.991474152,-2.051648855,-0.463378906,-0.541503906,-0.810546875, 
682099486,-1.08526504,8.485234261,-136.8547974,-1.105766177,-1.700607657,10.51598644,5.096169949,-1.940611482,2.484721661,-0.460449219,-0.543457031,-0.807617188, 
682107819,-1.098296404,8.497888565,-136.855484,-0.230993912,0.178370446,6.618782997,-0.13580665,0.32833603,-0.348712176,-0.459472656,-0.537109375,-0.810546875, 
682116152,-1.118269086,8.539745331,-136.8398895,-2.045926332,0.313951194,6.88647747,-1.227664709,3.780622959,1.649876952,-0.459960938,-0.538574219,-0.809082031, 
682124485,-1.136802912,8.572458267,-136.8321838,-1.47801125,-0.616594553,11.06489658,-0.947931468,2.716197252,0.696489453,-0.4609375,-0.543457031,-0.810546875, 
682132818,-1.162863255,8.586961746,-136.8251953,-0.425402254,-1.38001287,10.56916332,-1.797632575,0.518342435,0.511810839,-0.451171875,-0.539550781,-0.814453125, 
682141151,-1.14823854,8.58642292,-136.820694,-2.442129135,0.85165292,7.840258598,3.114831924,-1.281838775,0.290298939,-0.458496094,-0.53515625,-0.809570313, 
682149484,-1.170778751,8.628052711,-136.8050842,0.413318455,-0.064490587,8.549935341,-1.570869923,3.766509533,1.658227205,-0.462890625,-0.538574219,-0.810058594, 
682157817,-1.197378755,8.63607502,-136.8181763,-2.012713671,-0.772985816,8.81500721,-1.542335749,-0.197229609,-1.82696104,-0.457519531,-0.540039063,-0.814453125, 
682166150,-1.218074918,8.617243767,-136.7867584,-0.341667771,-0.602488875,12.27750969,-1.595843673,-3.540117502,3.33503747,-0.454101563,-0.541992188,-0.795410156, 
682174483,-1.214559436,8.642730713,-136.7996063,-2.674145937,-0.82633841,6.991215706,2.067234993,1.900204778,-1.753268719,-0.458984375,-0.540039063,-0.802734375, 
682182816,-1.206609488,8.629800797,-136.7892914,0.21846284,1.25884068,7.158718109,2.2099576,-2.781782389,0.932831943,-0.455078125,-0.541015625,-0.802734375, 
682191149,-1.262251019,8.649151802,-136.7913208,-1.625449777,-1.033644557,10.45674706,-5.195002556,1.124887586,-0.483673602,-0.451171875,-0.544433594,-0.795898438, 
682199482,-1.265527248,8.600759506,-136.7861176,-1.171873331,-1.115800619,10.74535084,0.927324891,-7.01158905,0.194680989,-0.455566406,-0.539550781,-0.798339844, 
682207815,-1.253940821,8.621609688,-136.7964172,-1.284482837,0.369819909,10.97805595,2.990295649,1.338561654,-1.463085294,-0.457519531,-0.540039063,-0.802734375, 
682216148,-1.25388515,8.594842911,-136.7971344,-0.507235527,0.228917256,5.712819099,1.46304667,-4.413819313,-0.414438367,-0.456054688,-0.541503906,-0.805664063, 
682224481,-1.295860052,8.545145988,-136.8010864,-0.111172937,-0.604743659,11.42560577,-3.551875353,-7.142505169,-0.896703303,-0.44921875,-0.543945313,-0.810058594, 
682232814,-1.311976314,8.516084671,-136.8033142,-3.002575636,-1.396716833,9.202524185,-0.448530883,-4.68292284,-0.634695172,-0.457519531,-0.539550781,-0.80078125, 
682241147,-1.288292289,8.495326996,-136.8021698,-1.00154233,0.903994679,7.868730545,4.270956039,-3.693009138,-0.214647278,-0.462402344,-0.534667969,-0.807617188, 
682249480,-1.30992949,8.468413353,-136.8049622,-0.865236878,-0.497123003,6.917093754,-1.133404374,-4.413921833,-0.697629392,-0.452148438,-0.53515625,-0.814453125, 
682257813,-1.337645531,8.426591873,-136.7739868,-1.232191324,-0.989833295,10.28541183,-2.456891537,-6.293391705,3.262753963,-0.452636719,-0.540039063,-0.805175781, 
682266146,-1.382660031,8.373346329,-136.7883606,-1.499281883,-0.977545977,11.82114983,-3.69887495,-7.547798157,-2.174059391,-0.464355469,-0.538574219,-0.801269531, 
682274479,-1.38141489,8.38274765,-136.7686615,-1.383549213,-0.388351262,7.076367378,1.219685793,-0.120053932,2.071230888,-0.461914063,-0.530761719,-0.808105469, 
682282812,-1.416468501,8.317998886,-136.7674866,0.255478978,0.101066083,9.951340675,-2.782731056,-8.972667694,-0.318051994,-0.45703125,-0.536132813,-0.80078125, 
682291145,-1.481340647,8.292722702,-136.77005,-2.123732567,-0.882368624,8.266454697,-6.290523052,-4.222763062,-0.676215827,-0.459472656,-0.537109375,-0.800292969, 
682299478,-1.521039009,8.249113083,-136.7741089,-2.074345589,0.401771516,8.219599724,-3.279646635,-6.408886909,-0.914940536,-0.455566406,-0.536132813,-0.801757813, 
682307811,-1.549935102,8.228282928,-136.7878113,0.462460548,-0.302039027,8.518744469,-1.817560554,-3.647134542,-1.987459779,-0.458984375,-0.534179688,-0.797851563, 
682316144,-1.544246912,8.152812004,-136.7894745,-2.120664358,-0.244362831,9.853183746,2.159292936,-10.24915314,-0.731670678,-0.457519531,-0.5390625,-0.799804688, 
682324477,-1.59642446,8.133702278,-136.7975769,-1.042419434,-0.573835909,9.986088753,-4.710637093,-3.457767963,-1.317365766,-0.461425781,-0.539550781,-0.809082031, 
682332810,-1.63763082,8.089845657,-136.8226624,-2.140988588,-1.016073465,6.214910984,-3.073247671,-6.375768661,-3.405003548,-0.459960938,-0.537109375,-0.799316406, 
682341143,-1.655638099,8.031912804,-136.8097534,1.109622955,-0.076261945,12.10781956,-0.924596965,-8.193224907,1.023045301,-0.459960938,-0.534667969,-0.807128906, 
682349476,-1.698260188,7.961122513,-136.8175812,-2.165367365,-0.841841102,10.35537624,-3.569523335,-9.656233788,-1.474253058,-0.466308594,-0.529296875,-0.812011719, 
682357809,-1.737124205,7.873248577,-136.8196716,-0.328467548,-0.083179817,7.629482746,-3.216046572,-11.72476196,-0.858922124,-0.467773438,-0.533691406,-0.795898438, 
682366142,-1.827721715,7.846335411,-136.8192444,-2.826886892,-0.689284861,7.915126324,-9.430316925,-4.427216053,-0.324916601,-0.461425781,-0.534179688,-0.8046875, 
682374475,-1.846609592,7.774806023,-136.8193665,-1.72723794,-0.827014208,10.39175797,-0.850341439,-9.77067852,-0.582314014,-0.460449219,-0.536132813,-0.807617188, 
682382808,-1.870405436,7.732923508,-136.8183289,-1.51233542,0.740634561,10.82677174,-1.423280716,-6.226590633,-0.32458359,-0.46484375,-0.529785156,-0.808105469, 
682391141,-1.920194745,7.726717472,-136.8155823,-1.248868942,-0.634922504,7.037995338,-4.571424007,-1.955006361,0.020145597,-0.464355469,-0.526367188,-0.812011719, 
682399474,-1.969041348,7.669050217,-136.8156128,-2.181741953,-0.612848222,10.57996655,-4.446042538,-8.107444763,-0.535414398,-0.465820313,-0.53515625,-0.802734375, 
682407807,-1.987973094,7.708450794,-136.8167572,-1.591489911,-0.55640167,10.62262726,-0.840172529,3.540002346,-0.265696436,-0.462890625,-0.531738281,-0.809082031, 
682416140,-1.984594703,7.713234425,-136.8180847,-2.229038239,0.813585639,6.318435669,1.876050472,-0.622169733,-0.423608214,-0.463378906,-0.52734375,-0.818359375, 
682424473,-2.025797367,7.736840725,-136.8140106,0.209643334,-0.133270159,9.115673065,-3.595777512,1.622597694,0.288659632,-0.469238281,-0.527832031,-0.813476563, 
682432806,-2.050486088,7.757711887,-136.8023376,-2.818897963,-1.330448866,11.02626324,-1.667793989,1.260514855,0.927324891,-0.465332031,-0.52734375,-0.808105469, 
682441139,-2.056203842,7.762144566,-136.807785,-1.269314885,0.332378298,8.347017288,0.850994527,-0.647450984,-0.915170968,-0.469726563,-0.532226563,-0.805175781, 
682449472,-2.066408873,7.8504529,-136.8208923,-1.373376966,-0.572880447,5.657367706,0.403565139,9.454611778,-1.468771696,-0.471191406,-0.526367188,-0.823242188, 
682457805,-2.080796242,7.886252403,-136.8173676,-1.704010606,0.0382591,10.53814316,-0.369254798,3.087475777,0.277645499,-0.472167969,-0.524414063,-0.809570313, 
682466138,-2.102434397,7.937479019,-136.8357239,-1.299891353,-0.938157022,12.70146561,-0.795808792,5.033005714,-2.602201462,-0.469726563,-0.5234375,-0.816894531, 
682474471,-2.072793484,7.968714237,-136.8449249,-2.115889549,-0.151209399,6.619764805,5.124217033,2.594248056,-1.249769688,-0.472167969,-0.526367188,-0.814453125, 
682482804,-2.094033957,8.059891701,-136.8408508,-0.240399718,0.211491898,6.188904285,-1.112912893,9.728939056,0.191940263,-0.470703125,-0.527832031,-0.80859375, 
682491137,-2.111676216,8.112272263,-136.8435364,-2.150831699,-0.976085544,10.2569685,-0.619019151,5.089765549,-0.406625956,-0.466796875,-0.527832031,-0.817382813, 
682499470,-2.125209093,8.164550781,-136.8299255,-0.347148478,-1.338480949,13.25563431,-0.441307634,5.019685745,1.554182053,-0.470214844,-0.528320313,-0.823242188, 
682507803,-2.158593655,8.216435432,-136.8362274,-2.285522938,-1.229405642,3.523126364,-2.484324694,5.058106899,-0.811484575,-0.470214844,-0.524414063,-0.819335938, 
682516136,-2.226582527,8.222540855,-136.8190308,0.437015027,0.752832949,10.42254353,-6.954981804,-0.534953237,1.431054354,-0.466796875,-0.523925781,-0.815429688, 
682524469,-2.264574528,8.250855446,-136.8161621,-2.378106356,-1.032916546,9.45549202,-3.19286561,2.191336155,0.178876996,-0.465332031,-0.532226563,-0.814941406, 
682532802,-2.308867455,8.242938042,-136.8012238,0.302212775,-0.110349998,9.437856674,-4.122713566,-2.223034143,1.441812515,-0.465820313,-0.520996094,-0.817382813, 
682541135,-2.397943735,8.233809471,-136.8163757,-2.744766712,-0.895939827,7.683488369,-8.978047371,-2.22252202,-2.141350269,-0.459472656,-0.524414063,-0.814453125, 
682549468,-2.458240509,8.15894413,-136.7973785,0.650346696,-0.189736396,14.63855553,-6.145086288,-10.26216507,1.577593684,-0.458984375,-0.526855469,-0.803222656, 
682557801,-2.532121658,8.143001556,-136.811142,-2.675318003,-0.263133973,4.946529865,-7.218502522,-3.031470776,-2.010154247,-0.4609375,-0.522949219,-0.8125, 
682566134,-2.616452217,8.026402473,-136.806488,0.693573356,0.645462692,8.879562378,-8.744674683,-15.20202541,-0.397814751,-0.462402344,-0.523925781,-0.802734375, 
682574467,-2.699071169,7.98967886,-136.8087463,-2.837556124,-0.362972528,10.48565865,-8.462406158,-5.580497742,-0.766096234,-0.4609375,-0.522460938,-0.808105469, 
682582800,-2.746861458,7.871412277,-136.7871704,0.073527791,0.114247218,11.27791977,-4.648062229,-15.50061035,1.631025195,-0.46484375,-0.517578125,-0.809570313, 
682591133,-2.826801777,7.801198959,-136.7937469,-3.150019646,-0.508258462,8.785998344,-8.0394907,-9.576601028,-1.475047231,-0.462890625,-0.520996094,-0.817382813, 
682599466,-2.85391593,7.678700447,-136.7816772,-0.197263211,0.425231963,9.375167847,-2.034872055,-15.94363403,0.41142869,-0.470214844,-0.518554688,-0.801269531, 
682607799,-2.904489994,7.600313663,-136.7772522,-1.520133257,0.075900301,9.518258095,-4.725365639,-10.61289978,-0.24292542,-0.463867188,-0.515625,-0.819824219, 
682616132,-2.923065186,7.50317955,-136.7798309,-1.581356287,0.490979254,9.724268913,-0.746398866,-12.82807159,-1.154741168,-0.469726563,-0.520019531,-0.813476563, 
682624465,-2.909250259,7.40111351,-136.7878113,-2.527520657,0.38102594,9.066981316,3.196875095,-13.37629414,-1.869122505,-0.472167969,-0.512207031,-0.811035156, 
682632798,-2.915652514,7.359547615,-136.793808,-0.264185905,0.204559609,7.104416847,0.767697036,-6.146033287,-1.265189528,-0.467285156,-0.51953125,-0.8203125, 
682641131,-2.869515419,7.262289047,-136.8111725,-3.567295551,0.905083299,12.30531311,7.217389107,-12.74418736,-2.945586681,-0.476074219,-0.520507813,-0.809570313, 
682649464,-2.786780119,7.188283443,-136.8167725,-0.20813328,0.524856448,12.47512531,11.47993088,-10.02971745,-1.60324645,-0.471191406,-0.517089844,-0.811035156, 
682657797,-2.676234722,7.188660622,-136.8360596,-3.503598213,0.042689882,6.573863506,14.97043419,-1.036454558,-2.585398912,-0.477539063,-0.5234375,-0.807617188, 
682666130,-2.577883959,7.132591724,-136.8440552,-0.772521317,1.225803256,9.70300293,13.35696983,-7.881630421,-1.524764776,-0.477539063,-0.5234375,-0.808105469, 
682674463,-2.46528554,7.199513912,-136.8635254,-4.358794689,-0.910785675,14.10527039,15.21822643,6.933480263,-2.256844997,-0.478027344,-0.524902344,-0.811523438, 
682682796,-2.287457705,7.235090733,-136.8764343,-1.066959023,0.337941587,6.853202343,22.97271538,3.125847578,-1.668358326,-0.474121094,-0.522949219,-0.810058594, 
682691129,-2.151552439,7.312736034,-136.894928,-2.124346018,0.947729051,7.860909939,18.03320694,8.188885689,-2.202209949,-0.4765625,-0.534179688,-0.803710938, 
682699462,-2.024642944,7.407959938,-136.8977356,-1.791423798,-1.811134577,13.18646717,16.68853951,10.24120331,-0.212700695,-0.474609375,-0.527832031,-0.8125, 
682707795,-1.839218616,7.482912064,-136.9281769,-0.922341526,0.32604593,10.81242371,24.13790512,7.920348167,-3.610456467,-0.471679688,-0.53125,-0.811035156, 
682716128,-1.680227757,7.536482811,-136.9283752,-0.761099219,0.477719694,8.496658325,20.5538559,5.224345207,-0.386954397,-0.471191406,-0.537597656,-0.793457031, 
682724461,-1.548931718,7.673044205,-136.9412384,-2.187865019,-1.062979221,5.777727127,17.37415886,15.23306179,-1.363728166,-0.468261719,-0.540527344,-0.797851563, 
682732794,-1.413371325,7.752338409,-136.9615021,-2.671682835,-0.001415703,10.17189693,18.02508926,8.364984512,-2.437681913,-0.467285156,-0.542480469,-0.803222656, 
682741127,-1.269540906,7.903946877,-136.9611511,-0.445448667,-0.522417426,11.55752182,18.68732262,16.97442055,0.180670083,-0.46484375,-0.542480469,-0.798828125, 
682749460,-1.112960696,7.957163811,-136.9697723,-1.999472618,-0.635857165,9.321548462,20.34766197,5.215713024,-1.187066555,-0.464355469,-0.544433594,-0.810546875, 
682757793,-1.007654667,8.092126846,-136.9761505,-0.430847168,-0.300240785,6.338224888,14.1581831,15.01556873,-0.752239108,-0.461425781,-0.544921875,-0.809082031, 
682766126,-0.929935277,8.229500771,-136.9822388,-1.185798168,-1.072571874,9.062356949,10.90548229,15.28779602,-1.009047508,-0.465332031,-0.549804688,-0.798828125, 
682774459,-0.834937513,8.243852615,-136.9831543,0.691210508,-1.360491395,12.64505863,12.82826328,0.532686532,-0.377912492,-0.4609375,-0.552734375,-0.803222656, 
682782792,-0.76834017,8.318310738,-136.997757,-3.219744682,-1.529808044,8.050162315,9.681657791,7.74811554,-1.90767169,-0.459960938,-0.5546875,-0.789550781, 
682791125,-0.695915818,8.384801865,-136.9986572,0.203592241,0.842189014,5.143248558,10.14867973,6.768420219,-0.307114691,-0.465332031,-0.545898438,-0.795410156, 
682799458,-0.706645846,8.384249687,-137.0150146,-0.585942388,-0.925142169,8.806190491,0.413400978,-1.233504772,-2.237838984,-0.459960938,-0.55078125,-0.802734375, 
682807791,-0.743310809,8.435658455,-137.0079193,-1.425171375,-2.618896246,10.66791153,-3.112129688,4.967304707,0.626690745,-0.459472656,-0.551269531,-0.802734375, 
682816124,-0.728330314,8.440647125,-137.0385132,-2.381362438,-0.128187761,10.64257431,3.781672955,-0.562744796,-3.94574523,-0.459472656,-0.543945313,-0.808105469, 
682824457,-0.751053512,8.447184563,-137.0324402,1.34498477,0.272430331,11.26981926,-1.419233441,-0.416846037,0.437350243,-0.453125,-0.551269531,-0.8046875, 
682832790,-0.793871939,8.438753128,-137.0480957,-3.563764811,-0.717049241,4.185181618,-3.375674725,-2.190913677,-2.467316866,-0.454101563,-0.552734375,-0.796875, 
682841123,-0.849947989,8.444242477,-137.0482178,0.485020071,0.333890647,8.583786011,-5.290902138,-0.551935554,-0.247023672,-0.452636719,-0.546386719,-0.800292969, 
682849456,-0.917439044,8.402499199,-137.0396118,-1.159481645,-1.760053039,12.73189926,-6.837669373,-6.215576649,0.649359405,-0.450195313,-0.552734375,-0.795898438, 
682857789,-0.957537651,8.338715553,-137.0142975,-0.603303194,-1.128779888,9.561597824,-3.839548111,-8.893544197,2.586384773,-0.451660156,-0.549316406,-0.802734375, 
682866122,-1.016777396,8.273736954,-137.0102844,-2.036791086,0.639086604,6.222446918,-5.738716125,-9.011062622,0.081184328,-0.452148438,-0.544433594,-0.796875, 
682874455,-1.135077596,8.232093811,-136.9795074,1.538828969,0.077814899,8.747379303,-13.31310272,-6.257302284,3.266391754,-0.452148438,-0.55078125,-0.797851563, 
682882788,-1.237449765,8.103742599,-136.9730835,-2.302649498,-1.799119592,11.19806957,-10.95498085,-16.62116051,0.183974296,-0.456054688,-0.548828125,-0.801757813, 
682891121,-1.325123787,7.96810627,-136.9515076,-0.87907058,-0.121859744,10.12196732,-9.442050934,-17.53394699,1.938652515,-0.458496094,-0.539550781,-0.802734375, 
682899454,-1.409042597,7.881795883,-136.9469604,-1.234242439,0.085058264,7.522291183,-8.731510162,-11.55903816,-0.001460011,-0.456542969,-0.541015625,-0.806640625, 
682907787,-1.466996789,7.779154301,-136.9365845,-2.029457331,0.621034622,9.001344681,-5.70966959,-13.5366106,0.628893495,-0.463867188,-0.539550781,-0.807128906, 
682916120,-1.542383075,7.688904762,-136.9233856,-1.872959137,0.456875861,10.11675167,-7.819949627,-12.07068253,1.035878181,-0.465332031,-0.539550781,-0.795898438, 
682924453,-1.635422111,7.592316151,-136.930603,-1.155026197,-0.882746279,10.76990128,-9.63620472,-12.75373936,-1.472767472,-0.466308594,-0.537109375,-0.795410156, 
682932786,-1.654621959,7.535036564,-136.9084778,-2.53857255,-0.545171022,9.711205482,-1.206789136,-8.150373459,2.110472202,-0.461914063,-0.542480469,-0.801269531, 
682941119,-1.630811214,7.469398499,-136.9144287,-1.077120304,1.690716386,8.153425217,4.393827438,-9.060087204,-1.224821568,-0.465332031,-0.537109375,-0.806640625, 
682949452,-1.655397058,7.397181034,-136.8943634,-1.066242933,0.731377542,8.82514286,-1.847068191,-9.923212051,1.844212174,-0.465820313,-0.535644531,-0.807128906, 
682957785,-1.718321681,7.402004242,-136.906311,-2.572383165,-1.20124054,9.962108612,-5.951826572,-0.570403397,-1.698761821,-0.468261719,-0.53125,-0.798339844, 
682966118,-1.717993498,7.39934206,-136.9187775,-1.783686519,0.149951935,8.95079422,1.670009732,-1.481604338,-1.775425196,-0.467773438,-0.536621094,-0.799804688, 
682974451,-1.64448607,7.405601025,-136.9043579,-2.882869482,0.342236698,9.718599319,10.01231098,-0.489744246,1.442811608,-0.466308594,-0.541015625,-0.810058594, 
682982784,-1.573521972,7.403197765,-136.921051,-1.179185748,0.200847954,9.604322433,10.21466255,-1.440775156,-2.282920122,-0.467773438,-0.53125,-0.809082031, 
682991117,-1.512915969,7.45740366,-136.9124451,-1.575121999,-0.025818378,10.43786621,8.580602646,5.265377998,0.891695619,-0.46875,-0.538085938,-0.805664063, 
682999450,-1.422117591,7.505164623,-136.9158936,-2.055486202,0.609056473,7.613093853,12.36418343,4.549767017,-0.558800161,-0.472167969,-0.533691406,-0.809570313, 
683007783,-1.309057713,7.590548038,-136.9136505,-1.16874671,0.664541841,6.45112896,14.94641113,9.046041489,0.218681589,-0.473144531,-0.538085938,-0.812988281, 
683016116,-1.235777617,7.65740633,-136.8844757,-0.888740122,-0.57309854,11.80626297,9.808959007,6.738145351,3.037067175,-0.471191406,-0.541503906,-0.807617188, 
683024449,-1.158174515,7.764249325,-136.8975067,-3.473882914,-2.22168541,11.27194405,10.9364481,11.66056252,-1.576530814,-0.470703125,-0.540039063,-0.801269531, 
683032782,-1.01512146,7.924604893,-136.8719025,-2.819570303,-0.270385742,6.452593327,18.22595978,17.97783661,2.814839602,-0.46484375,-0.543945313,-0.798339844, 
683041115,-0.859766006,8.020187378,-136.8755951,-0.097702637,0.766256452,8.765183449,20.14274979,10.25908184,-0.538206518,-0.467285156,-0.543457031,-0.805664063, 
683049448,-0.764900088,8.152767181,-136.8470154,-1.881056905,-1.109085441,8.588040352,12.31703186,14.66903305,3.324408531,-0.465820313,-0.542480469,-0.800292969, 
683057781,-0.669020474,8.3446064,-136.8555603,-1.876471758,-0.38426134,3.863422394,13.06671333,21.84179688,-1.018704414,-0.461425781,-0.549804688,-0.8046875, 
683066114,-0.581457198,8.512247086,-136.8372345,-1.065135121,-0.499876767,12.93655205,11.63149166,18.8784523,2.059090614,-0.462890625,-0.549316406,-0.800292969, 
683074447,-0.536819041,8.677930832,-136.8310089,-1.044575691,-1.709647298,11.46929264,6.659357071,18.68419456,0.638831973,-0.45703125,-0.546875,-0.806152344, 
683082780,-0.476750612,8.863921165,-136.8438568,-1.925235152,-0.555180371,1.503380656,8.879268646,21.1156044,-1.590695977,-0.454589844,-0.551757813,-0.8046875, 
683091113,-0.450882286,9.043047905,-136.818222,-0.051885784,-1.110556364,10.91758251,4.067452908,20.25435066,2.926389456,-0.456542969,-0.55078125,-0.806152344, 
683099446,-0.440919906,9.172929764,-136.8408966,-1.538335085,-2.49775219,11.36476517,3.040244102,14.41673279,-2.861469507,-0.453125,-0.553222656,-0.805175781, 
683107779,-0.421600163,9.328125954,-136.8255005,-1.378793478,0.625318229,5.626696587,3.437008381,17.41818237,1.669779539,-0.456054688,-0.551269531,-0.798339844, 
683116112,-0.459665924,9.454917908,-136.8406982,1.712765455,-1.295236945,7.921587944,-2.823892832,14.01568794,-1.97747016,-0.452636719,-0.549316406,-0.804199219, 
683124445,-0.517527878,9.460449219,-136.8196259,-0.594385922,-0.504151285,7.927893639,-5.944833279,-0.549348414,2.205859423,-0.446289063,-0.545898438,-0.818359375, 
683132778,-0.63152647,9.615816116,-136.8334351,-2.290429831,-1.517625332,7.041224003,-11.96541214,17.44882202,-1.693178296,-0.448730469,-0.55078125,-0.817871094, 
683141111,-0.698776484,9.59910202,-136.827713,-0.446931511,-1.23219955,11.37651062,-6.770995617,-3.204673767,0.357408285,-0.449707031,-0.547363281,-0.807128906, 
683149444,-0.80424422,9.623661995,-136.8300476,-0.351224452,-1.083367109,10.48401928,-11.09736919,1.744009376,-0.892476857,-0.443847656,-0.543457031,-0.812011719, 
683157777,-0.89474833,9.602402687,-136.8161011,-0.81376642,0.462202966,5.593170166,-9.725801468,-3.765651464,1.317250609,-0.445800781,-0.551269531,-0.805175781, 
683166110,-1.034099221,9.580629349,-136.8217773,-0.09126538,-1.091034293,10.07331181,-15.15638256,-3.808889151,-1.008791327,-0.448730469,-0.543945313,-0.80859375, 
683174443,-1.1529392,9.489212036,-136.8121948,-1.284858227,-1.061086893,8.820612907,-13.03785324,-12.18246555,0.63055855,-0.437988281,-0.544433594,-0.799316406, 
683182776,-1.306498408,9.434192657,-136.8227386,-1.270587564,-0.286407441,9.583301544,-16.76672554,-7.778404713,-1.681344628,-0.440429688,-0.542480469,-0.811035156, 
683191109,-1.422470331,9.347595215,-136.8241577,-1.501891136,0.036883924,7.686927319,-12.43786621,-11.58995819,-0.695990145,-0.444335938,-0.536621094,-0.811035156, 
683199442,-1.556695104,9.259904861,-136.8263245,-0.793853223,-0.424244404,10.98332119,-14.64973354,-11.70522213,-0.825060368,-0.445800781,-0.528808594,-0.812988281, 
683207775,-1.673764586,9.132358551,-136.8294373,-0.951975167,-0.662628174,6.853809834,-12.57556915,-16.48074341,-1.093881965,-0.444824219,-0.538085938,-0.809082031, 
683216108,-1.798563004,9.012206078,-136.8339844,-1.492009521,0.41207847,12.72868824,-13.43828392,-15.59976673,-1.259144902,-0.448730469,-0.53515625,-0.806152344, 
683224441,-1.895620584,8.929376602,-136.8265533,-2.177561522,-0.618244469,8.890090942,-10.37230682,-11.15451336,0.266400874,-0.448242188,-0.527832031,-0.819824219, 
683232774,-1.980731249,8.805656433,-136.8350372,-0.700255275,0.472697437,8.608726501,-8.604899406,-16.00613594,-1.792843342,-0.453613281,-0.530273438,-0.815917969, 
683241107,-2.073643684,8.727741241,-136.8353729,-1.771593809,0.075554907,8.758732796,-9.692581177,-10.54768753,-0.648911059,-0.448730469,-0.530273438,-0.809570313, 
683249440,-2.145371437,8.594646454,-136.8163605,-0.140914917,-0.35719642,13.62347507,-7.537426472,-17.23605347,1.373602152,-0.451171875,-0.528320313,-0.816894531, 
683257773,-2.218501329,8.505452156,-136.8284607,-2.810551405,-0.604898691,8.995396614,-7.145629883,-11.83103752,-2.137636185,-0.456054688,-0.521972656,-0.814453125, 
683266106,-2.239053011,8.41765213,-136.8183441,-1.857448101,0.841958463,5.584158897,-1.197158217,-11.77663326,0.517599761,-0.455566406,-0.52734375,-0.813964844, 
683274439,-2.301104546,8.380262375,-136.8211212,-1.25608027,-0.060510941,9.867254257,-5.98261404,-5.661847115,-0.802135348,-0.45703125,-0.523925781,-0.813964844, 
683282772,-2.313104153,8.321269035,-136.8137207,-2.567700624,-0.719982862,10.0564146,-0.121232167,-8.314379692,0.322034955,-0.4609375,-0.523925781,-0.815917969, 
683291105,-2.324105978,8.25150013,-136.826889,-0.503767848,0.281177491,10.75064087,0.357741207,-9.505903244,-2.197137594,-0.457519531,-0.529785156,-0.8125, 
683299438,-2.363821268,8.25037384,-136.8272095,-1.985333562,-0.754822969,7.320770264,-3.346218109,-1.325716019,-0.338671446,-0.466308594,-0.51953125,-0.826171875, 
683307771,-2.37968874,8.179020882,-136.8478394,-1.532727599,0.29891324,11.47588062,-0.136139676,-9.645195007,-3.098733425,-0.466308594,-0.521484375,-0.821289063, 
683316104,-2.373322248,8.196084976,-136.8482361,-1.918196201,-0.152820319,10.66904449,2.267410755,0.85696274,-0.577191174,-0.467773438,-0.525878906,-0.815429688, 
683324437,-2.348589659,8.178708076,-136.8687286,-1.815326214,-0.445790589,5.792516708,4.732216835,-3.175242901,-2.812980652,-0.464355469,-0.520996094,-0.819335938, 
683332770,-2.358995914,8.167790413,-136.8631744,-0.191711694,0.592577636,11.15206718,0.151264861,-2.527049303,-0.018595936,-0.466796875,-0.522460938,-0.821289063, 
683341103,-2.354310274,8.166378021,-136.8703003,-3.038808346,-1.231562972,11.10901356,2.098638296,-1.326766133,-1.146288276,-0.463867188,-0.522460938,-0.814453125, 
683349436,-2.31345892,8.139653206,-136.8659821,-1.127103567,-0.074486844,8.252047539,6.323963165,-4.414665222,-0.247715309,-0.457519531,-0.530273438,-0.801757813, 
683357769,-2.284751892,8.179774284,-136.8778229,-1.31120944,0.082169123,4.685908318,5.061001301,3.67585969,-1.507705092,-0.462402344,-0.523925781,-0.811523438, 
683366102,-2.255958796,8.184931755,-136.8592682,-2.015892506,-0.069406636,11.63447952,4.584858418,-0.675396085,1.943544269,-0.458984375,-0.524902344,-0.809082031, 
683374435,-2.232002974,8.191757202,-136.8715515,-1.012037039,-1.710175395,13.39940548,4.499434948,-0.315823525,-1.721020579,-0.4609375,-0.528320313,-0.818847656, 
683382768,-2.172598839,8.180882454,-136.8669128,-2.396228075,0.206221789,5.961123943,8.495741844,-2.532120943,0.210254461,-0.45703125,-0.529296875,-0.804199219, 
683391101,-2.169140577,8.192318916,-136.8610992,0.211036012,-0.217456207,7.05734539,1.76042819,0.136050031,0.468266666,-0.457519531,-0.528808594,-0.810058594, 
683399434,-2.161156654,8.210390091,-136.8627167,-1.747647524,-0.377980471,10.69520569,2.400041103,0.982190728,-0.40521723,-0.463867188,-0.527832031,-0.822753906, 
683407767,-2.124820232,8.199492455,-136.853775,-1.067049503,-0.795812488,13.24951744,5.621774673,-2.536757231,0.719439924,-0.460449219,-0.523925781,-0.813476563, 
683416100,-2.120729923,8.218994141,-136.8565979,-1.614061475,-0.970879257,5.550199032,2.033885717,1.157187223,-0.874905407,-0.458496094,-0.525390625,-0.814453125, 
683424433,-2.111495733,8.204844475,-136.8475647,-1.996387482,0.527671635,7.981492043,2.367177725,-2.927040815,0.714393795,-0.469238281,-0.530761719,-0.80078125, 
683432766,-2.112513065,8.252773285,-136.854126,-1.086021781,-0.353523463,11.48730946,1.442837238,4.570027828,-0.879592896,-0.463378906,-0.527832031,-0.819335938, 
683441099,-2.061344624,8.225172043,-136.8462982,-1.139715791,-0.725924671,8.564662933,7.419944286,-4.535666466,0.513117194,-0.461914063,-0.526367188,-0.8203125, 
683449432,-2.048979521,8.21890831,-136.8491058,-0.623625875,0.107731864,9.322574615,3.021390915,-1.935129881,-0.948776901,-0.466308594,-0.524414063,-0.817382813, 
683457765,-2.040962934,8.216389656,-136.8289948,-2.638617039,-1.075741291,8.471601486,2.031068087,-1.578323603,2.083193064,-0.465332031,-0.528808594,-0.807128906, 
683466098,-2.028113604,8.215352058,-136.8519745,-1.155296564,0.162505493,11.08196259,3.43792963,-1.22013402,-3.40912652,-0.465332031,-0.532714844,-0.81640625, 
683474431,-1.999111056,8.216321945,-136.8322906,-1.018543839,-1.193742037,8.211501122,4.557476521,-1.15737915,2.045283794,-0.458984375,-0.530761719,-0.815429688, 
683482764,-1.986434579,8.177023888,-136.8313446,-0.131967291,0.279682964,10.36594009,2.996135473,-5.913379192,-0.651523709,-0.454589844,-0.52734375,-0.815917969, 
683491097,-2.004968882,8.157179832,-136.8281403,-2.30852294,-0.945261002,9.606991768,-0.836304724,-3.59785223,0.035462905,-0.459472656,-0.529785156,-0.798828125, 
683499430,-1.970542908,8.133277893,-136.8374786,-2.367540836,0.252783865,7.594280243,5.705789089,-4.019590855,-1.501865268,-0.467773438,-0.531738281,-0.8046875, 
683507763,-1.962677479,8.12518692,-136.82901,0.021285338,-0.4123227,8.575084686,2.213877201,-2.19683075,0.677176356,-0.459472656,-0.535644531,-0.810058594, 
683516096,-1.944549084,8.112844467,-136.8428955,-3.207985401,-0.639671683,10.38730049,3.853699923,-2.630581856,-1.974524498,-0.458984375,-0.530273438,-0.808105469, 
683524429,-1.94440937,8.082036972,-136.8247223,-0.291750073,-0.727662146,12.41154671,1.124733806,-4.959710121,1.737554312,-0.458984375,-0.531738281,-0.811035156, 
683532762,-1.933810353,8.070793152,-136.8566589,-2.51792407,-1.283386946,6.921621799,3.253788948,-2.429228306,-4.10350275,-0.461425781,-0.529296875,-0.810058594, 
683541095,-1.888720036,8.034657478,-136.8305664,-0.15052107,0.611602545,8.68044281,6.421885967,-5.644916534,2.658181429,-0.459472656,-0.530273438,-0.803222656, 
683549428,-1.89654398,8.061969757,-136.852066,-2.069717169,0.148706406,9.307637215,0.83670181,2.168462992,-2.738315582,-0.4609375,-0.535644531,-0.803222656, 
683557761,-1.898753762,8.023462296,-136.8503113,-1.065291286,-1.395539641,9.387750626,1.118637681,-5.816327095,-0.240748197,-0.457519531,-0.531738281,-0.811523438, 
683566094,-1.92816174,8.034713745,-136.8648224,-2.340228558,-1.226406336,10.57195759,-1.837283373,0.200264871,-1.976573467,-0.455078125,-0.532714844,-0.812988281, 
683574427,-1.901953936,8.027173996,-136.8601532,-1.785797834,-0.026942544,7.535944939,4.481991768,-2.115069866,0.231001958,-0.466308594,-0.528320313,-0.812011719, 
683582760,-1.896418691,8.03780365,-136.8821564,-1.162514329,0.562336326,8.461405754,2.479086399,0.152443096,-2.842616081,-0.46875,-0.53125,-0.806640625, 
683591093,-1.926788092,8.059844017,-136.8635712,-1.021694779,-1.337927341,9.475769043,-2.503509998,1.363074422,1.967826605,-0.463378906,-0.532226563,-0.806640625, 
683599426,-1.925185323,8.018730164,-136.8784332,-2.085635185,-0.304214925,10.8033123,1.856148362,-6.063888073,-2.224596262,-0.465820313,-0.533203125,-0.798339844, 
683607759,-1.91614604,8.059789658,-136.8601685,-1.879207134,-1.053209662,10.12146091,2.191900253,3.661542416,2.039648771,-0.466308594,-0.533691406,-0.817382813, 
683616092,-1.895569444,8.07670784,-136.8701935,-1.802236319,0.473782778,6.463625908,4.091093063,0.859652221,-1.433884859,-0.467773438,-0.527832031,-0.817382813, 
683624425,-1.921567082,8.081568718,-136.8547516,0.125762671,0.227420822,10.59032822,-1.967404008,-0.669453681,1.559048772,-0.467773438,-0.529296875,-0.815429688, 
683632758,-1.956047535,8.116886139,-136.8500519,-3.067281008,-2.572402716,11.39384174,-2.718387365,3.018061161,0.062255394,-0.467285156,-0.533691406,-0.814941406, 
683641091,-1.934803963,8.109609604,-136.8573456,-1.525735497,0.644355536,7.212461472,4.086380005,-2.034000874,-1.19011426,-0.464355469,-0.526855469,-0.806152344, 
683649424,-1.929687023,8.158548355,-136.8538666,-1.118389606,-0.435862809,7.544635773,2.049996853,4.65527153,0.011974655,-0.461425781,-0.53515625,-0.811523438, 
683657757,-1.929272532,8.190983772,-136.848587,-1.794673681,-0.560284197,9.684285164,1.37508738,2.678237677,0.461863101,-0.467285156,-0.532714844,-0.811035156, 
683666090,-1.962474942,8.200759888,-136.85849,-2.194395065,-0.525406957,11.1458149,-2.37264657,-0.000461056,-1.377866387,-0.453125,-0.530761719,-0.814941406, 
683674423,-1.987851262,8.28208065,-136.8580322,-1.696408749,-1.678037286,6.707957745,-1.639183044,8.559675217,0.095169686,-0.4609375,-0.533691406,-0.808105469, 
