,time,Euler_X,Euler_Y,Euler_Z,Acc_X,Acc_Y,Acc_Z,Gyr_X,Gyr_Y,Gyr_Z
0,0.0,-8.466188748333332,-2.8380112646666666,-64.04482013333333,-5.310734272,-2.242149899333333,0.35611083100000007,29.129198709999997,-1.2152819233333332,-4.574604471333333
1,0.0027776666665886,-8.208632469333333,-2.8365538913333332,-63.98788196666667,5.179864565333333,-0.5496976026666668,0.67108953,30.79935582666667,-1.4207844736666668,6.411424001
2,0.005555333333177234,-7.907008647666667,-2.859513441666666,-64.0282262,-4.569744746,-1.132033547,7.925972461666667,35.518640516666665,-2.6542665363333335,-5.522462129666667
3,0.008332999999765866,-7.620724677999999,-2.8432485263333334,-63.959747300000004,3.0061408680000006,-0.5200490153333334,12.479132016666668,34.33007558333333,0.2338112196666667,8.025108894666666
4,0.011110666666657667,-7.3408363660000004,-2.883869886333333,-64.010554,-1.7140302456666667,-1.4048792746666667,6.591348807,32.83627446333333,-4.679805845,-6.856483219666667
5,0.0138883333332463,-7.073131084666667,-2.836681207333333,-63.945668566666654,0.4998046956666668,-0.17586521299999994,6.390796423,32.092786786666665,4.057289839,8.053976376333333
6,0.016665999999834934,-6.811888217666667,-2.8391178446666667,-63.9857432,-0.07891360933333329,-1.4191874266666666,7.706815084,30.659877776666672,-0.35337417333333326,-4.9777841579999995
7,0.019443666666423567,-6.567740281333333,-2.8323611416666665,-63.930918399999996,0.5030968586666665,-1.7690452136666668,4.861181219666666,29.20869891,-0.5441107523333334,6.261505763
8,0.022221333333315368,-6.335393111333333,-2.800116698,-63.958928433333334,-0.64415734,-1.0306812823333333,9.070109525333335,27.258155823333336,3.5881088180000003,-3.14137872
9,0.02499899999990397,-6.113902409666667,-2.8109681606666665,-63.91749573333334,0.08153227966666672,-1.4780206083333336,8.143877665,26.40682157,-2.417929748666667,4.433740297999999
10,0.0277766666664926,-5.874823570333334,-2.7737157343333334,-63.933375033333334,0.5587128396666666,-1.094447737,7.5741898223333335,28.14185651,4.010206063666666,-1.6342101093333337
11,0.030554333333384403,-5.687993208666666,-2.7474016349999997,-63.89373016666667,-0.713708162,-1.4948675633333333,9.041292824666668,22.22892125333333,2.077375094,4.675086497333333
12,0.03333199999997303,-5.486117204,-2.771952788,-63.89779406666667,2.2089791296666665,-0.520753622,7.061096191333334,23.751227063333335,-3.51727589,-0.9570120173333336
13,0.036109666666561666,-5.3227485020000005,-2.695239147,-63.88138073333332,-3.106816768666667,-2.4302574396666667,11.208635648666666,19.277475356666667,8.391056397333333,2.4508651100000005
14,0.0388873333331503,-5.140645027000001,-2.7564008236666666,-63.87478126666667,4.5704754193333335,-0.20513101433333336,5.833794156333333,21.44134712,-8.011675356,-0.03427998266666658
15,0.0416650000000421,-4.975305398000001,-2.6937364736666667,-63.85863236666666,-5.436945597666667,-1.3995701,8.580245972666665,19.50901921666667,6.7292401013333345,2.1995217003333334
16,0.044442666666630735,-4.809827486666666,-2.748755693333333,-63.83119456666666,5.964760939333334,-1.5266593186666666,6.515588679666666,19.563901583333333,-7.477846146,2.453498740666667
17,0.047220333333219365,-4.670675118666666,-2.763263464,-63.81371306666666,-4.0104407470000005,-1.6910635433333334,12.548124631666667,16.36924012333333,-2.5005834713333326,1.555757284
18,0.04999799999980797,-4.512376626666667,-2.775327285333333,-63.800366700000005,3.5332343576666667,-0.44859915,4.3184032839999995,18.625096003333333,-2.1819194169999996,1.1365429166666667
19,0.05277566666669977,-4.354518651999999,-2.7857975163333335,-63.785346999999994,-3.8192447823333335,-1.5730733873333334,8.293104489333333,18.60037803666667,-1.9838485516666668,1.3131744066666668
20,0.0555533333332884,-4.181092023666667,-2.7813895543333333,-63.7756424,4.2018231550000005,-0.6881051063333333,14.897389093333336,20.42723656,-0.18633882233333368,1.0505725940000001
21,0.05833099999987704,-4.030120849666666,-2.842961073,-63.7674357,-3.629236340666667,-1.433180401666667,13.620157878,17.733694076666666,-8.031753142,0.06271946433333338
22,0.061108666666465666,-3.8274452686666667,-2.807848374,-63.75679523333333,3.319933057,0.167694483,2.411559661333333,23.94331805,3.500077643333334,1.315211167
23,0.06388633333335747,-3.6638438699999996,-2.911779801,-63.74399056666667,-2.9000039496666665,-1.905007422,9.267998535333334,19.27633985,-13.138642070000001,0.3302783570000001
24,0.0666639999999461,-3.5571470260000004,-2.848705768333333,-63.735702533333324,2.9226150510000006,-1.7536573906666666,15.789034523333333,12.410548528,6.879067899333333,1.1697772143333334
25,0.06944166666653473,-3.448275089333334,-3.0361600716666666,-63.722117133333334,0.4916376770000001,-1.8690339923333334,6.111213842000001,12.715578396666666,-23.145977020000004,-0.1123828353333333
26,0.07221933333312333,-3.370832045666667,-3.014710744333333,-63.694142666666664,0.18403824166666669,-2.430772066333333,3.053743124666667,9.027964113666668,1.757742718,3.169100205
27,0.07499700000001513,-3.304963827,-3.1477825643333333,-63.701828,1.5509992043333334,-1.685062388666667,14.751926422666665,7.418022473333333,-16.48201990233333,-2.1942058799999997
28,0.07777466666660376,-3.219891707,-3.290749391,-63.674250300000004,-1.2742523353333333,-0.9393356543333334,10.298847915,9.957652729333333,-17.927909853333333,2.019610445
29,0.08055233333319241,-3.1307454903333336,-3.312019666,-63.7026113,-0.9529598553333333,-2.0769834123333335,9.781548341666666,10.058698019333333,-2.9555206313333335,-3.8790116309999996
30,0.08332999999978104,-3.094692150666667,-3.4871372380000003,-63.68853253333334,1.3258007566666665,-0.4953333636666666,18.703848203333333,4.008135062,-21.69539388,0.45151050900000006
31,0.08610766666667284,-3.088542858666667,-3.5389497276666666,-63.71983083333334,-1.1018281876666665,-1.7319931586666666,8.570359072333334,0.05725272500000026,-6.600490411,-4.442157586333333
32,0.08888533333326147,-3.069894313666667,-3.6065836746666666,-63.7160365,1.3519530993333333,-1.1726260386666667,0.5060434303333333,1.8525629639999999,-8.752649466666666,-0.10200452800000015
33,0.0916629999998501,-3.000425498,-3.739667177,-63.7302577,0.21061839633333326,-0.8380028403333334,4.751312971333333,7.777702212000001,-16.45023250666667,-2.9102563860000004
34,0.09444066666643873,-2.935044447333334,-3.8102543353333336,-63.7214686,-1.279128412333333,-1.397347808,18.96733220666667,7.504361569333334,-9.131979940999999,0.4869269530000002
35,0.0972183333333305,-2.8843065896666666,-3.9109013079999997,-63.73020173333333,1.040452381,-0.5760776063333334,16.4077336,5.570082425333333,-12.605741977,-2.0095265703333336
36,0.09999599999991914,-2.827385902333333,-4.078500270666667,-63.69886270000001,0.44169347500000006,-0.7955442716666666,4.742637992,6.684823394666666,-20.89328003,2.624311526666667
37,0.10277366666650777,-2.831497828,-4.153886954,-63.689415,-0.7042899690000001,-2.0579276086666667,5.975222031333334,-0.8653422989999999,-9.685935497333332,0.3157469829999999
38,0.10555133333309641,-2.839648962,-4.272014459,-63.6810252,1.653276265,-1.5146315496666667,9.666151523,-1.316571911,-14.828577360000002,0.1952231326666666
39,0.1083289999999882,-2.820450226333333,-4.432723522,-63.67913820000001,-0.21477588000000006,-1.8663130203333334,6.082029134,1.8699338336666667,-19.86582724333333,-1.097514709
40,0.11110666666657683,-2.816248258,-4.4838541350000005,-63.67267606666667,-1.9783718783333335,-2.9535012243333334,10.207439742,0.15795477233333344,-6.786295572666667,0.35297306399999995
41,0.11388433333316546,-2.836275816,-4.606394767666667,-63.67075346666667,2.3981709086666663,-1.117709845,19.861548743333334,-2.836410165,-15.295349123333333,-0.8453255493333333
42,0.11666200000005723,-2.888193369,-4.72282362,-63.65968066666667,-2.7407165369999995,-0.9588761226666667,10.879851343333334,-6.526137668,-14.640613873333331,0.5077426436666667
43,0.11943966666664586,-2.959554672,-4.737299283333333,-63.65111543333334,1.6495978533333335,-0.7365284166666667,4.942401487333334,-8.930002451333333,-2.3820983966666667,0.5806446866666666
44,0.12221733333323449,-3.0515548386666667,-4.868494510666667,-63.6368917,-0.11668779466666668,-0.924930811,5.913590073666666,-11.303567247666665,-16.43580818,0.7544761496666664
45,0.12499499999982312,-3.1306420960000003,-4.942015012,-63.610198966666665,1.2560755263333334,-1.6162678896666665,8.434130826333334,-9.666165511,-9.577497800333333,2.3389944833333334
46,0.12777266666671494,-3.1850308576666664,-4.999267419,-63.58923339999999,-0.6425496736666667,-1.2551978826666668,11.075923602000001,-6.711835543666666,-7.620619772666667,2.0330105223333335
47,0.13055033333330357,-3.2013595106666664,-5.196695645666667,-63.530537933333335,2.272987207,-0.5306182703333334,6.667259057333333,-1.7822264036666666,-24.642316179999998,5.3125787576666665
48,0.1333279999998922,-3.2147515613333333,-5.203128338,-63.51747129999999,-3.425503651333333,-1.4349982239999999,14.041230363333334,-1.8783388533333334,-1.4771345856666667,1.382763147333333
49,0.13610566666648083,-3.2315980593333333,-5.379330953,-63.4698588,2.892165700666667,0.41811774166666665,12.111820381000001,-1.9346666336666667,-22.02967961666667,4.138079881666667
50,0.1388833333333726,-3.2683267593333336,-5.4543739953333334,-63.44639329999999,-3.285491148666667,-1.8065443036666666,8.460844118,-4.572517236,-9.760029196666666,1.9960580666666667
51,0.14166099999996123,-3.3477611543333334,-5.504550933666667,-63.40676626666667,3.102323691,-0.5455339356666667,9.215111097,-9.516518829666667,-6.883921464,4.035399675333333
52,0.14443866666654986,-3.395845651666667,-5.728840192333333,-63.389356,0.8116529186666668,-1.6558442910000002,3.2890573543333335,-5.986793597666668,-27.606589633333332,0.356119434
53,0.1472163333331385,-3.453057766,-5.697179476333333,-63.369812033333325,-1.6849276623333331,-2.1792553266666665,11.420186044666666,-7.068667412,3.0520900290000004,2.2039344533333334
54,0.1499940000000303,-3.481379906333333,-5.906318505666667,-63.35792543333333,1.170388987,-1.0724288523333334,6.941530842,-3.684481939,-25.748607000000003,-0.3633855183333334
55,0.15277166666661893,-3.5023109913333332,-5.913643996,-63.33586119999999,-3.1268021266666666,-1.1117851833333334,10.883432606333335,-2.6738062203333333,-1.63775301,2.1949349243333334
56,0.15554933333320756,-3.529196183,-6.000983555999999,-63.3279953,2.2671345769999998,0.3966176636666667,18.760395048,-3.5544755103333334,-11.133614221333334,0.0680525899999999
57,0.1583269999997962,-3.552513122666666,-6.11931022,-63.2795639,-0.5040254693333334,0.08389301599999999,8.974570116333332,-2.618649959666666,-15.128848235333331,4.515214026
58,0.16110466666668796,-3.558347066333333,-6.071899414,-63.2631836,0.45104676500000007,-0.5538890166666667,1.1459365586666668,-0.9118196170000002,4.9378563563333335,2.1423615216666665
59,0.1638823333332766,-3.4998255566666665,-6.2577946980000005,-63.211799633333335,1.2621639169999999,-0.37710996466666674,7.271314303333334,7.2504812093333335,-23.241720833333332,4.37040174
60,0.16665999999986522,-3.419705152666667,-6.227504571,-63.185317999999995,-2.5454649526666664,-1.1401565273333334,13.977639833333333,9.529013473,2.821839600666667,3.0771195886666667
61,0.16943766666645388,-3.309866826,-6.369448026,-63.1417516,2.568373123666667,0.08048003899999996,12.470690172,13.323280969999999,-17.904573437333333,3.850508769333333
62,0.17221533333334568,-3.225683292,-6.439771811,-63.111109433333326,-1.224716882,-1.3517409163333334,7.108551500666667,10.076836904333334,-9.251394430666666,2.874597827666667
63,0.1749929999999343,-3.151984612333333,-6.433553695666667,-63.09761303333334,0.8738356133333333,-1.6217380763333331,6.335658948333333,8.590370656,0.058665434333333266,1.3137883546666664
64,0.17777066666652294,-3.0151813826666665,-6.5681155523333326,-63.06635286666667,-0.8760346573333333,-1.2762202420000002,6.431570589666667,16.416535694666667,-16.943999289666667,2.588520765333333
65,0.18054833333311157,-2.8768815993333328,-6.449281533666667,-63.0516154,-2.368582209,-1.4250759286666668,14.893773237333335,16.364519753333337,13.556463241333333,2.1339741350000003
66,0.18332600000000335,-2.7524698576666666,-6.537013371666667,-63.01252493333334,3.3443560600000004,1.281339685,18.65145874,15.036282223333336,-11.363621712666665,3.8943425813333334
67,0.18610366666659198,-2.630033175,-6.492270628666667,-62.983456966666665,-2.2999984026666667,-1.1841276090000001,4.677652836,14.648373286666668,4.603142421333333,3.3335268496666663
68,0.1888813333331806,-2.471278588,-6.437827110333333,-62.94087473333334,2.4665560723333333,-1.278449451,3.4285967646666666,19.20166397,5.6821658610000005,5.092116356000001
69,0.19165899999976924,-2.256975134333333,-6.524071216333333,-62.89161936666667,-1.4038318293333336,-0.35422172133333335,8.567010721333334,25.94678879,-11.177833558666665,5.060804367
70,0.19443666666666104,-2.0564599433333335,-6.4001351993333335,-62.84421793333333,-0.8288957180000001,-1.2590819003333333,16.64006551,24.27765655666667,14.030735333333334,5.919333775999999
71,0.19721433333324967,-1.8709840773333335,-6.485566775,-62.80199430000001,1.6185914573333333,-0.4952441853333333,12.672843934333335,22.387505849999997,-11.013824143666668,4.336791515333333
72,0.1999919999998383,-1.685062646666667,-6.411966006,-62.75618743333333,-1.5676817100000002,-1.6278071800000002,4.46400261,22.50294367666667,8.038656235666666,5.44629399
73,0.20276966666642693,-1.5244246323333333,-6.337225119333333,-62.73260496666668,1.9712510903333333,-2.2375516993333333,7.0390498636666665,19.151341756666667,8.289295793333332,2.7207152046666665
74,0.20554733333331873,-1.3102939923333334,-6.420595646,-62.697855633333326,0.6016090713333334,-0.8924827276666667,10.614578562666667,25.75424576,-10.726428825333334,3.784364621
75,0.20832499999990736,-1.138165176,-6.3207639056666665,-62.68088786666667,-2.2748594283333334,-1.3420543269999998,15.493434906666666,20.44207000333333,11.336835861333332,1.9173247016666666
76,0.211102666666496,-0.9658051726666667,-6.382918198666666,-62.637481666666666,2.8817972343333333,-0.7650375763333334,13.475231647666666,20.857421876666667,-8.171089965666667,4.920740366
77,0.21388033333338777,-0.8292980096666667,-6.340012391333333,-62.609069833333336,-2.1034284826666667,-1.4864931803333334,7.152264753666667,16.315629956666665,4.497314452333332,3.0845489896666667
78,0.2166579999999764,-0.7166525323333333,-6.277261893333333,-62.58313496666667,2.011632005,-1.147471341,5.821935814,13.452893575666666,6.867174689,3.0720905066666666
79,0.21943566666656503,-0.591881886,-6.363729477,-62.55051933333334,-0.07307583333333338,-1.7434781393333332,6.194376468666667,14.962137856666667,-11.016677938333332,3.392670472666667
80,0.22221333333315366,-0.492981568,-6.2095597583333335,-62.51344553333333,-1.3285332916666668,-2.7142845789999996,10.464397112999999,11.950953803333334,17.839327493333332,4.454825083333334
81,0.22499100000004546,-0.355728636,-6.329481442666666,-62.4733709,3.8280838329999995,-0.278034846,12.662637315333333,16.553066573333332,-15.023184459333335,4.327829996999999
82,0.2277686666666341,-0.24191355199999998,-6.256509781000001,-62.4376602,-4.651307583,-1.3317594676666666,13.440028349333334,13.725539843333332,8.117273570333333,4.162668466666667
83,0.23054633333322272,-0.13720202666666667,-6.254454136,-62.39939883333333,2.924667755666667,-0.6560254096666667,6.517751376666666,12.623916149000001,-0.3652452426666664,4.229649702666666
84,0.23332399999981135,-0.04720752166666666,-6.283801079,-62.374165866666665,-1.646497329,-1.7214588720000001,7.81927085,10.728170077333331,-4.143773875000001,2.8804705936666664
85,0.23610166666670315,0.004814967666666651,-6.153800010666667,-62.3410721,0.488266066,-0.6121472266666667,14.211850166666666,6.234169324333333,15.001319569333333,3.6153774263333336
86,0.23887933333329178,0.06588310733333334,-6.310233116,-62.3131663,2.2055304246666663,-1.6820773679999999,6.503468552,7.2907667169999995,-19.387943903333333,3.246370792333334
87,0.2416569999998804,0.11597459033333334,-6.154673099666667,-62.2884776,-2.0339064199999997,-0.986785233,10.342697024666666,5.8930775319999995,18.074110983333334,2.5653689703333336
88,0.24443466666646904,0.145166263,-6.312888145333333,-62.2709681,2.5924272533333332,-1.7906349103333332,8.987382850000001,3.318248271666667,-19.599319456666667,1.9262038863333333
89,0.24721233333336082,0.129648581,-6.1638789176666675,-62.24253590000001,-3.2473874886666665,-1.2939965326666665,11.144457260000001,-1.9307549793333336,17.291018486666665,2.989980459
90,0.24998999999994945,0.13498037066666668,-6.303960323333333,-62.22827909999999,5.320946296333333,-1.2710437776666668,6.456965761999999,0.42178058600000007,-17.422739983333333,1.643285771333333
91,0.2527676666665381,0.12481516600000002,-6.220381895666666,-62.20819346666667,-5.416717132,-0.0005877313333333412,11.113618692666668,-1.3953483899999999,9.437541802333334,2.0049419006666667
92,0.25554533333312673,0.11615073666666666,-6.306020259666667,-62.18914540000001,3.4861822969999996,-1.5259646576666663,3.063710054,-1.1948237819999998,-10.890437205666665,2.1824227966666663
93,0.2583230000000185,0.10348543533333332,-6.211632252,-62.1662954,-3.1861570476666667,-1.0743641853333334,12.467439810333333,-1.6600455246666668,10.733578999333334,2.348035971333333
94,0.26110066666660714,0.08326602999999999,-6.264706453,-62.1453476,4.004247705,-1.0922910173333333,9.560236212666666,-2.565876642666667,-6.9850460886666665,2.2953813076666667
95,0.26387833333319577,0.018386314333333348,-6.208095550666666,-62.118039466666666,-3.1739072790000002,-0.6623254003333333,11.280683517666667,-7.869967261333333,6.197784503,2.884116490666667
96,0.2666559999997844,0.004946823000000017,-6.21894598,-62.090504966666664,3.026190360333333,-0.9037486913333334,1.9397554396666665,-1.6686820823333335,-1.9224216139999994,3.0482521056666667
97,0.2694336666666762,-0.009976171000000006,-6.136418342333333,-62.06410726666667,-3.2251718443333335,0.505615274,13.188697496333333,-1.8916711810000002,9.306207893666667,2.7914781570000002
98,0.2722113333332648,-0.036145833999999995,-6.194456577333334,-62.02135213333333,3.1123670936666668,-1.126419345333333,10.024065018666667,-2.9993724426666666,-7.5890852613333335,4.891359011333333
99,0.27498899999985343,-0.022873588,-6.093206882666667,-62.00168099999999,-2.7963463366666663,-0.6025280506666667,8.289436181000001,1.4010218666666667,11.554398693000001,1.9933982190000001
100,0.27776666666644206,0.023434574666666676,-6.118067264666666,-61.969350166666665,1.910610964,-0.00020718566666670193,1.2051739393333334,5.5624726613333335,-3.6055580776666667,3.6365983086666667
101,0.2805443333333339,0.05082598066666668,-6.054545402666666,-61.9515457,-0.772592187,-0.8364822466666667,12.221814634333333,3.0688503086666663,7.027931690333333,1.7692266903333334
102,0.2833219999999225,0.05597613533333334,-6.1162223813333325,-61.92228696666667,2.845560153333333,-1.7828518549999999,16.899389583333335,0.582860589,-8.02094539,3.2741442519999993
103,0.28609966666651115,0.08056165266666666,-6.053141594,-61.923065199999996,-1.8170378706666668,-0.40519231566666664,5.543427467333333,2.495386400333334,6.975324312999999,-0.4567742346666668
104,0.2888773333330998,0.09906541800000002,-6.099261760666667,-61.89276633333333,1.2594372679999999,-0.9728611506666667,2.2430288,2.2011638083333334,-6.154538313666667,3.3972249626666664
105,0.29165499999999156,0.14541343866666667,-6.089451789666666,-61.89666493333334,0.3712718736666667,-0.6977934069999999,12.258785883000002,5.0627433113333336,0.5815368096666669,-0.8123683133333334
106,0.2944326666665802,0.145685191,-6.117279211333333,-61.871650666666675,-1.447138667,-0.9311698976666668,17.136516253333333,-0.04937958733333344,-3.9551254910000004,2.76049757
107,0.2972103333331688,0.205021436,-6.089987754666666,-61.87180836666666,0.7872188489999999,-0.93918401,-2.2380407053333333,6.670336721666668,2.6809190123333337,-0.3837906516666667
108,0.29998799999975745,0.236717408,-6.079092661333334,-61.83401743333334,-0.3962194976666667,-1.0477442243333333,10.081222058,3.897359768333333,0.7004548700000003,4.396846174999999
109,0.3027656666666492,0.2668988606666667,-6.135936736999999,-61.824040733333334,2.885446071666667,-0.892180229,13.143353937666665,3.298755218666667,-7.411654947,0.8652361233333336
110,0.30554333333323785,0.288684974,-6.117371400333333,-61.78335063333333,-3.2077167826666666,-0.4659283556666667,13.743422190333334,2.752330939,1.6284592949999996,4.728199958666666
111,0.30832099999982654,0.3695121356666667,-6.125200589666666,-61.775202400000005,3.175154368333333,0.4573418696666667,5.3705054819999996,9.349252065666667,-1.5301388913333334,0.6316517193333334
112,0.31109866666671826,0.4144669836666666,-6.140787124666667,-61.74365996666668,-3.5047052106666663,-0.7965442829999999,11.328396956333334,5.417211055666667,-2.465354245666667,3.6664817333333333
113,0.31387633333330694,0.493906098,-6.160293102333334,-61.7291514,2.926507632,-0.10954324933333333,10.885113556333332,9.264674822000002,-2.923229059666666,1.4003012180000003
114,0.3166539999998956,0.5534200296666667,-6.102040767666666,-61.69998423333332,-4.014607906333333,-0.15398093066666665,11.473277251666666,7.132537048666667,6.3976003336666665,3.2927959759999994
115,0.3194316666664842,0.6697755056666667,-6.101535638333334,-61.68531293333333,4.1578125156666665,0.07451885966666667,-1.7048221436666664,13.698227563333333,-0.5162334450000005,1.406866669666667
116,0.32220933333337604,0.7705052593333334,-6.103651364666667,-61.65815733333333,-3.0683126846666666,-2.0288178523333333,11.269645689666667,12.050658542999999,-0.8335810886666669,3.1230080129999997
117,0.3249869999999646,0.8695170283333334,-6.041166941333333,-61.62389883333333,3.8131906193333336,-0.270141686,12.468537646333333,11.867278098333335,6.955244413666667,3.6385161480000003
118,0.3277646666665532,1.0048071743333333,-6.079384327,-61.61562093333333,-2.531276385,-1.0500714679999998,8.392702659000001,15.942043623333333,-5.188570062,0.8308577536666665
119,0.33054233333314187,1.16187187,-5.972433885,-61.58111066666667,2.140960147,0.02067629500000003,11.521230377666667,18.837839759999998,12.308111188,3.536768277666667
120,0.33332000000003364,1.2888023456666666,-6.063390255333334,-61.570910133333335,-1.7610505419999998,-2.3104129633333335,12.064491432333332,14.969574926666667,-11.502537571,1.3253148046666667
121,0.3360976666666223,1.4429368576666668,-5.928964456,-61.530571,1.0378714403333333,0.9867496886666668,10.492815968666667,18.559380846666667,15.64088408,4.085741679000001
122,0.3388753333332109,1.5762939053333334,-6.0241948763333335,-61.53267926666667,-0.8198164499999999,-1.4569145243333335,11.936121623333333,15.572893460000001,-12.049726963666666,-0.16110918399999993
123,0.34165299999979964,1.6793008246666667,-5.8721938133333325,-61.49377693333334,-1.1971476076666667,-1.1583411496666667,9.676088490666666,12.405667306333333,17.76363913333333,3.765247265333334
124,0.34443066666669137,1.8099355696666664,-5.940268198666666,-61.50583393333333,2.8697183926666665,-0.18059032166666658,3.0727128993333337,15.12989839,-8.825861296666666,-1.276733517333333
125,0.34720833333328,1.9091178176666668,-5.861810366333333,-61.47446693333333,-2.2389735703333336,-2.411160568666667,8.153557379666667,11.854301771666668,8.931909244000002,3.0559503336666665
126,0.3499859999998686,2.019426504666667,-5.801269690333334,-61.463689166666676,3.1159463226666664,-1.7200244266666669,17.314904530000003,12.971610067999999,6.684497196333333,0.9560132169999999
127,0.35276366666645725,2.1433598596666665,-5.843545595666668,-61.435137466666674,-2.3134252226666665,-0.09066081033333329,11.82885281,14.783238729999999,-5.542448442333334,3.203833381333333
128,0.35554133333334903,2.2732752163333334,-5.715751807,-61.424621566666666,0.059583822999999946,-1.0247008403333333,10.407235621666667,15.308562279999999,14.746816632333335,0.4392460983333333
129,0.35831899999993766,2.355486512,-5.714347203666667,-61.4095713,0.790219565,-1.0381170316666668,14.112612727,9.608016809666667,-0.3568580946666667,1.4306147496666668
130,0.3610966666665263,2.431905826,-5.587271690333334,-61.40331266666666,-0.21853408966666665,-1.3016650873333335,10.464754104666667,8.836575824666667,14.643770535,-0.1117936373333334
131,0.3638743333331149,2.517440239666667,-5.545756817,-61.3821589,-1.2430620193333333,-1.4422791403333333,8.297476769333334,10.073845861666667,4.488490119666667,1.9364535016666669
132,0.36665200000000664,2.6027762096666667,-5.392910639333333,-61.36865996666666,-0.23879106833333333,-1.2469581363333333,11.876192888333334,9.997871398666666,17.774525960000002,0.6737144590000002
133,0.3694296666665953,2.6737373669999998,-5.284969012,-61.37057243333334,0.9706960916666666,-1.85880514,17.407815296666666,8.05449152,12.330225786666668,-1.178762992
134,0.37220733333318395,2.7363384563333333,-5.231492678333333,-61.3723297,0.8699562946666667,-0.39300593233333325,14.998282750000001,7.088445903,5.774588744,-0.7650758426666666
135,0.3749849999997726,2.799766143,-5.007211685000001,-61.36320750000001,-0.511784514,-1.4283926486666665,9.936704316,7.2704981160000015,26.337321603333333,-0.5515857006666667
136,0.3777626666666644,2.8429104486666663,-5.009799321666667,-61.35541536666667,1.4626674653333334,-1.2376725276666667,17.870625176666667,4.851861715666666,-0.8925154010000002,0.6546956746666667
137,0.38054033333325304,2.837066094333333,-4.770480155666667,-61.345565799999996,-2.2423558236666667,-2.143510580333333,13.569736480000001,-1.0416975816666663,28.143850326666666,-0.5972518573333333
138,0.3833179999998417,2.840677261333333,-4.7079256376666665,-61.32290650000001,-0.4380404946666669,-0.6311801623333333,11.332248686666668,0.263788223,7.005549271333333,2.1410642463333334
139,0.3860956666664303,2.8361175060000003,-4.387817541666666,-61.29670206666666,-0.5249653853333333,-3.2190397183333332,7.829902172666667,-0.7400518063333333,37.92482567,0.8979378886666667
140,0.3888733333333221,2.81765906,-4.335532665333333,-61.282895399999994,0.7914441126666668,-2.215102513666667,18.976624169999997,-2.484525248666667,5.721652427333333,1.1360212166666666
141,0.39165099999991065,2.783275048,-3.9685397946666665,-61.2556127,-1.7913823923333334,-2.509885788,13.42941602,-4.331135749666666,43.54624303333333,0.7706058383333333
142,0.39442866666649934,2.7510907650000003,-3.9701244829999998,-61.25312043333334,2.6066701413333333,-1.2523835203333333,12.652133783333333,-4.233154058666667,-0.7986559073333334,0.140302032
143,0.39720633333308797,2.711599747333333,-3.556310733,-61.21823883333334,-3.344167868333333,-1.1385763683333334,18.90255725333333,-4.905546824000001,49.19918060333333,1.4519553929999998
144,0.39998399999997974,2.601585388333333,-3.519301255666667,-61.219225566666665,4.777940710333334,-0.9677273283333333,21.059658606,-13.602502820333333,3.811856350333334,-0.41660284966666666
145,0.4027616666665684,2.490308523,-3.1971046923333333,-61.2044754,-3.2835588853333335,-1.1642469126666668,11.036038557666666,-13.691965581666667,38.10530344333333,-0.3092032423333333
146,0.405539333333157,2.3371493020000003,-3.042510112,-61.20175423333333,4.430477301333333,-3.3341514269999997,5.5468635566666675,-18.757556599999997,17.919251081666665,-0.6017942153333333
147,0.40831700000004884,2.179047703666667,-2.859775622666666,-61.202206933333336,-4.375651001666667,-1.271365583,15.687435943333334,-19.417110443333332,21.315456349,-1.2717531126666668
148,0.41109466666663746,2.0032301743333334,-2.5152213573333335,-61.199279766666656,2.6124323806666667,-3.890515128666667,10.164179524,-21.47858556,40.695828756666664,-1.3438545613333333
149,0.4138723333332261,1.8310912053333332,-2.4732363223333333,-61.212600699999996,0.579126855,-1.9292099973333334,15.73322137333333,-21.169546126666667,4.390521263666667,-2.1424951553333336
150,0.4166499999998146,1.625042359,-2.0543402433333333,-61.21708426666667,-1.544422547,-0.7392769856666668,20.10501861666667,-25.13966942,49.59400685333333,-2.185651282333333
151,0.4194276666667065,1.3598995803333331,-2.0688635903333332,-61.2325516,5.89494737,-1.0241651413333333,16.689844369,-32.32999611,-2.3864361443333335,-2.17904826
152,0.42220533333329513,1.0931016006666667,-1.7277905543333334,-61.24675243333334,-3.948729833,-1.6486146149999998,10.406468074000001,-32.46501477666667,40.25327047,-2.6741156580000003
153,0.42498299999988376,0.7938536606666666,-1.604275783,-61.25057473333334,7.249892075666668,-2.697948123,5.974339166666667,-36.36825625,14.211420838666667,-1.0771100523333332
154,0.4277606666664724,0.5179482413333333,-1.5104091566666666,-61.27267456666667,-2.426888543,-1.4910229146666667,14.095361390999999,-33.576183320000005,10.609975575000002,-2.9262800416666668
155,0.43053833333336416,0.24971785666666668,-1.2834287086666667,-61.27483370000001,3.415323933,-1.6314145326666667,18.675406140000003,-32.63780912,26.63285954666667,-0.81435969
156,0.4333159999999528,-0.04053485866666667,-1.4146088756666666,-61.307095833333335,2.2207119863333333,-0.6005831359999999,19.59766992333333,-35.31780243,-16.375851946666668,-4.0361175136666665
157,0.4360936666665414,-0.33192103800000006,-1.185988307,-61.30989073333334,-3.0655447643333336,-1.0702079533333333,15.105644701666668,-35.41412925666667,26.829751333333334,-0.5979086556666667
158,0.43887133333313005,-0.682193647,-1.2952251833333335,-61.34732816666667,5.81320254,-2.494099160333333,8.866655347333333,-42.53411865333334,-13.685597656,-4.885482152333334
159,0.4416490000000219,-1.013651987,-1.3567903039999998,-61.37559003333333,-4.456740379333334,-1.5178398093333332,10.004620632333333,-40.29035949666667,-7.947824955666666,-3.8635043303333334
160,0.44442666666661057,-1.3287729423333332,-1.3618310690000002,-61.40884146666667,3.156171003666667,-2.3916522463333334,15.690600076666668,-38.30788803,-1.1504232089999995,-4.269164403333333
161,0.44720433333319914,-1.6441837946666666,-1.6466073989999999,-61.4336548,3.5174988903333335,-1.2630320043333334,18.998422936666667,-38.36613845666667,-34.68549283666667,-4.237073739333333
162,0.4499819999997878,-1.9348305463333333,-1.8132695753333332,-61.4680074,0.30487084366666667,0.30089827366666677,16.297972361333336,-35.40135447,-20.489202182,-5.044279496
163,0.45275966666667955,-2.2351601123333333,-2.018248399,-61.48963673333333,3.8581940333333336,0.13934901366666663,17.257737476666666,-36.56046295,-25.090829213333333,-3.833185037333333
164,0.4555373333332681,-2.53980279,-2.3775753576666667,-61.5049718,2.1660917106666666,-1.5835111140000002,12.674349945000001,-37.02391433666667,-43.633992510000006,-3.946836471333334
165,0.4583149999998568,-2.807926972666667,-2.7445913156666664,-61.51506043333334,1.442936102666667,-0.8476781943333335,9.531484127333334,-32.658392586666665,-44.54169845333333,-3.655476490666667
166,0.46109266666644544,-3.0025758743333335,-3.147877057666667,-61.54084526666666,1.3718856773333332,0.1949149366666667,13.727630300000001,-23.92823156,-48.79313151,-5.831788718666666
167,0.4638703333333372,-3.1979797679999997,-3.6091947553333337,-61.540161100000006,2.35857141,-0.18260003866666666,22.8806235,-23.860393523333332,-55.888628643333334,-3.2805616756666667
168,0.46664799999992584,-3.385557651333334,-4.10933574,-61.57301586666667,-0.5794107716666667,-1.0748280583333332,16.477170943333334,-23.183540343333334,-60.311219529999995,-7.724880855333333
169,0.4694256666665146,-3.546179056333333,-4.614552180333334,-61.57326506666667,1.7732274136666668,-0.7139131026666666,9.943141619,-19.69530964,-61.11951828,-4.053894400666667
170,0.4722033333331031,-3.685554027333333,-5.124357223333333,-61.60025533333334,-2.0984756746666666,-1.4741008679999998,11.361955324666667,-17.405098600000002,-61.47271219666666,-7.384413798333334
171,0.47498099999999494,-3.795080264333334,-5.5904698370000006,-61.584813466666674,0.633647263,-1.3932125666666666,14.564841906666667,-13.384751003,-56.53994751333334,-2.1739427483333333
172,0.47775866666658356,-3.865816673,-6.0201780000000005,-61.60426076666666,-0.8258087833333333,-0.15573840333333325,18.119455336666668,-9.137672584666667,-51.919104256666664,-6.078220446666667
173,0.4805363333331721,-3.9377634526666667,-6.380789757,-61.58014936666667,1.1893968186666666,-0.3077961356666667,22.084254583333333,-8.736527603,-43.97318140666667,-0.4350768723333334
174,0.4833139999997608,-4.0288446743333335,-6.698350588333334,-61.58346046666666,-2.9386869270000004,-1.3456661180000002,20.814836500000002,-11.384491918000002,-38.61203384,-3.3974508743333334
175,0.4860916666666526,-4.149021705333333,-6.939638138,-61.56916556666667,-2.372369448,-0.28702738899999997,13.591438611,-14.641307670666668,-29.608012516666665,-0.7179252706666666
176,0.48886933333324123,-4.269120454666666,-7.143813133333333,-61.59832513333333,-1.6449293963333333,-1.6256236380000002,11.670975368999999,-15.261118253333334,-24.796377183333334,-5.613880396
177,0.49164699999982986,-4.366089820666667,-7.318678696666666,-61.6024399,1.9711396296666666,-1.164490994,11.387744587,-12.132034617333334,-21.495143889999998,-2.4230228363333333
178,0.49442466666672163,-4.424559434333333,-7.463843027666667,-61.62200670000001,-0.11454861366666665,-2.135348339666667,12.812295913333335,-7.7185198459999995,-17.82160632,-4.022784869
179,0.49720233333331026,-4.469708919666666,-7.571337381666667,-61.62857819999999,-0.612224261,-1.8259717226666667,17.395156226666668,-5.955165941,-13.401327770000002,-2.1390709976666664
180,0.4999799999998989,-4.489206631999999,-7.652254422333333,-61.66206106666666,-0.36071493233333324,-0.5715652306666666,19.797875086666668,-3.2726713816666666,-10.003564198,-5.096541722666667
181,0.5027576666664876,-4.508577346666667,-7.689475854333334,-61.6651611,-0.012914183333333348,-0.5111587146666666,19.166358313333333,-2.8029956719999998,-5.028237264333334,-1.074884534
182,0.5055353333333793,-4.5172395703333335,-7.706071536,-61.686772700000006,-0.08683355666666663,0.017244145333333332,16.268916766666667,-1.7927448746666663,-2.4158704346666666,-3.0875145000000006
183,0.5083129999999679,-4.5423019726666665,-7.689076264666667,-61.69653063333334,-1.0837362606666667,-0.081496591,14.788253150000001,-3.6033893426666666,1.5247386296666665,-1.353276854
184,0.5110906666665566,-4.563788414,-7.644060611666667,-61.72164153333333,-0.3664191960000001,-1.4919937030000001,14.141142530000002,-3.3818690576666666,4.983937104333333,-2.9220634696666665
185,0.5138683333331452,-4.568849563666666,-7.57107687,-61.73568979999999,0.7196649856666667,-1.30153205,13.295887946666667,-1.2709487279999998,8.262961864333333,-1.3269369406666667
186,0.516646000000037,-4.555752436666666,-7.484570185333333,-61.7742513,1.2085785070000001,-1.0987444053333333,12.632767356666667,0.5623264313333333,10.075714746666668,-4.118094951000001
187,0.5194236666666256,-4.516280173999999,-7.373927116666667,-61.79558053333333,-0.45746243000000003,-1.786550492333333,15.200498259999998,3.9744765760000003,12.82957109,-1.8434736583333333
188,0.5222013333332143,-4.460086504666666,-7.259855588000001,-61.83302306666667,-1.1141819756666667,-1.0348995723333334,18.547227226666667,5.766350110333332,13.360562326666667,-3.748310725
189,0.5249789999998029,-4.405328750333333,-7.122955799,-61.862775166666665,-1.017087852,0.025821447333333285,18.100231806666667,5.685836315333333,16.05484008666667,-2.6209686993333334
190,0.5277566666666947,-4.349064827,-6.996507644666667,-61.905937200000004,1.5727036496666666,0.27803628133333336,16.82373905333333,5.712893406666667,14.877499263333334,-4.340196877666667
191,0.5305343333332834,-4.295425653333333,-6.855710347666668,-61.928036999999996,1.5306915246666666,-0.7991314630000002,15.92110157,5.6784596443333335,16.44537894,-1.7108179033333333
192,0.533311999999872,-4.240737517666666,-6.723325729,-61.964090999999996,1.2683987223333333,-1.8500113486666665,12.100614865333334,5.646348080666666,15.519784926666668,-3.467993597
193,0.5360896666664606,-4.166255950666667,-6.582739989,-61.99538930000001,-0.338715685,-0.8949270546666667,10.381617864666667,8.069601059,16.493724823333334,-2.8446156183333335
194,0.5388673333333523,-4.0748650233333334,-6.427052020666667,-62.02540586666667,0.3572055896666666,-1.2368126560000001,11.9617815,10.151501654999999,18.25222015,-2.597882072
195,0.541644999999941,-3.962735097,-6.277468840333333,-62.04489136666666,-1.5275619923333332,-1.7752081553333332,15.904925026666668,12.759210903333333,17.471284863333334,-1.4274990073333331
196,0.5444226666665296,-3.830238262666667,-6.104706764333334,-62.06505586666666,0.3689935876666666,-0.5740877103333334,16.706669809999998,15.235692343333334,20.20223554,-1.3656878866666669
197,0.5472003333331182,-3.691317399333333,-5.937646547666667,-62.07931516666665,-0.282795787,-0.9006349843333333,15.17609787,16.05216280666667,19.517745333333334,-0.7484396496666667
198,0.5499780000000101,-3.5710963410000005,-5.777985255,-62.0839793,2.727763195666667,-2.4044389330000002,14.08397611,13.965028760000001,18.51006317,0.2934538546666667
199,0.5527556666665987,-3.453963200333334,-5.651176611333334,-62.092684399999996,1.0786316693333333,-1.7762911323333332,13.00441901,13.517357189999998,14.648944216666669,-0.46915478866666666
200,0.5555333333331873,-3.3349640373333336,-5.4985108380000005,-62.08501433333333,0.8354266683333335,-0.17387337,13.883378663333332,13.961357753333333,17.595566113333334,1.624937852333333
201,0.5583109999997761,-3.223194122,-5.3428556123333335,-62.084836333333335,0.357875079,-1.4713326493333332,15.681667009999998,12.974029539999998,18.048297246666667,0.7297712166666667
202,0.5610886666666678,-3.1420168079999997,-5.241159280000001,-62.0643921,1.7097071213333335,-1.529414773,15.219542500000001,9.569509823333332,11.403036753333334,2.804276744666667
203,0.5638663333332564,-3.06443874,-5.154205799333334,-62.04962666666666,-0.023850679333333364,-0.952912922,12.09892114,9.028977869333334,9.726658503000001,1.960573872
204,0.566643999999845,-2.990134318666667,-5.015622139333334,-62.027496366666675,-0.17429489033333334,-1.2175335736666668,12.535721141000002,8.750188510666666,15.822707809999999,3.1755216123333327
205,0.5694216666664337,-2.9339474043333333,-4.903615474666666,-62.01200359999999,0.9499933523333333,-2.121752103,13.96973451,6.462050438000001,12.730580966666666,2.193300446
206,0.5721993333333254,-2.902141173666667,-4.833298206333333,-61.99202473333333,1.12445575,-1.6857570013333334,12.395305315666667,3.6170510253333332,7.663468837666666,2.48361214
207,0.574976999999914,-2.872506698,-4.675907293999999,-61.98931373333334,-1.0364682476666667,-1.1822827856666667,13.395557562333332,3.141078631333333,18.24911817,0.9109662326666667
208,0.5777546666665027,-2.8775974116666667,-4.542838255333334,-61.97475686666667,1.7971220809999997,-2.7694261470000003,13.990427336666668,-0.8731424809999999,15.216365180000002,2.230210503
209,0.5805323333330913,-2.913467089333333,-4.469020525666667,-61.969945300000006,1.0534095366666667,-1.3401608266666667,12.198755263666667,-4.701591134333333,8.221960544666667,0.6591951696666666
210,0.5833099999999831,-2.950235684666666,-4.295334816,-61.956370033333336,-0.7951672273333332,-1.2694861686666667,11.703672411999998,-4.690801083999999,20.090199786666666,2.3482030233333333
211,0.5860876666665717,-3.010483821,-4.191903432,-61.9424235,3.0179520446666666,-2.3420660496666668,12.034344670666664,-7.548469227000001,11.710915408,1.9598991073333334
212,0.5888653333331604,-3.0836836496666664,-4.141926368,-61.93017066666666,0.5342194436666667,-1.4720280966666666,12.274646123333333,-9.068225701666668,5.26437068,1.6046593983333333
213,0.5916430000000521,-3.159173965666666,-3.986618042,-61.91767626666668,0.35555655799999997,-0.9037688770000001,14.793487233333332,-9.395706334666666,17.929787320000003,2.152053157333333
214,0.5944206666666408,-3.2562700906666664,-3.974777698333334,-61.91067760000001,2.6311806043333337,-2.1941620506666664,10.554711658,-11.988411108666668,0.7271708449999998,0.7517736156666667
215,0.5971983333332295,-3.3459281923333335,-3.899701118333333,-61.897323600000014,-1.1149779456666666,0.01134148233333332,11.290799139333332,-11.091682753333332,8.304712454666666,1.7441887456666667
216,0.5999759999998181,-3.447216510666667,-3.795793136,-61.88715109999999,1.432408651,-1.8797806900000003,13.035339674,-12.470404943333335,11.731054306666666,1.7621017693333334
217,0.6027536666667098,-3.5526429813333333,-3.8312035403333335,-61.86731973333334,1.5007590899999999,-0.7947322900000001,11.545317966666666,-12.93773015,-4.983092149,1.7411447759999998
218,0.6055313333332986,-3.6474533873333335,-3.6807791389999998,-61.86570233333334,-1.9188135466666667,-1.3352948426666666,11.282506942,-11.76311493,17.36130651,1.1250031586666667
219,0.6083089999998871,-3.7587134040000003,-3.739767472,-61.83621213333333,3.7409956453333333,-1.7368089356666667,11.726675032333333,-13.564790726666667,-7.891219378,2.706038077666667
220,0.6110866666664757,-3.845960060333333,-3.6543694336666666,-61.8322118,-3.413933118333333,-0.6769832060000001,12.412935892333335,-10.848612785,9.561679760666665,0.8231007556666666
221,0.6138643333333674,-3.947938044666667,-3.615743478,-61.810511299999995,4.414484898,-1.3275524576666669,10.695663343999998,-12.512794495333333,3.8466011680000007,2.560266892
222,0.6166419999999562,-4.050673564,-3.6357528366666667,-61.8094279,-1.1305260063333333,-1.4036884306666666,12.544479687666666,-12.731310526666666,-3.0334390003333334,-0.34677829333333327
223,0.6194196666665448,-4.145072778,-3.506242116333333,-61.796063733333334,1.4149433423333333,-1.0390004913333335,8.968764781666666,-11.666297277333333,14.785724323333334,2.355609437
224,0.6221973333331335,-4.250431061,-3.590402047,-61.78179930000001,0.742360115,-0.31561815266666665,13.41601181,-12.94924577,-10.826832611999999,0.687225809
225,0.6249750000000253,-4.325564066333334,-3.4364124933333335,-61.76379903333333,-1.316819966,-0.7709002916666666,8.387994131,-9.322257042333334,17.66436672,3.18114388
226,0.6277526666666139,-4.4054536823333335,-3.5307177703333337,-61.74933116666667,2.9007559216666663,-0.9845195663333334,8.546786467333334,-9.893555004666666,-12.043358959999999,0.556170414
227,0.6305303333332025,-4.485771179333333,-3.433226744,-61.741302499999996,-1.2329460780000001,-0.9985671243333334,11.929478326,-10.019257544,10.986985366,1.5090803306666665
228,0.633307999999791,-4.559351444333333,-3.505758206,-61.73760730000001,3.6534146466666666,-1.0536053183333334,7.902907689,-9.215833346666667,-9.33872779,-0.5454767943333333
229,0.6360856666666829,-4.612508138,-3.453765471666667,-61.729601566666666,-2.4807962576666664,-0.444316432,10.755739133,-6.761100609666667,5.542435169333333,1.098714451
230,0.6388633333332715,-4.679279486333333,-3.4982933996666667,-61.724276233333335,3.7946147123333334,-0.8451795776666667,13.345226444,-8.381174723333332,-6.0127852766666665,0.005135575999999957
231,0.6416409999998601,-4.744680404666667,-3.5043751400000005,-61.71465556666666,-2.075816393,-1.5358644253333333,13.157152494666667,-8.218968231,-1.4213523873333334,0.7318328223333331
232,0.6444186666664488,-4.833755652,-3.5206431546666668,-61.71136476666666,3.0727033816666665,-1.8368474243333335,9.193289914,-11.079192797,-2.607337475000001,-0.06664399266666665
233,0.6471963333333405,-4.920894464,-3.503185351666667,-61.70876313333332,-1.9061425526666664,-0.7389675826666666,9.487341084666667,-10.878550849666667,1.4616812860000004,0.13148216433333335
234,0.6499739999999293,-5.008747895333333,-3.5438095730000003,-61.70269773333333,3.5947057406666665,-1.3598109980000002,8.867071230333332,-10.913562455333333,-5.546359380666666,0.009498636000000005
235,0.6527516666665177,-5.086529890666666,-3.597773711,-61.692349766666666,-0.5775514643333333,-0.8488124359999999,10.803017773666667,-9.697046598333332,-7.158624968000001,0.3135864536666666
236,0.6555293333331066,-5.165178934666667,-3.6770676773333335,-61.6821238,1.4471597273333332,-0.33519248166666665,8.500500519,-9.774777731666667,-10.214339332,0.08338709666666666
237,0.6583069999999983,-5.241941610666666,-3.6630691686666665,-61.682497666666656,-0.27836886033333336,-1.4819537799999998,8.654085955333334,-9.654346467333335,1.0778131486666667,-0.244462247
238,0.6610846666665869,-5.297159671999999,-3.7697544893333337,-61.66722363333334,1.9411035773333332,-0.16501115766666666,11.613235792666666,-6.924357255333334,-13.540840466666666,0.3352647796666666
239,0.6638623333331755,-5.365617593333333,-3.8526490530000004,-61.655197166666674,0.30007954466666664,-1.0644991,8.589400767999999,-8.560902118333333,-10.63551871,0.14994573566666666
240,0.6666399999997642,-5.436068376000001,-3.871552546666667,-61.64646656666667,-1.3434227706666666,-1.1536754766666666,9.592755953,-8.792402744333334,-2.9949572483333333,0.6687920093333334
241,0.6694176666666559,-5.494301955,-3.9378547666666672,-61.63992820000001,2.3654912113333335,-0.4060500836666667,8.728668372,-7.374906698666667,-8.59068656,-0.3343426683333333
242,0.6721953333332445,-5.539540132,-4.032921075666667,-61.62589516666667,-0.07001739733333327,-0.6935544013333333,8.180562179333334,-5.730712096,-12.142093182333333,0.2853853043333333
243,0.6749729999998334,-5.585117022333333,-4.069110949666666,-61.61856333333333,0.364437004,-1.2808779276666666,9.813248951666665,-5.845228512666666,-5.0057901739999995,0.08513314533333334
244,0.6777506666664217,-5.631432215333334,-4.132592121666667,-61.610720333333326,2.2083883286666666,-0.611040895,10.013663768666666,-5.8994112806666665,-8.310744128666666,0.06851381566666666
245,0.6805283333333136,-5.657465139999999,-4.2888790766666665,-61.59479523333332,-0.029460152333333323,-1.1284662486666666,7.220184961666667,-3.4259393213333333,-19.447093963333334,-0.324447109
246,0.6833059999999023,-5.705462932333333,-4.275921027,-61.59950513333333,-0.9713952343333333,-0.9709252616666667,9.045588018,-6.218508879666667,0.978242,-0.7034139033333334
247,0.6860836666664909,-5.7377443313333325,-4.344635009666667,-61.59280396666666,2.0475893816666666,-0.18529915333333333,12.811619123333331,-4.254482229333333,-8.883197070666666,-0.367111802
248,0.6888613333333827,-5.753211975333333,-4.511290073666667,-61.578765866666664,0.9181233843333333,-0.4751580146666667,6.417307298333334,-2.1496715546666665,-20.680027963333334,-0.7102702596666667
249,0.6916389999999714,-5.765124002666667,-4.488046805,-61.575083433333326,-1.6446455320000002,-1.121833553,6.49712207,-1.8350891273333332,2.132530609666667,0.36049483199999993
250,0.69441666666656,-5.755362510666667,-4.607422669666667,-61.55760956666666,2.2411158086666667,-0.3445732716666667,10.154372373666668,0.919128448,-15.085338909999999,0.3620615253333333
251,0.6971943333331486,-5.753670215666666,-4.683672110333333,-61.538731899999995,-0.05684046933333331,-1.103324771,7.541261037333334,-0.054229571333333317,-9.928782302666667,0.9599617619999999
252,0.6999720000000403,-5.757288297,-4.689496835333333,-61.535842900000006,0.8180272779999999,-1.2033612433333334,9.585425537,-0.8315149343333332,-1.3446448643333333,-0.076868317
253,0.702749666666629,-5.742969671666667,-4.8709848723333335,-61.51151276666667,1.5385507143333335,-0.198845287,10.238948503333333,1.5211445689999998,-22.557048163333334,0.34174100300000004
254,0.7055273333332176,-5.731573105,-4.834066868,-61.51624806666666,-1.8760267300000002,-1.290043414,6.945076705333334,0.8949698606666668,3.8455205956666663,-0.4301227776666667
255,0.7083049999998062,-5.711922327666667,-4.943720976333333,-61.49740346666666,3.318032979666667,-0.6419319786666667,6.166062831999999,2.1132769186666667,-13.91606172,0.583731393
256,0.7110826666666981,-5.677275181,-5.029640197666667,-61.480303433333326,-3.215434630666667,-0.46944067866666667,10.430231095333333,3.9120752810000003,-11.081752537666667,0.7021630456666667
257,0.7138603333332867,-5.664652983333333,-4.977287928333333,-61.476626100000004,2.9004368783333327,-1.1552737059999998,10.187574228999999,1.11675935,5.608902772666667,0.7220567363333333
258,0.7166379999998753,-5.625842412333334,-5.192616303666667,-61.457084666666674,2.0014636913333335,-0.26217897233333337,2.1125563279999997,4.441734552333333,-26.560295103333335,-0.5090487996666667
259,0.719415666666464,-5.576755524,-5.116013209000001,-61.45104726666667,-2.8722654186666667,-1.2329031226666667,8.775044280666668,5.517076421666666,8.478633404666667,1.2465255856666666
260,0.7221933333333558,-5.555329481666667,-5.247010707666667,-61.44843293333334,3.684296131,-0.7540358303333333,11.174840095666667,2.176697229,-16.295619644333335,-1.4784841536666666
261,0.7249709999999444,-5.510358969666666,-5.2730135916666665,-61.44278713333333,-2.5227508543333332,-0.7981839573333334,4.074519216333333,5.017261505,-3.769491078,0.0016050139999999786
262,0.727748666666533,-5.461055914666666,-5.265255928,-61.44626366666665,1.4781282343333333,-0.9925661683333332,8.846888384333333,5.456143538,0.3488017576666668,-0.6132175723333334
263,0.7305263333331217,-5.436958471666666,-5.387535412999999,-61.42957813333334,1.0723174413333334,-1.9610802333333333,12.23142815,2.6382625996666667,-15.394158683333336,0.22245963400000002
264,0.7333040000000134,-5.4337681133333335,-5.355647087333334,-61.433682766666664,-0.3206786666666667,-0.49399529866666664,5.433408737333333,-0.09027727433333332,3.2402477266666665,-0.4309466976666667
265,0.736081666666602,-5.40836366,-5.4344487186666655,-61.424647033333336,1.6611763043333332,-0.7790458996666666,2.2053297560000003,2.7115443549999996,-10.114660579333334,-0.17752373733333335
266,0.7388593333331906,-5.403031825999999,-5.426160494333334,-61.42474873333333,-1.2780183156666665,-0.7925646306666668,13.56432883166667,0.21329399933333335,0.37610230333333333,-0.21834855799999997
267,0.7416369999997793,-5.374236901333333,-5.496590455333333,-61.400344866666664,1.324378987,-0.8563839493333334,7.361248494000001,3.297325213666667,-9.286826373333334,1.744188756
268,0.7444146666666711,-5.376394272,-5.450243314000001,-61.39900973333334,0.06543387700000003,-1.3322589993333331,5.8245481649999995,-0.6755456126666668,4.908293565,0.369062682
269,0.7471923333332597,-5.371561050666666,-5.554646333,-61.392201766666666,2.4536403416666666,-0.6724082433333334,6.370805541666666,0.21944554666666663,-13.146729786999998,-0.725113382
270,0.7499699999998484,-5.3646969796666655,-5.500339826,-61.394261699999994,-3.4767943223333333,-1.0301237306666666,12.575968425,0.3716584443333333,5.898382742999999,0.02108906399999999
271,0.752747666666437,-5.350926717,-5.546200752000001,-61.387919066666676,3.424196123666667,-0.4009802886666667,7.815253418666667,1.288921416,-6.146951199,-0.104109049
272,0.7555253333333288,-5.344516594999999,-5.52094237,-61.385851533333344,-2.492882967,-1.072851648,5.375677884000001,0.35744251800000004,2.38550504,0.15423188133333335
273,0.7583029999999175,-5.333943049000001,-5.469822565666667,-61.39149983333334,3.871076027666667,-1.190572401,6.105868219333334,0.7684483626666667,5.569557191,-0.4430367003333333
274,0.7610806666665061,-5.317747910666667,-5.596131324666666,-61.38211823333333,-1.016768058,-0.5645796256666666,9.145196120333333,1.6159683463333334,-15.801422755333334,-0.6822438016666666
275,0.7638583333330947,-5.313389778,-5.432216962000001,-61.40361529999999,-0.43621349333333326,-0.9811488886666667,10.002080915,-0.162295898,19.22443294333333,-1.070564429
276,0.7666359999999864,-5.317344824666667,-5.54903539,-61.389681499999995,1.845815857,-1.0895447596666668,10.638731160666666,-0.7488108873333333,-14.720384596333334,-0.011428192333333365
277,0.7694136666665751,-5.300679206666666,-5.390317122333333,-61.409462,-1.3530062236666665,-0.5162076676666666,6.484128635,1.3328414726666666,18.585290269999998,-0.9531315763333333
278,0.7721913333331637,-5.284001191333333,-5.476512432333333,-61.40596516666667,2.697785417,-0.7586958633333333,3.1245446196666666,1.6175047853333335,-10.951056639333332,-0.835677259
279,0.7749690000000555,-5.301968097666666,-5.386085987,-61.40676116666666,-1.0898546836666665,-2.105900307666667,10.545586347333334,-2.608981013333333,10.214148602333333,0.5497711996666667
280,0.7777466666666442,-5.308911164333334,-5.413109779333333,-61.408485399999996,2.190933187666667,-0.4862130483333334,9.742599965666667,-1.277958393,-3.8218111993333337,-0.821474254
281,0.7805243333332328,-5.311618169,-5.335690498333332,-61.41390483333333,-1.5235406956666668,-0.6402405796666667,8.089254856333332,-0.8267635503333333,8.710864186,-0.14506623166666668
282,0.7833019999998214,-5.308355808333332,-5.343522707666666,-61.414105733333336,3.321534872333333,-0.4972375133333333,6.693898379666667,-0.03976599366666663,-1.5432703493333335,-0.433431248
283,0.7860796666667134,-5.2982819873333336,-5.283319791333334,-61.40906016666667,-2.6188637016666667,-1.2412731250000002,8.462183474,0.822712183,6.5384620013333326,0.8961355013333333
284,0.7888573333333017,-5.291982333,-5.244656403666666,-61.40548196666666,3.1316621500000004,-0.4589332689999999,7.227153937333334,0.3693660296666667,3.9683119443333346,0.5395425556666666
285,0.7916349999998905,-5.290294965,-5.288091977666667,-61.388730366666664,-0.46050998566666673,-0.6850282349999999,9.566325188333334,-0.05622743566666669,-5.973253408333332,1.1376520296666668
286,0.7944126666664791,-5.298608780333333,-5.177646477666666,-61.38688913333332,1.3154214223333331,-0.9943826793333334,3.703895072,-1.4016962053333337,12.563263414333333,1.1487728433333333
287,0.7971903333333709,-5.294972896666667,-5.254240035666666,-61.34055583333333,1.0233212856666667,-0.8295611743333332,2.5646193376666666,0.5005022076666666,-10.261806965666667,4.292344093333333
288,0.7999679999999595,-5.31027778,-5.158570130333334,-61.30766296666667,1.370625973,-2.1601175466666667,7.546222685666667,-1.8986638586666666,10.44598643,4.757328033333334
289,0.8027456666665481,-5.369932174666666,-5.261850039333333,-61.263811733333334,1.3620423476666665,-1.2527501183333334,11.912789028,-7.121561447666667,-13.424457233333333,3.7000923156666663
290,0.8055233333331367,-5.411553859666667,-5.2318638166666664,-61.23227690000001,-1.2700238226666667,-0.860144685,0.20613567033333316,-5.077663739666667,2.6169041396666666,3.794083118333333
291,0.8083010000000286,-5.47652181,-5.297557671666667,-61.18924966666666,2.9400455156666667,-1.3067849976666668,5.854592721666666,-7.764255682666666,-8.932923000666667,4.011705796
292,0.8110786666666173,-5.588357448666667,-5.345295270333334,-61.182764666666664,0.15227127333333335,-1.6129350660000001,9.188481968,-13.781203906000002,-6.3833160399999995,-0.08317383133333323
293,0.8138563333332057,-5.681569417333333,-5.402059395999999,-61.17549896666666,-0.01609600599999994,-0.49063322433333334,1.6495704256666668,-11.543799877666666,-7.462076664333334,-0.16326944033333335
294,0.8166339999997945,-5.777440548,-5.4987433753333335,-61.19172413333333,1.4989114006666666,-0.8293996849999999,6.000507842666667,-12.12119643,-11.956642152,-3.389114101666666
295,0.8194116666666863,-5.890076319333333,-5.560774962,-61.20665489999999,0.46294712033333335,-1.4933207033333333,7.342812696999999,-14.128270466999998,-7.825082300666666,-2.88033855
296,0.8221893333332749,-6.013218720666667,-5.686239560333334,-61.22847240000001,1.4485364753333334,0.32853593166666667,5.549120545333333,-15.472438813333333,-15.30539131,-4.521990935000001
297,0.8249669999998636,-6.103929996333332,-5.743035157666667,-61.25170136666668,-0.8340797226666666,-0.37886705,4.454632063666667,-11.594917294666667,-7.087417125666666,-3.8310705823333335
298,0.8277446666664522,-6.184783935666666,-5.850597381333333,-61.26301320000001,1.5410049556666667,-0.947323501,8.799891949,-10.277389528333332,-13.290238696666668,-3.087054014
299,0.8305223333333439,-6.285574118333333,-5.912414391666666,-61.261914566666654,-0.24917184533333328,0.1408805026666667,7.038517792333333,-12.517815587333333,-7.990037600000001,-1.0325269503333334
300,0.8332999999999325,-6.329195499333333,-5.988028685,-61.2823995,0.648454666,-0.12453475833333331,3.3385086853333337,-5.929059346666667,-9.352641105,-3.7917905646666665
301,0.8360776666665214,-6.370626926333333,-6.062235990999999,-61.28317006666666,-1.4577048819999998,0.20766356099999997,10.108284474666666,-5.4140089353333325,-9.439542452,-1.4335435826666665
302,0.8388553333331097,-6.417514960000001,-6.054938793000001,-61.29211680000001,1.723698179,-0.45038169599999983,7.790028731,-6.181782266333333,0.3854430116666669,-1.3146633306666666
303,0.8416330000000016,-6.420580546,-6.1172273950000005,-61.307629899999995,-0.5487864020000001,-0.6083952486666666,3.3991685263333333,-1.001546482,-7.822246551666667,-3.0404524803333337
304,0.8444106666665903,-6.376511574000001,-6.113449891333333,-61.32115173333333,1.0315447649999998,0.6741142473333334,6.925879877,4.680199027333333,0.026344060666666575,-1.9147835970000002
305,0.8471883333331789,-6.336097081333333,-6.104498386333333,-61.33952586666667,-1.4861014583333334,-0.5634119860000001,14.12311109,4.174719333666666,0.7140266896666665,-2.420541087666667
306,0.8499659999997675,-6.270983855,-6.067631244666667,-61.34307353333333,2.1124221083333334,-0.28237022966666664,4.318020661333333,7.3349097583333345,3.8367137110000002,-0.2914899796666666
307,0.8527436666666594,-6.190994421666667,-6.029628117666667,-61.36752826666666,-1.711277803,-0.527015189,6.560708125333334,8.84847768,4.254286408333333,-2.7721182506666664
308,0.855521333333248,-6.090115388333333,-5.984814008,-61.379274966666664,3.1547277669999993,-0.026502862666666644,7.2596077113333335,11.523679413333333,4.8887162523333325,-1.1728504303333331
309,0.8582989999998366,-5.977285067333333,-5.894900958,-61.41725413333333,-2.8507349686666674,-0.7041510369999999,10.660260996666667,12.62774118,10.607909678666667,-3.7453827860000004
310,0.8610766666664253,-5.825540065666666,-5.833126227,-61.41534933333333,2.2755791743333336,0.05620938066666666,7.8630143813333335,17.799358686666668,6.7450375173333335,0.634063244
311,0.863854333333317,-5.686220009666667,-5.7174112,-61.439969366666666,-1.5672571659999999,-1.0893749046666665,8.249424297333332,15.978494326666668,13.512636978333333,-1.9038429363333333
312,0.8666319999999056,-5.539226214333333,-5.6267298063333335,-61.44179786666666,4.0891465343333335,-0.4658259949999999,5.165671668000001,17.186624846666668,10.243456999666668,0.5065810680000001
313,0.8694096666664942,-5.370565891333334,-5.549011707666668,-61.45510356666667,-2.5948035816666666,-0.465126256,7.898705600333334,19.63966814666667,8.836840868666666,-1.0888575316666667
314,0.872187333333386,-5.201219558666668,-5.397431532666666,-61.430244466666664,2.947240412333333,-0.6484968860000001,9.545122939666667,20.186802543333332,17.225354354,4.385210077
315,0.8749649999999747,-5.056350708,-5.340784072999999,-61.39885963333332,-1.4067416783333335,-1.136419291,10.015748819,17.29371071,5.837674298333334,3.9583872953333334
316,0.8777426666665633,-4.9211807253333335,-5.209937095666667,-61.33903759999999,3.600312640333333,-1.3525654623333334,-0.6363125639999999,16.457272213333336,14.403650444333332,8.240508715666666
317,0.8805203333331519,-4.793239116666666,-5.180874347666666,-61.28127286666666,-0.6565014123333334,-0.911759297,8.437878132333333,15.538201013333335,2.2935597096666664,6.801200389666666
318,0.8832980000000438,-4.702848116666667,-5.0401012099999996,-61.21023053333334,0.7985323666666666,-2.0398841696666667,8.448446432666666,11.178992270666667,15.519889830000002,9.576197623333334
319,0.8860756666666324,-4.599183400333334,-5.038736979333334,-61.1618525,1.4769622806666665,-1.0862294636666665,2.8923695486666667,12.503237404333333,-0.9012835819999999,5.411704698333334
320,0.888853333333221,-4.532316526,-4.961375872666667,-61.1006317,0.6127951543333333,-2.0013277136666665,7.0169116659999995,8.239704291,8.060190518666667,7.737758874666667
321,0.8916309999998097,-4.506920337666667,-4.945906798333333,-61.07377113333333,1.2671909579999998,-1.0115337353333334,9.183297792666666,2.877234727333333,1.002152542,2.9910772976666666
322,0.8944086666667013,-4.522403081,-4.919476986,-61.04072823333333,0.10192587466666668,-1.7057081163333334,2.9942495823333335,-1.9400997163333333,2.239444176333333,3.907904386333333
323,0.89718633333329,-4.576032479666667,-4.925096988666667,-61.012624100000004,1.9962699416666665,-2.537753105333333,-0.479274336,-6.594103933666667,-1.5328370729999998,2.9322283663333337
324,0.8999639999998786,-4.617723783,-4.943100929,-61.015925066666675,-1.0232927303333332,-1.303183595,5.126360575333333,-5.463363129333334,-2.7300763526666665,-0.8416752516666667
325,0.9027416666664673,-4.675049464,-4.951887289666667,-61.01593273333333,1.0317309103333334,-0.8316828433333333,10.994819004666667,-7.322795391,-1.6472558576666667,-0.442439099
326,0.9055193333333591,-4.770324230333333,-4.994325955333333,-61.0411631,1.9378492883333334,-0.5701742573333334,10.287338574,-12.117893059666669,-5.441591263,-3.600602269333333
327,0.9082969999999477,-4.905558268333333,-5.039011319666667,-61.08140056666667,-0.21722348533333338,-0.6821910940000001,4.7897888019999995,-17.096613645666668,-5.531574685333333,-5.599316755666666
328,0.9110746666665364,-5.061933040333334,-5.061115583,-61.112467433333336,1.1478544923333334,-1.1644004583333334,-0.287311574,-19.518251736666667,-2.9366990526666665,-4.191950559666666
329,0.913852333333125,-5.195807457,-5.125379244333334,-61.15816243333333,0.6130805613333333,-1.5532313386666665,-1.385724346,-16.999443693333333,-7.784625689000001,-6.497082710333333
330,0.9166300000000168,-5.309504032333333,-5.194505055666666,-61.1789373,-0.18946634233333334,-0.735174497,7.427462418666667,-14.285826048333334,-8.650612671333333,-3.5073167883333327
331,0.9194076666666052,-5.4080484706666665,-5.264786879,-61.22034453333334,1.5394637186666664,0.3695118823333334,12.994448026666667,-12.727817217999998,-8.527714728333335,-6.071761369666667
332,0.9221853333331941,-5.523481527666667,-5.309566497666666,-61.2258606,-0.6351341006666665,0.10341003033333336,9.214296340666666,-14.327256283000002,-5.904164392666666,-1.4399938983333331
333,0.9249629999997827,-5.673922697999999,-5.340562979333334,-61.25548299999999,1.9303662103333332,0.414072151,3.144981503666667,-18.838113944,-3.943982106,-4.230339050333333
334,0.9277406666666744,-5.804528554333333,-5.3915836016666665,-61.263720199999995,-1.4079804420000002,-1.0471338033333335,-1.0005307643333332,-16.182641346666667,-6.6166024210000005,-1.8794368306666664
335,0.9305183333332631,-5.926434516666666,-5.422014077333333,-61.268005400000014,1.9682263933333333,-1.269035111,0.921550413,-15.128914200000002,-4.170664151666666,-1.2478191056666665
336,0.9332959999998517,-5.9884910583333335,-5.461522261333333,-61.291859966666664,-1.549012244,-0.8172735273333332,6.220975875666667,-8.136397519666668,-5.035844485,-3.5817331869999998
337,0.9360736666664403,-6.021385351666666,-5.501516819,-61.285258,1.967144688,0.4097515146666666,9.706089019666665,-4.314863284333334,-5.4534761110000005,-0.0773507456666667
338,0.9388513333333321,-6.074873924333333,-5.520993550999999,-61.30621340000001,-0.8075456816666667,0.37270387,10.157940229333333,-7.090183259000001,-2.6699597733333333,-3.0156325496666665
339,0.9416289999999208,-6.119231541999999,-5.5354294773333335,-61.31275686666667,1.135264675,0.4397451776666666,4.3396792809999996,-5.839136481333334,-2.2386157113333334,-1.3180742856666667
340,0.9444066666665093,-6.151937167,-5.5348011653333336,-61.32467653333333,-0.13809445533333334,-0.6796272196666667,1.08550333,-4.493731906333333,-0.38343660033333354,-1.6942109663333333
341,0.947184333333098,-6.155346870333333,-5.547557036000001,-61.33761090000001,0.9478485636666667,0.143793066,4.998481114666666,-1.0016872186666665,-1.952705463,-2.0657708246666666
342,0.9499619999999896,-6.124049981333333,-5.514300664,-61.360832200000004,-1.361063599666667,-0.20590671900000002,5.865596294666666,3.0608630580000002,3.654084642666666,-2.605864326333333
343,0.9527396666665785,-6.085260073333333,-5.510641415666666,-61.36734773333334,1.7259996333333334,-0.5089935713333333,4.577207008999999,4.138854424,-0.0799975393333332,-1.0903893709999999
344,0.9555173333331671,-6.004539013,-5.479784806333334,-61.388333666666675,-0.5227325359999999,0.24208311666666668,4.980525016666667,9.010302860666666,3.3431315423333334,-2.4624373913333337
345,0.9582949999997558,-5.897808074666667,-5.4530353546666674,-61.39191943333333,0.636170432,0.12267378966666669,8.259705543333334,12.331036567333333,2.6377885343333336,-0.4553741713333333
346,0.9610726666666475,-5.816593647,-5.390272140666667,-61.39289346666666,0.657395522,0.2057845593333333,9.082433065333332,9.295267421666667,6.901701013,0.29451682333333334
347,0.9638503333332361,-5.722667376333334,-5.354390780333333,-61.41324866666667,-0.20568287400000007,-0.326859832,4.957381089666667,10.601541202666667,3.9316446783333334,-2.3490220506666666
348,0.9666279999998247,-5.600729783333333,-5.278363704666667,-61.40720366666667,0.0941070516666667,-0.609802167,1.8125366966666665,14.272764206666666,8.395225842666667,1.3387370506666667
349,0.9694056666667166,-5.474563598666666,-5.2368990580000006,-61.41706849999999,1.888549487,-0.692978879,4.259469588666667,14.587728816666667,4.468310236,-1.0553237599999998
350,0.9721833333333053,-5.3157211943333325,-5.164191246000001,-61.42875923333333,-0.9099591413333333,-0.548086484,7.889499664333333,18.50762272,8.209493638333333,-0.8605230896666667
351,0.9749609999998937,-5.151688893333334,-5.1090429623333335,-61.42861176666667,0.513120183,0.3627204493333333,11.706156094333332,19.245611826666664,5.990556717,0.26308817700000003
352,0.9777386666664826,-5.02879858,-5.0148804983333335,-61.42412569999999,1.3984549443333332,-0.6343791436666667,7.482651232666666,14.365438142333332,10.595617135666666,1.2651087143333333
353,0.9805163333333743,-4.897149403666667,-4.961737632666666,-61.443005866666674,-0.5320745706666669,-1.0931560993333334,0.07387822866666667,15.157857577000001,5.952370405333333,-2.0670389730000003
354,0.9832939999999629,-4.743474642333333,-4.855547428,-61.42318726666667,0.6310653686666665,-1.0575822493333333,4.239970843000001,18.21825695,11.88839531,3.143841822666667
355,0.9860716666665515,-4.5919639273333335,-4.786488850666667,-61.432711299999994,1.058039233,-0.7985076753333332,11.911204973333334,17.63965543,7.75224034,-0.8183707396666664
356,0.9888493333331402,-4.464766343333333,-4.698304971,-61.42241670000001,-0.2569889726666667,-0.6646687586666666,9.803704895000001,14.939702986666667,9.846805413666667,1.7482100326666667
357,0.9916270000000319,-4.346735954333333,-4.626432259666667,-61.41706593333333,1.023542106,-0.7763101259999999,2.0621029733333334,13.771759984666668,7.952800431666667,0.9394927023333334
358,0.9944046666666205,-4.221586307,-4.5198063846666665,-61.397997533333324,0.8161735533333333,-1.2677006123333332,3.1873809493333334,14.781609216666666,11.972657681000001,3.050477385666666
359,0.9971823333332094,-4.129096110666667,-4.476941108666668,-61.38836923333333,0.8712247909999999,-0.9499665746666666,11.802770613333335,10.745492618,4.448001742333333,1.1614731946666665
360,0.9999599999997977,-4.055922587666667,-4.375911553666666,-61.382026700000004,-0.49983773633333345,-1.1277688743333334,7.4218759536666665,8.410670359666666,11.428514003333333,1.3550188143333333
361,1.0027376666666896,-3.979261318666667,-4.340081373666666,-61.37920886666666,1.8366378046666665,-0.48389978466666667,2.8221744296666667,8.78200706,3.669648910333333,0.27199335899999993
362,1.0055153333332782,-3.922496398333333,-4.288202921666667,-61.372360233333325,1.0581752456666669,-1.5276252826666665,2.9149113496666668,6.456046899,5.5382378103333325,1.0848313173333335
363,1.0082929999998669,-3.8710661729999996,-4.270154158333334,-61.37450916666668,0.13611110066666665,-0.756654444,8.837970416666666,5.706856091666666,1.5807141066666668,-0.47812823433333335
364,1.0110706666664555,-3.8219050563333337,-4.237732569333333,-61.37695060000001,0.5168056486666667,0.07364922766666664,11.077142079333333,5.4631029763333325,3.286908577,-0.1815965373333334
365,1.0138483333333472,-3.784529368333333,-4.228085836,-61.374689733333334,0.9815098446666668,-1.0032967430000002,8.597568828666667,4.058256786,0.5396745203333332,-0.012264569666666633
366,1.0166259999999359,-3.798432986,-4.213203907,-61.3839518,1.158418337666667,-0.7072259980000001,4.266957799666667,-2.1654822033333336,1.2352934876666666,-1.086876084
367,1.0194036666665245,-3.7840220929999995,-4.245981693333333,-61.39451346666667,0.7140584390000001,-1.4927273193333335,-1.7588935296666666,1.188953052,-4.436172087666667,-1.8881917003333335
368,1.0221813333331133,-3.735670328,-4.268639882333333,-61.404157,-0.5454023876666667,-1.0099617443333333,6.501049677666667,5.289716561,-3.242092271666667,-1.6474610169999997
369,1.024959000000005,-3.7167672316666667,-4.311805089333333,-61.39985913333334,3.018845399,-0.14288983766666666,15.03647073,1.8617322246666668,-5.801957289333333,-0.17583753700000004
370,1.0277366666665937,-3.713000297666666,-4.35043478,-61.422225966666666,-1.6026795306666666,0.3683339506666667,10.383441289,-0.17770655833333335,-5.059252532,-3.2384595073333333
371,1.0305143333331823,-3.7380306720000003,-4.388599236666667,-61.40828196666667,1.1639077216666667,-0.4104087749999999,1.7391951979999998,-3.314896265666666,-5.277728160333333,1.00491484
372,1.033291999999771,-3.7458341123333336,-4.414989948333333,-61.41780093333333,1.0604691903333332,-1.9651577076666669,0.508187135,-1.4525277813333333,-3.694503506,-1.550109277
373,1.0360696666666627,-3.746073563666666,-4.474323431333333,-61.41441093333333,0.054716944666666656,-1.118602554,6.713344177666667,-0.43388764066666674,-7.730880420999999,-0.42908968533333325
374,1.0388473333332513,-3.7467150686666666,-4.517947196666667,-61.41855113333333,1.0138817626666667,-0.8988062939999999,8.3763388,-0.5356405179999998,-5.8086301486666665,-0.9257582626666667
375,1.04162499999984,-3.7269446056666666,-4.592419942333334,-61.4189555,-0.008059422333333455,-0.09496015333333337,7.401403347666666,1.931488375,-9.512511889333334,-0.9917532696666668
376,1.0444026666664286,-3.7456017336666663,-4.643442789666666,-61.4203949,0.590729793,0.5164477823333332,11.406941891333332,-2.6768372853333333,-6.710605779999999,-0.7331733716666667
377,1.0471803333333203,-3.778051694,-4.6649939216666665,-61.424466466666665,0.630174925,-0.0074677863333333,5.921397924666667,-4.375017961,-3.147494693666667,-1.0056490303333334
378,1.049957999999909,-3.801206986,-4.7156184513333335,-61.42220053333333,0.5300837853333333,-1.204147279,-0.8359363076666667,-3.1716356280000007,-6.69863526,-0.233307322
379,1.0527356666664975,-3.8419855436666666,-4.762792269666666,-61.41313173333333,0.6726062843333334,-1.6014870503333334,2.9635529120000004,-5.247401038666667,-6.317819754000001,0.33689550566666665
380,1.0555133333333895,-3.840571085666667,-4.836833159333334,-61.41447446666666,-0.07914873733333327,-0.03783127666666667,7.075753371,-0.2582596139999997,-9.465204280333333,-0.9594964583333333
381,1.058290999999978,-3.794459899333333,-4.889189402333333,-61.39009096666666,-0.25253534333333344,0.037758648333333346,6.366489251333333,5.339398861,-7.061610539,2.1306862433333333
382,1.0610686666665667,-3.7543842,-4.923891067333334,-61.40417479999999,1.0979227623333332,0.15680239833333334,9.798587481,4.233602126666667,-4.652373631666667,-2.1972703040000003
383,1.0638463333331554,-3.738440037,-4.9840917586666675,-61.39067586666667,-0.5651241143333331,-0.33433904733333336,10.997287113333334,1.6193023919999998,-7.912382760666667,0.7792701720000003
384,1.066624000000047,-3.7453681626666664,-5.011009215999999,-61.40148163333333,1.7457799913333332,-0.3509707116666667,2.3652405736666666,-1.3757837613333332,-3.747170766,-1.69528691
385,1.0694016666666357,-3.708686510666667,-5.05441157,-61.40946196666666,-1.6639707086666669,0.03718378133333341,1.0089610416666666,3.882315278,-5.735321998333333,-1.6529892956666667
386,1.0721793333332243,-3.65147837,-5.058913230999999,-61.4261093,0.23103729900000003,-0.137869626,9.82461039,6.2767475443333325,-1.0304648776666667,-2.04922011
387,1.074956999999813,-3.6124744416666665,-5.0553298,-61.4405314,0.5370910766666667,-0.46966389300000005,10.835789045,4.088749309333333,-0.059967269666666656,-2.0491772889999997
388,1.0777346666667047,-3.5646178723333333,-5.054819106999999,-61.46401723333333,-0.14959701166666664,-0.780113697,4.086144169,5.059490382333333,-0.36840098600000015,-3.1172780593333336
389,1.0805123333332933,-3.498754819,-5.017062028333332,-61.48335516666666,-0.4760137993333333,-0.9646080933333333,3.712004025666667,7.262221175666667,4.066768646333333,-2.389364481
390,1.083289999999882,-3.413417339,-4.978128274333334,-61.48544566666667,1.1084229946666666,-0.06524278699999993,9.922180175333333,9.792643548333333,4.069227576,-0.21136001766666665
391,1.0860676666664706,-3.3450046380000003,-4.927868365999999,-61.50318910000001,-0.9696851573333333,0.29904341700000003,13.42951711,7.5821785146666665,5.547762314333333,-2.124833385
392,1.0888453333333625,-3.2991073133333333,-4.8213898340000005,-61.50249226666667,-0.562650303,-0.733271122,2.394488891,5.086296518,12.142929713333332,0.5399225950000002
393,1.0916229999999512,-3.199699004333333,-4.734187921,-61.50668083333333,1.3354497353333334,-0.36830459033333335,0.6847793860000001,11.444334668000002,9.878698985666666,-0.26902194799999996
394,1.0944006666665398,-3.108650922666667,-4.606698830999999,-61.50154366666667,-0.8663680153333333,-0.7473087719999999,13.280364353333333,10.553717216,14.630659103333334,1.2495273746666664
395,1.0971783333331284,-3.0196429093333337,-4.4739302,-61.507309,-1.2075501683333334,-0.578361752,10.500156562666668,10.183936914,15.34883499,-0.20805160199999997
396,1.0999560000000201,-2.906935612,-4.307162761666667,-61.5023524,1.245228946,-0.06947232433333334,6.073308151,13.148626010000001,19.340819673333332,1.4471448660000001
397,1.1027336666666088,-2.8023380440000003,-4.138485590666667,-61.514094066666665,-0.7305863699999998,0.13766804600000002,10.002241929666665,12.006844836666666,19.688994086666668,-0.7618578276666667
398,1.1055113333331974,-2.717078129333333,-3.9585899513333334,-61.500358600000006,0.42745419333333334,-1.5377047933333332,8.437733331666667,9.928163209333333,20.8679053,2.5449716250000005
399,1.108288999999786,-2.603228251333334,-3.804328759666667,-61.49792479999999,1.6192018849999998,0.17189170933333328,6.899109363333333,13.239017486666667,17.87976423666667,0.7815717856666665
400,1.1110666666666777,-2.486750523,-3.5852265356666666,-61.50071463333333,-0.7623654606666666,-0.3775670526666666,10.464229106,13.539665223333335,25.66554769,0.7710317773333335
401,1.1138443333332666,-2.360526720333333,-3.4681301913333336,-61.48730213333332,0.4905531406666667,0.30947943533333333,14.364705720000002,14.80515766,13.37317721,1.826427991
402,1.116621999999855,-2.211491227,-3.2288591859999998,-61.48072813333332,-0.16731706266666668,-0.48825822300000005,1.811716477,17.49536355,28.054012296666667,1.563015898
403,1.1193996666664436,-2.060591260666667,-3.1152598860000005,-61.481358866666675,3.1063511373333337,-0.34044655166666676,8.335219543666668,17.662392933333333,13.026034673333333,0.07507948066666659
404,1.1221773333333356,-1.9162580966666667,-2.993015130333333,-61.48045856666666,-1.3596054116666665,-1.1636572676666666,13.06975301,16.903862,14.048667589999999,0.4400782983333332
405,1.1249549999999242,-1.7444195349999998,-2.8469879626666668,-61.478172300000004,2.9282834930000003,-0.18685358766666663,9.059208234333333,20.19252141333333,16.905317306666664,0.48432763433333337
406,1.1277326666665128,-1.610592286,-2.7724240623333336,-61.48210399999999,-1.4573659553333334,-1.6681203446666668,10.799064635666667,15.613135973333334,8.350097099000001,-0.336396247
407,1.1305103333331015,-1.4597096443333335,-2.668699661666667,-61.47216543333334,1.7518200279999998,-0.289522967,10.282060146000001,17.72229448666667,11.811997414666665,1.1628484823333334
408,1.1332879999999934,-1.3206687373333335,-2.5647010006666666,-61.47607423333333,-0.944943336,0.053753912666666626,9.30604744,16.239862123333335,11.879130046,-0.28024121133333335
409,1.1360656666665816,-1.2009887893333333,-2.5144302843333333,-61.47067766666667,2.4882368243333333,-2.5778881313333333,9.221732617333332,13.949519793333332,5.418398221333334,0.4177084506666666
410,1.1388433333331707,-1.1104421616666666,-2.4911726316666667,-61.47166443333333,1.1210474323333333,-1.7982034086666665,7.106586874666667,10.435198624333333,2.186991016,-0.195761144
411,1.1416209999997589,-1.0590932769999999,-2.419281403,-61.464721700000005,-0.2802266876666667,-0.6338555066666667,14.509449324333334,5.756082375666666,8.010493912666666,0.6270963153333334
412,1.1443986666666508,-1.0083240666666666,-2.407475471666667,-61.466985066666666,1.299283604,-1.7098497650000002,7.6233190686666665,5.654748001333334,0.8147545256666667,-0.3465691616666667
413,1.1471763333332394,-0.9872994226666667,-2.381120205,-61.45206200000001,1.0994945566666667,-0.793718343,5.5327761970000005,2.158255199666667,2.5333290893333333,1.4903600613333332
414,1.149953999999828,-0.9652267693333334,-2.3992679119999996,-61.4581858,-0.8444171843333333,-0.31854108,6.814392407666666,2.1919937136666667,-2.7677505813333334,-0.8907906216666669
415,1.15273166666672,-0.9425645666666668,-2.369221051333333,-61.43852233333333,1.813777665,-0.8863610030000002,8.242283342666665,2.380924384,2.9655144116666663,2.0574379763333335
416,1.1555093333333086,-0.9407503806666666,-2.377694050666667,-61.44773863333333,-0.563795934,-1.2794932323333332,16.449496906666667,-0.2557026743333333,-1.6021964160000002,-1.1908100843333334
417,1.1582869999998973,-0.9705977043333333,-2.4225420156666666,-61.426633166666676,1.9198702970000001,-1.177345897,7.115864595999999,-3.912716070333334,-6.024506846,2.073515137333333
418,1.1610646666664857,-0.9975875613333333,-2.4007105826666666,-61.43113453333334,-1.2215182283333332,-0.9493129053333332,10.941057164666667,-3.688116868333333,2.0266751050000003,-0.5685889716666666
419,1.1638423333333776,-1.0675721963333333,-2.439575513,-61.41884103333333,1.4310344653333333,-1.4259522556666668,14.204998973333332,-8.774072252,-5.2906290689999995,1.025483290333333
420,1.1666199999999662,-1.1451659600000001,-2.447004397666667,-61.432263666666664,0.20611391466666665,-1.167905529,6.829189300666666,-9.809219914666667,-1.4618432423333332,-1.7125978073333334
421,1.1693976666665549,-1.2475333610000001,-2.481127024,-61.414642333333326,-0.12485499699999998,-0.8809203603333332,11.920967737,-12.629647253333331,-4.741413076333333,1.668358048
422,1.1721753333331435,-1.3386799893333332,-2.47821792,-61.4188054,0.19862191866666667,-0.7807026009999999,5.9506119093333325,-11.388662654666668,-0.24072734500000012,-0.5825150806666669
423,1.1749530000000352,-1.4535249473333334,-2.476907332666667,-61.41395313333334,1.4899741013333332,-1.1793271303333333,11.589370725666667,-14.19313399,-0.4589732486666665,0.25052436166666664
424,1.177730666666624,-1.5722292266666666,-2.5759628613333336,-61.40986633333333,0.3327783343333334,-0.5803469419999999,2.9552374973333335,-14.651799203333333,-12.499681156666668,0.06919672099999996
425,1.1805083333332125,-1.6661787826666667,-2.5255422590000003,-61.407058700000015,0.27298895499999976,-0.24565861599999997,8.638044596666665,-11.696550685666667,5.437185843666666,0.15219547366666672
426,1.183285999999801,-1.7927112183333334,-2.5599515436666667,-61.409973133333345,-0.9285006523333333,-0.47288356233333334,19.561988193333335,-15.625823023333334,-4.7223997896666665,-0.5757611396666666
427,1.186063666666693,-1.9080328146666667,-2.5854560533333335,-61.41212463333333,1.620914379666667,-0.8814787169999999,2.550209045666666,-14.289070129999999,-3.6485244449999996,-0.7254166006666667
428,1.1888413333332817,-1.9935686586666668,-2.558325529333333,-61.4021123,-2.0298563636666667,0.16189137100000003,6.997653493999999,-10.635386466333335,2.6037510246666664,1.1921379570000001
429,1.1916189999998703,-2.0876359939999998,-2.585603714,-61.4086151,1.765847762333333,-1.0283556083333334,10.005105812666665,-11.76441002,-3.8401808736666663,-1.2676784993333332
430,1.194396666666459,-2.1774496236666665,-2.6038676103333334,-61.4107488,0.6881929763333332,-0.6790569223333334,13.829593023333333,-11.215039887333333,-2.7919472850000004,-0.4264599633333334
431,1.1971743333333507,-2.294578234333333,-2.6404310863333333,-61.41531116666667,-0.30316878366666666,-0.46191591000000004,10.726648330000002,-14.521550177666667,-4.959634284,-1.0870257220000001
432,1.1999519999999393,-2.359870911,-2.6396618683333335,-61.420679699999994,1.4934368329999999,-0.243086944,3.1830915710000003,-8.289278824999998,-0.4927879373333332,-0.7823868193333333
433,1.2027296666665281,-2.4451723893333335,-2.6733236313333335,-61.445073433333334,0.060069359999999995,-0.097176572,16.811045646666667,-10.813845316666667,-4.508285522333334,-3.4404277803333336
434,1.2055073333331165,-2.5327978926666668,-2.736082554,-61.4445572,-0.3521128096666666,-0.6090419890000001,9.417609216,-10.936136007333332,-8.139505386000002,-0.39569304366666663
435,1.2082850000000083,-2.570146401666667,-2.712455908666667,-61.466517133333326,0.6853237946666667,-0.18748228766666666,4.362152750333333,-5.049718539000001,2.3547169963333334,-2.8669499953333335
436,1.211062666666597,-2.643031120333333,-2.7758224806666667,-61.4768804,0.4779924256666666,-1.0787985523333334,11.352272670333333,-9.233074823666668,-8.150114217666667,-1.816993137
437,1.2138403333331855,-2.6806740760000003,-2.873415470333333,-61.48971303333334,1.8233743313333335,-0.0148600636666667,8.678199133666666,-5.036075671666667,-12.222426,-2.452922324333333
438,1.2166179999997742,-2.743347883,-2.8121267956666665,-61.49716946666667,-3.4395007293333335,-0.73862503,13.097286543000001,-7.984155495666667,6.771321613999999,-0.6260374386666666
439,1.219395666666666,-2.768385966666667,-2.900942008,-61.51307426666667,3.9458243846666665,-0.46520004666666664,4.905196190000001,-3.5443364383333336,-11.148356498,-2.7799562513333336
440,1.2221733333332547,-2.816057681666667,-2.839591026333333,-61.5192744,-3.7277735076666665,-0.39747896066666666,14.092110793333333,-6.175285895333334,6.772802355,-0.4604201516666666
441,1.2249509999998434,-2.861191431666667,-2.8511780103333333,-61.52501933333334,1.2262894613333333,-0.8733226856666666,6.41691621,-5.893972516333334,-1.9484531086666665,-1.1343478363333335
442,1.227728666666432,-2.8793454166666663,-2.7037157216666663,-61.52979276666667,-0.9943627319999999,0.44492884466666666,7.1399327916666655,-2.6251523893333335,17.083484968333334,0.20434220633333325
443,1.2305063333333237,-2.930101156333333,-2.751053254,-61.54243466666667,2.503187776,-2.258062442,10.070891857333335,-6.607435385666666,-6.189974864333333,-2.170610149666667
444,1.2332839999999123,-2.9564561049999996,-2.5781870683333334,-61.54255170000001,-1.6808114946666668,-0.6052737483333334,12.612868149,-3.583202282333333,20.097947756666667,0.928294738
445,1.236061666666501,-2.999928553666667,-2.5296096803333334,-61.55889636666668,0.7092873056666665,-0.8786140606666666,7.383202713,-5.748833497333333,5.330420653,-2.0250402289999996
446,1.2388393333330896,-3.0261245566666664,-2.3429251513333336,-61.55899556666666,-0.04179184866666678,-0.16856956466666664,11.261214653000001,-3.5671376386666664,21.750926973333335,1.067512671
447,1.2416169999999813,-3.0891985099999997,-2.3108327390000003,-61.5729777,1.5375020903333334,-1.6095315216666668,14.777130446666668,-8.081723768333333,3.342500090666667,-1.8410491153333337
448,1.24439466666657,-3.0896766980000003,-2.1004489263333337,-61.56757100000001,-1.3116418123333335,0.5195683936666666,4.9131240446666675,-0.45519089700000004,24.55459531,1.8355552353333338
449,1.2471723333331586,-3.1133744720000003,-2.029935519,-61.568026233333335,1.1087579926666666,-1.2758289976666666,8.964787166333332,-3.2899525960000005,7.859503110666668,0.033080975333333505
450,1.2499500000000505,-3.119660775,-1.838228186,-61.55858103333335,-0.3356698553333333,-0.1768621613333333,13.653375306666668,-1.139487992,22.291477200000003,2.2285593353333333
451,1.252727666666639,-3.172171831,-1.774427811,-61.56536356666667,2.4693793853333332,-1.7222692966666664,15.94912211,-6.772601645333334,7.0954476993333335,-0.7528754076666665
452,1.2555053333332278,-3.178687095666666,-1.6369236706666666,-61.5747579,-2.1354930003333332,-0.03809378066666672,2.3146812123333333,-1.237974723,15.920937536666669,-0.3737631043333334
453,1.2582829999998164,-3.2095963953333335,-1.4791474740000001,-61.58453626666667,1.338480691,-1.405000309,10.051774663333333,-4.186742067333333,18.373331386666667,-0.47577154633333346
454,1.2610606666667084,-3.2557395299999996,-1.3975637753333334,-61.592191066666665,0.010940541666666673,-0.7876434126666667,15.563447313333334,-5.984378457333334,9.211827914333334,-0.5645591419999999
455,1.2638383333332965,-3.3359286783333335,-1.1895076236666666,-61.60545603333335,0.5457660753333333,-0.2845382193333333,15.080012005666667,-10.106403826666666,24.42270310666667,-0.5082436403333336
456,1.2666159999998854,-3.359531164333333,-1.1417875886666666,-61.62841796666666,2.8306160769999997,-1.0968357526666666,-1.7123475090000007,-3.3115789890000005,5.26051426,-2.574389495
457,1.269393666666474,-3.406246503,-0.9900809526666666,-61.63185883333333,-1.8652143773333334,-0.588329325,9.67706408,-6.059997239,17.602041976666666,0.29973310233333333
458,1.2721713333333657,-3.4369596636666664,-0.8391668796666666,-61.66027066666666,1.8409990473333335,-0.9531449873333333,15.507954438666665,-4.167838414666666,17.670288524,-2.5288094283333336
459,1.2749489999999544,-3.485310872666666,-0.7980770866666665,-61.65619913333334,-0.002220381999999965,-1.2994993926666667,14.964888254000002,-6.240295092333334,4.293502333666667,0.42147370199999995
460,1.277726666666543,-3.4966328936666664,-0.5956006943333334,-61.70303093333333,-1.0075454066666667,-0.18159421300000003,6.0148834776666655,-1.855128504333333,23.98648898,-4.337448358666666
461,1.2805043333331316,-3.548825820333333,-0.5314181746666667,-61.70148976666667,0.27453748399999994,-0.4620277783333333,15.324924150000001,-6.703690528999999,7.073758125333335,0.30020749566666655
462,1.2832820000000238,-3.6099468073333334,-0.341897006,-61.74384563333333,1.5419020256666667,-0.110508402,12.222836019333334,-7.805104541333333,22.40835444,-3.8541031676666666
463,1.2860596666666122,-3.6602339743333334,-0.334322346,-61.74197386666666,2.411591371,-0.668267131,4.837931833333333,-6.475753307333332,0.288236994,-0.0799633863333334
464,1.2888373333332004,-3.6943061353333335,-0.08677065633333332,-61.78398133333334,-0.9033364656666666,-1.1058716973333333,12.981931049666665,-4.5397774580000005,29.361522673333337,-3.3428393203333333
465,1.2916149999997895,-3.6821486156666663,-0.140544207,-61.77483113333333,2.501658380333333,-0.5925712386666667,15.256299973666666,1.0227339663333332,-7.110470095,0.30782345933333327
466,1.2943926666666814,-3.683542728666667,0.07282845166666667,-61.81387326666667,-2.422008534,0.2544836203333333,14.775467396666665,-0.6052648026666668,25.245336533333333,-3.232398926
467,1.2971703333332698,-3.690242528666667,0.03771736733333334,-61.81104786666666,5.570651372333334,0.13202873866666667,11.24090022,-1.2429224653333328,-4.825991512,-0.28315269933333337
468,1.2999479999998584,-3.688149690666666,0.165822995,-61.84497580000001,-2.393533627,-2.4275459846666667,10.429191986,-0.17827087633333336,14.996812502666666,-3.3072601556666665
469,1.302725666666447,-3.651391585666667,0.22683987500000002,-61.85144296666666,2.668539921666666,0.030738214666666746,11.746389071666668,3.978142937,6.755125919666668,-0.665287574
470,1.3055033333333388,-3.619762579666667,0.2056061253333333,-61.85821529999999,-0.5068388383333333,0.028260851666666642,11.381299971333334,3.359464725,-3.0979006289999997,-1.2038904826666665
471,1.3082809999999279,-3.6312193870000002,0.37178957866666673,-61.860277800000006,0.9721704523333333,-1.8300242273333334,10.249825158333334,-1.8107773463333334,19.31708018,0.6660983166666666
472,1.3110586666665163,-3.5855221746666666,0.271562405,-61.84748586666666,3.405956387333333,-0.507416745,6.473101575666667,5.0377616089999995,-12.708274843333333,0.5977168706666667
473,1.3138363333331047,-3.5371678670000004,0.39518083400000004,-61.84748076666667,-2.7127176126666668,-0.5779537856666667,15.551766871,5.362375820333334,14.206396419999999,0.5581429203333333
474,1.3166139999999966,-3.4759668509999995,0.2946792716666667,-61.855168666666664,4.245280106666667,-1.0572696826666665,15.318283557,6.914619764666667,-12.588653942666665,-1.8258003393333333
475,1.3193916666665852,-3.4423494336666667,0.2853876153333333,-61.859550500000005,-1.5091300803333334,-1.138555472,8.837166468,3.5956887256666668,-1.6799225803333335,-0.9626172386666667
476,1.3221693333331739,-3.4448649086666663,0.28602281700000004,-61.87693783333333,2.723397652333333,-0.530131936,10.919927597333333,-0.7245194116666666,-0.4027022523333332,-2.287923336
477,1.3249469999997625,-3.4676550230000003,0.18838847666666667,-61.87071226666668,-0.17430373033333332,-1.9166884026666666,11.453530311999998,-3.180259605,-12.339034634333332,-0.3248271
478,1.327724666666654,-3.4638670286666664,0.21896118433333334,-61.89044189999999,2.1086079823333335,-0.622607494,5.829452752999999,0.02923011766666665,3.200985430333334,-2.342515707
479,1.330502333333243,-3.458615382666667,-0.012050822333333341,-61.88467663333333,1.4026818273333335,-1.4258075953333336,6.380788009333333,0.1881494916666667,-28.310924529999998,-1.3514336943333334
480,1.3332799999998317,-3.4745176633333337,0.02294660599999999,-61.903106666666666,-0.386148741,-1.0601100920000002,14.229460874000003,-2.3403726816666666,3.7191359400000006,-2.1187241473333334
481,1.3360576666667232,-3.510964393666667,-0.1822605356666667,-61.90385943333333,0.8809465666666666,-1.727817655,15.24241638,-4.814710140333333,-25.171445846666668,-1.9531678753333335
482,1.3388353333333118,-3.529466231666667,-0.25892145666666666,-61.9241867,2.882306059,0.8365326623333335,6.751815557333333,-2.666519483333334,-9.638233106333333,-3.1593755483333337
483,1.3416129999999005,-3.5707550843333333,-0.487457345,-61.92616776666667,-0.7516904273333335,-1.7760901053333333,8.162937800333333,-5.388470331666667,-27.95762634,-2.2933431266666666
484,1.3443906666664895,-3.610290289,-0.6311793726666667,-61.92881266666666,2.6696918010000004,-0.5012349883333332,10.205406189000001,-5.186431885,-17.79588190833333,-1.558520476
485,1.347168333333381,-3.6936435700000003,-0.8055483696666667,-61.92504886666666,-1.5112277716666664,-1.6730175416666668,15.791275660000002,-10.428046383,-21.512390773333337,-1.2273795393333333
486,1.3499459999999697,-3.7427686056666665,-1.0554732283333335,-61.922920266666665,2.2843919199999996,-0.43195495033333337,-0.07742611566666675,-6.333229661,-30.541523616666666,-1.9135357539999998
487,1.3527236666665583,-3.8066747979999995,-1.1109256346666665,-61.92838033333334,-3.625843843,-1.152903743,9.802821814666666,-8.109169324666667,-7.199710526666666,-1.431930358
488,1.355501333333147,-3.910403967,-1.3701358636666667,-61.92925006666667,5.070719242,-1.7214814023333336,20.7088906,-12.891760826666667,-31.629147213333336,-2.37249136
489,1.3582790000000386,-3.996059576666667,-1.5378624196666666,-61.9505844,-1.8264073136666668,0.19072713666666666,5.727299848666667,-10.775907197,-20.50315539,-4.294185559
490,1.3610566666666273,-4.078303496,-1.7108488083333333,-61.96027373333334,1.2364108163333334,-1.2408795156666665,3.033774634333333,-10.338576318,-21.227005003333336,-2.8195136190000003
491,1.363834333333216,-4.157268524,-1.8552833796666668,-61.9748713,-1.6895070273333335,-0.191096016,18.162410418,-9.963039875666666,-17.761594773333332,-3.3460694946666667
492,1.3666119999998045,-4.283644199333334,-1.996464769,-61.98730723333333,2.0123146376666665,-0.8007854966666667,18.492191633333334,-15.654758768333336,-17.389550843333335,-2.944012284333333
493,1.3693896666666963,-4.358474095666667,-2.1363701026666666,-62.0173467,-1.2963721356666669,-0.3420533536666666,-3.0899960996666667,-9.542813615666669,-17.06885846333333,-5.219076871666666
494,1.3721673333332849,-4.4273727733333335,-2.175801198,-62.020922333333324,0.03618296000000002,-0.44933638966666667,5.263907749666667,-8.720344542333335,-5.282261374333334,-1.0952563486666667
495,1.3749449999998735,-4.449905236666667,-2.2754367986666666,-62.04321289999999,-0.08376427500000005,-0.4942915586666666,17.965116183333333,-3.246387004666667,-12.309827962666667,-3.945608774666667
496,1.3777226666664621,-4.467050075666667,-2.3019769193333333,-62.039301566666666,-0.7783428083333334,0.28684317066666665,19.400274913333334,-2.4666680893333335,-3.8196506489999997,-0.024914066333333373
497,1.380500333333354,-4.436472256666666,-2.3187216123333334,-62.07077280000001,1.725323398666667,0.9799051283333332,4.033746878,3.0775510873333336,-2.3040909380000003,-4.2630462646666665
498,1.3832779999999427,-4.408271153666667,-2.3667469026666668,-62.067998233333334,0.19795783366666667,-0.8129805326666668,6.040775854333333,2.965202361333333,-6.379873990999999,-0.3514534333333334
499,1.3860556666665313,-4.358590761666666,-2.288041274,-62.09820556666667,-0.25760427133333336,-0.17203808333333334,19.06347561,5.374576280666667,9.098233541666666,-3.2420541843333335
500,1.38883333333312,-4.270167589,-2.408672173666667,-62.0829671,3.652141412,0.9183680216666666,11.981842757666668,10.256015458666667,-15.172332446666667,0.43175375433333324
501,1.3916110000000117,-4.1405371823333335,-2.273330926666667,-62.11690523333332,-3.3130904833333332,-1.066164064,7.717658199,14.94424852,15.898167052333333,-3.2292782170000005
502,1.3943886666666003,-4.019016424666667,-2.351826985666667,-62.1021754,4.927070776666667,-0.7493432116666666,19.813536643333332,14.225007696666665,-10.114382744333334,0.7005886236666669
503,1.397166333333189,-3.8830776213333333,-2.2884351413333333,-62.133560166666676,-1.6483954189999999,0.24774966366666665,13.583069486666666,15.712515513333335,7.251571096333333,-3.5870567166666665
504,1.3999439999997776,-3.7233898639999996,-2.3424141406666665,-62.13447316666666,1.2950321783333336,-0.8772400616666668,8.879824956,18.725023266666668,-7.045060634666666,-1.0008169016666666
505,1.4027216666666693,-3.598149459,-2.2928612230000005,-62.174273199999995,0.16896887633333332,-2.7915324370000003,13.090258281333334,14.389888446666667,5.640866041333333,-4.731539229666667
506,1.405499333333258,-3.4684185979999995,-2.325065930666667,-62.182739233333336,-0.04032874100000002,-0.540543114,19.33433501,15.100808460000001,-4.390435060000001,-1.6024231513333334
507,1.4082769999998466,-3.341852029333333,-2.2862415316666667,-62.22238923333333,3.225410183333333,-1.51295803,9.626655976333334,14.548577626666665,4.335732141,-4.809922278
508,1.4110546666664352,-3.196050405333333,-2.363089640666667,-62.212610899999994,-0.18515419966666657,-1.3876952923333334,13.48503399,17.11970393,-9.866096437333333,0.22262144099999995
509,1.4138323333333271,-3.084942738,-2.3050205706666667,-62.228675833333334,1.641498864,-0.98766604,15.334079423333334,12.807213469999999,6.466780661333334,-1.8802386916666662
510,1.4166099999999158,-2.97188584,-2.455501079333333,-62.209874500000005,-1.3721524079999998,-1.222927163,19.786538126666667,13.233771323333334,-18.744433723333334,0.9005235829999997
511,1.4193876666665044,-2.8673606713333335,-2.3575495083333338,-62.202107766666664,1.3878854913333336,-1.5053402630000001,11.441932043333333,12.139053343333332,11.092985392000001,1.1903877853333333
512,1.422165333333093,-2.7693076133333334,-2.601528008666667,-62.18464153333333,1.4331353503333333,-0.8675720616666668,15.803899446666668,11.423460643333334,-29.93531863,0.23377698166666663
513,1.4249429999999847,-2.7125451566666663,-2.4963101546666664,-62.17823283333333,2.047292312,-1.626942922666667,20.33423137666667,6.400550206333333,11.974566779999998,1.021495988
514,1.4277206666665734,-2.696492671666667,-2.7875343163333337,-62.18228403333334,2.5913008449999997,-2.047858854,17.647876658,1.4782094150000002,-35.47798220333333,-2.428027292
515,1.430498333333162,-2.690900564333333,-2.7668415706666667,-62.162661233333324,-2.3621922533333337,-0.16201280566666665,12.816009201999998,0.34464399033333315,1.7680486046666666,2.10313801
516,1.4332760000000537,-2.7250429786666666,-2.9668350219999997,-62.1588567,3.6236442723333333,-2.5798120203333332,11.475309293,-4.504708171,-24.58408578,-1.0376331903333333
517,1.4360536666666424,-2.8038574853333333,-3.128839254666667,-62.1176809,0.14827671133333334,-2.7527672049999996,14.797154110000001,-9.636523246333333,-20.258148511333335,3.636988321999999
518,1.438831333333231,-2.8684944310000002,-3.2084997496666667,-62.121559133333335,-1.1080962816666666,-1.0166612466666667,14.002756753333335,-8.220189571666666,-10.108453752666668,-1.3312104940000002
519,1.4416089999998196,-2.9437848726666664,-3.375451246666666,-62.066034966666656,4.648020426666666,-2.565508326,14.803961753333335,-9.085006873,-20.95513471,5.282421052666668
520,1.4443866666667118,-3.055711667,-3.5419989426666665,-62.06557466666666,-0.27727169533333335,-2.9161816436666665,20.988395053333335,-13.871983843333334,-20.54105567666667,-1.3859830696666664
521,1.4471643333333002,-3.1951512496666665,-3.6552373570000003,-62.02346293333333,-0.05171142033333334,0.72344478,19.549527486666666,-16.848237196333333,-14.449214300000001,3.931655069
522,1.4499419999998888,-3.3617776236666668,-3.7379531063333338,-62.04571276666667,-1.6211367696666665,-0.9510281086666666,12.055105525333333,-20.61052004433333,-10.335627239,-3.5283126036666665
523,1.4527196666664774,-3.5261104106666665,-3.856968243666667,-62.01985423333334,2.1266499363333335,-0.8583239116666667,10.109828631666668,-19.94653829,-15.055872603333334,1.8842309316666668
524,1.4554973333333694,-3.686416308333333,-3.9546692369999996,-62.030573533333325,0.8316010236666666,-1.878900448666667,12.597629230333332,-19.764247893333334,-12.20520973,-2.337863286333333
525,1.4582749999999578,-3.795745691,-4.033373832666666,-62.00891623333333,1.4961796403333334,-0.8293886583333334,14.830846786666669,-13.371804554333332,-10.201733905666666,1.604031642
526,1.4610526666665464,-3.850013494666667,-4.074794133666667,-62.005277,-0.471237144,-0.17741842099999997,15.739392279999999,-6.916023016666667,-5.577798922666667,-0.2511945763333334
527,1.463830333333135,-3.890897194666667,-4.096128940333333,-61.990544666666665,-1.6700222193333332,-0.5164462626666667,21.686686196666667,-5.2155323026666665,-3.274135371333333,1.2340040203333331
528,1.4666080000000268,-3.943873485333333,-4.102009376000001,-62.001551299999996,-0.28340947133333333,0.9110755523333335,19.28896586,-6.8894912800000006,-1.2055893043333334,-1.7112789553333334
529,1.4693856666666154,-3.9872012933333334,-4.131399472666667,-62.002909366666664,1.8089291653333335,0.17564443733333332,11.707646052000001,-5.650100052333333,-4.107742388999999,-0.761656269
530,1.472163333333204,-4.014082987999999,-4.133981466333334,-62.014483133333336,0.45938867366666675,-0.8039618233333333,10.446997166000001,-3.765616973333333,-0.8001886803333335,-1.839003881
531,1.4749409999997927,-4.038630724,-4.115440925000001,-62.01907856666667,0.434646127,-1.1330685216666667,15.25502968,-3.424640417333334,1.657595436,-0.7548046063333333
532,1.4777186666666846,-4.0532458626666665,-4.074282089666666,-62.02728783333333,-0.21984353166666662,-1.7506340543333334,15.897749903333334,-2.2594316996666666,4.401597102333333,-1.0049232540000002
533,1.4804963333332735,-4.057692051,-4.032712618333334,-62.028933200000004,0.692724952,-1.9627666076666668,14.180366196666668,-0.986583511,4.391180674,-0.20115282699999995
534,1.4832739999998619,-4.065344651666667,-4.000823338666667,-62.029431666666675,0.8575067519999999,-1.329396824,15.507246336666668,-1.3555865686666666,3.223231254666667,-0.14727756366666667
535,1.4860516666664505,-4.090043226666666,-3.9738156,-62.027175899999996,1.5187037386666666,-2.063171506,16.864108406666666,-3.385083198666667,2.6141931216666667,0.14272248766666665
536,1.4888293333333422,-4.108596563333333,-3.9435949323333332,-62.026446,1.5031551720000003,-0.6360660593333333,17.84550571666667,-2.6536263226666668,3.015013218,-0.024790267333333338
537,1.4916069999999308,-4.134082079333333,-3.884127855333333,-62.02287040000001,-0.18874755,0.5254359046666667,19.042654356666667,-3.4669342833333334,6.487953504,0.5775925316666667
538,1.4943846666665195,-4.1861217816666665,-3.8002463179999997,-62.00635780000001,-1.6644001603333332,-0.7836575906666666,19.581345243333335,-6.542974154333334,9.294002850666667,2.3793706893333333
539,1.497162333333108,-4.246223608666667,-3.708640337,-62.00679266666666,0.0019644799999999907,-0.9498559233333332,12.202494303333333,-7.658234954666667,10.373071033,0.40508493799999995
540,1.4999399999999998,-4.304227352000001,-3.6239597796666665,-61.984840399999996,3.0051953393333335,-0.6712158119999999,8.979925633333332,-7.225161554,9.331442037333332,3.0329093933333335
541,1.5027176666665885,-4.3565912246666665,-3.540738503,-61.98077136666666,1.8110643226666667,-3.3626336653333326,11.883758229,-6.696423888999999,9.327915827333333,0.8811341226666668
542,1.5054953333331775,-4.386551062333333,-3.460902452333334,-61.97573093333333,0.7144303223333334,-1.6120180933333332,15.58187326,-3.993896524666667,8.911702314333333,0.9044515890000001
543,1.5082729999997657,-4.390514532666667,-3.369196574,-61.9972,-1.0950834703333332,-0.39464887966666673,15.963713966666665,-1.0695438879999999,10.574467021,-2.0861004393333333
544,1.5110506666666577,-4.387629668,-3.2772956689999995,-62.00294496666667,-1.1469717819999998,-0.5887691973333333,18.523221333333336,-0.12484804800000003,10.448889096666667,-0.20446985966666667
545,1.5138283333332463,-4.399536609666666,-3.189658324,-62.03440093333334,0.288126747,0.39914870266666674,21.04358355333333,-2.0872658096666665,10.179853119666667,-3.311814109333334
546,1.516605999999835,-4.449828465666667,-3.0829542476666667,-62.047309866666666,1.620980064,0.2208249866666667,16.49446519,-6.552494208333333,12.281297684666667,-0.9303345186666668
547,1.5193836666664235,-4.499586741,-2.9910143216666665,-62.06512196666667,2.512826104666667,-2.231046478,9.879785060000001,-6.5273833560000005,10.56977558,-1.6176416673333334
548,1.5221613333333153,-4.544716199000001,-2.8868563173333333,-62.07515206666667,0.8588251436666666,-1.689020713,10.379068691333336,-5.906925201333333,11.948363620999999,-0.5163658856666666
549,1.524938999999904,-4.5878349940000005,-2.784210999666666,-62.09552763333334,1.427089731,-1.0803212123333334,13.885221796666668,-5.738827387666667,11.877607661333334,-1.8201176626666664
550,1.5277166666664925,-4.606421152666667,-2.6705381076666668,-62.096214266666664,-0.5932740766666668,-1.4681366483333333,15.185062723333333,-2.658476129333333,12.989761353333334,0.7848800816666667
551,1.5304943333333842,-4.610478083,-2.568693161,-62.10842133333333,1.1265570323333332,0.04866878200000002,16.767416633333333,-0.9969658899999999,11.705608686666666,-0.835685889
552,1.5332719999999729,-4.636437575333334,-2.4816187220000003,-62.108980800000005,1.214850386,-0.148366953,16.682272593333334,-3.5521955883333334,9.819018043,0.3967562120000001
553,1.5360496666665615,-4.653415998,-2.4096511206666666,-62.11316936666666,2.3439459800000004,-0.8846358160000002,11.959370615000003,-2.5011960469999996,8.051587740666667,-0.1582276623333334
554,1.5388273333331501,-4.643994013333333,-2.323743582,-62.114397700000005,-0.5851336119999999,0.4207226040000001,10.647411027,0.6954522726666665,9.678642273333333,0.43296589466666663
555,1.541605000000042,-4.622173627,-2.209459503333333,-62.11543273333333,0.4845240476666666,-0.8522947630000001,13.697873750000001,2.170580705,13.08230718,0.622592637
556,1.5443826666666307,-4.575650533,-2.1098810833333332,-62.11746216666668,0.566267088,-1.6293129923333334,13.604573883333332,5.142728726,11.328909237333335,0.3524860939999999
557,1.5471603333332193,-4.526292006,-2.0547867616666666,-62.115557333333335,1.3001034186666667,-0.6992871959999999,12.075080553333331,5.489340146,5.974166075333333,0.3917398329999999
558,1.549937999999808,-4.473560969333334,-1.9489245016666665,-62.117487600000004,-0.9590373436666666,-1.0487472413333332,14.888372423333331,5.8928670883333325,12.065684953333333,0.6551780303333333
559,1.5527156666666997,-4.432357311,-1.8365339436666668,-62.111661266666665,0.990467608,-1.2978497346666666,14.630975406666666,4.526069760666666,12.79357751,1.38994809
560,1.5554933333332883,-4.410155455333332,-1.7853082020000002,-62.10778806666667,1.5571322243333332,-1.2065288323333334,10.350283622000001,2.249741156666667,5.482125759,0.729907565
561,1.558270999999877,-4.385970910666667,-1.703926325,-62.09253693333333,-0.19800379366666665,-1.3055254223333332,10.921855608000001,2.516227364666667,8.998763563,2.206115802
562,1.5610486666664656,-4.367268720999999,-1.5874707700000001,-62.08610533333333,0.2914432683333333,-0.7869367896666667,14.505124726666667,1.8355336026666667,13.27336311,1.5114493370000002
563,1.5638263333333573,-4.363438129333333,-1.5587685506666666,-62.06679533333334,2.7083236376666666,-1.5494151116666668,11.266414162666669,0.08384821799999997,2.659180244,2.214354832666667
564,1.566603999999946,-4.361299832666667,-1.4871625106666666,-62.062423700000004,-0.4900095473333333,-1.3561722636666669,12.403642335666667,-0.16233878333333332,7.922931511999999,0.9394832143333334
565,1.5693816666665346,-4.377652327333333,-1.398023168,-62.045377099999996,1.5490969816666667,-1.1588447096666668,14.767281216666666,-2.3497178156666663,9.909777481333334,2.5006199280000003
566,1.5721593333331232,-4.406553109333333,-1.3958957993333334,-62.0318527,1.649472674,-0.8323582413333334,10.765895206333333,-3.862746079666667,-0.47616855299999994,1.4167060653333332
567,1.5749370000000151,-4.426687558666667,-1.2965509893333333,-62.02039336666667,-1.2505184413333332,-1.1393389703333334,11.096091907333333,-2.823867599333333,11.180765470333334,1.9278173049999998
568,1.5777146666666038,-4.463782151333334,-1.239498377,-62.00276436666667,3.0186038416666663,-2.0830254156666665,12.604986509999998,-4.8387169043333325,6.053604364333334,2.4109442236666667
569,1.5804923333331924,-4.515412807333334,-1.2197525103333333,-61.98369853333333,-0.545535798,-1.080644296,14.02200794,-6.586628119333334,1.585341900666667,2.1014475029999997
570,1.583269999999781,-4.5722579953333335,-1.0962298113333333,-61.97116343333334,0.7130016956666667,-0.9802430866666666,12.439126649,-7.223869164999999,14.052365936666666,2.4264028073333335
571,1.5860476666666727,-4.6445283889999995,-1.109654228,-61.95627339999999,1.8384446700000001,-1.5569983323333332,9.662129798333334,-9.078723111333334,-2.3468234143333335,1.2969427506666669
572,1.5888253333332614,-4.708934942666667,-1.021388312,-61.93840026666666,-0.9851978423333333,-0.7273716726666667,13.057630696333334,-8.119627793666666,9.775122324666667,2.7661453086666667
573,1.59160299999985,-4.786483446999999,-0.9517995516666665,-61.93300886666666,1.65394185,-1.1173335709999999,11.403851985000001,-9.736014844666666,7.671426215333334,0.982113898
574,1.5943806666664386,-4.866192976666667,-0.9667034546666667,-61.91597240000001,0.42609896300000005,-1.0829751293333334,9.288810731333333,-9.965056736333333,-2.5611461,1.6618644793333335
575,1.5971583333333303,-4.945187727666667,-0.8136889733333333,-61.92080943333334,-0.95593897,-1.5120508673333333,12.196537020000001,-9.928943634333335,17.74667167666667,0.6353485186666666
576,1.599935999999919,-5.039582411333334,-0.8389562966666667,-61.90549466666667,2.4609916606666666,-0.736280995,11.674810092666666,-11.733114559999999,-3.7889608943333335,1.3521799643333334
577,1.6027136666665076,-5.115109443666667,-0.7017116846666666,-61.9125544,-3.2661559583333335,-0.9513708426666666,10.376646917666667,-9.518577893666667,15.883680027333336,0.254656767
578,1.6054913333330962,-5.196647008333334,-0.6308973433333334,-61.90749356666666,3.5867061613333338,-1.2733809550000001,10.854120414999999,-10.207264901666667,7.796829165333333,1.1522778666666667
579,1.6082689999999882,-5.272380034333334,-0.5941829876666667,-61.90727233333333,-0.8059102596666667,-0.44027183966666666,13.217846236666666,-9.532249293,3.787880659666667,0.07139543166666669
580,1.6110466666665768,-5.343076706000001,-0.4449021766666667,-61.90920510000001,1.5266500763333335,-0.7374020589999999,10.539702734333334,-8.918038686333333,17.24864101333333,1.2032717613333335
581,1.6138243333331654,-5.403335412333334,-0.4834028683333333,-61.89744056666666,1.4170387983333335,-0.458710012,10.704610667333332,-7.662853558999999,-5.328013579,0.6086497703333333
582,1.6166020000000574,-5.453436692666666,-0.29880311600000004,-61.90164183333334,-2.0849618910000003,-0.666142146,11.573208493333333,-6.4481778143333335,21.491992313333338,1.3580759563333336
583,1.6193796666666458,-5.512828668,-0.28487345433333333,-61.8927002,3.8430834609999995,-0.9352046249999999,9.955144874,-7.562325954333333,0.9636203793333333,0.8670504490000001
584,1.6221573333332344,-5.555081844333333,-0.162426616,-61.89913686666667,-1.6710076133333331,-0.4898811183333333,10.785424868666666,-5.509332815666667,14.092124461,0.43740157300000004
585,1.624934999999823,-5.598646640666666,-0.08320784933333332,-61.89882913333332,3.5262031556666664,-1.2420131166666666,10.989533662333335,-5.667474587666667,8.858815829666666,0.6093584496666667
586,1.6277126666667148,-5.620812257,-0.09185790066666666,-61.89025623333333,-0.13934490066666663,-0.08315902200000003,12.527738569999999,-3.09643658,-1.7362312476666666,0.6678997280000001
587,1.6304903333333034,-5.638190905333334,0.04780969033333334,-61.8903656,0.7839189169999999,-0.632678767,10.280794937,-2.5242575206666666,16.08135033,1.2799991073333334
588,1.633267999999892,-5.659587542333334,-0.0038799443333333385,-61.876281733333336,1.547829002333333,-1.1198742986666668,10.020370324,-3.0063985983333334,-6.942563533666667,0.8087182543333333
589,1.6360456666664807,-5.666082700333334,0.16259200366666668,-61.88124083333333,-1.2742928266666667,-1.1335968576666666,9.425223031666667,-1.2184352479999998,19.33840624666667,1.0225119663333335
590,1.6388233333333726,-5.685926596333334,0.11991868433333332,-61.87043,3.6744750340000003,-0.5943792813333333,11.534403562666666,-2.824836115,-5.8269911216666666,0.538167854
591,1.6416009999999615,-5.6713385579999995,0.21559584899999998,-61.86280316666667,-2.438422521,-0.03572918266666666,11.702666284333333,1.3080720306666667,10.73600749,1.6876239779999997
592,1.6443786666665499,-5.6519153913333335,0.213461384,-61.85564423333333,3.6581267516666665,-0.6090618866666667,8.558872064666668,1.8876495456666664,-0.943000874333333,0.5819340296666666
593,1.6471563333331385,-5.616548220333333,0.22501291333333331,-61.847104366666656,-1.7067204616666667,-0.5876782933333333,12.310421785,3.798450390666666,0.6800500979999994,0.7905663203333333
594,1.6499340000000302,-5.5931204160000005,0.27547549666666665,-61.85348766666666,3.3455774216666665,-1.150599122,10.649933494666667,2.3768477636666665,5.498428740666667,-0.41043821966666666
595,1.6527116666666188,-5.550032934000001,0.18791808166666668,-61.84636686666667,0.04062587533333343,0.012000809000000001,10.744714421333333,4.725724538000001,-11.138151645999999,-0.5373099396666666
596,1.6554893333332075,-5.4905045826666665,0.26024025666666667,-61.85201266666667,1.6182654896666666,-0.4333030383333334,8.929287592666666,6.708599090333333,8.101902484,-0.08556009333333332
597,1.658266999999796,-5.423996130333333,0.12879833599999999,-61.843409233333325,0.7314127283333334,-0.4035090076666667,11.52214114,7.537550131333333,-16.395967166666665,-0.8408217133333333
598,1.6610446666666878,-5.351801395333333,0.22347885366666667,-61.84909313333333,-0.6710912783333334,-0.9841519693333333,11.353423438333335,8.227767151333333,10.782932918333332,0.041853669
599,1.6638223333332764,-5.282210668,0.078050529,-61.84171803333333,3.1995246406666666,-0.9870662489999998,10.895664534,7.908892790333333,-18.05450344,-1.0972417293333334
600,1.6665999999998655,-5.185935656333334,0.104140684,-61.84100596666667,-1.890522917,0.167176854,11.058873892000001,11.113621073333334,2.508035500666667,0.1335441073333333
601,1.6693776666664537,-5.100333054666667,-0.011632849666666667,-61.8391495,3.4124116103333333,-1.0780595936666666,10.652286092666666,9.833081246,-14.452666599666669,-1.3778370963333335
602,1.6721553333333457,-5.009477774333334,-0.04951434333333334,-61.8378016,-2.1932888826666663,-1.2072486676666667,11.841714222333332,10.462284726,-5.144376915,-0.47818797300000004
603,1.6749329999999343,-4.9195756909999995,-0.08508136866666666,-61.84314220000001,2.846177657333333,-0.8535630800000001,6.587004424333333,10.349958420666667,-4.794263521,-1.35967199
604,1.677710666666523,-4.8178339003333335,-0.207351812,-61.83401233333333,-0.5558258690000001,-0.5308261416666666,11.468983649333333,11.77191766,-15.313023566333333,-0.385626783
605,1.6804883333331115,-4.716234207333334,-0.202544128,-61.8349355,1.6122431556666668,-0.8288498246666668,11.222990673666667,11.75366179,-0.013395786333333604,-0.40642965833333333
606,1.6832660000000033,-4.603048165666667,-0.39769212933333337,-61.82386780000001,1.36104697,-0.6078163733333333,10.827341557666665,13.150460240000001,-24.04790306,-0.8128981986666667
607,1.686043666666592,-4.491978645333334,-0.37427317633333335,-61.82817586666667,-0.594909807,-1.099083642,11.432412783666669,12.885286646666666,2.2445202866666665,-0.645124535
608,1.6888213333331805,-4.396994432,-0.5631087916666667,-61.821963000000004,2.7118831473333334,-0.7974670333333332,11.581087349999999,10.968303044333334,-23.248836516666668,-1.2400497993333335
609,1.6915989999997691,-4.285702387333334,-0.554812481,-61.825253800000006,-1.6787575483333335,-0.885540962,9.861473401666666,12.910042763333335,0.4244617619999997,-0.681594948
610,1.6943766666666609,-4.188827117333333,-0.7067283786666666,-61.82189686666666,3.616482893666667,-1.1748636763333333,9.666180404666667,11.192952474,-18.80776532333333,-1.1644492546666667
611,1.6971543333332495,-4.079039811666667,-0.770273884,-61.81600696666667,-2.1530335943333334,-0.4965657666666667,12.171021461333332,12.743038176666666,-8.254298170666667,-0.20941786966666665
612,1.6999319999998381,-3.9932629266666666,-0.868088563,-61.8157603,2.714687268,-1.4204290709999998,9.930744091333333,9.856654485333335,-12.309010662666665,-0.9954463243333335
613,1.7027096666664268,-3.904971361,-0.9607749976666667,-61.806320199999995,-1.8330294289999998,-1.460650861333333,10.532930849666666,10.174651463333333,-11.772644577666668,-0.007637560666666691
614,1.7054873333333187,-3.8403692246666665,-0.9964027803333333,-61.81064863333334,2.5795582733333333,-1.6877280473333334,7.866196711000001,7.307242392666667,-4.829116661666666,-1.0102853076666667
615,1.7082649999999073,-3.7776421706666667,-1.1096847056666668,-61.80126443333334,-0.7203894853333334,-0.5864582336666667,12.218065577666666,7.1084262533333336,-14.236380738666668,-0.14241105566666667
616,1.711042666666496,-3.7265617053333333,-1.1599441766666667,-61.80001576666666,1.9299197196666666,-0.8330747459999999,8.731896241333333,5.695569038666666,-6.626087403333333,-0.45352139099999994
617,1.7138203333333877,-3.672569274666667,-1.2709542113333334,-61.788525899999996,-0.7610046863333334,-1.1822393736666668,9.220710276333334,6.069571971999999,-13.980706372333332,0.15377064533333332
618,1.7165979999999763,-3.6415061156666666,-1.2910221816666667,-61.7930705,0.9995929600000001,-1.1688253483333335,9.997590542666666,3.2780033346666664,-2.967055400333333,-0.8937874633333335
619,1.719375666666565,-3.610277255333333,-1.3614227773333332,-61.78644563333334,0.0062404673333333145,-1.0320956706666666,12.082131066666667,3.327430606,-9.080503941333333,-0.0954644183333333
620,1.7221533333331536,-3.5749808153333333,-1.4264622930000002,-61.78114316666667,0.8750948706666666,-0.3388044473333333,8.674236140333333,3.8162950676666667,-8.426239013,-0.06075278933333328
621,1.7249310000000453,-3.560250441333333,-1.4521703323333333,-61.770113633333345,0.025778007999999963,-1.8783906300000002,7.088149070333333,1.362702906,-3.7618046900000004,0.771603346
622,1.727708666666634,-3.548931519,-1.5078133743333335,-61.76724496666666,1.6684730453333334,-1.0381768740000001,7.900182405999999,0.9308426576666667,-7.281837145333333,-0.2867386143333334
623,1.7304863333332225,-3.546249469333333,-1.5776170093333335,-61.754829400000006,1.0827760073333332,-0.758506288,9.884962081000001,-0.07687253266666667,-9.051802953,0.6151302653333334
624,1.7332639999998112,-3.549369812,-1.6269100903333333,-61.745552066666676,-0.45469992366666667,-0.8614092866666666,11.340738614000001,-0.778852065,-6.571386893666666,0.55647777
625,1.7360416666667031,-3.5616522630000005,-1.6306583879999998,-61.741022766666674,1.011559546,-0.9220280846666666,8.751380282999998,-1.8966019946666666,-1.0808735290000002,0.15692987033333336
626,1.7388193333332918,-3.5616932709999998,-1.711239934,-61.724934899999994,1.0474573026666667,-0.6758774516666666,7.376492182333333,-0.382544418,-10.372170767666667,1.1945499183333332
627,1.7415969999998804,-3.5725668269999997,-1.7622059583333334,-61.70848336666668,-0.457594474,-1.1923647326666666,8.726229350666665,-1.684827586,-6.825408775,1.2175258199999999
628,1.744374666666469,-3.5962152483333334,-1.7359576223333333,-61.700286866666666,0.35898723866666665,-0.9972578486666667,9.575377622333335,-3.2418017543333337,2.484474003333333,0.9803634880000001
629,1.7471523333333607,-3.6017769973333333,-1.8057501316666666,-61.6924133,1.029062435,-0.6220730243333333,8.402669747666666,-1.0796657403333334,-9.015298049,0.05951040966666668
630,1.7499299999999494,-3.6255006786666666,-1.830185771,-61.693628933333336,1.1087271669999998,-0.8023550113333334,8.349338372666667,-3.289123972333334,-3.508133967333333,-0.6627085703333333
631,1.752707666666538,-3.643394231666667,-1.8641566436666668,-61.69680023333333,0.5402871866666666,-0.4627693943333333,10.480591139,-2.6005621353333335,-4.640394131333333,-0.9933712680000001
632,1.7554853333331266,-3.641916434,-1.92811505,-61.695635466666666,0.8380514183333334,-0.399561117,9.250435669666667,-0.252842466,-8.266191641666666,-0.581878563
633,1.7582630000000183,-3.6412346363333334,-1.9185127813333331,-61.707097366666666,-0.37705321366666666,-1.1134786206666667,9.054764748333334,-0.4066217936666667,0.6385371686666664,-1.6557042199999998
634,1.761040666666607,-3.643234014666666,-1.9628053903333333,-61.7110265,0.974200318,-0.29875868066666667,10.396327337333334,-0.6873964069999999,-5.8720293843333335,-1.0462987523333334
635,1.7638183333331956,-3.6255135536666665,-1.9597275656666666,-61.71825666666668,0.006139676999999992,-0.3449365993333333,7.571720599999999,1.6538131236666667,-0.17309252433333308,-1.1939179349999998
636,1.7665959999997842,-3.591909329,-1.996216496,-61.718048066666675,0.7385534643333332,-0.7488509813333334,7.087760448333333,3.6027661956666663,-4.974404096333334,-0.43689339366666674
637,1.7693736666666762,-3.558100621,-1.9870994886666666,-61.72603353333333,0.9180903433333333,-0.44256133333333336,10.744800407333335,3.5816424686666664,0.5554446726666667,-1.2418506143333332
638,1.7721513333332648,-3.5186012583333337,-2.0275029339999997,-61.72204589999999,-0.2863082883333334,-0.5020267963333334,14.430004436666666,4.323845148,-5.463580409666666,-0.12187683599999999
639,1.7749289999998534,-3.4770119983333334,-1.9930311043333333,-61.725891133333334,1.4897512196666665,-1.1015306113333334,6.093267917666668,4.532251397666666,3.5596018036666663,-0.5581767756666668
640,1.777706666666442,-3.4294544859999996,-2.0519145726666665,-61.731412266666666,0.7373081246666667,-1.1893408893333335,6.005012035333333,5.2511062619999995,-7.612137477666667,-1.29483821
641,1.7804843333333338,-3.400949954666667,-2.041686654,-61.738494866666656,0.7810518343333334,-0.760445436,10.100960253333334,2.949210008,0.6782776913333334,-1.1340104536666666
642,1.7832619999999224,-3.3608760036666667,-2.023143092666667,-61.741907733333335,-1.3995808363333333,-0.819376321,13.370663326,4.361920674666666,1.6489332913333337,-0.5287759896666667
643,1.786039666666511,-3.320864598,-2.0051540930000002,-61.75015513333333,3.0006949603333335,-0.868010491,7.8732864063333325,4.325369874666667,1.6141408286666667,-1.2128340499999999
644,1.7888173333330997,-3.270148436,-2.0430300233333334,-61.75396219999999,0.0831565013333333,-0.1463986966666667,8.764624756333333,5.636895338666666,-5.1079021886666665,-0.969874591
645,1.7915949999999914,-3.229256868333333,-2.025975982333333,-61.75295509999999,0.379055202,-1.0888015426666666,11.063390730666667,4.470696051666667,1.438995083,-0.1261458196666667
