,time,Euler_X,Euler_Y,Euler_Z,Acc_X,Acc_Y,Acc_Z,Gyr_X,Gyr_Y,Gyr_Z
0,0.0,-27.958667755,11.402982711,-148.7098999,-4.6693763735000005,1.310006797,12.6511063565,-41.380858425,-39.617048260000004,-14.105000495
1,0.0041664999999966,-28.21744919,11.107546332,-148.65618899999998,-1.3540016415,2.260751903,9.0803554035,-33.53070736,-34.570535660000004,-11.273977759000001
2,0.00833299999999325,-28.43255043,10.806275846,-148.6168213,-4.2225439545,2.2728202939999997,8.8400268555,-27.845491885,-34.19553375,-13.494783875
3,0.01249949999998985,-28.57439327,10.555490970000001,-148.5806961,-1.2978905735000001,1.276630014,13.342651365,-19.1248831755,-28.71247864,-10.863997935
4,0.0166659999999865,-28.66741657,10.327149866,-148.55149845,-4.419418156,1.1769687530000001,9.9654266835,-12.8602268695,-25.884859085,-10.582133767999998
5,0.02083249999998315,-28.717953684999998,10.107130528999999,-148.52674105,-1.3964285775,2.517477751,11.408867598,-7.915436089,-24.84795904,-10.291769505
6,0.02499899999997975,-28.745761870000003,9.932054518000001,-148.51326755,-4.5895729065,0.3742625415,8.1509306445,-4.7876331785,-19.35594559,-9.1451828505
7,0.0291654999999764,-28.72114563,9.7734212875,-148.5138397,-1.3228001295,1.986583114,13.582867624999999,1.721512316,-16.984192845,-9.392066001
8,0.03333199999997305,-28.679431915000002,9.632402896999999,-148.51833345,-4.3151960375,0.3841955215,10.0578696715,3.9050513505,-14.7548441865,-9.042405845000001
9,0.03749849999996965,-28.589306829999998,9.540332319000001,-148.5309677,-1.357050091,1.4614691135,9.793086768,9.8150694365,-9.2920007695,-6.820508241500001
10,0.0416649999999663,-28.51054192,9.4311180115,-148.54476929999998,-4.066904545,0.1100172995,9.1171298025,8.517374992,-10.8976058965,-8.156010627499999
11,0.0458314999999629,-28.392707825,9.3661122315,-148.57125855,-1.140098542,1.3543798329999999,14.10380173,13.4394984225,-5.6569178104999995,-6.73686552
12,0.04999799999995955,-28.286169049999998,9.311079024000001,-148.59456635,-4.419406891,-0.7613493499999999,10.98644495,12.080008505,-4.6769043805,-6.033293843
13,0.0541644999999562,-28.154850005,9.279040338000001,-148.6339264,-0.765751749,0.621900931,8.4210903645,15.288500305,-1.4805353285,-6.1820609565
14,0.0583309999999528,-28.044448855,9.242789268500001,-148.65888215,-3.6314960715,0.23142864549999997,11.8673334105,12.54500866,-2.6137923,-5.133797884
15,0.06249749999994945,-27.93821526,9.2136397375,-148.68712614999998,-1.823894858,-0.7793166490000001,12.189973352500001,12.112972254999999,-1.76498729,-4.9642311335
16,0.0666639999999461,-27.813933374999998,9.2295250885,-148.74439999999998,-2.622362077,-0.053206906,10.2841603745,14.792211535,4.5983958245,-5.417206525999999
17,0.0708304999999427,-27.724388125,9.173154829000001,-148.751915,-1.9272627235000002,0.027790077,9.439762592000001,9.65157223,-5.8094112875,-4.299170017
18,0.07499699999993935,-27.639202115,9.204412939000001,-148.81731415000002,-1.923857242,-1.3827472925,10.586951734500001,10.266764164,6.644103527,-5.408036708999999
19,0.079163499999936,-27.56191826,9.176141262,-148.83826449999998,-2.641187191,-0.052772268500000004,10.3920154575,8.4769427775,-2.0749070645,-4.187364817
20,0.0833299999999326,-27.50814724,9.1466503135,-148.87899019999998,-1.02156508,-0.5406603645,9.633749008,6.001799345,-1.1460576355,-6.266509532500001
21,0.08749649999992926,-27.45562744,9.16703701,-148.9167099,-2.7694618705,-0.9758381545,11.246788025,5.831996440999999,3.9865164760000003,-3.2119290830000002
22,0.09166299999992585,-27.424631114999997,9.1262211805,-148.95618439999998,-3.1387354135,-0.480743334,11.7668280605,3.294247031,-2.4294782875000003,-6.792966366
23,0.0958294999999225,-27.41434479,9.125045774,-148.97691344999998,-0.60100548,-0.5026510805,11.209878920000001,0.41780018799999996,0.7535771725,-2.6066582205
24,0.09999599999991915,-27.415128705,9.1323509205,-149.03128815,-4.4326747655,-0.3836841445,10.668322085,-0.27515435199999994,3.503374219,-5.675538301
25,0.10416249999991575,-27.43775177,9.0918316835,-149.02901459999998,-1.0643745660000001,-1.093251884,8.8162088395,-3.9403208794999998,-4.677672148,-2.412323207
26,0.1083289999999124,-27.490371705,9.1222739215,-149.0811615,-1.5349780320000002,-0.40815345950000004,7.8321266165,-6.512433173,5.9090001585,-4.2843017575
27,0.11249549999990904,-27.54257774,9.098234652,-149.0914307,-3.04785043,-0.5919814705,11.5537529,-7.3089077465,-2.2057187855000002,-2.8265951275
28,0.11666200000001935,-27.610232355,9.1041078555,-149.11781315,-2.2455013394999996,-0.6311020549999999,10.3460173595,-8.806033849,1.823759496,-2.830924302
29,0.12082850000001595,-27.702140805,9.135259151,-149.1609116,-2.4436123370000002,-0.5715591255,11.803359985,-11.441584585,5.434994936000001,-3.1533942225000002
30,0.1249950000000126,-27.797179219999997,9.136434077,-149.17770385,-3.1198916435,-0.2675827205,11.660726545,-12.331693170000001,0.8362344505000001,-2.082155764
31,0.12916150000000926,-27.905385969999998,9.168140409,-149.2093277,-1.45288229,-0.4038873015,9.932805536,-13.550926685,4.8877930645,-1.999940813
32,0.1333280000000059,-28.02377701,9.218069553500001,-149.2517929,-2.7952494024999996,-0.426709719,10.206899167,-14.608371734999999,7.4132418635,-2.0221482515
33,0.1374945000000025,-28.130861285,9.1972503665,-149.25405125,-0.253628507,-0.259836981,8.8644099235,-14.009772775000002,-2.2971941830000002,-1.8676368
34,0.14166099999999915,-28.25734329,9.248556616,-149.29315185000002,-2.8714823125000004,-0.32509127299999996,10.417057989,-15.62716055,7.3708698745,-1.577043325
35,0.14582749999999575,-28.375489235,9.2266917225,-149.29676815,-1.7684621215,-0.423470277,10.163475515,-15.299078465000001,-2.3402768965,-2.0668002965
36,0.1499939999999924,-28.48920727,9.2296533585,-149.3075943,-0.9621552675,0.13844195000000004,9.853858711,-14.67942619,0.718383327,-1.3845582155
37,0.15416049999998904,-28.616220475,9.2371530525,-149.32959745,-3.686232567,-0.1352369265,12.12640953,-16.03720379,1.816792518,-2.29891634
38,0.15832699999998565,-28.697789195,9.204701423,-149.31850435,-1.6266047955,0.12789084,9.6231851595,-11.203541758,-4.290295839500001,-1.125028817
39,0.1624934999999823,-28.79319477,9.209618093,-149.3381729,-1.819679141,0.34784713349999996,9.670784950000002,-12.275071384,1.3996322749999999,-2.1867257359999996
40,0.1666599999999789,-28.85095501,9.1855349525,-149.3251114,-2.1368882695,0.19783058799999997,10.850223541,-8.391621353,-3.50972712,-0.4600701185
41,0.17082649999997554,-28.892761229999998,9.1428442015,-149.3195343,-1.8813789934999998,0.284088552,9.0769431595,-6.311437368,-5.0595411065,-2.309622884
42,0.1749929999999722,-28.956393245,9.1379756935,-149.30824280000002,-1.5605846495000002,-0.6192759274999999,10.3819222435,-9.03872633,-1.3906418084999999,0.44770482199999995
43,0.1791594999999688,-28.969916345,9.0766398915,-149.29299924999998,-1.9241155385,0.3336391595,9.559477806,-3.1605530975000002,-7.558069229,-2.3739657994999996
44,0.18332599999996546,-29.023887635,9.0807626225,-149.27074435,-2.3554822805,-1.00489375,10.99499607,-8.0904750825,-1.0395666805000001,2.0467312934999997
45,0.1874924999999621,-29.051390650000002,9.0176959025,-149.25872040000002,-2.616256893,-0.2348648365,10.989017964999999,-4.7522733210000005,-7.5585947035,-2.8243665695
46,0.1916589999999587,-29.084146500000003,9.026045085,-149.2272568,-1.678428799,-0.4884711355,10.571388723999998,-5.759553194,-1.174137235,3.346871376
47,0.19582549999995535,-29.123286245,8.985839127,-149.22325899999998,-3.145691514,-0.363565281,11.1016578695,-6.0108673575000005,-4.686957120500001,-2.3386182785
48,0.19999199999995196,-29.13909817,8.992666483,-149.19182585,-2.0710891485,-0.012583624500000005,10.9288670995,-3.6946873665,-1.355466992,3.2566711305
49,0.2041584999999486,-29.19060135,8.972449063500001,-149.18851469999998,-2.167270422,-0.5802315469999999,9.1592817285,-7.505816698,-2.555404425,-1.220300555
50,0.20832499999994525,-29.186629295,8.967902182500001,-149.1615677,-1.2962009609999998,0.0157667985,10.643866540000001,-1.2495520635000001,-2.2764268815,2.1104720835
51,0.21249149999994185,-29.220944405,8.9466085445,-149.1487808,-3.0365544555,0.01849705,9.5837991215,-5.632263303,-3.20833683,-0.31006670000000003
52,0.2166579999999385,-29.237039565,8.927909135,-149.13052365,-0.806216687,-1.2936059535,10.1727023145,-3.444282651,-3.2664111255,0.3566590845
53,0.22082449999993514,-29.242719655000002,8.912300824999999,-149.1065292,-2.4022589324999997,0.5177911669999999,10.2923607825,-2.444968343,-3.2666282055000004,1.2148768900000002
54,0.22499099999993175,-29.258648875,8.874442579,-149.09011844999998,-1.219289839,-1.14584586,10.2618732475,-3.372575402,-5.157304524,-0.9854949565
55,0.2291574999999284,-29.25263119,8.858656645,-149.0717697,-3.1041822435,-0.5280332155,10.1007173045,-0.920146644,-2.979595184,0.6420463915
56,0.233323999999925,-29.27238655,8.8337788585,-149.05200195,-1.845184326,-0.7335565685000001,11.94725132,-3.889509201,-4.017779589,0.16360473600000003
57,0.23749049999992164,-29.25008011,8.799952983499999,-149.0271683,-2.4937795400000002,-0.33176992650000003,9.7507519725,0.882820308,-5.2329573655,0.25474011900000004
58,0.2416569999999183,-29.255042075,8.8106353285,-149.0214462,-2.8214430805,-0.353650415,12.574326995,-1.8868211504999999,0.5257384774999998,0.8043061865
59,0.2458234999999149,-29.24816036,8.763397455,-148.9896164,-2.6114739179999997,-1.1370194405,7.4932019715000004,-1.063515842,-7.0664812055,0.20752653100000001
60,0.24998999999991156,-29.24471855,8.7914738655,-148.99175265,-1.311544031,0.035477944,11.962804315,-0.7472696005,2.8039582370000002,1.015348226
61,0.2541565000000219,-29.24065113,8.752887249,-148.96217345000002,-2.3695081475,-1.2043233515,7.0714610790000005,-1.3562352359999998,-6.032139897,0.4836801585
62,0.2583230000000185,-29.229323385,8.7575984,-148.96243285,-1.516932964,-0.567123473,11.728765965000001,0.17681497349999997,0.24338650699999986,-0.16328435249999998
63,0.26248950000001514,-29.230453495,8.734687805,-148.9428406,-2.5905231239999997,-0.7093000709999999,9.1041259765,-1.7778648135,-3.8124739229999998,0.3607701105
64,0.2666560000000118,-29.22733402,8.708133458999999,-148.92695615000002,-1.0002769825,-1.386921495,11.8916444755,-1.087535627,-3.961030008,-0.344620297
65,0.2708225000000084,-29.21647549,8.698960304,-148.9183884,-2.911862135,-0.07537283,9.552904604,-0.17236447349999995,-1.7362551685,0.04910892250000004
66,0.27498900000000503,-29.23420143,8.675918579000001,-148.9036865,-2.7822502855,-1.0402276815,11.744174005,-3.5681912899999997,-3.5484230515000004,-0.22226107150000007
67,0.27915550000000167,-29.224981305,8.6636886595,-148.8988266,-1.6122615935,-1.466177106,9.802829742,-0.31173165150000004,-1.8885958194999999,-0.43125408899999995
68,0.2833219999999983,-29.244609835,8.657779217,-148.8860855,-2.7181055545,0.06457066550000001,14.106717585,-3.7581082585,-1.6206452845000006,0.542445537
69,0.28748849999999493,-29.25129795,8.6392626765,-148.86627959999998,-1.8715468645,-1.0583273025,7.409676075,-2.482268974,-3.417932508,0.75031136
70,0.29165499999999156,-29.262647625,8.6245725155,-148.85507965,-1.29456982,-0.34956821800000004,10.5221543315,-2.708372712,-2.4656212345000004,-0.13629972949999997
71,0.2958214999999882,-29.295993805,8.6086981295,-148.8291016,-2.0333963035,-1.2880100605,9.573773384999999,-5.800574541,-3.491303802,1.537725031
72,0.2999879999999848,-29.334444995,8.575487852,-148.80184175,-1.6764403805,-0.936348185,9.5958659675,-6.222940683,-5.3435342335,0.42241084549999997
73,0.30415449999998145,-29.35817051,8.5648200515,-148.77165985,-1.571893066,-0.7588244005,11.6365230105,-4.729361653,-3.1896691329999998,2.2797950504999998
74,0.3083209999999781,-29.41025734,8.5158145425,-148.73397065,-2.514612146,-1.270691216,9.367381570500001,-8.110325575,-7.5897548795,0.5964402855
75,0.3124874999999747,-29.447078705,8.5183947085,-148.711998,-2.2591367735,-0.658667311,11.1135842815,-6.121802807,-1.3441267014999996,2.205347419
76,0.31665399999997135,-29.516588215,8.483727932,-148.67792509999998,-2.8810783625,-1.185366452,11.6065838325,-10.192225933,-5.8875350950000005,1.1150646805
77,0.320820499999968,-29.542595865,8.479857445,-148.65168,-1.698226869,-0.07249185799999999,9.5949549695,-4.8458547595,-2.306088269,2.268768191
78,0.3249869999999646,-29.591537475,8.465059042,-148.62326815,-2.273899928,-0.9502464534999999,8.802089214,-7.6630756855,-3.4586904050000005,1.693024248
79,0.32915349999996124,-29.647855755000002,8.4293842315,-148.58761594999999,-1.649425149,-0.49214960999999996,9.416337013,-8.5743017195,-6.18320772,1.2909193415
80,0.33331999999995787,-29.696123125,8.427099943,-148.5676422,-2.2673054935,-0.773723067,11.458043575,-7.473862886499999,-1.698704481,1.6503636985
81,0.3374864999999545,-29.76122475,8.390690565,-148.53282925,-1.3743107915000001,-1.3741322755,10.808079719,-9.574423791000001,-6.2101686009999995,1.112797856
82,0.34165299999995113,-29.799727439999998,8.3623707295,-148.50164030000002,-1.5863562225,-0.39964152899999994,8.4669353965,-6.522704124500001,-5.081013917,1.2841186825
83,0.34581949999994777,-29.862555505,8.335487604,-148.47467805,-2.530591518,-1.4307406545,9.9901871695,-9.159370898999999,-4.771159174499999,0.8814437260000001
84,0.3499859999999444,-29.913050655,8.2771627905,-148.4262924,-1.016966939,-0.540484348,9.7640712245,-8.256488323,-9.2065459515,1.224860251
85,0.35415249999994103,-29.97775173,8.2636363505,-148.41449735,-3.7646217345000004,-0.930694938,11.632832289,-9.177286624499999,-2.512160599,0.202858329
86,0.35831899999993766,-30.02365589,8.219746828,-148.37001800000002,-1.4415804145,-0.42700625950000004,10.553373337,-7.5619375705000005,-7.509044170499999,1.657253951
87,0.3624854999999343,-30.060805325,8.191459656,-148.3568573,-2.084183484,-0.47567087399999997,9.6290915,-5.990747332500001,-4.140054822,-0.44520106950000005
88,0.3666519999999309,-30.09609699,8.152396917,-148.31400295,-2.4437063334999998,0.02571440450000001,11.848102091000001,-6.146162155,-6.892644283999999,1.6483530405
89,0.37081849999992755,-30.118165015000002,8.122549534000001,-148.2988205,-2.653505564,-0.6580127179999999,11.616743565,-4.282047808,-4.419000626,-0.28829461300000003
90,0.3749849999999242,-30.113459589999998,8.091546534999999,-148.2652817,-0.9340049029999999,0.2198883815,10.370735645,-1.1215447185000003,-5.526119707500001,1.1721909044999999
91,0.3791514999999208,-30.10837078,8.0590858455,-148.2415466,-3.6985679864999996,-1.018214494,11.583951949500001,-1.181962848,-5.175850629499999,0.395073965
92,0.38331799999991745,-30.074677469999997,8.0320208075,-148.21488955,-1.1017876865,-0.394470362,8.3143634185,2.4467680755,-4.7224152104999995,0.7595132885
93,0.3874844999999141,-30.039221759999997,7.975860357,-148.1849823,-2.8930167705,-0.4602484405,12.66558504,2.39632082,-8.0138186525,-0.40396218
94,0.3916509999999107,-30.005456924999997,7.96854496,-148.16758725,-2.2485779825,-1.2583455445,11.051048516,2.487347007,-2.0832953455,1.0226291305
95,0.395817500000021,-29.958239555,7.9212498665,-148.1495056,-1.8201188185000001,-0.5715804099999999,10.201610803000001,4.1356363295000005,-6.3682630069999995,-1.1888720095
96,0.39998400000001766,-29.918416025,7.926283121,-148.1318588,-2.8038442134999997,-1.0509722235,10.5408749585,3.1133339405,-0.8243102999999996,1.8731563685000001
97,0.4041505000000143,-29.8862133,7.896368027,-148.14125819999998,-1.2446336745000002,-1.667605281,7.722581625,2.8381599189999998,-2.9516372695,-2.9805750250000003
98,0.4083170000000109,-29.85608101,7.900143385,-148.1289749,-2.4231434839999997,-0.9081157149999999,12.45458722,1.992967069,-0.6116638200000004,1.2471575435000002
99,0.41248350000000755,-29.853463175,7.9241991039999995,-148.1745758,-2.8657019065,-1.8270837365,8.76731494,-0.1289099454999999,4.812179625500001,-3.490746617
100,0.4166500000000042,-29.817423820000002,7.915879965,-148.14901735,-0.998283565,-1.1429130695,10.054715217,2.5776245595000002,-2.6870416400000003,1.8832610250000001
101,0.4208165000000008,-29.821403505,7.9809949395,-148.2142334,-4.0561112459999995,-0.7074383345,10.958421468500001,-0.6848094685,10.2451329245,-2.9973653555
102,0.42498299999999745,-29.823019025,7.989264488,-148.20202634999998,-1.0939436555,-1.5264256895000001,9.750968693499999,-1.577875525,-0.20360207600000013,1.4387645569999998
103,0.4291494999999941,-29.82085991,8.0619804855,-148.27285765,-3.4271706340000003,-0.7802226545,12.172645089500001,0.0401438625,11.348899008,-2.997301817
104,0.4333159999999907,-29.856599805000002,8.126424073999999,-148.2888031,-1.5647868215,-1.036099076,10.0279674525,-5.1626913545,7.2925348275,1.8764608505
105,0.43748249999998734,-29.859483715,8.168637991,-148.32521055,-2.752664745,-1.0522001685,8.6094176755,-1.1184010805,6.1508316999999995,-1.2832349834999999
106,0.44164899999998397,-29.872275350000002,8.276767969,-148.3606262,-1.337798834,-0.404515669,7.592308791,-2.1077573295,13.017632246,2.4681881665
107,0.4458154999999806,-29.903084755000002,8.3169531825,-148.39662935,-1.8562725485,-1.2814181150000001,9.645129442,-4.376511931,5.9487272495,-1.487943709
108,0.44998199999997723,-29.928304670000003,8.436300277499999,-148.4409256,-3.1865989565,-2.2287320495,11.819773791,-3.499109864,14.71872187,2.285878718
109,0.4541484999999738,-29.93624878,8.515000582,-148.47735595,-1.987023294,0.013445719999999994,13.338677643,-1.5150309505,9.9879395975,0.678303465
110,0.4583149999999705,-29.95957661,8.629205942,-148.52072909999998,-3.791837454,-1.3455884455,9.7624258995,-3.3627402780000004,14.170456527999999,2.1004447345
111,0.4624814999999672,-29.967398645,8.756384372500001,-148.5720215,-1.604492307,-0.4140100775,10.299077512,-1.1437911985,15.9138150215,1.9843923895
112,0.4666479999999638,-29.9855175,8.885000706,-148.62046815000002,-2.9577450155,-1.4062707424999998,10.045357346,-2.6662375925,15.94635916,2.5326605435
113,0.4708144999999604,-30.01549721,9.0478925705,-148.67017364999998,-1.7443321569999999,-0.8470256775,11.396311878999999,-3.8227467535,19.5474386205,4.283968568000001
114,0.474980999999957,-30.012233735,9.214160442499999,-148.72203065000002,-2.6931761805,-1.573931128,7.4438923594999995,0.056645885,20.035472391,4.4365552065000005
115,0.4791474999999536,-30.036289215,9.4250421535,-148.76567845,-3.0610386205,-0.772579372,9.509666919499999,-3.24994874,24.166813849999997,7.8617043485
116,0.4833139999999503,-30.063233375000003,9.64085579,-148.8289566,-2.1676054005000003,-1.2016966340000002,8.4869513505,-3.2601182465000003,25.84919119,6.229541659
117,0.4874804999999469,-30.081542015,9.926873206,-148.87957765,-4.5109927655,-0.5793303845,11.062800643500001,-2.409883857,32.3696928,11.7345356965
118,0.4916469999999436,-30.091965674999997,10.2264571175,-148.9582138,-2.09439975,-0.6906174125,9.113368034,-0.8874442204999999,35.44370079,9.739686729999999
119,0.4958134999999402,-30.08208656,10.578275205,-149.02301025,-4.0293511155,-1.239480287,9.0456445215,1.327810526,40.075183865,14.23410797
120,0.4999799999999368,-30.05675888,10.986945630000001,-149.1269989,-2.910585999,0.018568873,9.244219539,4.1077884419999995,48.26574898,13.684297560000001
121,0.5041464999999334,-30.009747505,11.41234064,-149.21267699999999,-2.7531725465,-0.775672406,8.8091378225,6.4155384875,49.02962112,16.354362965
122,0.50831299999993,-29.899045944999997,11.904240135,-149.32308195000002,-3.1968351900000003,1.7772864105,9.3304185875,14.6897840505,57.298416135,17.965734485
123,0.5124794999999267,-29.805038449999998,12.38858128,-149.4359589,-2.4403264895,-0.9085480575,7.226648092,12.932326732,56.818943024999996,16.90509033
124,0.5166459999999234,-29.62586975,12.963042255,-149.5563507,-3.463401556,1.197150588,11.07313776,23.457247735,66.656534195,21.43166256
125,0.52081249999992,-29.42810631,13.483693595,-149.66888425000002,-1.336945146,-0.17600759850000003,5.6167186495,25.64675951,60.721160885,18.71149063
126,0.5249789999999166,-29.149350169999998,14.12398577,-149.7895889,-4.645659804,0.907616757,13.552649975000001,35.697919845,73.700866695,24.797575950000002
127,0.5291454999999132,-28.819542885,14.680766105,-149.9073944,-0.5720122565000001,0.5490561275,6.6756491659999995,41.960142135,65.03909683,19.62269497
128,0.5333119999999097,-28.43935013,15.334631445,-150.01154325,-3.4170368910000004,0.42276808600000004,10.032767295,47.64874268,74.47312927499999,26.488425255000003
129,0.5374785000000202,-27.971046445,15.93783188,-150.1268158,-2.5864536165,1.3056597110000001,11.248305795,58.837322235,70.099674225,21.529735565
130,0.5416450000000168,-27.45798206,16.594835279999998,-150.20877074999999,-1.742754504,0.011141806999999976,7.127945185,63.10442543,74.0278244,27.88216782
131,0.5458115000000134,-26.88418293,17.209625245,-150.28912355,-3.485178351,0.794998646,12.242387295,70.59533501,69.89590454,24.47611141
132,0.54997800000001,-26.23232651,17.916838645,-150.37145995,-1.148354694,0.23256677399999998,9.0200982095,79.98720550499999,79.97375106999999,29.083374980000002
133,0.5541445000000067,-25.520518305,18.48622322,-150.3984299,-2.5708067415,0.42315910749999996,8.5365979675,85.37621689,62.86721611,26.151823045
134,0.5583110000000034,-24.749056815000003,19.188153265,-150.43604275,-2.604433596,0.1003237515,12.33280611,92.817417135,77.988414765,31.34426689
135,0.5624775,-23.92208862,19.804776195,-150.44368745,-1.658290476,1.526560545,9.307563544,98.494712815,67.80824470499999,28.961976049999997
136,0.5666439999999966,-23.02942848,20.423120495,-150.4002228,-1.220023751,-1.7038959265,10.077270507,104.11399078,66.04417801,33.501317975
137,0.5708104999999932,-22.097299579999998,21.047943115,-150.36250305,-3.2227544785,1.219027221,11.4977328795,109.20432664500001,67.63301277,32.061032295000004
138,0.5749769999999897,-21.10475445,21.677586554999998,-150.2972412,-1.6246290505,0.209627569,10.434410573000001,115.0467606,67.49642181499999,34.11432648
139,0.5791434999999865,-20.06888962,22.21910477,-150.1826706,-1.0793688295,-1.4446566105,9.4227166155,118.1245079,56.341903685000005,34.20378685
140,0.5833099999999831,-18.965833664999998,22.78741169,-150.05394745,-1.812108554,0.9331878125,12.38907623,125.26468655,59.42266655,35.96603775
141,0.5874764999999798,-17.833588125,23.32737255,-149.90688325,-1.6493223905,0.777926564,9.360347271,127.90258025,56.27898407000001,35.187791825000005
142,0.5916429999999764,-16.649243355,23.77557564,-149.72026060000002,-0.4623959065,-2.1851938965,8.931313753,132.0026398,45.193665505,35.542354579999994
143,0.595809499999973,-15.42292118,24.22321796,-149.50604249999998,-2.0315879585,0.5277335345,14.200527195,135.51522065,44.966724395,37.016427995
144,0.5999759999999696,-14.174387455000002,24.678403855,-149.311821,-2.2437514065000004,-0.23182445750000003,11.522288323000001,139.03002164999998,47.31523514,34.583812715
145,0.6041424999999663,-12.840230945,25.025885584999997,-149.03430939999998,-0.35276971749999997,-1.4744823275,9.294055463,144.9208069,33.317523,38.73056793000001
146,0.6083089999999629,-11.5009365095,25.37027645,-148.78456875,-1.6632415950000001,0.103966944,9.595897913,146.8178711,34.61661911,35.22835541
147,0.6124754999999595,-10.131887199,25.65925598,-148.4841232,-1.4211848379999998,0.36363020549999997,12.1163835525,147.58370209999998,27.7650404,38.34015274
148,0.6166419999999562,-8.72917366,25.925593375,-148.207901,-1.7076542975,-2.2094780800000002,11.962729455,152.75779725,26.571421625,34.400751115
149,0.6208084999999528,-7.283010721,26.128294945,-147.86582184999997,-1.1434019355,-0.974863857,10.706475258,154.36050415,18.762274265000002,39.946758270000004
150,0.6249749999999494,-5.850084901,26.336437224999997,-147.56419375000002,-3.1036937235,-0.184564233,14.73660612,154.78378295,20.96434021,34.73669815
151,0.629141499999946,-4.3784066435,26.501279835,-147.21398929999998,-0.43940263950000014,-2.9423356055000003,7.9077117445,156.7332306,16.16445899,39.27515602
152,0.6333079999999427,-2.936272979,26.572951314999997,-146.90405275,-1.700433433,-1.5168070495000001,10.091783999499999,155.2472763,6.257665814999999,33.57200813
153,0.6374744999999394,-1.4913336634999999,26.695365905,-146.5620422,-2.877674937,-0.445332877,15.90827036,153.78890224999998,13.031288625,36.85381317
154,0.641640999999936,-0.0650370119999999,26.71408749,-146.25724789999998,-0.9850459695,-3.5608667135000003,8.449806689999999,153.53124235,1.6244077700000004,32.798864365
155,0.6458074999999326,1.367917329,26.725180625,-145.91378785,-2.900120974,-1.697607756,15.13113356,152.19548795,1.4946657495,36.216632845
156,0.6499739999999292,2.7451749000000003,26.717912675,-145.62091064999998,-0.5146827695,-1.5341013970000001,9.147155761,148.2565384,0.0670490250000011,31.603813170000002
157,0.6541404999999259,4.106719851,26.641151425,-145.30593875,-2.3460358384999997,-3.851410747,11.123998402,145.18032075000002,-7.424160719,33.785867695
158,0.6583069999999225,5.406137824,26.53260517,-145.04019165,-1.424277939,-1.8915417195000002,11.5461280355,140.24378965,-10.79242277,29.774184225
159,0.6624734999999191,6.6919925209999995,26.41924858,-144.75569155,-2.5307506914999998,-2.2504361275,14.713163377999999,137.82655335,-10.552560805,31.515130040000003
160,0.6666399999999159,7.900516033,26.263242724999998,-144.5134048,-1.767313212,-3.851358652,14.406926630000001,130.67434695,-15.474230767,28.226180075000002
161,0.6708064999999124,9.070528981999999,26.07782364,-144.26269530000002,-1.497399807,-2.0598751305,11.5797834375,125.8364792,-18.284270762,29.730015755
162,0.674972999999909,10.1359195695,25.851810455,-144.0591812,-2.044075549,-4.0539036985,10.771399500000001,115.7104454,-23.266343114999998,26.0774889
163,0.6791395000000193,11.179471016499999,25.627660755,-143.84666445,0.01774257400000001,-3.784597635,9.955346584499999,112.81648634999999,-22.46078253,27.2481966
164,0.683306000000016,12.120058535,25.346964835,-143.68805695,-1.295410244,-2.266669869,10.8947296125,103.185764335,-29.719187735,23.547974590000003
165,0.6874725000000126,13.001996994999999,25.04666138,-143.52294925,-2.650492072,-4.382073879,14.246624945,96.16193009,-31.48854542,24.839681625
166,0.6916390000000092,13.81814432,24.763631824999997,-143.39448545,-0.808169678,-3.3677343129999997,9.8302669505,89.97292326499999,-29.972681045,21.342606545000002
167,0.6958055000000058,14.547489645,24.435304645000002,-143.26560975,-1.884950757,-2.611899018,8.45779395,79.81814575499999,-34.974808695,22.81556034
168,0.6999720000000025,15.222581385,24.110264775,-143.1617737,-2.3020806315,-2.6399384735,13.54849815,74.46077919000001,-34.91681671,20.832476615
169,0.7041384999999991,15.859820845,23.837285039999998,-143.05199435,-3.8497655395,-4.127463341,12.804726599999999,69.87753105,-28.55409908,19.8420248
170,0.7083049999999959,16.41315317,23.497849465,-142.97089384999998,-1.6815862055,-2.913270354,9.7558851225,61.042793275,-36.80389022999999,19.66630936
171,0.7124714999999924,16.92779732,23.174944875,-142.9092865,-2.8150560855,-2.575680256,17.689636229999998,57.667074205,-35.371344565,17.059077260000002
172,0.716637999999989,17.39918518,22.919695855,-142.8323364,-2.9982149005000003,-3.4814783335,10.327326299,51.510074615,-26.89028454,16.947705745
173,0.7208044999999856,17.785760875,22.615300175,-142.7749939,-2.0462605954999997,-2.2223151325,10.32430136,42.53921604,-33.098363875000004,16.57118988
174,0.7249709999999822,18.139736175000003,22.38341808,-142.70554355000002,-3.4434859755,-2.485768318,9.6905360235,38.037158015,-24.203371524999998,15.620443344999998
175,0.7291374999999789,18.434262275000002,22.118895530000003,-142.66155245,-1.9244799615,-4.300813317499999,6.773015143,32.076560975,-28.812931059999997,14.092350485
176,0.7333039999999755,18.706013679999998,21.862646105,-142.62957765,-2.2010439035,-1.807449162,11.44454098,29.9469614,-28.095341685,12.95803833
177,0.7374704999999722,18.96612358,21.674089430000002,-142.5654068,-3.9959162475000003,-2.359582782,11.78629732,27.093375205,-19.309272291,13.561959264999999
178,0.7416369999999688,19.19499874,21.48903942,-142.50694275,-0.5177152155,-0.581322759,11.740953326,23.640564915,-18.9203614015,13.267590045
179,0.7458034999999654,19.361690525,21.356931685,-142.45567319999998,-5.2478158475,-3.4574826955,12.528592586,16.625825884999998,-13.257704255,10.151387216
180,0.749969999999962,19.51407528,21.248437879999997,-142.35868835,-1.269270164,-1.69913768,8.7639303205,12.7703166025,-8.736573218,14.40234041
181,0.7541364999999587,19.618343355,21.120490075,-142.32977295,-3.0531882645,-2.4343238470000004,9.794433118499999,10.1307277685,-13.569209574999999,7.706916094
182,0.7583029999999553,19.751752850000003,21.068732259999997,-142.20095824999999,-2.052131504,-1.827858031,10.093000889999999,9.1013557915,-1.0651107875,15.48788214
183,0.762469499999952,19.841887475,20.96050739,-142.1787643,-2.8323749305000003,-2.1966332495,10.000600337,8.731702328999999,-11.561089278,6.266651392
184,0.7666359999999486,19.943154335,20.939189915,-142.03840639999999,-3.7018897534999997,-2.2000249625,10.9421405775,4.999938011,2.7398081425000003,15.123261450000001
185,0.7708024999999452,19.964401244999998,20.82268524,-142.02175145,0.7117027045,-0.893801212,6.3547775745,0.638723135,-12.696377275,6.011777401
186,0.7749689999999418,20.03598118,20.82482147,-141.90120695000002,-4.5722495315,-1.1732709705,11.0467491125,2.229636908,4.6961786745000005,12.165534019999999
187,0.7791354999999385,20.064875605,20.768096919999998,-141.84682465,-0.095257759,-0.9208101929999999,11.44291592,-0.08325290699999988,-4.4937620165,7.5323269365000005
188,0.7833019999999351,20.096819879999998,20.778731345,-141.75279239999998,-5.2318571805000005,-2.2450626490000003,13.762648105,-1.3809405565,4.709818289,9.2080626485
189,0.7874684999999318,20.099336625,20.73056889,-141.68967435000002,-0.14620900150000016,-1.2277551295,10.5969412325,-3.5918716195,-3.1873908490000002,8.107789278
190,0.7916349999999284,20.129473685,20.705722805,-141.6379776,-2.9246266485,-2.6312048435,9.0829284165,0.18769466899999998,-0.9383262995,6.1252984999999995
191,0.795801499999925,20.15583706,20.65040493,-141.56316379999998,-1.0050693450000001,-0.675922426,9.344355107,-1.3050262035,-3.5351293065,9.5848734395
192,0.7999679999999216,20.167157175,20.64735985,-141.5270691,-2.9101174025,-1.2466460465,11.540045736500002,-1.3123966155,0.8972603079999999,3.555243254
193,0.8041344999999182,20.147254945,20.58556175,-141.4585571,-2.0234271885,-1.427642539,11.850997925,-6.511574268,-4.4990640875,9.2463550545
194,0.8083009999999149,20.13063049,20.569179535,-141.42017365,-2.0357340575,-0.4960896525,6.5382561685,-4.777579784,-0.49803662299999996,4.400679111500001
195,0.8124674999999115,20.11415863,20.49944973,-141.38681795000002,-1.8368534595,-1.0308054384999998,9.182178735,-4.6811301705,-6.757708912999999,5.819106817
196,0.8166340000000218,20.12653065,20.47023201,-141.35796355,-2.2150205375,-1.948466778,8.8096137065,-0.9757999180000001,-2.2751205565,4.009204149
197,0.8208005000000185,20.12760162,20.395689009999998,-141.33353425,-1.3010441064999998,-0.006291061500000028,13.06999493,-2.1330707220000003,-7.6457988035,5.107492089
198,0.8249670000000151,20.142552375,20.36417484,-141.320076,-2.7551107405,-1.278404981,11.2465109815,-0.07690033299999999,-3.0868930225,2.578418404
199,0.8291335000000118,20.133859635,20.31751251,-141.2971878,-1.6319672170000001,-1.411145806,9.88326597,-3.171759665,-4.566365043,3.821669698
200,0.8333000000000084,20.13455391,20.260842325,-141.30426025,-2.2113394140000002,-0.22615937149999998,8.956843376,-0.951632917,-6.7212524415,1.4246253739999999
201,0.837466500000005,20.1446476,20.195904730000002,-141.2805405,-1.3481248620000001,-1.305238843,10.6027984615,-0.9853216410000001,-6.5941883945,4.6416203975000005
202,0.8416330000000016,20.172358515,20.115559580000003,-141.3126297,-1.4621381315,-1.2162017230000002,10.460635186000001,3.3391616345,-10.3594856285,-0.24017831699999997
203,0.8457994999999982,20.199952125,20.049630165,-141.29711915000001,-3.4917249085,-0.932803601,12.999351025,1.496851057,-7.014317274,3.8619861605
204,0.8499659999999949,20.219043730000003,19.96421814,-141.31438445,-1.3218139115,0.06985452799999997,7.8090903765,1.7675362824999998,-10.3576693515,1.5735468865
205,0.8541324999999915,20.237143515,19.90226555,-141.31059265,-3.3336492775,-2.063808858,9.430765154,0.8531011345000001,-7.0173015595,2.4712613825
206,0.8582989999999882,20.273341175,19.806651115,-141.3231659,-1.1055636404999998,-0.46603155099999993,7.0103781199999995,3.5333688260000002,-11.33641338,2.4165623485
207,0.8624654999999848,20.320916175,19.74035168,-141.33068085,-1.6736776230000001,-0.7398742734999999,10.68435383,4.884225726,-7.943475723000001,1.4813994765
208,0.8666319999999814,20.381564140000002,19.648200035000002,-141.33960725,-2.448545396,-1.12883693,10.864880085,6.3459784985,-10.8290719975,2.593735993
209,0.870798499999978,20.420108795,19.603161815,-141.3327484,-2.223169178,-0.9422913495,10.975772381,3.2389074565,-4.9797148105,2.1456277965000004
210,0.8749649999999747,20.454010965000002,19.522986415,-141.36177064999998,-3.4920028445,-1.1884893775,12.61998272,3.906158447,-10.231786014,0.08553230750000002
211,0.8791314999999713,20.512004855,19.477758405,-141.3536987,-2.637770772,-1.618697882,12.38271999,5.4856864215000005,-4.9507967235,2.266335011
212,0.883297999999968,20.56626892,19.38399124,-141.38661955,-0.5301619769999999,-0.3474925835,10.0484633435,6.4991390705,-11.9240818045,0.2289592325
213,0.8874644999999646,20.63024807,19.324658395,-141.39238740000002,-2.4988901765,-1.251055121,8.6403572565,6.731190681499999,-7.081004142499999,1.3934399785
214,0.8916309999999612,20.666121484999998,19.234025005,-141.41739654999998,-1.3831532149999999,-1.0656317175,7.447040081,3.976725698,-11.2628748425,0.9366997485
215,0.8957974999999578,20.70384884,19.14482975,-141.4539261,-2.497776508,-1.317410409,10.939150334,4.819485128,-11.66267443,-0.5817761425
216,0.8999639999999545,20.750951765,19.047297479999997,-141.46798710000002,-2.644333422,-1.0980559735,14.4912467,4.9418061374999995,-11.5941691405,2.4281270505
217,0.9041304999999512,20.807367325,18.959566115,-141.49613950000003,-2.3451253175,-0.010907081999999999,9.327582359,6.7853281495,-11.158305404500002,0.296081394
218,0.9082969999999478,20.858810425,18.869151115,-141.5258255,-2.0733386875,-1.372155011,7.981312989999999,6.0248405935,-11.4150114035,0.493599124
219,0.9124634999999444,20.90768528,18.77652931,-141.54704279999999,-2.3188903925,-1.247758329,6.2187542915,5.541807413,-11.42944574,1.2241429685
220,0.916629999999941,20.95892334,18.67321587,-141.57736205,-0.7560595275,-0.32964825600000003,11.630370141499998,6.0131475925,-12.891608716,0.9780925810000001
221,0.9207964999999376,21.02964592,18.572161675,-141.6066818,-3.178055525,-1.3786356,11.799811845,8.476444007,-12.69870758,0.7597568035
222,0.9249629999999343,21.08341789,18.51006794,-141.6154404,-3.1250840425,-1.184612602,12.38931942,5.5265278815,-7.3931529505,1.5242519975
223,0.9291294999999308,21.122501375,18.40661335,-141.6604538,-2.7373863455,-1.3255477695,10.3742985735,5.291299581500001,-13.6099472045,-0.7761371135
224,0.9332959999999275,21.178084374999997,18.341879845,-141.6609802,-1.9520421025,-1.331773162,12.068984986499999,5.383421898,-7.3396196385,2.5339013340000003
225,0.9374624999999241,21.22407055,18.22961235,-141.70779414999998,-1.7458920034999998,-0.942268044,9.417912959999999,6.13855511,-14.671182635000001,-0.579131424
226,0.9416289999999208,21.26216221,18.168410299999998,-141.72537995,-1.7424290180000002,-1.2671824694999998,8.517324209,3.9031485619999997,-7.637115242,0.5846384615000001
227,0.9457954999999174,21.270160675,18.055747985,-141.76210785,-3.1446594,-1.39268887,9.5038852675,1.1820649505,-14.30601215,0.505548179
228,0.949961999999914,21.2872324,17.986893655,-141.7911301,-1.249138653,-1.692325503,12.856710435,1.861578494,-8.9701299665,-0.28223682950000006
229,0.9541284999999106,21.294666290000002,17.87752819,-141.8307266,-4.2847161295,-0.5592906695,13.26495504,1.2242774215,-14.05190754,0.08473834399999997
230,0.958295000000021,21.29082012,17.82874298,-141.83999634999998,-1.2972702385,-1.248609841,7.4930307865,-1.3169303335,-5.899266005,1.0063256919999999
231,0.9624615000000176,21.271201135,17.73450947,-141.8894043,-3.2354928254999997,-0.6176153125,8.83793831,-1.718331158,-12.775242330000001,-1.6668722035
232,0.9666280000000143,21.26815033,17.665245055,-141.89250945,-0.6041116120000001,-1.7119157015000002,8.6597318665,-1.4942192435,-7.963376045,2.4401529435000002
233,0.9707945000000108,21.254797935,17.576569555,-141.9373474,-3.1235176325,-0.2817682625,12.57404041,-1.1502010525,-11.962528225,-1.4273790715
234,0.9749610000000075,21.243156435,17.502966405000002,-141.9545822,-1.6062937675,-0.850951314,11.094318867999998,-1.9991207119999999,-9.024356365,1.168085992
235,0.9791275000000041,21.20528698,17.45027971,-141.96718600000003,-4.8311884405,-1.3669287565000001,10.995379445000001,-5.2249579425,-6.6038622855,0.458136193
236,0.9832940000000008,21.17181301,17.36013794,-142.00454715,-0.2762226465,-1.4644922615,10.130405904,-3.945681095,-11.69223356,-0.25741663600000003
237,0.9874604999999974,21.137865065,17.328221794999997,-142.0052948,-5.2740097045,-0.5554283555,14.15243149,-5.1662635805,-3.7830889819999998,0.8501366155000001
238,0.991626999999994,21.104515075,17.26190853,-142.03440095000002,-0.3734746795,-0.426084712,8.468227863500001,-4.1827921864999995,-8.690859318000001,-0.39695012550000003
239,0.9957934999999906,21.053647995,17.237299445,-142.04037475,-2.681143761,-1.3872915505,7.259159327,-7.0568125245,-3.1777024865,-0.05485922099999996
240,0.9999599999999872,21.012255670000002,17.175989155,-142.06531525,-1.9229357839999999,-1.0526868105,8.380829811,-5.391784191,-7.9636209000000004,-0.26736781000000004
241,1.004126499999984,20.957458494999997,17.142410755,-142.07984165,-2.5561584235000003,-0.4664602875,12.49333906,-7.161715031,-4.544746905499999,-0.563244231
242,1.0082929999999806,20.904041290000002,17.110108855,-142.1040802,-2.2356295585,-1.267758131,12.592169285,-6.8459169865,-4.661535025,-1.3596676589999999
243,1.0124594999999772,20.84703827,17.057103155,-142.11120605000002,-3.0002272125,-0.420263693,8.245184659,-7.731734275499999,-6.414612293,1.0319847965
244,1.016625999999974,20.780737875,17.04825306,-142.14159389999998,-2.1798279285,-0.8618680535,10.7126226425,-8.1291520595,-2.3047816755,-3.066049814
245,1.0207924999999705,20.73956871,16.99839544,-142.14222715,-3.3324489594999998,-0.6698621810000001,11.615812779999999,-6.050902605,-5.8075675965,1.5719073415
246,1.024958999999967,20.66460228,16.99185848,-142.16282654999998,-0.315858781,-0.456020441,7.613620758,-9.4546637525,-1.6860252325,-2.2184876200000003
247,1.0291254999999637,20.617915155,16.969316005,-142.17053985,-4.346367717,-0.903463468,8.942039968,-6.509819746,-3.025861025,-0.37635651249999996
248,1.0332919999999604,20.55720234,16.946429254999998,-142.1814804,-1.700461894,-1.1175851825,9.343288896,-8.0878231505,-3.139216781,-0.527634099
249,1.037458499999957,20.491101265,16.9797945,-142.1842575,-3.1726664304999996,-0.8120288849999999,14.01691103,-8.9532637595,3.4562513825,-2.153273642
250,1.0416249999999536,20.42164326,16.962929725000002,-142.21179965,-3.4777829645000002,-0.803283945,11.866572379,-8.6332082765,-3.0873037425,-2.5139603614999997
251,1.0457914999999502,20.337361335,17.05406761,-142.19930265,-3.88592577,-1.543559939,9.4604382515,-11.686919215,10.569677828,-2.9249029159999997
252,1.0499579999999469,20.24627304,17.092069145,-142.23533629999997,-2.224886715,-0.879274875,13.00200319,-10.9657111155,2.7869443295,-5.662116528
253,1.0541244999999435,20.136170385,17.175850394999998,-142.25395205,-2.2053706645,-1.4109547139999998,7.993386507,-13.730733394,8.534192919,-5.932835698
254,1.0582909999999401,19.99184227,17.26382828,-142.29151155,-1.5920954345,-1.4335153699999998,9.5399625305,-17.2978148465,8.3723490235,-7.9392008805
255,1.0624574999999365,19.789078715000002,17.363479615,-142.35172275000002,-2.7927742005000002,-2.7887405755000003,7.43062532,-23.356696605,8.737343787,-11.0135679265
256,1.0666239999999334,19.52158928,17.483126645,-142.38589480000002,-4.020741105,-2.0470361710000002,14.259771825000001,-32.140985490000006,12.0966019615,-8.919040918
257,1.07079049999993,19.206355095,17.612509725000002,-142.48036954999998,-0.7938555034999999,-3.011400461,8.876006841,-35.56651497,10.926252724,-15.7074461
258,1.0749569999999267,18.812023165,17.690904619999998,-142.55884555,-3.1100844144999997,-3.4163902999999998,8.264309885,-45.73304558,5.83474171,-12.1879119895
259,1.0791234999999233,18.341402055,17.84313202,-142.6807404,-2.0927817225,-2.131160378,10.7271931165,-53.17049598999999,12.7548964025,-19.348715785000003
260,1.08328999999992,17.81359482,17.97285557,-142.7568741,-3.3772633075,-3.135167122,12.319987295,-61.782110215,11.9356722795,-13.83110237
261,1.0874564999999166,17.202785965,18.125037194999997,-142.8773727,-1.7359124865000002,-1.919417724,11.0205798135,-69.93528557,13.1608677205,-18.74170589
262,1.0916229999999132,16.477780815000003,18.237556455,-143.00718690000002,-1.742273331,-4.1873579025000005,5.5784745225000005,-83.39005661,8.473322269999999,-18.67108631
263,1.09578949999991,15.693102835,18.35357666,-143.14146425,-2.4142958224999997,-1.7529418465,14.5677411565,-90.27765274500001,9.014779807,-18.944785115000002
264,1.0999560000000201,14.84237671,18.533326145,-143.26004024999997,-3.7935675384999996,-2.1967272755,13.203947545,-98.813335435,17.16256094,-18.795059205
265,1.1041225000000165,13.879045009999999,18.585173605,-143.4101715,0.732105844,-4.615871787,1.55490613,-111.13682176500001,1.6797580749999996,-19.126648905
266,1.1082890000000134,12.859149455,18.645083425000003,-143.57993315,-2.5794985295000004,-1.4021589454999999,14.1045093515,-117.1108017,2.4523267734999994,-20.18295765
267,1.11245550000001,11.7807016365,18.813391685,-143.71418764999999,-2.6194963755,-1.6486159194999999,9.4695017345,-125.5288124,16.389702322,-20.436581609999998
268,1.1166220000000067,10.5838565805,18.725833895,-143.9249878,1.915901646,-3.6397032735000003,6.513709425999999,-136.76229855,-15.0305109,-21.595982555
269,1.1207885000000033,9.3253309735,18.799251554999998,-144.1109161,-5.262688935,-2.496163368,17.737995625,-145.0688553,4.910490512,-23.18746948
270,1.124955,7.9997885234999995,18.756701470000003,-144.31148530000002,-0.05110621449999986,-1.8279132845,11.0838105675,-152.73597715,-8.455090286,-22.505104064999998
271,1.1291214999999966,6.611302852500001,18.635134695,-144.53834535,-1.245816201,-3.5872908235,9.36872983,-159.07526395000002,-17.854512215,-24.24344826
272,1.1332879999999932,5.1297860145000005,18.561472889999997,-144.76645660000003,-2.0146326425,-1.0280229445,6.7317358254999995,-170.48336030000002,-11.340057311,-25.54675102
273,1.13745449999999,3.5722540025,18.348147394999998,-145.02049255,0.3098413945,-1.899927378,8.2456245415,-178.4507065,-27.813269615,-27.849925995
274,1.1416209999999865,2.00464046,18.215138435,-145.28199005,-5.549004674,-2.8294121619999997,17.214165209999997,-179.65993500000002,-17.32529783,-28.778980255
275,1.145787499999983,0.3586499689999998,17.97184658,-145.53269955000002,0.9904477599999999,-1.8438699245,6.935016513,-189.3317947,-29.923370839999997,-29.283535954999998
276,1.1499539999999797,-1.297174156,17.637948035,-145.8059845,-2.8778464495000002,-0.16562250250000002,17.210411546499998,-189.96591185,-39.922391895000004,-31.69515991
277,1.1541204999999763,-2.9516610055,17.498475074999998,-146.03889465,-3.3177462815,-1.3372486535,11.425709245,-191.1183319,-15.87499523,-28.110673905
278,1.158286999999973,-4.701556741999999,17.083515645,-146.29101565,0.013021767000000017,-0.4947429595,2.1482708755,-202.156868,-48.072675704999995,-32.905050275
279,1.1624534999999696,-6.428410411,16.757217885,-146.50759885,-2.4789254665,-0.6228408215000001,10.07628918,-200.63388065,-36.73239231,-28.877019885000003
280,1.1666199999999662,-8.120226383,16.386677745,-146.71411135,-2.278762162,1.1724698545,13.349367618999999,-197.0285492,-41.456783295,-30.59900856
281,1.1707864999999629,-9.785896061999999,16.007985115,-146.90387725,-1.3092220425,0.10844954850000005,10.758002279,-194.54382325,-41.635539055,-28.690917964999997
282,1.1749529999999595,-11.434778213,15.629406930000002,-147.0911789,-5.2683799265,-0.3892733455,15.815531255,-192.87310789999998,-41.01507187,-30.236694335000003
283,1.1791194999999561,-13.047895910500001,15.20596361,-147.2275696,-0.6253950595,1.656306118,10.4231065515,-190.1993103,-46.44708061,-26.863622665
284,1.1832859999999525,-14.62857628,14.834834575,-147.39279175000001,-3.5370647905,1.5333233475,13.510053871,-185.60299685,-38.93939972,-29.75730896
285,1.1874524999999494,-16.09010744,14.362680435,-147.4886322,-1.0183196214999999,1.67028971,6.8095064165,-173.4276886,-51.751216889999995,-26.99388409
286,1.191618999999946,-17.570034505,13.962759975,-147.60363769999998,-2.5368757845,2.3987415435,10.256874085,-175.3072586,-42.316112520000004,-27.09162903
287,1.1957854999999427,-18.944968225,13.503606795,-147.6882324,-1.7440091965,0.2866335515,8.1316494935,-163.54544065,-49.464918139999995,-27.442788125
288,1.1999519999999393,-20.240114215,13.021492004999999,-147.730217,-2.037198424,2.5524831714999996,11.125602244,-155.38146970000003,-53.09671402,-24.350781445000003
289,1.204118499999936,-21.48735714,12.586158274999999,-147.7879181,-1.5446347595,1.8408535124999998,14.36369276,-149.07985685,-46.747800825,-25.625115395
290,1.2082849999999326,-22.60063362,12.127353670000002,-147.8057175,-4.6771452425,2.2935715915,8.2872617245,-134.25805665000001,-50.55312538,-22.807495115000002
291,1.2124514999999292,-23.611073495,11.669180872,-147.8092651,-1.049980074,2.335317254,9.425124167,-122.203403495,-50.832654954999995,-22.3029747
292,1.216617999999926,-24.53466034,11.262976647999999,-147.79069520000002,-4.768021226,3.4262170789999997,16.49381733,-112.28173448,-45.735458375,-18.3704381
293,1.2207844999999224,-25.36942196,10.810495851999999,-147.7659912,-1.1294099690000001,3.1918464895,9.5095744135,-101.89697267,-50.88801384,-20.37176609
294,1.224950999999919,-26.08479977,10.4289879785,-147.71179965,-4.547270059500001,2.2282396555,9.2772364615,-88.175189995,-44.32998657,-14.38076878
295,1.2291174999999157,-26.731649394999998,10.031299113500001,-147.66573334999998,-1.3294944165,3.1559726,8.051647663,-79.799304965,-45.592081070000006,-16.417060375
296,1.2332839999999123,-27.256443025000003,9.7091512695,-147.61544800000001,-5.334748983,1.9247272015,17.04408741,-65.207035065,-37.393533705,-12.551833625
297,1.237450499999909,-27.694018364999998,9.3677191735,-147.54789735,-1.75550358,2.5738496179999997,12.104433535,-55.0782299,-40.464071275,-11.867648599999999
298,1.2416170000000193,-28.064377784999998,9.0855975125,-147.51494595,-5.386202574,3.3937163354999997,10.890576361499999,-46.313409805,-32.167627335,-12.42871618
299,1.245783500000016,-28.370680805,8.802823782,-147.4382019,-1.380394101,1.792397864,6.6033753175,-39.490353585,-34.64440918,-7.987220526
300,1.2499500000000126,-28.584889415,8.587774756,-147.41896055,-4.7258720395000005,0.9913834635000001,11.40032959,-27.279849052,-24.193779945000003,-10.366114616499999
301,1.2541165000000092,-28.736927035,8.3622226715,-147.35430904999998,-0.49016733449999994,2.4264555575,10.32640934,-20.710075853,-27.796884534999997,-6.340727568
302,1.258283000000006,-28.818681714999997,8.1869704725,-147.34352109999998,-5.1658639905,1.6341261715000002,13.117023464999999,-11.1968386025,-19.48283863,-9.0857982615
303,1.2624495000000024,-28.87830925,8.0125715735,-147.3030701,-1.424855858,0.922842711,8.584396839,-9.1607208225,-21.030032634999998,-5.9785192015
304,1.266615999999999,-28.870725630000003,7.8761274815,-147.30370335,-3.9327772855,2.0257242325,8.3244698065,-0.3375015260000005,-14.675501825,-8.117076635
305,1.2707824999999957,-28.845094680000003,7.7573950289999996,-147.2826004,-2.4754095080000003,0.389225185,14.500607965,1.4597358695000002,-14.064178945,-4.825671792
306,1.2749489999999923,-28.786128044999998,7.634544372500001,-147.30137635,-3.1179293395,0.32951707399999997,12.68859148,6.145918608500001,-12.216853140000001,-9.222599983
307,1.279115499999989,-28.6910305,7.565539598500001,-147.3104019,-3.0548979044999998,1.3312159885000001,9.148790836,10.252112151,-7.1031362410000005,-5.0884991885
308,1.2832819999999856,-28.588507655,7.459914446,-147.33531955,-2.6357458830000002,0.1312956835,11.696784495,11.4649102665,-10.057560922,-8.877794265999999
309,1.2874484999999822,-28.468177795,7.3929853439999995,-147.35881805,-2.597887635,-0.4684432595,9.836215019,13.555927753999999,-6.074519873,-6.4928004745
310,1.2916149999999789,-28.33082676,7.3468999864999995,-147.4096985,-2.6383446455,0.44686258050000005,11.04972601,16.00941181,-2.3070294855,-8.204869032
311,1.2957814999999755,-28.197845455,7.2625215055000005,-147.43431095,-2.6160798075,-0.346091777,9.9413595215,15.093921665,-7.853966713,-7.629368305
312,1.2999479999999721,-28.08092403,7.2402729985,-147.4954758,-1.9500175115,-0.6628998185,8.413909912,13.72386694,0.775458318,-7.965055227500001
313,1.3041144999999685,-27.94875145,7.200227976,-147.54583739999998,-2.6626847385,-0.3282096535,11.46967077,15.370466705,-1.761164546,-7.778352976
314,1.3082809999999654,-27.83618164,7.160259246500001,-147.596138,-2.727899671,-0.5455821455000001,12.070742131500001,13.063351155,-1.7344041465,-7.844475269
315,1.312447499999962,-27.750597,7.1554772855,-147.6625824,-2.6531527635,-1.4473005235,8.946888447,10.0469801445,2.857434869,-7.524182081499999
316,1.3166139999999587,-27.64780712,7.1349778175,-147.71890255,-2.8384408355,0.21700719000000002,11.840920445,11.960351464999999,0.6545912025,-7.4045512675000005
317,1.3207804999999553,-27.59024048,7.116436719999999,-147.7769089,-2.8892300129999997,-1.1385889649999998,13.16747189,6.569617033,0.9213378575000001,-7.4399116035
318,1.324946999999952,-27.55114365,7.1407163140000005,-147.84443664999998,-2.5631096959999997,-1.1483693195,7.2676842215,4.4958301789999995,6.0091769695,-6.0913853645
319,1.3291134999999485,-27.509577755000002,7.101418495,-147.8939743,-1.3469954579999999,-0.7789810595,8.682467459,4.5109493435,-1.7644494475,-7.695182561999999
320,1.3332799999999452,-27.50663567,7.123824834500001,-147.9487305,-2.6272877455,-0.9560662504999999,10.94957638,-0.018153667500000026,5.1142923835000005,-4.891217947
321,1.337446499999942,-27.513690945,7.117403507,-148.01039885,-2.7547038795,-0.6488340645,9.688705922499999,-1.12381804,2.394316435,-7.161164999
322,1.3416129999999384,-27.531890869999998,7.120308875999999,-148.04779815,-2.772243619,-1.6230837105,13.08947611,-2.8356877565,2.095346808,-4.139887929
323,1.345779499999935,-27.580340385,7.1426522729999995,-148.1115341,-2.9997273680000003,-0.7914032715,13.870134830000001,-6.0607509615,5.5681636335,-5.7720406055
324,1.3499459999999317,-27.626700399999997,7.170011997,-148.1559982,-2.6001935005,-0.6961810030000001,8.939142704,-6.082216978,5.0625134705,-3.49777782
325,1.3541124999999283,-27.698123934999998,7.153301238999999,-148.19187925,-0.325714901,-0.45152771500000005,6.764526129,-9.2199471005,-0.08436727499999996,-5.0653688905
326,1.358278999999925,-27.779709815,7.206758976,-148.23972320000001,-3.211661458,-1.67985636,10.736556532,-10.270658017,8.059994936,-2.426424086
327,1.3624454999999216,-27.873238565,7.1888203619999995,-148.26142885000002,-2.316507354,-0.015177860999999987,12.059677124,-12.101370335999999,-1.009866953,-3.5896561145
328,1.3666119999999182,-27.995479585,7.219584942,-148.2969208,-2.059196532,-1.6084380595,9.083598614500001,-15.346580979999999,4.974336623999999,-2.3656032085
329,1.3707784999999149,-28.102829935000003,7.2352969645,-148.32688904999998,-3.2602258920000002,-1.0373578075,10.573617458000001,-13.663288115,3.0255924465,-2.527651668
330,1.3749449999999115,-28.216309545,7.2385082245,-148.33584595,-1.82315433,0.28870826949999995,8.770945549,-14.661232949999999,0.5562453270000001,-1.1222047210000001
331,1.379111500000022,-28.337435725,7.245172024,-148.3646164,-0.9181816875,-1.202011496,8.896329166,-15.27698612,2.0266177655,-2.9982492925
332,1.3832780000000184,-28.435079575,7.2710855005,-148.38291164999998,-3.5873345135,0.118918419,10.189370629999999,-12.648773195,3.5103420020000002,-0.8202576785
333,1.387444500000015,-28.563384055,7.249494314,-148.3844299,-2.0814226865,-0.1629919785,11.9766488085,-16.575277325000002,-2.5040678385,-1.7043268679999999
334,1.3916110000000117,-28.682068819999998,7.275461197,-148.41279600000001,-2.7138597965,-1.5011653305000001,11.067537309999999,-15.006652355,4.073624611,-1.843354106
335,1.3957775000000083,-28.782876965,7.281663179000001,-148.42017364999998,-3.1806435585,0.753150642,12.885206459,-13.274963855,0.788259268,-0.6749673490000001
336,1.399944000000005,-28.916275024999997,7.272255897499999,-148.427742,-2.0456327795,-0.7043809145000001,8.967587231,-17.049427035,-0.8611123265,-1.7005231379999999
337,1.4041105000000016,-29.019784925,7.2987120155,-148.46372225,-1.381918259,-1.0281570555,8.7982640275,-13.138149259999999,4.539911985,-2.4683989865
338,1.4082769999999982,-29.113126755,7.27082324,-148.44911954999998,-1.9216495155,0.26646028499999996,9.203255417,-12.608890535,-4.0421956775000005,-0.5015459285
339,1.4124434999999949,-29.23235321,7.272466897999999,-148.46903989999998,-2.4230048655000003,-0.9067180455,9.8359646785,-15.23815489,1.000844449,-2.2433975935
340,1.4166099999999915,-29.306251525,7.2568769455,-148.46561435,-1.974661231,-0.666494645,9.433413983000001,-10.0790109625,-2.115050942,-0.9620004295
341,1.420776499999988,-29.417636875,7.231198549,-148.45297240000002,-2.4654927255,-0.007698178500000014,12.652397156,-14.820291045000001,-3.7440782785,-0.4536794424999999
342,1.4249429999999845,-29.51021862,7.2232747075,-148.46156315000002,-3.2001420855,-1.334260255,10.007584571,-12.146055220000001,-0.624430351,-1.7273156045000002
343,1.4291094999999814,-29.566942215,7.2004685405,-148.43553165,-1.449320376,0.7353190780000001,9.6998324415,-8.433614969,-4.2481081485,1.092203766
344,1.433275999999978,-29.664911269999998,7.1785778995000005,-148.43768310000002,-2.733258486,-1.1899951695,9.538327696500001,-12.921488759999999,-2.4540489315,-1.8706465065
345,1.4374424999999746,-29.707825665,7.1711175439999995,-148.41545105,-1.960663679,0.11375461499999998,8.6578595635,-6.755703211,-2.44044745,1.6490381705000001
346,1.4416089999999713,-29.765537260000002,7.138809681,-148.40242005,-2.680000842,-0.5334778725,10.074967620999999,-8.311345814500001,-4.4605398175,-0.8879623415000001
347,1.445775499999968,-29.83538437,7.144896269,-148.3969421,-1.8838742525,-0.6160364895,10.609424115,-9.7492656705,-0.047110981999999996,0.7395918964999999
348,1.4499419999999645,-29.8628912,7.1139729019999995,-148.3785019,-4.085221529,-0.5731372835,11.449993135,-4.79341042,-4.62146163,-0.2572246195
349,1.4541084999999612,-29.919126509999998,7.1458868980000005,-148.38874055,-1.5141751860000001,-0.48081973200000006,11.890542504999999,-7.8567063805,3.5369542835,0.6905725895
350,1.458274999999958,-29.944177625000002,7.12449193,-148.38587189999998,-4.484297514,-1.154711604,11.573659895,-4.275246023999999,-2.707885623,-1.2919051344999999
351,1.4624414999999544,-29.95895672,7.15237093,-148.3826828,-0.6705476045,-0.05673199900000003,8.907473802,-3.092246234,2.301240444,1.8682829735
352,1.466607999999951,-29.988241199999997,7.1678376195,-148.4079666,-4.4054288865,-0.627963323,11.726890565,-4.3779598475,2.8078133015,-1.989598572
353,1.4707744999999477,-29.98407459,7.162680149,-148.39031215,-0.19107949749999997,-0.3873278725,8.841340065,-1.004058868,-1.976938605,1.3259721545
354,1.4749409999999443,-30.01167107,7.200433016,-148.42977905,-3.6945542099999997,-0.8314499260000001,8.9610581395,-3.983462453,5.9677071569999995,-2.0955904724999996
355,1.479107499999941,-30.01604271,7.1960849765,-148.41651155,-0.9807928204999999,-0.7985436619999999,11.421439647500002,-1.9685052035,-1.6705284269999998,0.983509779
356,1.4832739999999376,-30.026556965,7.212247848500001,-148.44685365,-3.321175337,-1.136865735,9.075843811,-2.077340007,3.1450244560000002,-2.3893469575
357,1.4874404999999342,-30.02365589,7.243561983499999,-148.44320679999998,-2.02251029,-0.4719667435,11.621221065,-0.9182449580000001,2.5576839445,2.187551856
358,1.4916069999999308,-30.02710915,7.243115186500001,-148.4640961,-3.3580117229999997,-0.773269318,9.4502797105,-1.39581576,0.8688225745000002,-2.4177467825
359,1.4957734999999275,-30.008852955000002,7.2866699695,-148.4669037,-1.5296652315,-0.9194186625,10.464155195,1.024966359,4.2177814840000005,2.2499098185
360,1.499939999999924,-29.99465847,7.2886340615,-148.4795761,-3.8883335595,-0.02452045650000001,11.588336469,0.6168548169999999,0.5974327325,-1.391954422
361,1.5041064999999205,-29.984636305000002,7.339915037500001,-148.4836807,-0.839685578,-1.1540685295,9.0243296605,0.037761785,5.111717701,2.5715283749999998
362,1.5082729999999174,-29.94505882,7.330726862000001,-148.49346924999998,-3.0804202255,-0.608334026,8.601822853,3.629959822,-0.6994351,-1.8273068964999999
363,1.512439499999914,-29.932799340000003,7.388781786000001,-148.50177,-1.6891963035000002,-0.7952074225,10.707536221,0.33865207450000007,6.086019039,2.531941533
364,1.5166059999999106,-29.912231445000003,7.3733525275,-148.5091629,-2.872591913,-0.8987749815,9.260131358999999,1.3450163005,-1.5106059465000001,-1.9452986714999998
365,1.520772500000021,-29.88953304,7.4268660545,-148.5150299,-1.4541240334999999,-1.1573939025,11.32243395,1.5157607795,5.487824678,2.5055844780000003
366,1.5249390000000176,-29.881507874999997,7.4213876725,-148.53260805,-4.1830232145,-1.1390265525,12.163374425,0.02346909050000001,0.15164208449999972,-2.4550732375
367,1.5291055000000142,-29.851932525000002,7.4725039005,-148.54052735,-1.700968906,-1.478375852,10.565753461,2.3977485895,5.3651578425,2.1242656109999998
368,1.5332720000000108,-29.836121560000002,7.4867372515,-148.56954955,-2.890211016,0.186199758,11.13379574,1.126552552,2.851812534,-2.408109665
369,1.5374385000000075,-29.804446220000003,7.51706028,-148.56450655,-1.3838682695,-1.9303431510000002,9.116326332,2.453216314,2.436836064,2.2105599645
370,1.541605000000004,-29.78778553,7.533160448,-148.59441379999998,-2.513052881,-0.5110233424999999,10.0500860215,1.2287019195000002,3.1569544225,-2.4765635429999997
371,1.5457715000000005,-29.78391552,7.563435077499999,-148.59498595000002,-1.4462206064999998,-1.4980850815000002,9.376946447,-0.7937788670000001,2.7429198325,1.6623448429999998
372,1.5499379999999974,-29.79136944,7.5552420614999996,-148.61403655,-2.5284247994999998,-0.810938895,10.826943396999999,-1.8259619175,-0.048929452999999956,-2.760817349
373,1.554104499999994,-29.77682018,7.5868124965,-148.6153946,-1.8695338515,-2.26163733,7.994822262,0.4611330925,2.9315428885,1.672123015
374,1.5582709999999906,-29.80236149,7.596576213500001,-148.6449814,-3.8778485655,-0.561911043,12.94199133,-3.8157203795,2.4103888870000003,-2.7302532194999998
375,1.5624374999999873,-29.793913845,7.6059532165,-148.64311220000002,-1.931257555,-1.9856823685,9.6603751185,-0.32350140800000005,0.43880414999999995,0.667084336
376,1.566603999999984,-29.803679465000002,7.6348137855,-148.67224125,-2.820297897,0.35037627800000004,11.781033035,-1.916072965,4.376762152,-1.561123669
377,1.5707704999999805,-29.80482006,7.6413908005,-148.6727753,-1.9681060915,-2.5654354095,7.3750901225,-1.4221342505,0.2840809824999999,0.2518199684999999
378,1.5749369999999772,-29.800307275,7.648719787499999,-148.68239595,-1.6508029105000002,-0.2512577475,9.1501672245,-0.485441044,1.0224757174999999,-0.9177645149999999
379,1.579103499999974,-29.806755065,7.6530706885,-148.69892885000002,-3.2150617245,-1.955060482,9.630427362,-1.804753363,0.9723614454999998,-1.4927015195
380,1.5832699999999704,-29.835219385000002,7.658058882000001,-148.693634,-2.8432503195,-1.3044930694999999,13.334125515,-4.6916570664999995,-0.11712789549999991,0.5118172615
381,1.587436499999967,-29.82956982,7.6493713855,-148.7101288,-2.1525734735,-1.121016532,9.0187816605,-0.38826680199999997,-0.3665335179999998,-2.272635698
382,1.591602999999964,-29.850439074999997,7.669145107,-148.71083065,-3.5713517665,-0.2892027575,14.585938455,-3.707551956,1.7781920429999998,0.7880349754999999
383,1.5957694999999603,-29.875947955,7.6540329455,-148.72844695,-2.784922421,-2.434127331,8.93373132,-4.0933601855,-0.9619741424999999,-2.7905687544999997
384,1.599935999999957,-29.88710499,7.66535306,-148.7262192,-0.857521415,-0.18614993999999999,11.2784547795,-2.5351563095,0.7262983349999992,0.5421830565
385,1.6041024999999536,-29.904040335,7.6568033695,-148.7348328,-3.3684214354999997,-1.7424623965000001,9.321176530999999,-3.2127298115,-0.8031918999999998,-1.4845499245
386,1.6082689999999502,-29.927494045,7.6563704015,-148.72711945,-1.2569471600000002,-1.453216434,8.265256881,-4.1027605535,-0.805189135,0.382926479
387,1.6124354999999468,-29.94996643,7.6463081834999995,-148.7334747,-2.7736250385,-1.1736918985,9.337856294,-3.9147070645,-1.0943307869999996,-1.33502689
388,1.6166019999999435,-29.977499005,7.6453261375,-148.71793365000002,-2.0486096445,-1.4772404435,13.180933955,-4.7554244995,-1.3169114585000004,1.1643785949999998
389,1.62076849999994,-29.992764469999997,7.6416931155,-148.71654515,-3.257862568,-1.5896992685,7.612312199,-3.1920850275,-0.8775119790000003,-0.15175801499999997
390,1.6249349999999365,-30.020003315,7.6637525554999995,-148.7174759,-2.102149725,-0.2412594785,11.209484098499999,-4.4474643465,1.9838805199999998,0.9552444370000001
391,1.6291014999999334,-30.046139715000002,7.664347172,-148.71546935,-3.0996658355,-2.370861113,9.508510112,-4.4768941405,-0.44632172599999986,0.097071573
392,1.63326799999993,-30.07379818,7.698901176,-148.7122116,-1.2885556815,-0.2493597415,7.1640220885,-4.564367533,3.0798631905000002,2.060985565
393,1.6374344999999266,-30.0852232,7.7166314125,-148.72493745,-2.832087457,-1.7540026905000001,9.3905301095,-2.4787856340000003,2.177838087,-0.3349444565
394,1.6416009999999233,-30.103996275,7.740185499500001,-148.7097168,-1.4751168490000002,-1.210865617,9.486122132,-3.7171953915,1.235886812,2.6308442650000003
395,1.64576749999992,-30.118988035,7.773332834,-148.74342345000002,-4.233653605,-1.6054402735,9.6601607795,-2.562640488,5.0513001105,-1.5989431139999999
396,1.6499339999999165,-30.14676094,7.823408842,-148.73726655000002,-2.478929728,-1.3794976175,15.399841785,-4.6507133245,4.4912258385,3.3562976124999997
397,1.6541004999999132,-30.144040105000002,7.8586413859999995,-148.77465055,-3.569381356,-1.569877505,8.3164277075,-0.3920324445000001,5.4899833205,-1.8386540409999999
398,1.65826699999991,-30.15514374,7.933306694,-148.7814026,-1.872332156,-0.49047946899999995,10.214180470999999,-2.428236827,7.808361294,3.5041559935
399,1.66243350000002,-30.171445845,7.97206068,-148.82460020000002,-2.989156723,-1.932339072,9.080193043000001,-2.5566210744999998,6.2122151865,-2.242155015
400,1.6666000000000165,-30.183820725,8.0278561115,-148.82231905,-0.7856355309999999,-0.9181152285,8.145427346,-2.6953927275,5.3473693155,3.213338137
401,1.6707665000000134,-30.19274902,8.0841970445,-148.87517545,-3.703182638,-1.2755449415,9.7287831305,-1.5230672955,8.6261010765,-2.174219787
402,1.67493300000001,-30.22505665,8.1430335045,-148.87272639999998,-2.5937715765,-2.8240691425,10.4839031715,-5.1005885605,5.6259754315,3.4651066065
403,1.6790995000000066,-30.226444245,8.201750517,-148.9195938,-2.8044242265,-0.47596579800000005,11.2390670755,-0.6987051369999999,8.508268358,-1.4070796964999999
404,1.6832660000000033,-30.24728298,8.27708292,-148.92591855,-2.8029984835,-1.866688848,11.237573625,-3.5698249040000003,7.844611287999999,3.58245188
405,1.6874325,-30.241541865000002,8.3524911405,-148.9561157,-2.718913734,-1.296938956,7.1205205915,-0.10250174249999999,9.249943223999999,1.2905736195
406,1.6915989999999965,-30.225735665,8.438727379,-148.96138005,-1.9655135345,-0.009086618999999999,8.6595127565,0.8215959669999999,8.9008843875,4.3571231365
407,1.6957654999999932,-30.20930195,8.543517828,-148.98910519999998,-2.531681418,-0.8545307815000001,9.137278797,1.1740614175,12.139511344999999,3.3078745605
408,1.69993199999999,-30.161875725,8.6345613,-148.98105625,-2.03980872,-1.232981801,9.705663919,4.3703588255,8.63797784,5.9770693779999995
409,1.7040984999999864,-30.08877945,8.77371192,-148.99897005000003,-2.1297497155,0.295123325,8.757020236,7.7902930370000005,15.1290173535,6.3646788595
410,1.708264999999983,-29.983897210000002,8.8740525245,-148.99565124999998,-2.7448291775,-1.231262058,8.9606780985,11.318320036,9.9089829935,6.0441408160000005
411,1.71243149999998,-29.829259874999998,9.034697532500001,-149.00807955,-2.782109976,-0.005490124499999999,9.364847422,17.4969081895,17.093761445,8.0917851925
412,1.7165979999999763,-29.637604709999998,9.150056839,-149.01867675,-2.6254661085,-0.8545677660000001,9.9642424595,21.9982528705,12.343411448000001,5.437093734499999
413,1.720764499999973,-29.367658615,9.3194441815,-149.01327515,-2.1961834430000002,0.892766416,9.78159213,31.01236248,17.061383245,10.249894143999999
414,1.7249309999999696,-29.078131675,9.436851503,-149.0365372,-2.5197105410000002,-0.8632472755,9.1251611735,33.97457981,13.32843304,4.17064333
415,1.7290974999999662,-28.72211075,9.6064052575,-149.01841739999998,-2.630731225,0.43466649949999997,10.424439429500001,41.12749195,16.455410954999998,11.4260091805
416,1.7332639999999628,-28.34155464,9.7352724055,-149.0440979,-2.462105155,-0.5444244895,8.907323838,44.96648216,14.75005007,4.382042289
417,1.7374304999999595,-27.88186169,9.917556761,-149.01015475000003,-2.392523438,-0.064149864,10.432707784,53.272039414999995,17.17440224,13.41557932
418,1.741596999999956,-27.41083622,10.0665192615,-149.03245545,-3.177372992,-0.306597665,8.702925682,55.750423435,16.775699615,5.608345032
419,1.7457634999999525,-26.86294746,10.2536659255,-148.980751,-2.058575958,-0.335444402,10.36258316,63.506278995,17.051219940000003,15.153752805
420,1.7499299999999494,-26.292281154999998,10.4266529105,-148.98651884999998,-3.3277608154999996,0.35510493800000004,8.763265371,67.34649658500001,18.603236675,8.257760286
421,1.754096499999946,-25.65345383,10.6414270415,-148.93230434999998,-2.6249061825,-0.501743093,9.411020756,74.33443832500001,20.23710823,16.514591695
422,1.7582629999999424,-24.98792744,10.84218931,-148.92116545,-3.119984746,-0.208391361,9.6268100735,78.357841495,20.97674036,10.983875276500001
423,1.7624294999999393,-24.28175354,11.068857195,-148.86240385000002,-2.0783935785,-0.189317895,9.9439849835,82.291221615,21.742053505,17.090653415
424,1.766595999999936,-23.520113945,11.2751565,-148.83148955000001,-3.1673603055,0.1448507605,10.095541953000001,89.41957855000001,20.920100215,12.808881285
425,1.7707624999999325,-22.735548975,11.506916050000001,-148.7682648,-2.264317036,-1.3133925499999999,9.3378341205,91.565135955,22.59952688,17.16174412
426,1.7749289999999291,-21.902183535,11.717145445,-148.71970364999999,-2.268648684,-0.09115844949999996,10.426656962,97.581192,20.934262275,14.34657335
427,1.779095499999926,-21.074632645,11.930704595,-148.6502762,-1.9024715424999998,-1.2088716925,9.2930498145,96.52376176499999,20.79352665,16.38356781
428,1.7832619999999224,-20.183894154999997,12.139694689999999,-148.5868988,-2.1287881735,-0.73380807,10.365432737999999,104.065979,20.62904644,15.224615575
429,1.787428499999919,-19.31938267,12.33359957,-148.51342010000002,-2.7672264575,-1.9728866815,8.741941929500001,100.81679154,18.9528274535,15.297109129999999
430,1.791594999999916,-18.408197405000003,12.533391475,-148.42926785,-1.299250558,-0.68218714,11.7311224935,105.93828199999999,19.28069115,16.50640726
431,1.7957614999999123,-17.53176212,12.703348640000002,-148.35273740000002,-3.5432227849999998,-2.1291183235,11.184906004,102.1189957,16.5976965405,14.107740405000001
432,1.799927999999909,-16.59787369,12.887464045,-148.2479401,-1.2772191765,-0.9458827375000001,9.497772218,108.04876705000001,17.3030653,17.61481667
433,1.8040945000000197,-15.707852364999999,13.05524063,-148.17668155,-3.5949949025,-1.671773136,9.631587983,103.84908680000001,17.000041485,12.818604945
434,1.808261000000016,-14.77029753,13.211975575,-148.04980465,-0.6584301295,-1.6266156435,10.865469458,107.8210182,14.01405621,18.80274105
435,1.8124275000000125,-13.859650134999999,13.370361805,-147.98246765,-3.4933668375,-1.0554535685,10.84567118,106.36499025,16.405200485,11.5291748
436,1.8165940000000087,-12.908938405,13.49444199,-147.83228300000002,-0.9788018465,-1.6539149284999999,10.1995563495,108.71024704999999,10.236852647,20.122170445000002
437,1.820760500000006,-11.95693779,13.630090715,-147.75223540000002,-2.5406588315,-1.5021014215,8.9354598525,110.90943145,13.79208708,11.745218755
438,1.8249270000000024,-11.004560945000001,13.759801865,-147.5999832,-1.51407519,-1.056355208,10.366139889,108.7884407,11.535418750999998,20.225488665
439,1.829093499999999,-10.050695896,13.850544455,-147.49375915000002,-2.8955254554999996,-1.519166529,9.621445656999999,110.35512545,8.3765952605,13.172489165
440,1.8332599999999957,-9.052800655999999,14.00363493,-147.3346405,-2.65729475,-1.1009863915,12.660557744999998,113.99368665,14.902383805,21.05179119
441,1.8374264999999923,-8.0585632325,14.087974070000001,-147.20059205,-2.747007608,-0.725193426,11.590551378,114.29376985,7.546058776,15.94674015
442,1.841592999999989,-7.0284945965,14.253026965,-147.0436096,-3.536248207,-1.6666071415000001,8.9432132245,117.8434677,17.122157095,20.360292434999998
443,1.8457594999999856,-5.9811646935,14.36922693,-146.88330839999998,-1.095920801,-0.119703155,9.980872152,119.8138199,11.584372046,19.2209568
444,1.8499259999999824,-4.9254068134999995,14.5018363,-146.72396085,-2.4739129545,-1.8921215535,9.7411355975,120.71115495000001,13.898111345,19.576402665
445,1.8540924999999788,-3.830060482,14.631494045,-146.55893709999998,-1.4077548684999999,-0.6819163265,7.273989439,125.31401439999999,13.821904661,19.673639295
446,1.8582589999999755,-2.7317256335,14.74787283,-146.40130614999998,-2.6408988235,-1.9122024775,11.161758424,125.7897682,12.735699655000001,18.67268944
447,1.862425499999972,-1.627442753,14.887967105,-146.23614500000002,-1.929676175,-1.0746762155,14.524848935000001,126.23106765,15.826037410000001,19.393193245
448,1.8665919999999687,-0.5203181505000001,14.98188925,-146.06897735,-2.6547538040000003,-2.0709516404999997,6.163923979,126.48145295,10.750897885,19.233892439999998
449,1.8707584999999651,0.6077569125000001,15.075423715,-145.91094975,-1.1049745085,-1.108276695,9.4744904055,129.2622299,11.042055369,18.09427166
450,1.874924999999962,1.7487519535,15.141274929999998,-145.7448807,-3.8782447575,-1.4515608549999999,15.531323910000001,130.52366255,8.1637252545,18.915343285
451,1.8790914999999584,2.886505723,15.237728595,-145.5646896,-0.667448431,-0.9092972429999999,10.947205544500001,129.6835594,12.227232935,19.972707745
452,1.8832579999999557,4.0197885035,15.278181074999999,-145.41706084999998,-3.2401059865,-1.7807270885,7.808839797999999,130.1023636,5.702278495,16.531217095
453,1.887424499999952,5.1470273735,15.323410035,-145.21816255,-1.000648331,-2.7139835354999997,8.389807701,127.77395250000001,7.04737401,22.0787096
454,1.8915909999999485,6.264211893000001,15.341222285,-145.09150699999998,-2.1074899435,-1.6318808795,14.378723144999999,128.80389405,3.413941838,14.145682335
455,1.8957574999999447,7.401961803499999,15.39136839,-144.8945694,-1.9345570804999999,-1.8598799705,13.446015835,129.0428848,8.428157088999999,21.335281375
456,1.899923999999942,8.47259331,15.428379535,-144.7574234,-3.2314600945,-1.7348974940000002,7.493243694,122.8894539,6.4137113095,14.69553375
457,1.9040904999999384,9.5146398525,15.42156172,-144.59513855,-1.444366269,-1.9236971735000001,6.8149428365,118.65586475,1.912799597,18.25575447
458,1.908256999999935,10.562543868999999,15.449189185,-144.4605942,-3.932498336,-2.7019399405,14.245747089999998,120.2210312,5.7545570795000005,14.393477915
459,1.9124234999999317,11.61685228,15.44389772,-144.30474850000002,-1.120026529,-2.844496369,12.934701445,120.3088913,2.6063754560000003,17.358276365000002
460,1.9165899999999283,12.61546278,15.452671525,-144.1958847,-3.228981733,-2.216224015,12.139654635,115.15732195,3.449973166,11.586403845
461,1.920756499999925,13.56886625,15.411959175,-144.05189515,0.3264831455,-1.977487564,10.566530468,108.624115015,-1.1663565635000002,16.907470225
462,1.9249229999999216,14.471248625,15.45771217,-143.9523315,-4.619975686,-2.1247002485,13.47488737,103.80676271499999,7.9208581445,9.5642852775
463,1.9290894999999184,15.326089385,15.401289460000001,-143.8078003,1.8820820219999999,-4.2250430585,4.7808197735,96.77871323,-2.4337850960000003,17.45297241
464,1.9332559999999148,16.097772595000002,15.364518165,-143.75915525,-5.1690945625,-2.98894155,12.037359715000001,89.734745025,-2.9418248979999997,6.303852677
465,1.9374224999999115,16.85962534,15.350964545,-143.6068573,-1.335621357,-2.8629986045000004,15.507307529999999,85.41932678,3.2639448045000004,16.891996385
466,1.941589000000022,17.559494020000002,15.34608841,-143.5535507,-3.227741003,-2.379367113,11.548453335000001,80.99174881,1.026981771,5.65216589
467,1.9457555000000184,18.189779285,15.270298955,-143.4346008,0.5185879175,-4.8035907745,10.414450169,70.71738052500001,-4.6051394939999994,15.418856145
468,1.949922000000015,18.746759415,15.293451785,-143.39652255,-6.112737894,-1.8448806405,15.76098394,64.37233924499999,3.7557553055,2.7280911800000003
469,1.9540885000000117,19.274917605,15.253455635000002,-143.2633514,1.3971787095,-4.017506957,6.2641074660000005,58.05630112,0.3215829134999999,15.668941499999999
470,1.9582550000000083,19.712581635,15.188420774999999,-143.25850674999998,-3.557553649,-2.1814706325,7.879884243,51.078260424999996,-7.4600861075000005,2.518690705
471,1.962421500000005,20.132514954999998,15.155821324999998,-143.1356964,-1.7887542845,-3.223080397,11.478857041,45.44611168,1.0010323225,14.228183745
472,1.9665880000000016,20.49649334,15.159898285,-143.1062622,-3.908494115,-1.5485369565,9.5305430865,41.522636415,1.374555826,2.398645878
473,1.9707544999999984,20.794458390000003,15.091532704999999,-143.01786040000002,0.9606702325,-4.4339909555000006,8.3375089185,31.916731835,-4.2378535269999995,12.0100784285
474,1.9749209999999948,21.052144050000003,15.08073044,-142.99055479999998,-5.0343779325,-1.0524848999999998,15.924740315000001,28.825715065,-0.36489665550000017,2.735087633
475,1.9790874999999915,21.30068874,15.113476755,-142.86643214999998,-0.22581832099999996,-3.4069429639999997,9.618654728,24.90623045,8.675151348,11.525618312999999
476,1.983253999999988,21.454348565,15.051748755,-142.84994505,-2.8950481415000002,-1.2962582115,6.028148889500001,16.721573351,-6.4725553410000005,3.7939653995
477,1.9874204999999847,21.572010040000002,15.060802935,-142.7654953,-0.32254809149999997,-3.5927722455,8.894665719999999,10.4050939075,4.3991049825,8.2265385375
478,1.9915869999999811,21.70720196,15.060857769999998,-142.71642305,-6.771073818,0.3874412255,16.138411044999998,13.4294445505,1.842220664,4.595036028
479,1.995753499999978,21.81469822,15.10806894,-142.62657165000002,0.608465284,-3.7220153810000003,11.494835375000001,9.0400714885,8.9144079665,7.0983973735
480,1.9999199999999746,21.890613555,15.0995636,-142.5873642,-5.02087307,-0.3989647035,10.5240917225,6.685649395,0.48134922950000014,3.9146176575
481,2.0040864999999717,21.951325415,15.128094195,-142.5228424,3.073018551,-2.882742405,7.515215397,4.1316286925000005,5.7524660215,5.141584814000001
482,2.008252999999968,22.018645284999998,15.178850655,-142.45066070000001,-6.9274165629999995,0.01413621000000001,10.965087891,4.4981548785,8.689720986,5.210300865
483,2.0124194999999645,22.072866435,15.199400425,-142.40247345,2.850871742,-2.566447258,8.4714491365,3.922884822,4.164503813,3.7674131395
484,2.016585999999961,22.098179815,15.228505610000001,-142.33462525,-6.514275551,-1.054208547,10.3992600455,-0.3775347469999999,6.07898855,5.6610156315
485,2.020752499999958,22.152101515,15.245607374999999,-142.30072024999998,1.9836837649999999,-0.7734025715,9.506243469,4.2200865745,3.1640694155,2.3211815355
486,2.0249189999999544,22.218440055000002,15.272288799999998,-142.2304306,-6.852909088500001,-0.8487980515000001,12.83412218,4.5373059515,5.820784807,5.765880227
487,2.029085499999951,22.286350249999998,15.3144207,-142.17489625000002,2.9371887445000002,-1.629329562,9.7469916345,5.2507647275,6.9037542335,3.5213236585
488,2.0332519999999477,22.360060695,15.29428339,-142.13838195,-5.6505961419999995,-0.5355744060000001,11.095956326500001,6.496909857,-0.8552148344999999,4.2506896185
489,2.0374184999999443,22.430817605,15.31566095,-142.09090425,2.4743944410000003,-1.7535726425,9.0456800455,5.8221155405000005,4.2583736205000005,3.589348197
490,2.041584999999941,22.52034855,15.30330038,-142.07025149999998,-6.7539858815,0.17303574050000003,13.229485035,8.857749462000001,-0.6737184525,2.2063269615000003
491,2.0457514999999376,22.608348845000002,15.304922099999999,-142.02207185,3.3212162254999997,-0.8995636405,9.146792412,7.8474471564999995,2.1146278379999996,4.5571440459999994
492,2.049917999999934,22.704251284999998,15.311527250000001,-142.0192337,-7.44491148,-1.5963736179999999,12.6397357,10.226099969,0.633740902,-0.5748411420000001
493,2.054084499999931,22.806194304999998,15.279672145,-141.98109434999998,2.5532939435,-1.2168159185,8.029654743,9.9093554045,-2.016545117,5.067802906
494,2.0582509999999274,22.88989067,15.298337935,-141.99035644999998,-5.669993162000001,-1.377753176,10.3156490305,9.169717788,1.4309204814999998,-2.399811074
495,2.062417499999924,23.020214085,15.26079464,-141.94959260000002,1.4953274875,-1.1958652435000001,8.952062369,13.17477417,-2.5106502175000003,5.596045494
496,2.0665839999999207,23.127040864999998,15.284259795,-141.97552489999998,-4.9943315985000005,0.1729683095,11.893334865,12.44599724,1.194558531,-4.4255647064999994
497,2.0707504999999173,23.252243040000003,15.265573499999999,-141.92858124999998,-1.0949990975000001,-1.947804332,12.875133515,12.3950119,-0.1254656315,5.3740081790000005
498,2.074916999999914,23.356547355,15.280368804999998,-141.9536438,-3.8162647485,-0.6542543620000001,12.55298805,12.127817155,0.27694773699999997,-3.88680692
499,2.0790834999999106,23.473306655000002,15.275728704999999,-141.9184418,-1.2518360615,-1.944172144,10.315666677500001,11.76784706,0.9068654775,3.467156172
500,2.083250000000021,23.56771851,15.270703314999999,-141.94904325,-1.7582894715,-0.7100727554999999,7.5221915245,11.084639073,-2.1247459650000002,-3.4171569199999996
501,2.0874165000000175,23.66243267,15.273674965,-141.9277191,-0.8461808565,-2.934519529,10.232311247,9.532735345499999,1.1129450799999998,1.6122688355
502,2.091583000000014,23.749827385,15.252586364999999,-141.95708465,-1.0802119970000001,0.6564035865,11.242802620500001,10.156839848499999,-3.8365518450000002,-2.5155807735
503,2.095749500000011,23.819330215,15.287744045,-141.94039155000002,-4.864079535,-3.5486924645,13.03613043,6.7305634025,4.438461065,-0.407657146
504,2.0999160000000074,23.87466335,15.248836514999999,-141.96266175,-0.19855546950000003,0.188201934,10.118161678,6.1402957439999994,-5.4670003650000005,-0.8768711685000001
505,2.104082500000004,23.907357215,15.288234235,-141.9626465,-4.4724894765,-3.0184111595000003,9.934230325000001,2.85722971,4.116899729,-2.3876895905
506,2.1082490000000007,23.96360016,15.235798834999999,-141.96808620000002,1.2674632074999996,0.47029310449999995,6.714619280499999,5.6333773735,-6.1696630715000005,1.5074681045000002
507,2.1124154999999973,23.998078345,15.262488845,-141.9960785,-4.568202734,-2.438721001,10.674860954,3.9251000879999998,1.4020016195,-4.7513259649999995
508,2.116581999999994,24.03372383,15.201390745000001,-141.97842409999998,0.832187891,0.11776745350000001,11.9274268125,2.5046627225,-6.0919237135,4.247519255
509,2.1207484999999906,24.036482810000003,15.23470163,-142.02208710000002,-5.575015545,-2.352990508,16.15822172,0.6237706985,1.3909171225,-6.7129409315
510,2.1249149999999877,24.05086231,15.171291355000001,-141.98618315,1.4291442630000002,-0.3925405295,9.5107550595,-0.6097790000000001,-5.4672946929999995,6.330315113
511,2.129081499999984,24.03084183,15.198131085,-142.0632477,-4.69719398,-2.1164557635,10.8588624,-1.1223391930000002,-0.8968248365,-9.96297741
512,2.1332479999999805,24.027917865,15.121726509999998,-142.00378415,1.4065057040000002,-0.953919843,8.741753578,-3.396141231,-5.791469574,9.44564867
513,2.137414499999977,23.982764245,15.131279469999999,-142.1029663,-4.6440666915,-1.409779012,11.747162815,-3.484958291,-3.8185321095,-11.461320875
514,2.141580999999974,23.965707780000002,15.045714855,-142.0382614,-0.832303196,-2.1474606395,12.390794750000001,-5.1780598165,-6.5560290815,10.494974137500002
515,2.1457474999999704,23.904424669999997,15.05518961,-142.13873289999998,-4.843708276499999,-0.17249743650000002,12.136579511999999,-5.343770027,-3.8709896505000003,-11.55616951
516,2.149913999999967,23.863253595,14.974318505,-142.0758362,-0.6607614605,-2.3687577245,8.6632225505,-8.0250945095,-6.081511497499999,10.221400262
517,2.1540804999999636,23.798732755,14.974091529999999,-142.16791535,-2.031255562,0.41803425549999995,6.375658989,-6.0534384254999996,-4.518171966500001,-10.222283841
518,2.1582469999999603,23.7616148,14.917931079999999,-142.11741640000002,-1.8820689915,-2.1555349525,8.211210728000001,-7.168951988,-3.9900837840000003,7.621144533000001
519,2.162413499999957,23.684495925,14.90429735,-142.18926235,-0.6490322650000001,0.173666,9.536073207000001,-8.2271661755,-5.0203652385,-7.4402327535
520,2.1665799999999535,23.62195015,14.87538576,-142.16145325,-4.8298209905,-2.958417654,16.384644985,-9.4819934385,-2.0694704054999997,3.9172876775
521,2.17074649999995,23.553518295,14.878262995,-142.19004825000002,-0.4699270725,1.1734350325,11.939952855,-8.5273253915,-1.1733686925,-3.6342695655
522,2.174912999999947,23.480730055,14.871261595,-142.1960449,-5.033844471,-2.421499133,13.47674942,-9.6632518775,-1.2371995445000001,-0.7325990199999999
523,2.1790794999999434,23.42129898,14.853136065000001,-142.1952057,0.22348010549999997,0.07114583999999999,7.72228837,-8.3525078295,-2.129228234,0.47709727300000004
524,2.18324599999994,23.354027745,14.83989954,-142.2362442,-2.9572419825,-1.6168751719999999,11.172087669,-7.9542195795,-3.5433640459999998,-4.2190489175
525,2.1874124999999367,23.314821244999997,14.78286791,-142.22971345000002,-0.49704349049999996,-0.41809917250000006,8.7254767415,-6.125183821,-6.157163143,2.908707857
526,2.1915789999999333,23.24743366,14.763045309999999,-142.29291535,-2.4919128864999998,-2.2006801965,11.602009295,-7.2947938445,-5.262163698,-6.230189562
527,2.19574549999993,23.198480605,14.69193697,-142.2843628,-1.3947045505,-0.031669139999999985,10.9644863625,-7.3150556085,-7.6263461115,3.8053672315
528,2.1999119999999266,23.108667375,14.685076235,-142.33887485000002,-2.7050297855,-0.9548258485000001,10.246500966500001,-10.1931219115,-3.4826910495,-6.048251629
529,2.2040784999999232,23.046801565000003,14.608085155,-142.3390274,-1.709168583,-0.663925737,10.938375950000001,-8.6126208305,-8.677706958,3.1305149644999997
530,2.20824499999992,22.958578109999998,14.621431829999999,-142.3822632,-3.66524744,-1.5236161949999998,9.4168534285,-10.335653780000001,-0.7393934424999999,-5.8301987650000004
531,2.2124114999999165,22.894277575,14.53322554,-142.3964462,-0.5937134620000001,-0.7764494380000001,10.092607023500001,-8.47809577,-10.5755171795,2.1011744145
532,2.216577999999913,22.819612505000002,14.542423724999999,-142.44254304999998,-3.339984417,-1.2472792415,10.7722463595,-8.671891928,-1.3033547995,-5.957410336
533,2.22074449999991,22.747680664999997,14.462660790000001,-142.45443725,-0.23032462600000003,-0.27999752750000007,9.1222152705,-9.4582891475,-9.5478358285,1.9238343835
534,2.22491100000002,22.655272484999998,14.478651525,-142.51662445,-4.5144071575,-1.4102120395,12.5691409105,-10.310281275000001,-1.2555268405,-7.977618456
535,2.2290775000000167,22.570156095,14.438756465,-142.4936981,-1.797526032,-0.429136623,12.20264101,-12.01977539,-3.5960081815000002,3.8156888485
536,2.2332440000000133,22.480288504999997,14.43832731,-142.57106015,-3.5101138350000003,-0.7390701625,11.375243665,-9.6545324305,-3.6173329350000003,-8.61629796
537,2.23741050000001,22.423697475,14.42186308,-142.531044,-2.9476488825000002,-0.582241079,12.2149868,-9.0903127195,-0.24969392999999995,4.5849095585
538,2.2415770000000066,22.340052604999997,14.40684128,-142.6215515,-1.469694734,-0.322667688,8.972651007,-8.501723528,-5.8158276085,-9.40748167
539,2.2457435000000032,22.278286934999997,14.4111619,-142.58081055000002,-2.050542086,-1.5673053860000001,9.608739855,-9.744873047,2.0816946775,3.714410305
540,2.24991,22.20832539,14.385262015,-142.6533661,-0.17840880149999994,0.9836163075,7.4316008095,-7.4555618765,-6.174926758,-6.9362585545
541,2.2540764999999965,22.138723374999998,14.41212988,-142.63212585,-3.2490680215000003,-2.7726728915,10.319011209500001,-10.113423346000001,3.7254115345,0.5964787300000001
542,2.258242999999993,22.054959295,14.37795782,-142.6860657,-1.692883685,-0.00226436,10.652823446,-9.6496267315,-6.2725560665,-4.578071356000001
543,2.26240949999999,21.984046935000002,14.402307035,-142.69517515,-2.524671793,-1.829183817,12.812307355,-9.328257321999999,2.1160370705,-2.524590671
544,2.2665759999999864,21.929400445,14.3882494,-142.72163395,-3.4011574985,0.077168554,13.23882246,-7.0144712925,-2.801403642,-2.491356172
545,2.270742499999983,21.858078,14.412862775,-142.7357788,-2.0913257,-0.6760289669999999,9.181577682,-9.1756334305,1.9154135884999999,-3.0698725280000003
546,2.2749089999999796,21.78883457,14.43404102,-142.7438965,-2.965615511,-0.0034612564999999956,11.82104015,-9.1928863515,1.7508098479999998,-2.5133713035
547,2.2790754999999763,21.726290705,14.438998699999999,-142.76277925,-1.396535337,-1.7412380875,6.036579013,-8.0511829855,-0.46676182749999995,-2.750623554
548,2.283241999999973,21.674074169999997,14.449398515,-142.77483365,-2.0773139595,0.1906587185,10.177515983500001,-7.0836942195,0.43138222400000004,-2.3557478785
549,2.2874084999999695,21.630743025,14.445630075,-142.8089752,-2.409080863,-1.1657482460000002,10.791450979,-5.2680542465,-2.0963910219999997,-4.0112150015
550,2.291574999999966,21.57133293,14.475145340000001,-142.8016739,-0.805159897,0.06236940599999996,9.9584536535,-8.493745804,3.3923436645000002,-1.0894056555
551,2.295741499999963,21.514484405,14.479040145,-142.8519516,-4.1082799434999995,-0.8331356944999999,11.52356291,-6.4292631149999995,-1.915759355,-6.103680849
552,2.2999079999999594,21.45668888,14.507405760000001,-142.8312607,-2.4723032715,-0.968955945,9.8582582465,-8.6716742505,3.8088877200000004,0.365150273
553,2.304074499999956,21.402322769999998,14.53279638,-142.8873062,-1.9375160340000002,-1.495740116,13.71020126,-5.9282742740000005,0.24770903600000005,-7.6595020285
554,2.3082409999999527,21.360884665,14.54353476,-142.8814621,-2.590515554,0.0332911615,11.197211265,-6.3167910575,1.2230991275,-0.4724357124999998
555,2.3124074999999493,21.28297043,14.6068244,-142.9253235,-2.2684116960000003,-1.1309963015,8.468373298500001,-9.160458326,5.0252194405,-7.9996979235
556,2.316573999999946,21.194299694999998,14.605968475000001,-142.95285035,-1.886478379,-1.6022606494999998,9.2319521905,-11.070282219,-1.347629115,-3.2531362625
557,2.3207404999999426,21.045036315,14.651784894999999,-143.014534,-2.3421361145,-2.6283509135,11.14802122,-17.268085955,2.370283842,-9.201442481499999
558,2.324906999999939,20.87949085,14.658219335,-143.0726929,-2.189476967,-2.08333683,13.44720602,-19.3547682765,-1.760805517,-6.8089590090000005
559,2.329073499999936,20.649754520000002,14.732768059999998,-143.16003415,-4.163135648,-2.6313165425,12.96501899,-26.114359854999996,4.618444085,-13.1302175525
560,2.3332399999999325,20.32811737,14.755626674999998,-143.23409275,0.3331339360000001,-2.8554432395,3.7881752255,-37.580963135000005,-0.505234167,-9.243951322500001
561,2.337406499999929,19.91861248,14.77890253,-143.3923721,-3.540036857,-2.925146699,12.853981495,-45.61213207,-3.8037921195,-18.848061085
562,2.341572999999926,19.461307525000002,14.870303155,-143.45476530000002,-3.181756139,-3.468075752,11.790022374,-54.180028915,7.854143945500001,-10.575720549
563,2.3457394999999224,18.86352921,14.899718765,-143.66091155,-2.1789372565,-2.566902518,12.501063344999999,-66.679553985,-4.6142532825,-24.479744914999998
564,2.349905999999919,18.19569111,14.990889549999999,-143.75358585,-2.42938602,-4.7771373985,12.284574509999999,-78.395763395,6.920519825,-13.282999515
565,2.3540724999999156,17.3942461,15.064808365000001,-143.98001865,-1.6559679505,-2.694766462,7.961573484,-90.446174635,0.3469295499999996,-28.632570270000002
566,2.3582389999999123,16.55403328,15.152699945,-144.0771942,-3.6234574909999995,-2.8581278325,14.6222275265,-98.87443923000001,6.6806364049999996,-13.52063942
567,2.362405499999909,15.570970534999999,15.281836035,-144.2952881,-1.1333129409999998,-3.4000464679999998,3.2095527635,-112.32772444,7.859488249,-29.08466816
568,2.366572000000019,14.491366860000001,15.282532215,-144.446167,-0.2919862269999999,-3.8299680945,6.459678294,-125.88051605,-4.7567147015,-17.637735845
569,2.370738500000016,13.35951948,15.45277071,-144.6521988,-5.733671427,-0.5554608554999999,19.972984315,-130.4649506,14.164321062500001,-27.89993477
570,2.3749050000000125,12.132291793,15.547464375,-144.7831268,-0.5251249075,-4.629687070999999,5.6275069135,-144.2097282,7.33020258,-18.633411405
571,2.379071500000009,10.7962026615,15.53743267,-145.0244293,-2.040768236,-1.6159929035,14.123496055,-153.76653290000002,-6.624534605000001,-26.796691895000002
572,2.383238000000006,9.391455891,15.727837565000002,-145.1785202,-4.6647926564999995,-3.1454221010000003,13.456398487500001,-164.7917862,19.0698454365,-22.429636
573,2.3874045000000024,7.917937996,15.71961451,-145.38503265000003,1.1562459095,-1.046856135,4.871643543999999,-171.3599548,-4.454622358,-23.775894165
574,2.391570999999999,6.313492775,15.74368715,-145.60832215,-3.6145902875,-4.4113360645,10.303323627000001,-186.4870682,-0.5311520695,-25.949757575
575,2.3957374999999956,4.701481998,15.772717475,-145.8012161,-2.115839958,0.3893457275,17.2280859925,-188.4343338,1.4316291794999998,-23.596147535
576,2.3999039999999923,3.0306212004999997,15.794401165,-146.06771085,-2.9655058385,-3.4788782599999997,6.08480078,-193.0736313,0.42819929000000023,-30.22673988
577,2.404070499999989,1.2953923939999998,15.742853165,-146.25309755,1.1714502575,-0.5135240555,9.2289028155,-203.35509489999998,-6.884138105000001,-23.212670324999998
578,2.4082369999999855,-0.4907450675,15.69484997,-146.56676485,-5.5250795485,-1.6995339395,16.652607681,-205.40641025,-6.167131425,-35.257909775
579,2.412403499999982,-2.235214412,15.730724334999998,-146.7227249,-1.052160694,0.8519083265000003,12.64576864,-205.36434175,4.752755165,-19.777791025
580,2.416569999999979,-4.064347714,15.537010195,-147.05320740000002,-0.3175411675,-0.14944106350000003,3.9105180500000003,-210.04071045,-21.361930848,-38.762844085
581,2.4207364999999754,-5.868421077500001,15.504285815,-147.21716305,-2.2104184925,-0.5529519319999999,10.156294224,-212.2170868,-2.3706979749999997,-21.026660919999998
582,2.424902999999972,-7.6233825675,15.32989645,-147.50577545,-3.8062781095,1.8043453695,10.9895042175,-202.55947880000002,-17.240140914999998,-35.737070085
583,2.4290694999999687,-9.3449807165,15.216944695,-147.66117094999998,-0.3910560605,0.16806566750000007,16.956532475,-202.64730075,-10.8524105565,-21.035322190000002
584,2.4332359999999653,-11.044508456,15.039676665000002,-147.9309616,-3.3035660985,0.8106249345000001,10.0145099175,-196.6925049,-15.73818445,-34.624628065
585,2.437402499999962,-12.6367073035,14.809735775,-148.05649565,-0.2502523585,2.5163828135,7.7909953595,-188.1223755,-24.135163305,-21.139543535
586,2.4415689999999586,-14.25717449,14.60759163,-148.2799988,-0.762561977,2.2790495155,10.535903455,-188.83962250000002,-17.8067831975,-31.467871664999997
587,2.445735499999955,-15.761901380000001,14.372613430000001,-148.3882217,-3.2880652544999998,-0.33783364250000003,13.140405175,-178.28375245,-24.11231518,-20.396133419999998
588,2.449901999999952,-17.20429802,14.10179806,-148.54741669999999,-3.14633894,3.6320354935,10.0154092325,-169.43863675,-26.227311135,-27.46582985
589,2.4540684999999485,-18.59036398,13.841316225,-148.64032745,-1.6562431160000002,1.5226820110000001,15.372301575,-164.52708435,-26.731764794999997,-20.848320004999998
590,2.458234999999945,-19.865236285,13.568455695,-148.73642734999999,-2.5374018475,3.123232722,9.380483388,-151.3445282,-27.510622025,-21.73245907
591,2.462401499999942,-21.060983659999998,13.288225650000001,-148.79219055,-1.165421337,2.520415902,4.170242071,-142.89214325,-29.56235695,-18.52135992
592,2.4665679999999384,-22.146889684999998,12.989077564999999,-148.83358005,-2.545539498,3.4278099534999997,8.843511344,-130.29580305000002,-31.829770090000004,-18.137461665
593,2.470734499999935,-23.114688870000002,12.720319270000001,-148.8514252,-2.5730096099999997,2.079788357,16.468380925,-116.59862519,-29.30981922,-15.07744169
594,2.4749009999999316,-23.99855995,12.418925285,-148.8586273,-2.210698485,3.6401723625,12.1630830785,-107.00360106,-33.007484435,-15.74116373
595,2.4790674999999283,-24.807143215,12.125338554999999,-148.83489229999998,-2.054567337,2.241758585,7.1251976489999995,-98.662860845,-33.56048012,-12.550544740500001
596,2.483233999999925,-25.51178455,11.83503866,-148.8175583,-1.7345448735,3.36536026,9.9165277475,-86.173925415,-32.582695959999995,-13.36659908
597,2.4874004999999215,-26.10752678,11.5370221125,-148.78417205,-2.5015615225,1.3535954955,9.9717731475,-73.4150753,-34.290101055,-12.328534600000001
598,2.491566999999918,-26.582413674999998,11.255003928499999,-148.7306137,-3.437425375,3.3746145965,16.736549855,-59.458223345,-33.302555085,-9.7944383645
599,2.495733499999915,-27.013450625,10.9610919935,-148.7081604,-1.9266533849999998,2.001805812,9.140366075500001,-53.335920335,-33.0157938,-13.903372765
600,2.4998999999999114,-27.34780121,10.688603876999998,-148.6256714,-3.331154108,2.9731827975,10.0400099735,-43.248296735,-33.707639695,-6.6580030919999995
601,2.504066500000022,-27.63649273,10.4129056925,-148.59638975000001,-1.9740181565000001,1.390510231,7.7717776285,-36.398864745,-31.29427719,-12.506299017499998
602,2.5082330000000184,-27.83245754,10.1770052895,-148.5292511,-2.43043673,1.5916128755,13.665518285000001,-26.200417045,-28.916954994999998,-6.6053688525
603,2.512399500000015,-28.004623415,9.921654701,-148.48189539999998,-2.722340882,0.9864375590000001,12.198001864999998,-22.782232765,-30.02081108,-9.7188236705
604,2.5165660000000116,-28.11503887,9.716443063,-148.4318466,-3.2926777605,2.2299782930000003,10.215133189,-15.499302866,-24.70153332,-6.81422472
605,2.5207325000000083,-28.2035017,9.4974827755,-148.39158635,-2.662271261,0.5000812415,8.9269902685,-12.653615950999999,-25.72613239,-8.459865569
606,2.524899000000005,-28.232005115,9.3086326125,-148.33518985,-2.7399249670000003,1.4992971720000001,14.261542795,-5.7404162865,-23.44550228,-5.0894358155
607,2.5290655000000015,-28.26563549,9.1364698405,-148.327034,-3.360395074,0.27633726599999997,10.922729015,-5.416427791,-18.943234920000002,-9.2424139965
608,2.533231999999998,-28.228224755,8.970213892,-148.28439329999998,-2.812292099,1.138163805,8.738155364,2.366570234,-20.249817370000002,-5.2620114085
609,2.537398499999995,-28.197826390000003,8.8226828575,-148.27720645,-3.372652531,0.5230905935,12.878484245,2.3295953275000003,-16.313007355,-7.9169914745
610,2.5415649999999914,-28.151844975,8.6934497355,-148.272316,-2.2103098035,0.004596028500000002,10.3393754955,4.1275936365,-14.210127355000001,-7.1320288195
611,2.545731499999988,-28.06557369,8.581264973,-148.2983246,-3.3630022999999998,0.5506711045,9.4285037515,9.540012598,-10.6944205775,-9.3866353035
612,2.5498979999999847,-28.001768115,8.468790054,-148.29084015,-3.1760344505,0.009628072500000001,11.500432015,6.3009235855,-12.5239028935,-6.041438340999999
613,2.5540644999999813,-27.9300251,8.4001665115,-148.36206055,-2.037161827,-0.603007287,9.593199489,8.6277337075,-3.580473721,-11.673894404999999
614,2.558230999999978,-27.835007665,8.32562232,-148.3695374,-3.5405217405,0.48470789200000003,10.5678138735,10.277373316,-7.6806404575,-5.443710804
615,2.5623974999999746,-27.7812233,8.263478756,-148.43531035,-2.7607519624999997,-1.276500374,10.2761473675,6.4274063115,-3.2294431925,-10.753382682
616,2.566563999999971,-27.70123577,8.2398991585,-148.4888153,-1.9643905165,-0.26642761400000003,10.2957801805,9.2983145695,0.20096314000000004,-7.318871975
617,2.570730499999968,-27.639784810000002,8.187839985,-148.53659055,-3.0973924395,0.03494986899999997,10.0056467045,6.985527514999999,-3.159721136,-8.3001782895
618,2.5748969999999645,-27.60432625,8.179147004999999,-148.5961838,-2.203658104,-1.6411560175,9.980732441499999,4.088134885,2.099701464,-7.141838073500001
619,2.579063499999961,-27.53992271,8.15907526,-148.6500626,-2.7973470095,0.47358279700000006,10.280697821499999,7.468055248500001,0.5543113049999999,-7.159915208499999
620,2.583229999999958,-27.5290308,8.150001526,-148.69995115,-2.177908659,-0.9525452855000001,11.948872565,0.9493341295,1.538461238,-6.1737418175
621,2.5873964999999544,-27.50757408,8.1532635685,-148.76161195,-3.7983448505,-1.2620642185,10.937105179,2.4381617305,3.454412937,-6.678002834499999
622,2.591562999999951,-27.479442595000002,8.158044815,-148.80658720000002,-1.96637246,0.4416446985,11.013762711,2.9582904275,2.7208850385,-4.874029994
623,2.5957294999999476,-27.511126519999998,8.170910119999998,-148.8641586,-2.6457273365000002,-1.3383880855,11.852033615,-4.027198315,4.2704696655,-5.743032217
624,2.5998959999999443,-27.508810995,8.190407752999999,-148.911911,-2.862942934,-0.4000626625,9.960575581499999,-0.1125676630000001,4.464509845,-4.374232292
625,2.604062499999941,-27.54266262,8.1980593205,-148.9573059,-1.6009952424999998,-0.32907245900000004,8.44412303,-4.4531881805,3.0333915950000003,-4.7512614730000005
626,2.6082289999999375,-27.608423235,8.2281126975,-149.0130844,-1.985687554,-2.2171217205000002,9.845242261,-8.1649870875,6.0404779909999995,-4.6211929325
627,2.612395499999934,-27.6471138,8.220428467,-149.0372467,-2.5683541295,-0.248170331,9.3366684925,-5.417309046,0.2495530975,-3.3638538120000003
628,2.6165619999999308,-27.72893715,8.270583868000001,-149.0913849,-2.489620805,-0.38016112150000003,12.180098055,-10.0779223465,8.0746967795,-3.3178635835
629,2.6207284999999274,-27.80343628,8.263227224000001,-149.1197891,-2.9145190715,-1.4528184535,11.5332613,-9.635551453,0.5255338249999999,-3.795966029
630,2.624894999999924,-27.888506890000002,8.2988603115,-149.14991765,-1.7130699365000002,0.30778262,8.840145586,-10.879813669499999,5.2331421375,-1.6302307845
631,2.6290614999999207,-27.997997285,8.323601961,-149.19091795,-2.681822598,-0.8925284745,9.53901577,-13.611818790000001,4.641492844,-3.3177486065000004
632,2.6332279999999173,-28.079027175,8.311112165499999,-149.1888657,-1.107806653,-0.6781642434999999,8.6752905845,-10.921669481999999,-1.6612448695,-0.98176834
633,2.637394499999914,-28.196541785,8.337943553999999,-149.22360225,-2.0809416175,-0.4036214385,8.560798168,-14.69244337,4.52560091,-2.5247700215
634,2.6415609999999106,-28.287916185,8.315742731,-149.2163696,-2.9914485214999997,-0.9275085925000001,12.898794174999999,-12.262061595,-2.9871068935,-0.9709717929999999
635,2.645727500000021,-28.375180245,8.312596798,-149.23044585000002,-2.0927172305,-0.8159945015,12.0389950255,-11.433427810000001,0.19534066299999997,-2.033194244
636,2.6498940000000175,-28.48195934,8.332641363499999,-149.24340819999998,-3.3627411130000002,-0.274205089,12.162882329999999,-13.755857465,2.6173208355,-0.685539514
637,2.654060500000014,-28.55858517,8.290198326,-149.2337036,-1.9942777155,-0.07266239800000002,9.861474513000001,-10.587875839999999,-5.276340961500001,-1.814448655
638,2.6582270000000108,-28.641932484999998,8.328809023,-149.24634555,-1.992661953,-0.145751346,9.1060769575,-10.969650267999999,4.5478019715,0.456087023
639,2.6623935000000074,-28.729943275,8.278805256,-149.23734285,-2.550830841,-0.517248176,10.49323225,-11.907144070000001,-6.0264743565,-2.3755607605
640,2.666560000000004,-28.803703305,8.289130211,-149.2284012,-0.7119481265,-0.7404164895,8.070145845,-10.228059291000001,0.3517539505,1.090308428
641,2.6707265000000007,-28.86922073,8.2692651745,-149.2338562,-3.656882048,-0.635540813,11.924185275,-8.9711947465,-2.04117319,-2.1134435535
642,2.6748929999999973,-28.92677307,8.2403070925,-149.2076111,-1.1909036339999999,-0.8449222144999999,9.013858795,-8.5749285195,-4.780474782,0.615561336
643,2.679059499999994,-28.981233595,8.251091242000001,-149.2175293,-3.2787023785000002,-0.037722095500000025,11.977533815000001,-7.5592485665,1.4409742950000002,-0.8141997755
644,2.6832259999999906,-29.025312425000003,8.2010297775,-149.18476865000002,-2.157937288,-0.8469097015,10.44264317,-7.084309816499999,-7.382356882,0.08308617800000001
645,2.687392499999987,-29.06273842,8.223927736,-149.19467924999998,-2.398662567,0.025718845500000004,11.61559868,-5.5232489110000005,2.7005219609999997,-0.0830605655
646,2.691558999999984,-29.098073005,8.1901009085,-149.167778,-2.922584772,-0.4833114445,9.907925605500001,-5.8991954325,-5.3438277245000005,0.38740259400000004
647,2.6957254999999805,-29.125171665,8.193371295999999,-149.16560364999998,-1.5948657095,-0.694801271,9.0352420795,-4.513113022,-0.056280881000000005,0.045586943500000005
648,2.699891999999977,-29.136976240000003,8.1790633205,-149.14715575,-2.7065880595,-1.121137291,11.058380605,-2.945303977,-2.8061416145,0.649474554
649,2.7040584999999737,-29.154532435,8.170229435,-149.1334915,-1.999255121,-0.1092226955,8.31482172,-3.572571397,-1.9904438254999999,0.5373866555
650,2.7082249999999704,-29.157478335,8.15943408,-149.12260435000002,-2.1329562065,-1.1056660409999999,10.836230754999999,-1.725912541,-2.007720947,0.05786257249999999
651,2.712391499999967,-29.172040940000002,8.156419754,-149.10598755,-2.7286646365,-0.8607753515,10.626510620000001,-3.314981699,-1.555367231,1.2265378835
652,2.7165579999999636,-29.185681345,8.1453659535,-149.11437225,-2.2736799715,-1.29611063,11.1495203975,-2.677033305,-0.9215166570000002,-1.9613330960000002
653,2.7207244999999602,-29.1810236,8.1487653255,-149.09983065,-3.241432428,-0.42086795,9.9343514455,-0.9803783895,-0.7642388345,1.3928315045000002
654,2.724890999999957,-29.211850165,8.172369957,-149.1292648,-2.946950555,-1.4729517699999999,13.73621273,-4.3902922865,3.9255092145,-2.099867642
655,2.7290574999999535,-29.206855775,8.157496214,-149.1155243,-2.032329917,-0.719739795,8.562685728,-0.9255770445,-2.6316769119999996,0.23286539350000002
656,2.73322399999995,-29.22405243,8.2061858175,-149.16001125000003,-2.745054245,-0.8578645885,11.809934615,-2.5065070915,7.42715621,-2.18831414
657,2.7373904999999468,-29.240197185,8.192406416,-149.14250944999998,-1.9287718685000002,-1.088923931,8.6449460975,-3.4735976455,-2.761496395,0.6896185575
658,2.7415569999999434,-29.25610828,8.2186255455,-149.17860415,-1.4472471475,-1.110785663,10.06216717,-2.5018066169999997,4.580696881,-2.617006779
659,2.74572349999994,-29.27617359,8.2235193255,-149.16645814999998,-2.9708845615,-1.071113348,8.728135109,-3.8407263755,-0.4855755565,1.201461315
660,2.7498899999999367,-29.324701310000002,8.252511501499999,-149.201973,-2.7602234485,-1.4506646989999998,11.625508785,-6.447244167,4.8527584075,-2.3900513055
661,2.7540564999999333,-29.34606743,8.256757497999999,-149.1959991,-3.031837344,-1.0828779635,11.227666854999999,-3.8919291495,-0.2156974635,0.553325057
662,2.75822299999993,-29.37495518,8.309752226,-149.23467255,-2.27630347,-0.962312311,10.0685663225,-4.0772610905,7.5573775780000005,-1.282933876
663,2.7623894999999266,-29.40674305,8.3160870075,-149.23068239999998,-2.914343178,-1.301963866,9.093668223,-5.129263401,0.1280263665,0.4684074895
664,2.766555999999923,-29.430117605,8.361920833500001,-149.2750931,-1.486130625,-0.7051919845,7.1999070645,-3.2837194204999998,7.1187980175,-2.2709197999999997
665,2.77072249999992,-29.477372170000002,8.382652998000001,-149.27526855000002,-2.741047621,-1.214061081,10.60892582,-6.8562529085,1.8741872309999998,0.840300679
666,2.7748889999999165,-29.517614365,8.419323921,-149.31741335,-1.6837794185,-0.704358399,9.7156214725,-5.362186909,6.0335360765,-2.5563649535
667,2.779055499999913,-29.54327488,8.4504292015,-149.33866884999998,-3.6219935415,-1.991805792,12.58963108,-3.8911479709999997,4.1670136785,-0.6874667704999999
668,2.7832219999999097,-29.57908058,8.5006811615,-149.37674715,-2.048413217,-1.0648038385,10.952511788499999,-4.932008028,7.2392877925,-1.3344954255
669,2.78738850000002,-29.63222408,8.5295114515,-149.4020767,-3.0049583909999997,-0.941029966,11.094447615,-7.1077075005,4.138620317,-1.197177529
670,2.7915550000000167,-29.65257454,8.57537055,-149.43394469999998,-0.3862003085000001,-0.794095866,6.9815518855,-3.1733607055,6.400895715,-0.9253976344999999
671,2.7957215000000133,-29.70608902,8.5982842445,-149.46302795,-3.130034566,-1.784997463,8.721755028,-7.0706756115000005,3.763770105,-1.9740316275
672,2.79988800000001,-29.753428460000002,8.6273772715,-149.48137665000002,-0.9511237145,-0.8993912039999999,9.0782773495,-6.636904955,3.8538411405,-0.524009645
673,2.8040545000000066,-29.800928115,8.6536455155,-149.5142822,-3.7247340675,-1.358980268,12.16865587,-6.2779867645,4.2858840525,-2.0732744635
674,2.808221000000003,-29.83906269,8.6778829095,-149.51905820000002,-0.76230292,-1.19090119,9.8741421705,-5.818491697500001,2.5661046505000003,0.5899021625
675,2.8123875,-29.883125305,8.6737883095,-149.5399017,-3.354938269,-1.5771011709999998,7.648487568,-6.068012952499999,0.42717552199999975,-2.665993929
676,2.8165539999999964,-29.91328526,8.717108965000001,-149.55154420000002,-0.7703145,-0.8458797619999999,8.960746767,-4.7025492195,4.906247258,1.0763164315
677,2.820720499999993,-29.952295305,8.6810019015,-149.55506895,-2.6354831455000003,-1.201118469,9.6848149305,-5.7771511075,-3.9480183105,-2.763571501
678,2.8248869999999897,-29.96027565,8.7186710835,-149.5624542,-0.5081620365,-0.6444117575,9.6153972165,-2.105195701,4.0838828085,1.140806809
679,2.8290534999999863,-29.997198105,8.6605029105,-149.55501555,-4.140405059,-2.0927006004999997,10.6858999725,-5.7407140734999995,-6.8844090725000004,-2.956241369
680,2.833219999999983,-30.005342485,8.680345297,-149.54698180000003,-0.37264510949999996,-0.7495331909999999,11.913993597,-2.429721594,1.2884088755,1.717248738
681,2.8373864999999796,-30.06161213,8.636325836000001,-149.55957795,-4.2223933935,-1.879674077,10.1171774885,-7.7361667155,-4.2010870575,-4.178335905
682,2.8415529999999762,-30.063479425,8.6269683835,-149.5236511,-0.29241287699999985,-1.03952685,9.238799093499999,-2.110529691,-3.411963463,2.790421486
683,2.845719499999973,-30.074046135000003,8.595671177,-149.54466245,-3.3400795459999997,-0.55228249,9.398459909,-2.201050639,-2.3946495315000003,-4.1840535405
684,2.8498859999999695,-30.084654805,8.5558154585,-149.50190735,0.494779695,-1.714178741,9.391772986,-3.1942746045000003,-6.969563603499999,1.573367298
685,2.854052499999966,-30.10103512,8.5273115635,-149.5293503,-4.462798834,-1.5018718245,9.7921519255,-2.8786694704999998,-1.7255616199999997,-4.611318588
686,2.8582189999999628,-30.107768055,8.496785164,-149.48413084999999,0.24960252600000005,-1.7327044605,9.287014244,-2.704094827,-6.182350872500001,2.4033713635
687,2.8623854999999594,-30.113754274999998,8.455924749,-149.50531765,-4.0711869,-0.9464671014999999,11.087223293500001,-1.7946044985,-3.3595333099999998,-4.7179123165
688,2.866551999999956,-30.139891625,8.448415041,-149.47660825,-2.297768414,-1.802864373,9.6210670465,-4.733523845500001,-2.8196091649999993,2.1060028374999997
689,2.8707184999999527,-30.138587,8.394720793000001,-149.4795761,-3.3598160740000003,-0.573363982,12.3567504905,-1.1831344405000002,-5.796803712000001,-3.6249523165
690,2.8748849999999493,-30.152409555,8.4145538805,-149.4725952,-2.051772803,-1.9683095215000002,10.252833961499999,-2.9463412765,1.3143749240000002,1.5648696125
691,2.879051499999946,-30.141646385,8.345365286,-149.45497895,-2.334291458,-1.1374989745,10.2072122095,-0.30692897750000003,-8.619522572000001,-2.5297900435
692,2.8832179999999425,-30.134965895,8.371534824,-149.44622040000002,-2.5154614449999997,-1.407393873,7.620394586,-0.6043550445,1.9114814400000002,2.1141731740000003
693,2.887384499999939,-30.150310515,8.305011511,-149.42971035,-1.5641800165,-1.1917832195,9.302294731,-3.3263932470000004,-8.293437362999999,-2.5164453384999996
694,2.891550999999936,-30.142226219999998,8.314119339000001,-149.42123415,-2.057568133,-2.0252423285,12.4963898655,-0.5429772735,0.16931581500000004,1.110172391
695,2.8957174999999324,-30.160074235000003,8.283500909999999,-149.4250641,-2.866203755,-0.7795116305,10.8381102095,-3.242365837,-3.3394250850000002,-2.4869762064999996
696,2.899883999999929,-30.157423975,8.272470474,-149.40196229999998,-2.704899788,-2.0611572265,11.668295623,-1.44068563,-2.792459010000001,1.3991969075
697,2.9040504999999257,-30.174759865,8.292210102,-149.43637085,-2.444386065,-1.731833875,7.7758505025,-2.7080326975,3.7128348345,-2.563901633
698,2.9082169999999223,-30.186063765,8.249601364,-149.40974425000002,-0.3063598875,-1.2254730765,9.384098590499999,-3.0455069545,-6.290651083,-0.21871358200000002
699,2.912383499999919,-30.20972729,8.281065941,-149.4460907,-3.8427151145,-1.4271011355,10.0807826505,-3.569753766,5.0384615660000005,-1.9419881705
700,2.9165499999999156,-30.234386445,8.238533497,-149.415535,-0.9954951999999999,-2.3576341275,8.45618701,-4.5821055175,-6.528730986,0.10228443099999995
701,2.9207164999999122,-30.25660801,8.243719101,-149.43939975,-2.8719477655,-0.80588606,12.026451827999999,-3.693739891,1.5826849950000001,-2.1984892229999997
702,2.924882999999909,-30.31558895,8.2539377215,-149.4350586,-3.1490257975000002,-2.0669476985,7.8117275265,-8.206239223499999,0.4818887699999994,0.5996100900000001
703,2.929049500000019,-30.336912155,8.2345921995,-149.42485805,-2.1413414775,-0.09663154149999999,12.3605270375,-4.1665662675,-3.0151357649999992,-0.1710838825
704,2.933216000000016,-30.37109184,8.281202792999999,-149.4437256,-3.3953652979999998,-2.180939615,11.109999654,-4.9136563540000004,5.631431879,0.5138661865000003
705,2.9373825000000124,-30.380576135,8.252247095000001,-149.40771485,-0.6586613060000001,-0.9131143984999999,7.679046153,-3.0492082235,-5.531714678,1.7310100495
706,2.941549000000009,-30.376045225,8.3176300525,-149.42581174999998,-3.4167501925000003,-0.686639741,9.285902977500001,-0.3868453505,7.5576725015,1.7719736695
707,2.9457155000000057,-30.391397474999998,8.3170347215,-149.39328005,-0.183933083,-0.560817316,7.287035465000001,-3.5682297945,-2.3503055570000004,2.950696349
708,2.9498820000000023,-30.389090539999998,8.354720116,-149.39842225,-3.0548552275,-2.101604283,13.0610437375,-0.9924237505,3.99066877,1.378699422
709,2.954048499999999,-30.414533615,8.409767866500001,-149.38227840000002,-1.8651608825000001,-1.148601532,9.889044283,-4.458683848,4.392990115,4.620514631500001
710,2.9582149999999956,-30.405610085,8.435674428999999,-149.36483765,-3.4720547794999996,-1.9362647535,11.064313174,-0.553696454,1.342769145,3.0553436205
711,2.9623814999999922,-30.39988804,8.563018322000001,-149.37789155000002,-2.556514621,-0.504252862,10.7483539595,-0.3033815325,13.571820259999999,6.1784746649999995
712,2.966547999999989,-30.37419319,8.5910253525,-149.35295105,-2.4548084140000004,-1.429957658,9.6141710265,1.418932438,1.0990748405000001,3.8979106845
713,2.9707144999999855,-30.330228805,8.7231361865,-149.3496399,-3.9732845425,-0.4124456305,13.1643328675,3.8853180405,13.084757207500001,8.2126057145
714,2.974880999999982,-30.252274515,8.807363749,-149.3380966,-1.702859588,-0.5689670444999999,9.7985587115,7.9774788595,7.6725020995,5.9926441905
715,2.9790474999999788,-30.132997515,8.9396543505,-149.30405424999998,-2.6555663645000003,0.08982327600000001,7.5561287405,12.3236486915,11.3279522675,11.28407669
716,2.9832139999999754,-29.98918629,9.082167625,-149.30702209999998,-2.861541152,0.21286877999999998,9.4636390195,16.157179475,14.6362529985,7.9658026694999995
717,2.987380499999972,-29.76373482,9.199025631000001,-149.24460599999998,-1.3431304395,0.26151123649999997,10.352735282000001,24.565543175,8.1721537105,13.067282200000001
718,2.9915469999999686,-29.51323891,9.385715962999999,-149.2517853,-3.42260468,0.04383589299999999,8.6686151015,29.008523940000003,19.581233505,10.039180993
719,2.9957134999999653,-29.14560795,9.540976525,-149.19054415,-1.9073339255,0.7031922639999999,11.071959019000001,41.624943735,12.4133489145,15.051086425000001
720,2.999879999999962,-28.756443975,9.75102949,-149.1855392,-3.386943221,0.8434315920000001,8.000037908,45.37905407,21.494509700000002,12.3704047215
721,3.0040464999999585,-28.259818075,9.960218907000002,-149.14622495,-2.6900942325,0.868168354,10.6615591065,57.54593468,19.62048006,15.56323862
722,3.008212999999955,-27.689538,10.175162315000001,-149.12072755,-2.776488006,0.828255847,8.545177938,66.64015007,21.09950638,14.350396155
723,3.012379499999952,-27.032198905,10.458399295500001,-149.10124209999998,-3.4476524595,1.274379283,11.3800163265,77.26960945,28.984189985,17.050063135000002
724,3.0165459999999484,-26.297682765,10.69597769,-149.08158875,-2.127090603,1.023819417,7.2894318105,86.455707545,24.17647934,14.461214065
725,3.020712499999945,-25.47365284,10.97453022,-149.04825595,-2.729881793,1.1402493115,10.287846565,96.973476405,28.234301565,17.537398335
726,3.0248789999999417,-24.57516098,11.258630275,-149.033226,-2.3393169339999997,0.5367360409999999,9.6613173505,106.2313919,29.937647820000002,15.48599863
727,3.0290454999999383,-23.59298611,11.527791975,-148.97905730000002,-2.9451801775,0.7709774375,8.7826750275,115.48486325,26.88660908,18.320735454999998
728,3.033211999999935,-22.554013255,11.83144188,-148.95185855,-0.20078849799999998,-0.811021626,10.0620679855,122.7774162,32.062381744999996,16.73819208
729,3.0373784999999316,-21.429995535,12.099920749999999,-148.87960055,-4.047858119,1.1956864595,10.484535215000001,132.0170784,26.71185684,19.200120925
730,3.041544999999928,-20.263926505,12.389312270000001,-148.8233185,-0.9006983785,-1.0587792545,10.5106954565,137.2927361,29.988030435,18.014517785
731,3.045711499999925,-19.032896995,12.676472185,-148.7253723,-3.9079898594999998,0.4508605,11.675562856500001,144.1315613,28.660585405,21.65280056
732,3.0498779999999215,-17.739191055,12.948220254999999,-148.63000490000002,0.13014298699999993,0.5093810185000001,10.090544699999999,151.50588225,27.297995569999998,20.366982460000003
733,3.054044499999918,-16.406178475,13.23510504,-148.50079345,-4.788327217,-0.4196168185,10.655690194,155.42731475,28.54777813,23.849375725
734,3.0582109999999147,-15.000794410000001,13.492140295,-148.38005065,-1.2642321289999998,0.020070478500000002,12.685340885,164.12603760000002,25.811621665,21.421268464999997
735,3.0623774999999114,-13.56994295,13.76634216,-148.21575165000002,-3.0590033534999996,-0.25411787599999996,10.84838533,166.01763914999998,27.194241525,25.956552505
736,3.0665440000000217,-12.075999734500002,14.005189895,-148.06373595,-1.6038597374999999,-0.6617773625000001,11.19598961,173.66825104999998,23.778676984999997,23.285222055
737,3.0707105000000183,-10.5566692335,14.244439125,-147.87719725,-2.406202972,-0.10046637050000007,9.637785433,175.8141861,23.912508965,26.2079916
738,3.074877000000015,-9.045339582,14.463499070000001,-147.70442965,-1.148750752,-1.64052552,8.580842016,175.0051651,22.26319504,23.927361485
739,3.0790435000000116,-7.477038622,14.655373099999998,-147.50922395,-1.6523606775,-1.12993598,11.168214799,181.23199465,19.45111847,25.17806053
740,3.083210000000008,-5.9307881595000005,14.881473065,-147.3241806,-3.0134057399999996,-1.0119476915,14.631044865,178.6568909,24.17938709,24.23493481
741,3.087376500000005,-4.3797155025,15.04035473,-147.125412,-2.085660845,-2.6879581215,13.479231835,178.84319305,16.901980875,24.325824734999998
742,3.0915430000000015,-2.8235192749999998,15.201054095,-146.92352295,-0.8088275195000001,-1.5505438445,9.463310716999999,179.18133545,17.5065121655,24.528343200000002
743,3.095709499999998,-1.2967435715,15.327373505,-146.73194884999998,-3.4935231805,-2.6479581595,16.89255428,176.00782775,14.2484471805,22.51465702
744,3.0998759999999947,0.2093912364999999,15.45546436,-146.51039125,-1.055635428,-1.4778630735,11.064136984000001,172.4663162,14.971465108500002,25.614335060000002
745,3.1040424999999914,1.6839056315,15.52214098,-146.32269285,-1.1706252094999998,-3.091751695,4.7680921555,169.74377445,8.1998933535,21.33470917
746,3.108208999999988,3.1374735535,15.54826832,-146.0893097,-1.1838860809999998,-2.6189680099999997,6.932173014,165.64405825,3.9772600535000002,26.609078410000002
747,3.1123754999999846,4.5671765805,15.57642794,-145.91857149999998,-2.2328386905,-2.7560943365,15.971514225,164.9078064,4.577223003,19.10304642
748,3.1165419999999813,5.984869838,15.6082592,-145.69862365,-1.2305567489999998,-1.9578008654999999,15.306442740000001,161.73254395,5.830400647499999,24.668883325
749,3.120708499999978,7.301190138,15.589636324999999,-145.53655245,-1.4080459475,-2.4717408415,9.6562242485,151.51974485,-0.25162291550000004,18.487531660000002
750,3.1248749999999745,8.586484909500001,15.611412050000002,-145.35198975,-3.8958995339999998,-2.9601784945,14.070259570000001,146.98555755,5.2415280935,20.42891216
751,3.129041499999971,9.826207638,15.57455921,-145.19898225,-0.583909437,-4.2943060395,7.467664002,142.6131363,-1.726318836,17.888501165
752,3.133207999999968,11.030508994,15.470938205,-145.0601883,-1.6957718135,-2.8200730085,12.19913673,138.73760985,-9.6251659405,17.706756114999997
753,3.1373744999999644,12.197867395,15.42160797,-144.9251404,-3.209782839,-3.232695818,12.753951075,134.54980085,-2.8707838655,16.025119305
754,3.141540999999961,13.28844118,15.316086770000002,-144.81386565,1.0896148904999998,-2.6445841784999997,7.732219457999999,125.99631115,-9.7822083235,15.074855804999999
755,3.1457074999999577,14.273752215,15.220430375,-144.714653,-4.653765559,-3.4439389705,15.7744059545,113.9351883,-8.593822002,13.355340954999999
756,3.1498739999999543,15.21117258,15.150496960000002,-144.60366820000002,2.007057339,-2.8512153629999997,9.4723609665,107.66996384000001,-5.112132368499999,14.210118295000001
757,3.154040499999951,16.055182935,14.98776579,-144.5583725,-4.501114011,-4.3663431405,10.214059831,98.62683867000001,-17.61196232,9.872997285
758,3.1582069999999476,16.85533762,14.922762395,-144.44606779999998,-0.594697595,-2.5718843935,12.763795855,91.324645995,-4.0108540655,14.140654560000002
759,3.162373499999944,17.568635945,14.803233145,-144.42004394999998,-3.190265179,-4.0085116625,8.922731401,83.532958985,-13.0106877075,6.7687711715
760,3.166539999999941,18.205173494999997,14.676103115,-144.33901974999998,-0.7629204540000001,-2.963760495,18.504050255,72.65820694,-11.846490143,13.134117605
761,3.1707064999999375,18.784151075,14.646481035,-144.30426025,-4.6019529105,-3.9902665615,9.8398264935,67.261039735,-2.2628603579999997,4.5065325495
762,3.174872999999934,19.31795025,14.47349453,-144.24331665,1.7464575764999999,-2.404156804,10.229031741,60.917964935,-17.5310359,13.017270565
763,3.1790394999999307,19.757868764999998,14.466023445000001,-144.21139525,-7.010342121,-4.039809227,10.895940305,50.78673363,0.21758985499999994,3.235059142
764,3.1832059999999274,20.18848896,14.347225185,-144.1431198,1.9992580115,-2.202985704,5.5150042775,48.19476509,-10.858384373,12.0598812105
765,3.187372499999924,20.507808685,14.3366313,-144.10915375000002,-6.9457457065,-2.9416391849999997,15.25729275,36.40342522,0.019885065000000424,3.596307069
766,3.1915389999999206,20.812892915,14.308573725,-144.00482175000002,3.204757929,-2.404972315,2.1929988850000006,32.11907387,0.9711170200000003,12.2176880845
767,3.1957054999999173,21.048107145000003,14.279591085,-143.9954071,-5.287629366,-2.990599036,11.0621352195,26.9369545,-3.0378379815,1.7827706410000002
768,3.199871999999914,21.28766632,14.293900965,-143.86231995,-1.1365620445,-0.69997856,9.4154751325,23.608374595,7.071708964,13.52468348
769,3.2040384999999105,21.462693215,14.26957989,-143.85332490000002,-1.3052586315,-2.2304313775,13.31847191,19.522346495,-2.5381987075000003,1.536092773
