,time,Euler_X,Euler_Y,Euler_Z,Acc_X,Acc_Y,Acc_Z,Gyr_X,Gyr_Y,Gyr_Z
0,0.0,12.720411775,8.1507811545,28.202404,-2.8781255485,1.2757310865,12.6895504,-9.6887516955,3.1048940419999997,-2.208907962
1,0.0041665,12.67354822,8.179558277,28.188911450000006,-2.057493463,1.4927798214999999,11.08690214,-6.9924044604999995,2.876568198,-2.6458735765
2,0.008333,12.59946823,8.2055671215,28.19556804999999,-2.047685474,0.03531169849999996,10.219848154000001,-10.5867228495,3.0126568675,-0.406722099
3,0.0124995,12.534595965000001,8.244600773,28.178119700000003,-0.920604661,1.5450574755000002,8.875053883,-9.0941929815,3.973113835,-3.3721014259999995
4,0.016666,12.455304145,8.2522695065,28.201793700000003,-0.30575352899999997,0.6443490685,11.540487290000002,-11.524320127,1.313607335,2.1214993
5,0.0208325,12.393360614999999,8.298968077,28.173645,-3.4308456185000002,0.7763822224999999,10.2299547175,-8.567309618,4.6013543605,-4.788120746500001
6,0.024999,12.31073761,8.317118644499999,28.19897840000001,-0.534867108,0.749922529,9.3042807585,-11.916320325000001,2.572642803,1.9461185335
7,0.0291655,12.24561739,8.3454101085,28.18364714999999,-2.1910406350000002,0.5127001255,6.235436678,-9.166004181,2.7711082699999996,-2.8568840625
8,0.033332,12.16858053,8.366089106,28.19578935,-0.388803005,1.0524236555,12.416595935,-11.037751674999999,2.5569351315,0.472281754
9,0.0374985,12.114485264999999,8.3724319935,28.183509800000003,-2.866323471,2.2669961455000003,11.830343245,-7.914761543000001,0.27366882549999993,-1.9163805845
10,0.041665,12.051304340000002,8.410136461,28.1816483,-1.1789316835,0.2811807565,8.2358298305,-9.115953922,4.192315042,-1.6425323635
11,0.0458315,11.995981695,8.401247978499999,28.19620895,-0.892011374,1.0387981235,10.427775860499999,-8.5294766425,-0.849784374,1.5674183819999998
12,0.049998,11.934211730000001,8.437777996,28.177257549999993,-2.5437378885,1.94753623,10.9053912165,-8.652399301500001,3.6292170585,-3.605651855
13,0.0541645,11.88602066,8.4363036155,28.199405650000003,-2.0120696425,-0.16159585099999996,10.198022367,-7.8000354750000005,0.21642118700000001,2.281037569
14,0.058331,11.826481820000001,8.4849951265,28.174293499999997,-2.8761070965,1.9259905515,6.9597632885,-8.270426991,4.9119656085,-4.627686143
15,0.0624975,11.772250175,8.488426447,28.212673199999998,1.203067124,-0.29449132850000004,7.498897791000001,-8.813706398,1.181386277,4.047049999
16,0.066664,11.70851326,8.5398199555,28.186313650000002,-3.9920221565,2.292854965,13.59714508,-8.7792534825,5.205721438,-4.7737379075
17,0.0708305,11.656828879999999,8.564781189,28.216445949999994,-0.07645905050000001,-0.202310473,9.213492392,-8.3593981265,3.513569117,2.589023113
18,0.074997,11.60701132,8.627274513,28.208332050000003,-3.943668723,1.690223992,8.801519394,-7.4181904795,6.9554950015,-2.9591745135
19,0.0791635,11.561953065,8.671886444,28.234787000000004,0.8114799555000001,0.8746248480000001,9.784577848,-7.5062141415,5.729712963500001,1.6973785160000001
20,0.08333,11.5433712,8.7249598505,28.239902500000007,-4.450135231,1.995454371,11.945271015,-3.922077179,6.1607875825,-1.1693477335
21,0.0874965,11.525649075,8.802000523,28.241695400000005,0.10185623150000003,1.0125989915,6.6856474875,-3.77573061,8.965893864,-1.914517462
22,0.091663,11.513017179999999,8.8506860735,28.274471299999995,-2.105081618,0.38146296150000003,8.0130608085,-3.7167919874999997,6.2930087725,2.1180858314999997
23,0.0958295,11.48727369,8.9429740905,28.26301195,-1.3145305514999999,1.6613246205,12.501019,-4.503226638,10.4380598045,-3.8298668859999996
24,0.099996,11.480602265000002,8.99972868,28.308860799999998,-2.865133524,0.720851183,10.843322275,-3.2440559865000003,7.55658388,3.4497768874999997
25,0.1041625,11.459943294999999,9.114364147,28.287761650000007,-2.0976124405,1.014534548,7.038713455,-3.7023079395,12.839189529999999,-5.4972643855
26,0.108329,11.448387145,9.1732997895,28.346599549999993,1.0631738605,0.530238613,9.5971965775,-4.092770815,8.1194570085,4.920648336499999
27,0.1124955,11.417831894999999,9.268008232,28.3219261,-3.3356007935000003,1.3170250655,11.1112771035,-4.8444595335,10.403609275500001,-5.399699688
28,0.116662,11.40750074,9.33780241,28.373928049999996,-0.444667935,0.05824151650000001,7.6091012970000005,-3.814228892,9.2485709185,3.894632101
29,0.1208285,11.362665175,9.4123163225,28.357532499999998,-2.253741026,0.9102909415,7.177612543,-6.700607777,8.2206850035,-4.0039025545
30,0.124995,11.317166805,9.491425993,28.39263535,-0.7607691584999999,0.00033036250000000045,10.5816121095,-7.7159430985,9.9452018735,1.7051014005
31,0.1291615,11.261771679999999,9.531513692,28.390483850000003,-1.8751522305,2.650004983,12.53086853,-8.2632818225,4.5025345085,-1.4913313240000001
32,0.133328,11.19499254,9.607073309499999,28.396114349999998,-1.5277954340000002,-0.2769810705,9.2548780425,-9.6933002495,8.8462877275,-1.5970416065
33,0.1374945,11.130399705,9.637326716499999,28.402286500000002,-0.1487690535,0.49511081,9.433208467,-9.5254745475,3.5404382945,-0.3057124615000001
34,0.141661,11.04932642,9.699505808,28.400825500000003,-2.7232322695,0.6757140755000001,11.770948885,-11.275426389,7.095233679,-2.128210187
35,0.1458275,10.993752480000001,9.7348422985,28.405368799999998,-1.3882526755,1.8324926495,6.190952063,-8.3929402825,4.1156829595,-0.596504379
36,0.149994,10.905499935,9.7595677355,28.4027405,-1.7403071525,0.07686024899999999,7.4065535065,-12.10822201,2.6655842659999998,-1.3912757335000001
37,0.1541605,10.80519915,9.7869706145,28.40302274999999,-0.529780034,0.6331706045000001,9.2338933945,-13.688006399999999,3.0770260695,-0.899072701
38,0.158327,10.65908146,9.802075384,28.408397700000002,-0.7054216565,-0.0649985525,14.374349115000001,-19.252381325,1.7369980515,-0.06743592000000001
39,0.1624935,10.510390755,9.8196511265,28.4058037,-2.612964511,0.9991334975,12.228904244999999,-19.43604851,1.857378304,-1.012486167
40,0.16666,10.352042200500001,9.8386545185,28.39299775,-1.6575600504999999,-0.8094338625,5.5580334659999995,-20.316577915,1.8055798410000001,-2.3355322779999996
41,0.1708265,10.1820826525,9.816211698,28.402370450000006,-0.7435778980000001,1.0282214135,7.889803885999999,-22.233667375,-2.6132553515000003,1.238647555
42,0.174993,9.9635562905,9.819896223499999,28.367725399999998,-1.6047343425,1.1939868335,14.023589135,-27.121469495,-0.44990766049999986,-4.492355347
43,0.1791595,9.7385497105,9.778680325,28.373252899999997,-0.49648424999999996,0.268323302,10.837349415,-28.756100654999997,-4.911546707499999,1.1976073085
44,0.183326,9.479214668000001,9.770979403,28.3317337,-2.9040374755,-0.031980961500000016,8.2870402335,-31.864471435,-1.9106373859999999,-5.162502765499999
45,0.1874925,9.241247177,9.746704102,28.321964250000008,-0.9972432459999999,0.177255951,4.5988235475,-29.983418465,-3.2082366945,-0.999135174
46,0.191659,8.9400186535,9.7085185055,28.29212189999999,-1.411689572,0.378908813,11.854907990000001,-37.152215955,-5.2668058875,-3.203729987
47,0.1958255,8.61894989,9.6908602735,28.259861,-2.400992155,1.333680898,14.12694645,-39.5086422,-2.8213341755,-3.7471503019999997
48,0.199992,8.253661871,9.667884825000002,28.226646450000004,-0.980471313,-1.0273693205,9.236634254,-44.76541138,-3.479687735,-3.9227114915000003
49,0.2041585,7.8931574819999994,9.649128913,28.19578935,-1.5989565255,-0.07573521150000001,7.473356247,-44.27806473,-2.8957903715,-3.636856437
50,0.208325,7.4921646115,9.634262561,28.149562799999998,-2.157322466,0.8346751335,7.7381265164999995,-48.81936264,-2.6523212195,-5.4638099669999995
51,0.2124915,7.049267292,9.6094865795,28.1131477,-1.167943776,-0.024556577500000065,14.49878168,-54.05610657,-3.644376457,-4.203332662499999
52,0.216658,6.5680038925,9.6076097465,28.071201350000003,-2.9406107665,0.24897930950000002,11.27251959,-58.542461395000004,-0.9682020245,-5.192034006
53,0.2208245,6.087487459,9.605509759499999,28.041904450000004,-0.3802205725,-0.05061632399999999,6.935920477,-58.712663649999996,-0.7805258635000001,-3.7241159674999995
54,0.224991,5.5687656400000005,9.5630059235,28.007064799999995,-1.351315707,0.213940643,6.7675299644999996,-63.1642437,-5.6680283545000005,-4.0220900775
55,0.2291575,5.0065128805,9.545458317,27.965374000000004,-1.9067557455,0.3015978185,12.67101431,-68.279514315,-2.7021333575,-5.0295557975000005
56,0.233324,4.4108086825,9.5088658325,27.943103799999996,-1.357348323,0.474116713,14.508485795,-72.65628433500001,-4.7457761765,-2.5997672085000003
57,0.2374905,3.7985863689999997,9.479505062000001,27.9042282,-1.7846162319999999,-0.18589986849999998,8.3086192605,-74.34923553499999,-4.002500057,-4.6571520565
58,0.241657,3.2043818235000003,9.432959555,27.868728649999994,-0.7963062080000001,0.657095626,5.3010447025000005,-72.22714615,-5.9810795785,-4.138177991
59,0.2458235,2.5767133235,9.358733177,27.839935299999993,-0.8146122695,1.7925978304999999,10.7273540495,-76.409584045,-9.2254233375,-3.252985954
60,0.24999,1.9267705085000002,9.321174144499999,27.79611585,-2.7401616575,0.8252010350000001,15.17441082,-78.76408767500001,-4.861787318999999,-5.314637184
61,0.2541565,1.270233214,9.263794899,27.760879499999994,-0.669452399,-0.091720406,10.65618706,-79.74311828500001,-7.148001194000001,-4.278792023499999
62,0.258323,0.638382062,9.200631618500001,27.715808850000002,-2.368989468,1.1437655389999999,6.079346657,-76.58722687,-7.8269951925,-5.5743784905
63,0.2624895,0.008254856000000005,9.137268543000001,27.664020549999996,-0.9508153425,0.9638231475,9.844444753,-76.26306915,-7.785846354,-6.381384611
64,0.266656,-0.6204464955,9.0582990645,27.630046850000006,-1.8842371105,1.8910078405,12.986593725,-76.432987215,-9.6164145485,-4.4210522175
65,0.2708225,-1.2755969464999999,9.0030059815,27.5603714,-1.7667600509999999,1.1034123894999999,11.83728409,-78.95389938,-6.6490185275,-8.658146858
66,0.274989,-1.9029467705,8.925924777999999,27.52701185,-0.3038030865,0.5884360525,12.732419015,-76.292114255,-9.2936363215,-4.5296583175
67,0.2791555,-2.5113505125,8.8605031965,27.463378900000002,-2.5345499515,1.8461662529999998,9.188170196,-73.48365402,-7.7123310585,-8.1414477825
68,0.283322,-3.0929623845,8.809199809999999,27.42531205000001,-1.8441856505,0.3664087505,7.417896986000001,-70.71244812,-6.0746223925,-5.086049676
69,0.2874885,-3.6826473474999997,8.725906372,27.37844084999999,-1.780492008,1.6855104564999999,7.714303255,-71.571151735,-9.81051564,-6.478484869
70,0.291655,-4.271716237,8.681783676,27.318717949999993,-1.7243302464999999,1.482494235,11.435086252,-71.2302742,-4.941187382,-7.682973623500001
71,0.2958215,-4.852535962999999,8.597643137,27.293079400000003,-0.9700110255000001,0.9426494835,13.29000616,-70.89951324500001,-9.9831166265,-4.1465027335
72,0.299988,-5.434128761,8.557382584,27.2206993,-2.1842806335,1.153105557,10.0633220695,-70.13409805,-4.199549675,-9.212392807
73,0.3041545,-5.9975697995,8.47069788,27.199588799999994,0.4232639965,0.7566382885,10.901548859999998,-68.900787355,-10.2585449245,-3.854498029
74,0.308321,-6.5500726700000005,8.4245159625,27.130134549999994,-4.051160812,0.9860654769999999,10.310679910000001,-66.72205353,-4.7704144715,-9.044985771499999
75,0.3124875,-7.07168293,8.3632388115,27.11649705,0.33950424200000007,1.3455951510000002,7.428480625000001,-63.99773407,-7.255015134500001,-2.79909569
76,0.316654,-7.6316123005,8.316362381000001,27.047256500000003,-4.259290576,1.008508712,9.185574531499999,-67.64236450499999,-4.6892045735000005,-9.20958519
77,0.3208205,-8.1599318985,8.266402483,27.02064134999999,1.7701739669999998,0.37321531750000003,10.24946022,-64.574533465,-5.6502004865,-4.249045968
78,0.324987,-8.6980137825,8.212048054,26.9724159,-3.8338936565,2.150168538,12.87669897,-65.40274429499999,-5.780219793,-6.919674157999999
79,0.3291535,-9.232549190499999,8.175090789999999,26.919567100000002,0.10149521,0.043870067,8.180821657,-64.87724304,-3.5477832,-7.18658638
80,0.33332,-9.768261435,8.1088109015,26.886131299999995,-2.367564559,1.0671015380000002,11.908067225,-65.396636965,-7.366759776,-5.4981672765
81,0.3374865,-10.303003310000001,8.0694122315,26.81718445,-2.1055591104999998,1.7682280540000002,11.195597169500001,-64.64702797,-3.3725491759999997,-9.2044582345
82,0.341653,-10.83755493,8.0046117305,26.801429749999997,-1.215563178,0.04581376950000002,9.3753232955,-65.53961563,-7.4692549705,-3.5325495005
83,0.3458195,-11.38159752,7.955787182,26.724479649999992,-1.6886066795,1.208623409,8.6702513695,-65.659534455,-4.137765646,-10.42099953
84,0.349986,-11.934082029999999,7.881984710499999,26.71552655,-0.028769612499999986,-0.4298049805,9.5250639895,-67.78965378000001,-8.614206551999999,-3.1217222215
85,0.3541525,-12.49853611,7.8428537845,26.64826585,-2.8243730065,0.81301561,11.779335974999999,-68.30927657999999,-3.0573791265,-9.140797855999999
86,0.358319,-13.069664955,7.797991753,26.62112425,-1.2246701940000002,-0.089937344,10.295735359,-69.72790909,-4.6929324865,-4.59853065
87,0.3624855,-13.63858986,7.75432539,26.572387650000003,-2.0495970845,1.8354761004999998,9.618404627,-69.17034149,-3.9224919675,-7.1987063885
88,0.366652,-14.204114915,7.7233884335,26.540409099999998,-0.8223017155,0.5797154605,11.13025284,-68.9778595,-2.842692435,-4.8445682525
89,0.3708185,-14.774754045,7.666551113000001,26.515575400000003,-1.0858995915,0.617553521,11.979287620000001,-69.76463318,-6.033625841,-4.868083477
90,0.374985,-15.33367157,7.6310818195,26.465347299999998,-1.584471196,1.808034122,9.209802151000002,-67.910144805,-2.721177816,-7.12297678
91,0.3791515,-15.898049355000001,7.550525427,26.464733150000008,-1.2539866865,0.6967191695,9.3074433785,-69.39871216,-9.4515776635,-2.994777799
92,0.383318,-16.46533108,7.514585971500001,26.40765379999999,-2.144406617,0.4789632635,11.708047865000001,-68.84146118,-2.4142410830000003,-8.0168790815
93,0.3874845,-17.02785206,7.4313230515,26.418853749999997,-0.503423631,1.0937745275,11.42595339,-69.35282898,-10.1082673065,-1.919885099
94,0.391651,-17.57593918,7.376065731500001,26.358749350000004,-2.8357266185,1.6204087735,11.375631330000001,-66.50817108000001,-4.379679799,-9.043666363
95,0.3958175,-18.114479065,7.29902482,26.367263799999996,-0.012180089999999977,-0.0565483235,9.322306633,-66.405750275,-9.257521628500001,-2.1768214104999997
96,0.399984,-18.64360237,7.2442035675,26.324703199999995,-1.553440273,1.6573482455,10.51789808,-64.541564945,-4.8313748835000005,-7.138303995499999
97,0.4041505,-19.16088867,7.1716902255,26.31712725,-0.24388504049999993,0.7676683440000001,9.225860119,-63.600088119999995,-8.083061936,-3.9702073335
98,0.408317,-19.67329693,7.1185126305,26.29021075,-3.479455948,0.9776264725,12.836096765,-62.78825569,-5.140039443999999,-5.41472733
99,0.4124835,-20.164700505,7.0726623535,26.2743149,-1.293079734,1.9642861485,10.649333,-60.37682724,-4.6657173635,-3.971954107
100,0.41665,-20.65656948,7.0322144035,26.27407455,-2.0720312,0.1903460395,9.603358267499999,-60.729700089999994,-4.742951393,-1.9463808055
101,0.4208165,-21.11583042,6.99111557,26.237453450000004,-1.199710697,1.541947603,9.961624146,-56.250551224999995,-3.19507727,-6.1793227195
102,0.424983,-21.568178175,6.944282532,26.250472999999992,-0.7066849319999999,1.725069463,11.588433264999999,-56.154674529999994,-6.0008563995,-0.7989679945
103,0.4291495,-21.98261642,6.909112692000001,26.19631195000001,-3.095975995,1.6889241335,10.82139015,-50.63637352,-1.672934115,-7.9059484005
104,0.433316,-22.38960075,6.874821186,26.208389299999993,-0.258678384,1.2077637315,12.763729569999999,-50.67226982,-4.5345692055,-0.4488008435
105,0.4374825,-22.76408863,6.8397424225000005,26.13493345,-3.0759961605,2.2142678494999997,10.4682717335,-45.59052849,-0.6796176435000001,-10.048995496
106,0.441649,-23.10671997,6.8117482665,26.153465249999996,0.9614505170000001,1.319304973,9.504384041,-43.04649353,-4.1499741825,0.5327001255
107,0.4458155,-23.420295715,6.790732384,26.079334250000002,-3.554851532,1.4865934845000002,11.32688856,-38.297023775,1.0105280875,-9.461296798
108,0.449982,-23.706637385,6.7749743460000005,26.1026764,0.585801959,1.848560631,12.12396622,-36.33392143499999,-3.019224405,1.5697190165
109,0.4541485,-23.969959255,6.766908407000001,26.030014050000005,-4.2811465265,2.2147509455,11.62332773,-32.303167345,2.4511504769999997,-8.6643435975
110,0.458315,-24.206037520000002,6.7612519265,26.040080999999994,0.7472023965,0.40164099649999996,10.132817746499999,-30.091576574999998,-1.2719721795,0.5964087245
111,0.4624815,-24.42023945,6.7561850549999996,25.976127599999998,-3.3899371625,2.5840597155,8.231631279,-26.56329918,2.4168784619999997,-7.5721371155
112,0.466648,-24.628886225000002,6.748950958,25.965110800000005,1.336021364,-0.38611231,11.970802305,-26.507461544999998,-0.41827535599999965,-1.7577713130000001
113,0.4708145,-24.798698424999998,6.7286522390000005,25.92253495,-3.461422324,2.2745442985,9.6781373025,-21.55140495,-0.2573657035000001,-6.0058492425
114,0.474981,-24.963055609999998,6.7329182625,25.880001099999994,-0.0312622635,0.9174691365,13.058462145,-20.75434017,2.4342186450000005,-4.6152006985
115,0.4791475,-25.08841896,6.72622776,25.8763504,-4.2453508375,1.8015514615,10.648977755,-16.75596523,-0.71208179,-1.0970777274999999
116,0.483314,-25.214645385,6.7594347,25.805938750000003,-0.18425184500000003,0.90778023,12.99158478,-15.79480505,7.006840112,-6.1338682175
117,0.4874805,-25.30933762,6.774891376499999,25.8183899,-3.9683390860000003,1.6849642395000002,8.794807433999999,-13.286257745,0.8769610525,1.7879313825
118,0.491647,-25.40462303,6.8262290955000005,25.733413700000007,-0.43834202,1.006256789,11.83825302,-11.89323044,9.750175473999999,-6.799339056
119,0.4958135,-25.482234955,6.8574461939999996,25.75849915,-1.8262771965,0.556660283,9.517571449,-11.392508507999999,1.9330935329999999,3.9865739345
120,0.49998,-25.56464863,6.9120042325,25.669342050000004,-1.149536103,1.577153027,13.034593585,-10.322115896,10.3250615615,-7.0848088265
121,0.5041465,-25.631093025,6.9571099279999995,25.690647149999997,-0.5242940039999999,0.306683563,9.4677028675,-9.9523363095,3.6257780785000002,4.343854904500001
122,0.508313,-25.697052005,7.0075864795000005,25.599956549999995,-2.04763782,1.1146163945,12.053567885,-8.354007006,9.966680648,-7.4494023325
123,0.5124795,-25.755893705,7.07181263,25.61006160000001,0.042224779000000004,0.5716067105,10.32806158,-8.84029293,6.270270823,4.1653233765
124,0.516646,-25.810652734999998,7.119906902,25.53998565,-2.9103405474999997,0.8305674940000001,12.516979695,-7.3347022535,8.6559572835,-5.3747649195000005
125,0.5208125,-25.866814615000003,7.205868721,25.526405349999997,-0.937840849,1.2403945925,11.26038742,-8.152257204,9.839820980499999,2.787021339
126,0.524979,-25.924082759999997,7.247801781,25.478088400000004,-2.398958087,0.3770098165,8.4248850325,-7.943973542,6.8575531815,-3.3172873855
127,0.5291455,-25.99913788,7.3520650865,25.433807400000006,-2.4004462065,0.8671598135,16.752671720000002,-9.9647212035,13.411823274,0.46484041200000004
128,0.533312,-26.072800635,7.3994300365,25.400340999999997,-0.2813820239999999,1.4531602559999999,9.844573976,-10.0996937765,6.681371928500001,-1.420130223
129,0.5374785,-26.145614620000003,7.5039310455,25.3409233,-2.820434123,-0.657132238,16.758336545,-9.4981577385,14.224984645,-1.1471465675
130,0.541645,-26.17809963,7.554445267,25.306701649999994,0.127695978,2.110407472,3.2799941305,-5.07109344,7.0612428165,-1.251396209
131,0.5458115,-26.214259145,7.6478512284999995,25.258804350000005,-3.3638185265,0.66253195,11.941365715,-5.341529131,12.428107263,-0.5552588700000001
132,0.549978,-26.2392416,7.701560259000001,25.224506399999996,0.16794781399999997,0.514903903,9.243239405,-4.122676015,7.40964234,-1.045714006
133,0.5541445,-26.262490275,7.777658224,25.204215999999995,-2.386973709,1.593184441,12.49395752,-4.2616585495,9.114593980999999,1.4452581105
134,0.558311,-26.303632735,7.8454113005,25.167778000000006,-0.6092125179999999,0.594443351,16.160480975,-6.019755483000001,9.023533703,-0.49238872499999997
135,0.5624775,-26.288286205,7.899434328,25.16039655,-1.403565288,0.811718383,5.644249916,0.20789116649999995,6.0615146184999995,1.697494242
136,0.566644,-26.269539835,7.979239940499999,25.1301079,-1.6972036360000002,1.382006347,15.215923785000001,1.0028553230000001,10.001771687,0.7284498810000001
137,0.5708105,-26.215468405,8.023153305000001,25.119674699999997,-1.1328585745000002,0.486372009,6.5738453865,4.9831852915,5.132644415,0.903446138
138,0.574977,-26.14433289,8.100652694499999,25.115276350000002,-2.446742326,1.6520047184999997,14.513016225,6.791308165,8.408887957500001,3.264034748
139,0.5791435,-26.083636284999997,8.138649225,25.088264450000004,-1.277481377,1.708029926,11.570455075,6.1152200699999995,5.35414076,-1.1153338105
140,0.58331,-25.984015465,8.2082896235,25.1063957,-1.5713251234999999,0.661555473,10.748354435,9.808769228500001,6.3987269389999994,5.213087081499999
141,0.5874765,-25.887352945,8.255160809,25.070465099999993,-1.8615715505,1.1062193215,16.117850304999997,10.5631661395,6.7677578915,-1.633324206
142,0.591643,-25.74380112,8.315767765,25.092006650000002,-1.0621960165000002,0.2783287615,4.206778288,15.06633568,5.277526915499999,5.1095416545
143,0.5958095,-25.60160828,8.3565237525,25.071163149999997,-1.6152248384999999,0.718085468,15.524766445000001,15.700876235,5.3258663415,-0.4355317785
144,0.599976,-25.46296883,8.386050463,25.08608245,-1.5961795525,1.0676809995,7.449130297,14.642982485000001,2.2622300985,2.8502886295
145,0.6041425,-25.31576347,8.4344439505,25.07441330000001,-1.257555097,-0.42183665950000004,15.151474475,16.09624529,5.696205258,0.849233886
146,0.608309,-25.167309760000002,8.4589056965,25.09015275,-1.2842086555,0.8788032905000001,8.396613598,15.843613625,1.6802759170000003,2.720924139
147,0.6124755,-25.002080919999997,8.495172024,25.083229050000007,-2.522411704,0.39655907450000005,9.279577255,18.129187105,4.1456995025,0.6751275505000001
148,0.616642,-24.860919,8.520189762,25.11997985,-0.15815174600000004,-0.058622926500000005,14.4063797,14.61976528,0.7117629050000005,5.0123746395
149,0.6208085,-24.713445659999998,8.5377459525,25.113170649999994,-2.7764093279999997,1.250486143,9.0474004745,16.00605822,2.1027569795000005,-0.2575640265
150,0.624975,-24.565156934999997,8.6045553685,25.1319084,-1.0726361275,-0.9306772205,11.493212225,15.76557875,6.202520905,5.1005389690000005
151,0.6291415,-24.419146535000003,8.614240884500001,25.153511050000006,-1.5758665055,-0.5699120165,7.942252397500001,15.345466615,-0.15643262899999977,2.4390392299999997
152,0.633308,-24.306247714999998,8.688359976000001,25.1669197,-1.7913336155,1.198406458,15.585478785,11.591391565,7.2942577585,4.81937027
153,0.6374745,-24.193575855,8.726344347,25.167099,-1.585502207,-0.552804157,8.62501812,11.769549845,3.999253273,1.5474072694999998
154,0.641641,-24.08108139,8.7988519665,25.1864281,-2.1744794250000004,-0.521267742,10.2878251085,11.3767705,6.840155363,5.329709053
155,0.6458075,-23.98866558,8.8477447035,25.1818848,-2.11682117,1.2392068505,11.7290635105,9.4233505715,5.4234559534999995,1.5665667655
156,0.649974,-23.92964554,8.9388251305,25.19304654999999,-1.2309981585,-1.7210810185,14.040831565,5.1313376425,9.291218280999999,5.3454601765
157,0.6541405,-23.84006596,8.993113041,25.203666650000002,-1.9797967075,0.4356757105000001,9.5608673085,8.7702634335,5.289506555,3.4354070424999996
158,0.658307,-23.77991295,9.051463604,25.222415950000006,-1.566190392,0.518354416,8.5609357355,5.116904736,5.338083744,4.585704088
159,0.6624735,-23.727900505,9.108165264,25.243156449999994,-0.8161703345000001,-1.227119565,15.10506582,4.106077552,5.083119512,4.670551061499999
160,0.66664,-23.692577365,9.1410665515,25.26760865,-1.7568989995000002,0.35304294550000004,10.0397453305,2.009455979,2.2742750050000002,3.9595891235000003
161,0.6708065,-23.66225052,9.1737751975,25.281024949999995,-1.9683078525,-0.2820096015,10.531599999,1.619760901,2.8032729625000004,2.6916846039999998
162,0.674973,-23.666066165,9.206681727,25.313797000000008,-1.6917991195,-1.1388110965,12.079195975000001,-2.814838052,1.8957544415,4.864451051
163,0.6791395,-23.67760086,9.246762753999999,25.328102100000002,-2.413666591,0.39892241349999996,10.80092335,-3.4425660375,3.5689719914999998,3.1299571395
164,0.683306,-23.70986843,9.2604370105,25.339443199999998,-2.0069392625000004,-0.031597554500000014,8.767670393,-5.8455978635,0.7851146165,1.6267151700000002
165,0.6874725,-23.76327896,9.2992010105,25.348621350000002,-1.5229590235000001,-0.6829162689999999,12.632554055,-8.314830065,3.6683366895,2.5651633735
166,0.691639,-23.811409949999998,9.3269553185,25.362960800000003,-1.0656493304999999,-0.412318111,8.10289073,-7.8376495835,2.196670413,2.5734113455000003
167,0.6958055,-23.885637285,9.331920625999999,25.3764229,-1.2147128585,0.7004116475,9.4964334955,-10.90886021,-0.25384378450000034,1.387446433
168,0.699972,-23.960436819999998,9.356897352499999,25.390331249999996,-0.9329817890000001,-0.7188930215,13.273060319999999,-10.980298995,1.9268310665,2.391767919
169,0.7041385,-24.027948379999998,9.3659839645,25.420925150000002,-1.721142173,-0.174469128,8.529332161,-10.494039059999999,-0.6280668975000001,3.3846271039999998
170,0.708305,-24.10746574,9.373156071,25.433773050000006,-1.6610978244999999,0.4426543715,10.484354975,-11.539507387,0.014363229499999908,1.412509859
171,0.7124715,-24.19256115,9.3802676185,25.457984949999997,-2.0426816345,-0.00019210550000003934,14.418431285,-12.43799305,-0.5372138915,2.6220400335
172,0.716638,-24.263825415,9.383342265,25.484745000000004,-2.2406443355,-0.1591917275,8.7300469875,-10.849179746,-1.1165950299999998,2.68886745
173,0.7208045,-24.340236665,9.382606505,25.501121500000004,-1.9282235504999998,1.0116246045000001,11.923632145,-11.2416033745,-1.0218288305,1.3929150995
174,0.724971,-24.418987275,9.401381970500001,25.516170499999994,-1.884412527,-0.034853961499999996,12.487570285,-11.4790844905,1.1662996410000002,2.2359435555
175,0.7291375,-24.468395235,9.3983492875,25.529720300000008,-1.6647931335,0.10898691400000002,8.9867925645,-7.971547127,-1.14319551,0.953733265
176,0.733304,-24.532459255,9.4080076195,25.5408707,-1.510435164,0.3986996785,10.781929015,-9.67112875,0.2889351844999999,1.5102282164999998
177,0.7374705,-24.588921545,9.4244656575,25.537277249999995,-1.3969106675,0.10967600500000001,11.569082734999999,-8.451435566,1.82527034,0.11260017750000001
178,0.741637,-24.626290320000003,9.4248905185,25.549186749999997,-1.419275999,0.4964865375,8.1259059905,-6.519149065000001,-0.7386249304999999,1.0455026925
179,0.7458035,-24.665708545,9.427729608,25.543884249999998,-2.0102055665,0.1924820095,10.286577702999999,-6.371016264,0.42032384899999986,-0.744849205
180,0.74997,-24.69307518,9.4572377225,25.546237950000005,-1.747273326,0.526902661,13.09450245,-5.1044688224999994,2.9048720895,1.4946290255
181,0.7541365,-24.707864765,9.4548864345,25.553920749999996,-2.2145050765,0.2335575595,9.1063003515,-3.7070848945,-0.7902888955,0.366059482
182,0.758303,-24.710628505,9.4697861665,25.554023700000002,-2.0370750429999998,0.9795685705000001,11.666581155,-2.0844800475,1.411459632,0.572586954
183,0.7624695,-24.70924187,9.502404213,25.56003185,-1.8350171445,-0.1100769935,11.128365992500001,-1.717030883,3.1098241805,1.9446837905
184,0.766636,-24.685274125,9.512882707500001,25.57325745,-1.3338088395,0.209270075,7.9393217565,0.8432462215000001,0.2781705635,1.7456228735
185,0.7708025,-24.67362404,9.531507966500001,25.580753299999998,-1.4285674689999999,0.6216021775,12.142805575,-0.5062461085000001,1.5109388830000001,1.4104863404999999
186,0.774969,-24.645449640000002,9.560270787,25.579177849999994,-1.4137996435,-0.5371608715,8.585935116,1.6616916955,3.023427367,1.042307198
187,0.7791355,-24.609779355,9.5651326185,25.617305750000007,-0.7174256145,0.025797098499999976,9.2025425445,1.7314328555,-1.4999123215,3.9869459870000004
188,0.783302,-24.600341795,9.587361813000001,25.613010400000007,-1.509357899,-0.3222892135,13.23464775,-0.503351763,2.4870973825,0.342539169
189,0.7874685,-24.558710095000002,9.593112468000001,25.638572699999997,-2.5579022764999997,0.4815305475,9.515313148499999,2.6831554175,-0.7736194134999996,2.649370313
190,0.791635,-24.534981725,9.5988597845,25.6533928,-1.010013878,0.314669631,12.21593189,0.8142893014999999,-0.3019595145,1.6904627680000002
191,0.7958015,-24.49470329,9.606702802000001,25.6806755,-2.4863632915,-0.188637316,12.48360825,2.4978104830000003,-0.6298218964999998,2.9628754849999996
192,0.799968,-24.45419502,9.5961174985,25.684200250000004,-1.8166270855,0.786724627,8.933538913500001,3.043137431,-1.4755079745,-0.484262705
193,0.8041345,-24.4092989,9.587840082,25.717693349999998,-1.642284274,-0.518596783,13.365100385000002,2.9926011565,-2.687055558,2.8830617665
194,0.808301,-24.347358705,9.580141068,25.72600175000001,-1.5557061435,0.536474243,9.1450912945,5.4552559855,-1.460735798,0.285284996
195,0.8124675,-24.299612045,9.551698684000002,25.750942199999997,-1.2665014270000001,-0.29147416000000004,9.9537367835,3.516770601,-4.4753125879999995,0.9915782215
196,0.816634,-24.225974084999997,9.5612697615,25.741493250000005,-1.7989884615,0.355787821,11.565959450000001,7.2526710035,1.3611724375,-0.91474849
197,0.8208005,-24.150712965,9.5347995765,25.778652200000003,-1.1223625245000002,0.0394359975,7.996808052,6.5564894680000005,-4.8447668555,2.3908715245
198,0.824967,-24.079504964999998,9.5613884925,25.764259350000003,-1.7598871585000002,-0.37644727499999997,12.47174549,7.049178361999999,3.40557909,-0.479709655
199,0.8291335,-23.994128225,9.552653788499999,25.778366099999992,-2.9165956825,0.8195295635,8.8616394995,8.2026650905,-1.7777369619999996,0.7415769695000001
200,0.8333,-23.914868355,9.582924365,25.781578049999993,-0.9653253255,-0.256175697,11.83929777,7.7205405234999995,3.0143027305,1.509472519
201,0.8374665,-23.8252697,9.6055841435,25.79097745,-3.0227291585,-0.607799217,9.699360847000001,8.780701160500001,1.8951401709999998,1.742446989
202,0.841633,-23.760736465,9.626064779,25.783313749999998,-1.06105119,0.23487255,9.685500623,6.1451492309999995,2.40184021,-0.012723862999999946
203,0.8457995,-23.693232535,9.656043051000001,25.781448350000005,-2.762690544,-0.5343668694999999,12.85728598,6.4021890159999995,3.243313193,0.9070194960000001
204,0.849966,-23.630272865000002,9.687137126500001,25.792476650000005,-0.2092901465,-0.6669688970000001,8.730164051,5.5541403295,2.68232286,2.4894734025
205,0.8541325,-23.583922385,9.709818361,25.785163849999996,-2.4346102475,-0.075163709,11.394201756000001,3.9860872030000003,2.6945340040000003,-0.014439999999999953
206,0.858299,-23.525655745,9.7431674,25.793296850000004,-0.9040747885,-0.018445030000000015,8.991997242,5.042584658,3.089582354,2.225851417
207,0.8624655,-23.485544205,9.746507167499999,25.806591049999994,-2.1995388865,-0.7862375975,10.008359431999999,2.8295276165,-0.40299522899999984,1.2953566349999999
208,0.866632,-23.42958832,9.788834093,25.834053049999994,-0.31936293799999993,-0.107636804,9.8431568145,4.3490924835,3.1732646229999997,4.721344352
209,0.8707985,-23.402671814999998,9.7668504735,25.848121649999996,-2.9601465465,0.0189237,10.1529974935,1.212347388,-3.2272784115,0.15986490250000002
210,0.874965,-23.353821755,9.811790468,25.88040925,-0.5395499465,-0.529893458,11.523185250000001,3.4350612165,3.2544172255,5.3701143264999995
211,0.8791315,-23.31818104,9.784556391,25.903778100000004,-2.1305797395,-0.4900181145,9.36685133,2.0552093385,-4.242101073,0.9128913585
212,0.883298,-23.285154345000002,9.8138270365,25.948116299999995,0.30359661549999983,-0.7013581449999999,10.873280999999999,1.3190501055000001,1.0002680419999999,5.8759319780000006
213,0.8874645,-23.25006771,9.7822747205,25.959484100000005,-3.4397343989999998,0.3507708905,9.6168022155,2.2225854995,-4.1537321805,-0.609618757
214,0.891631,-23.23052883,9.816568375,26.00684735,-0.40407422200000004,-0.6004585625,13.453395365,-0.3276253935,1.4258998629999997,6.461550712499999
215,0.8957975,-23.200637815,9.7919569025,26.022251150000002,-3.1709749694999996,-0.2995015125,8.3072929385,1.495371759,-3.580601096,0.1498880985
216,0.899964,-23.18982887,9.807775497000002,26.05419155,-0.910534367,-0.37013600049999995,13.621406555,-1.066359043,0.11130034899999997,3.9024825094999995
217,0.9041305,-23.163104060000002,9.7894763935,26.06233600000001,-3.787381768,0.11160866899999997,7.108175277999999,1.2681350705,-2.5442041755,-0.3406052735
218,0.908297,-23.15245056,9.815798280500001,26.0897255,-0.04193788749999994,-0.6374087705,15.093022345,-0.974551171,1.488756776,3.9136117695
219,0.9124635,-23.12320232,9.7824435235,26.101058949999995,-3.0665943625,0.020820587999999973,6.301370621,1.4895576315,-4.360222063999999,-0.7063316855
220,0.91663,-23.102627755,9.7944307345,26.12960055,-0.04477089649999999,-0.07484660300000001,13.43544388,0.208173312,-0.14402270350000013,3.3765583039999996
221,0.9207965,-23.068392754999998,9.772335052999999,26.139736199999994,-2.6371836065,-0.907392949,7.796437502,2.1007517575,-3.0585001700000003,-0.32177242649999993
222,0.924963,-23.0371027,9.7772445685,26.173015599999992,0.14500492799999998,-0.20509097750000002,12.997419835,1.3893099429999998,-1.2097411145000008,3.734863162
223,0.9291295,-22.97234821,9.7411799445,26.186157200000004,-2.2507814765000003,0.263840869,5.7645680905,5.6975159645,-4.739435315,-0.6502494145
224,0.933296,-22.9352026,9.7445421215,26.2225113,-1.498217255,-1.2468477485,13.948576450000001,2.0439391135,-1.4507844450000005,3.8309930565
225,0.9374625,-22.87258148,9.727119924,26.218868249999993,-1.922177017,0.5167099985,8.1808309555,5.791442870999999,-1.9081647394999997,-1.5897476074999999
226,0.941629,-22.82903099,9.7399082205,26.236915599999996,-2.216524303,-0.554700181,16.124565125,3.1551229955,0.392980337,2.380420506
227,0.9457955,-22.75422478,9.73556614,26.244041450000005,-2.4639576675,-0.4486683905,5.3758080005,7.0405085085,-0.9544949534999998,0.19235652649999999
228,0.949962,-22.71746731,9.7544860825,26.238674149999994,-1.568705633,-0.560188532,13.28963804,2.816220939,2.1404864784999997,0.12937104700000002
229,0.9541285,-22.66193962,9.758267404,26.234367400000004,-2.720300198,-0.46388101550000005,9.973598005,4.9642248155,0.46838164350000033,-0.679116577
230,0.958295,-22.62479019,9.7913031575,26.231796250000002,-1.062332377,-0.623928919,12.97196388,2.8199291229999996,3.5657517899999998,1.1310927119999998
231,0.9624615,-22.561290739999997,9.8154950165,26.233573899999996,-1.815481305,-0.3587300255,6.474930286499999,5.787805796000001,2.4447705749999997,0.9332352279999999
232,0.966628,-22.522655485,9.842494487,26.229190799999998,-1.1388697625000002,-0.3772295825,13.488149165,3.0322645905,2.989495275,0.6190384925
233,0.9707945,-22.45958233,9.873539447999999,26.223987550000004,-2.444196582,-0.009251497499999997,6.7825095655,5.8889050485,3.5295460220000003,0.473030836
234,0.974961,-22.413237575,9.914621352,26.217220349999998,-0.695635326,-1.219502568,12.283274174999999,4.0135328765,4.681188227,0.9439741335
235,0.9791275,-22.346725465,9.933096408,26.215473149999994,-2.444534719,-0.2664922475,6.825753927,6.222402811,1.9812159555000002,0.25687881549999997
236,0.983294,-22.320798875,9.9697036745,26.201446550000007,-1.1386671065,-1.4338613150000001,12.39067936,1.6990498900000002,4.4871985915,-0.0025166570000000332
237,0.9874605,-22.270576475,9.979407312500001,26.206146249999996,-0.8497502655,-0.519591231,6.20102787,4.14793098,0.714925289,0.5842672285
238,0.991627,-22.26419163,10.0074982655,26.198032399999995,-1.615810722,-0.41809430999999997,16.785414695,-0.752315819,3.28427732,0.24180465900000003
239,0.9957935,-22.22591782,10.0093488695,26.211532600000005,-1.556844771,-1.4720773695,4.3300061225,2.5364626945,-0.5475621225,1.1928037855
240,0.99996,-22.23012161,10.0453891765,26.19048695,-2.4092376829999997,-0.6336519275,14.572770120000001,-1.762323618,4.76606059,-0.884241864
241,1.0041265,-22.228883745,10.0403933515,26.190383949999998,-1.9890536964999999,-0.723639995,8.369771242,-1.6276249285,-0.6964197160000003,-0.6277408900000001
242,1.008293,-22.249949455,10.084537982,26.16692355,-2.63341859,-1.337289035,14.41583252,-3.7491555215,5.7592197655,-0.7449706494999999
243,1.0124595,-22.255044935,10.0739712725,26.173274999999997,0.16087609549999998,0.0691799075,4.201533437,-2.4933663605,-1.611596525,-0.12105932850000001
244,1.016626,-22.28031826,10.09854841,26.153110500000004,-2.0549259369999997,-1.358653098,14.582943915000001,-4.339730024,3.4430013895,-1.3106290994999998
245,1.0207925,-22.303188325,10.086674213,26.157775900000004,-0.9101300835,-0.33052250000000005,6.539931773999999,-4.5550820825,-1.6772391795,-0.3366222825
246,1.024959,-22.328591345,10.115727902500002,26.132961250000008,-2.5164849165,-0.7793680279999999,13.742596625000001,-4.28143239,4.192301212499999,-1.760479212
247,1.0291255,-22.346012115,10.087845803499999,26.151817299999998,-0.6912466885000002,-0.21403446799999998,8.219611168,-4.1758505105,-4.088269114499999,0.49587246799999996
248,1.033292,-22.356630324999998,10.113071916500001,26.147182449999995,-2.533080459,-1.1229908764999998,9.295213221,-2.95959723,2.8644852655,0.23156552
249,1.0374585,-22.38322735,10.0741481755,26.159267399999997,-0.14145678299999997,-0.0913733465,10.9745869635,-5.0956847665,-5.016980169999999,-0.6880753335
250,1.041625,-22.39746952,10.062888624500001,26.159393299999998,-2.970335662,-0.7384232805,9.4027686115,-3.506345928,-1.42679739,-0.84500099
251,1.0457915,-22.441997530000002,10.03924465,26.166057550000005,-0.4667257365,-1.5989536640000002,14.883873465,-7.116686463000001,-3.074870109999999,-0.576653399
252,1.049958,-22.46038532,10.016777517,26.167407999999995,-1.9701917395000001,-0.552677124,3.5722427370000003,-4.0519680975,-2.735455035000001,-1.21552363
253,1.0541245,-22.520920755,9.995880129,26.158973699999997,-1.8168136179999999,-0.5729707625,17.090344430000002,-8.758276222500001,-2.085684777,-2.145755887
254,1.058291,-22.55286789,9.9675040255,26.166477199999996,-2.2872413695,-0.7056545320000001,4.782747507,-5.783208847,-3.674189807,-0.783078492
255,1.0624575,-22.608558655000003,9.9644594195,26.155918150000005,-1.5833989379999998,-0.903786082,14.49605322,-8.144328833,-0.008958816499999855,-1.5675017235
256,1.066624,-22.636249545,9.9172692285,26.161106100000005,-0.917029917,-0.7357258200000001,4.429463744,-5.184577465,-5.646197677,-1.8841320275
257,1.0707905,-22.695672035,9.938412187,26.15769195,-1.933484614,-0.5072790644999999,14.42541838,-8.778049945500001,2.346302234,0.287154753
258,1.074957,-22.74052334,9.9101657855,26.157260900000004,-0.8094557525000001,-0.5744669960000001,6.26873529,-7.0959506035,-3.307047747,-1.5497764945
259,1.0791235,-22.785533905,9.9293508515,26.140491499999996,-3.8332840205,-0.4954268335,15.29118347,-6.8167035575,2.7496695504999997,-1.3269838095000002
260,1.08329,-22.82613564,9.9225173015,26.1471443,-1.0071444435,-0.239911914,7.81166172,-6.6731877325,-1.2088325024999995,0.1343786865
261,1.0874565,-22.856933595,9.9412693955,26.139503500000004,-1.886196874,-1.442237824,9.810484408,-5.3264939785,2.2759478104999995,-0.361077607
262,1.091623,-22.88895798,9.9280581485,26.146896399999996,-0.1427440345,0.066239303,11.4473953265,-5.641741275999999,-1.9969062800000001,0.0691264865
263,1.0957895,-22.91159916,9.9377241135,26.14901735,-3.2373315695000002,-0.3572459965,7.976122140999999,-4.562958717500001,0.8278713199999999,0.2562064305
264,1.099956,-22.94588947,9.932831286999999,26.15483094999999,-0.7936115264999999,-1.515902847,13.828606605000001,-5.872243404500001,-1.0038933750000005,0.281205937
265,1.1041225,-22.954526899999998,9.916974543,26.167968750000007,-2.9062819035,-0.34427401450000006,4.342179656,-3.1197058185000004,-2.49783182,0.245826244
266,1.108289,-23.00581932,9.9336643215,26.167724599999993,-1.6818656920000001,-1.200544357,16.723840715,-7.831476212,1.6564671979999996,0.6023188085
267,1.1124555,-23.02932072,9.9046225535,26.179946900000004,-0.6040763259999999,-0.296891853,5.3863470555,-4.8399250505,-3.9207907905,-0.414098922
268,1.116622,-23.059769629999998,9.918623926,26.166072849999992,-2.2700596749999997,-0.23081004900000002,16.02050638,-5.063844681,1.9898611305000002,-1.0192928315
269,1.1207885,-23.070301055,9.891322133500001,26.184028649999995,-0.9294362664999999,-1.1985840795,3.737052202,-3.3503037095,-3.9938743115,0.345151827
270,1.124955,-23.091707225,9.905792712,26.160202049999995,-2.179839045,-0.570272531,12.702588559999999,-3.8245127205,2.550953567,-2.267935574
271,1.1291215,-23.116123199999997,9.8784198775,26.171077700000005,-1.9353291689999998,-0.26383137749999996,9.0810694705,-4.821291089,-3.6718331565,-0.38949646050000003
272,1.133288,-23.13044643,9.914565086500001,26.153499599999996,-2.6052906515,-0.6709522455,11.6340675375,-3.1485279795,4.662722111000001,-0.637538418
273,1.1374545,-23.146636960000002,9.8923044215,26.157894150000004,-0.447657317,-0.6674144419999999,10.5743842125,-3.635186434,-2.8143491750000003,-0.7703739549999999
274,1.141621,-23.13914776,9.892549991,26.157649999999997,-2.7013600765,-0.4424457399999999,6.1418430805,-0.9261533019999999,-0.13988495000000079,-0.38083252300000003
275,1.1457875,-23.171009065,9.894021036000002,26.154598249999992,-0.5200648305,-1.7164334655000002,16.434603690000003,-5.367323935,0.148878100000001,-0.462875023
276,1.149954,-23.165088654999998,9.877135277499999,26.160686499999997,-1.5448226925,-0.372951824,3.075363934,-1.2251865714999999,-2.318286895,-0.497326009
277,1.1541205,-23.18380928,9.893689155,26.144016299999997,-2.57290425,-0.559764147,16.85430336,-3.571046829,2.4570775030000003,-1.3161105665
278,1.158287,-23.178562165,9.866565703,26.153175350000005,-2.0981196165,-1.033117652,2.8369903565000003,-1.3130369785,-3.6080412865,-0.543034673
279,1.1624535,-23.192838665,9.895500182500001,26.140949250000006,-0.9579418899999999,-0.8032212554999999,12.942302224999999,-3.197232723,3.609685957,-0.30664725600000003
280,1.16662,-23.22068405,9.855551242,26.135978699999995,-0.9823145569999999,-1.157181263,9.454596044999999,-4.9184265135,-4.3789074425,-2.5688457490000003
281,1.1707865,-23.235100745,9.8866391195,26.13230135,-1.8316560984999999,-0.825517297,10.215019704500001,-3.444602549,3.4534974079999996,0.65801692
282,1.174953,-23.25970745,9.877798557,26.1225624,-2.190175414,-0.504142843,11.490420817,-4.3850553035,-0.71173763,-1.606230557
283,1.1791195,-23.26084042,9.8827986725,26.133121499999994,-2.4641729295,-0.7255370615000001,6.503831625,-2.1865152119999998,-0.08281708000000165,0.9087934495
284,1.183286,-23.29958916,9.891628266000001,26.1047821,-1.7604075670000001,-1.3149146735000001,15.59145975,-5.702536404,2.104459285000001,-2.781962514
285,1.1874525,-23.305859565,9.872019289,26.123962400000003,-0.09461259849999992,-0.5864496975,3.0842994155,-2.919434339,-3.2050275815000004,0.760730103
286,1.191619,-23.318452835000002,9.8773531905,26.099182149999997,-3.2216696750000002,-0.45442086449999997,18.20702076,-2.6998299955,1.563678384,-2.653327346
287,1.1957855,-23.312088015,9.8287339185,26.130344400000006,-0.08404648300000006,-0.5757253874999999,3.413228512,-1.5439557505000001,-6.964645257,0.7913390250000001
288,1.199952,-23.303376195,9.8326926235,26.109733600000006,-3.0458788875,-1.275412619,12.650883194999999,-0.33551466500000005,1.226786615,-2.403998673
289,1.2041185,-23.330085755,9.7813525195,26.1230202,-0.8090198040000001,-0.966630101,12.938109874999999,-5.0942633155,-6.4313101795,-1.2157799004999998
290,1.208285,-23.314155579999998,9.75936699,26.114639250000003,-3.2688564065000003,-0.20986346150000001,5.294950962,0.24889975799999997,-2.1955337549999996,-2.3645917174999997
291,1.2124515,-23.31420231,9.744867326000001,26.123207100000002,-1.049456358,-1.1467393635,16.898348804999998,-1.8135520815000001,-2.1492466949999995,0.00277280799999996
292,1.216618,-23.29208851,9.6788702015,26.115001649999996,-1.6116657855,0.1332815215,2.6642377374999997,1.050965011,-7.082683147,-4.2923185825
293,1.2207845,-23.27096081,9.68709469,26.113071450000007,-1.366201103,-2.2729154824999998,14.921359065,0.8722607494999999,0.8477990624999999,-0.135473691
294,1.224951,-23.26705551,9.6386833175,26.10370255,-1.4524324535000002,-0.17478221650000003,8.218360188,-1.0407447515,-5.094511391499999,-3.5022600885
295,1.2291175,-23.241465565,9.627054214,26.109096549999997,-2.750897288,-0.4305010885,11.05023813,1.1720435619999998,-1.6759338350000004,-0.390892502
296,1.233284,-23.221467975,9.597673416500001,26.091903699999996,-2.056741573,-0.8493424654999999,11.93603277,1.1225631280000001,-2.5883622199999996,-3.485764623
297,1.2374505,-23.178964614999998,9.587885379,26.105560299999993,-2.1704221964999997,-1.0832224785,4.419773936,3.0348260995,-1.8560280800000006,0.5883398575
298,1.241617,-23.168252945,9.584593294000001,26.080883,-0.1264531615000002,-1.428129077,16.29327488,0.12186634549999997,0.5904669799999995,-2.9847121835
299,1.2457835,-23.133886335,9.534096243499999,26.09453585,-1.810187936,-0.6560640935,5.1170256135,2.1147110465,-6.3490017515,-1.2652922715
300,1.24995,-23.12116146,9.560616016,26.07242585000001,-2.6846828085,-1.860411167,14.514060494999999,0.22788345850000002,3.7753846644999998,-1.4310545024999999
301,1.2541165,-23.106625559999998,9.538950444000001,26.069393149999996,-2.5404449870000003,-0.16268306950000005,7.551585672,0.15576660599999997,-2.3965389740000003,-1.619139731
302,1.258283,-23.080224039999997,9.5899801265,26.037879950000004,-3.0899107459999997,-1.409290612,10.635415075000001,1.9625834225000003,6.926370619999999,-1.435012519
303,1.2624495,-23.089061735,9.6018381145,26.012275699999996,-0.8258791864999999,-1.1748939155,13.34291649,-2.14405939,2.34624672,-2.423952758
304,1.266616,-23.062651635,9.622718333,25.994880700000003,-1.1366564335,-0.4113437085,5.8761217595,1.6876326794999998,2.9407792099999988,-1.305192694
305,1.2707825,-23.0642395,9.655158998000001,25.959388749999995,-3.1114076969999998,-1.2147521970000001,17.090584755000002,-1.0745043305,5.080881595000001,-2.5552322265000003
306,1.274949,-23.046248435,9.682374955,25.960392,-1.7786178585,-1.289002084,1.1569750755,0.34032361,2.7937650660000006,1.01163429
307,1.2791155,-23.054768565,9.7400183655,25.901119249999994,-2.6316603425,-1.5981185885,17.418310169999998,-1.5017754435000001,8.961384059499999,-4.038827181
308,1.283282,-23.059448240000002,9.731004714,25.908096349999994,0.3451890945,-0.7427280395,4.429453969,-2.409864068,-1.4862852695000002,0.061871179500000005
309,1.2874485,-23.062371255000002,9.783804418999999,25.87065884999999,-3.227368593,-1.3413140179999998,12.953876495,-1.3241855500000002,7.4165376445,-1.9497556685000001
310,1.291615,-23.06238651,9.786640169,25.8785248,-0.6130644980000001,-0.6373655245,8.0674917705,-1.8116312620000001,-0.23683500000000013,0.819502011
311,1.2957815,-23.048302649999997,9.8280196185,25.852146150000003,-3.2830834385,-1.1330123245,8.3440303805,0.3983985185000001,5.652297020000001,-1.407861322
312,1.299948,-23.076001165,9.850094796499999,25.833370199999997,-1.167833388,-1.311762452,14.779736995,-4.5567866565,3.1260852849999994,-1.1390910445
313,1.3041145,-23.075541495000003,9.858682631,25.816246050000004,-0.5807341935000001,-1.768485546,5.662132025,-1.4005993305,1.5927143050000003,-1.896209359
314,1.308281,-23.094425205,9.887252329999999,25.797157250000005,-2.5426662270000002,-0.3862948195,15.71912241,-3.5024266820000003,3.8635702100000007,-0.8971388414999999
315,1.3124475,-23.07785225,9.8918275855,25.78894425,-2.61893934,-0.5846209524999999,1.2706016895,0.38576322799999996,0.7419357299999998,-1.080370128
316,1.316614,-23.068268775,9.947455408,25.76353075,-0.9774078129999999,-1.5759481045000001,15.50185728,-0.036096811000000006,7.169719219499999,-0.4794472605
317,1.3207805,-23.076588635,9.9056835165,25.746707900000004,-0.5634006265000001,-1.1016623380000001,5.016207576,-2.3098278345,-3.9819574375,-4.0674003364999995
318,1.324947,-23.069856645,9.9383802425,25.728714000000004,-2.216561675,-1.5354237555,10.8063812235,-0.5869374275,4.2961032375,-0.80906409
319,1.3291135,-23.09463978,9.922412873999999,25.719799050000006,-1.4515359104999999,-0.811577484,12.6056795125,-4.4146904945,-1.5025124550000006,-1.9515233040000002
320,1.33328,-23.082191469999998,9.933884620499999,25.713352200000003,-2.8359206915,-0.926156968,5.493062258,-0.21585744649999994,1.4140939700000015,-0.6274209465
321,1.3374465,-23.082663535000002,9.935641288500001,25.696998599999993,-0.6914049389999999,-0.889788673,16.14483929,-1.3304419815000001,0.7964200950000002,-1.90174216
322,1.341613,-23.0699234,9.920029164999999,25.69820025,-1.609462142,-1.29214257,4.954921484,-0.2926490905,-1.9491081249999995,-0.9678212405
323,1.3457795,-23.073504444999998,9.932658196999999,25.680023199999994,-1.9518831369999998,-1.8751677869999999,15.600118639999998,-1.7071952820000003,2.0799984945,-1.6332663299999999
324,1.349946,-23.070602415,9.909330368500001,25.694602950000004,-3.0313979389999997,-0.888890177,5.121689558,-1.6921212669999999,-3.4022051094999997,0.140692472
325,1.3541125,-23.06770325,9.9390573515,25.68782425,-1.3364009855,-0.7822340004999999,12.388769625,-1.2624424975,3.4464915995,0.2846509925
326,1.358279,-23.072617535,9.9013395325,25.691310900000005,-0.444608405,-1.414644063,8.823366404,-2.2998903989999997,-4.51749182,-1.529490471
327,1.3624455,-23.051651,9.8965535185,25.69231415,-2.5151336195000003,-1.046064466,8.1322638985,0.6919879165,-0.7174220099999999,-0.555854559
328,1.366612,-23.068572995,9.894063951,25.68508145,-2.9497130515,-1.5085124374999999,14.40183592,-3.491580009,-0.1250553149999991,-1.029846266
329,1.3707785,-23.058804515,9.9105930335,25.69691845,-2.137270242,-1.6126441959999998,4.8720209595,-0.9230409859999997,1.1336574599999985,1.5715491175
330,1.374945,-23.072900775,9.933558463,25.672607399999997,-1.572712064,-0.28575180450000004,16.633612160000002,-2.8089983165000003,3.509964945,-1.784031749
331,1.3791115,-23.054321289999997,9.9201684015,25.685363750000008,-0.8778517244999999,-0.756388247,4.1690635685,0.21665797399999998,-2.2207540275,0.3939341455
332,1.383278,-23.05112934,9.9758648865,25.657402049999995,-3.2027483880000003,-1.8079330925,16.591101645000002,-0.7546017915000001,7.2756474015000006,-0.7012666315
333,1.3874445,-23.04736233,9.961173536,25.670711550000007,-1.9884486789999998,-0.5873468895,4.532373309,-1.5023646355,-2.3884830475000003,0.464578256
334,1.391611,-23.036506655,10.040706634,25.639610299999994,-2.978163436,-2.1508558989999997,12.32405329,0.1609412429999999,10.0786238925,-0.075722039
335,1.3957775,-23.05262947,10.0462474805,25.65456005,0.8003141585,-0.5266227495,10.4345951105,-3.851293251,-0.2341489750000001,1.6854427455
336,1.399944,-23.04160023,10.065476894,25.6361237,-2.2628193495,-1.219672203,5.8735568525,-0.10765022050000003,2.8032288550000004,-1.4731260835
337,1.4041105,-23.053735735,10.082961560000001,25.6378708,-3.0226858854999996,-1.8772234915000001,16.957954405000002,-3.108839035,1.7007532100000002,0.7801905570000001
338,1.408277,-23.04783249,10.1101956345,25.6339531,-2.3925585744999998,-0.6563735565000001,2.0328133105,-1.031709522,3.0395851150000004,0.409968749
339,1.4124435,-23.058524135,10.174647809,25.607658349999994,-1.5841946605000001,-1.726388782,16.50494337,-2.3797936440000003,8.175574897999999,-0.078296259
340,1.41661,-23.05590248,10.1743955605,25.616798399999993,-0.43089771249999975,-0.114884302,6.971807718500001,-1.60638386,-0.6123530565,0.6710545125
341,1.4207765,-23.053213120000002,10.231266977499999,25.600414299999997,-3.6746261715,-1.3187147380000002,12.822534560000001,-1.0598722105,6.8895121825,0.5385264905
342,1.424943,-23.044757845,10.252061842,25.610088349999998,-1.60657385,-0.8833091855,9.041261909500001,-0.8574174639999999,1.688676832,1.7819056510000002
343,1.4291095,-23.01594162,10.305652141,25.60050965,-2.6402339935,-0.7799929155,8.1436367015,1.8555341365,6.214587685,1.0289752779999999
344,1.433276,-23.003311155,10.338700295999999,25.585563650000005,-0.8219040039999999,-1.5965513885,11.3416252155,0.24309909350000014,4.160558700000001,-0.19085830449999996
345,1.4374425,-22.956907270000002,10.374695303500001,25.591152200000003,-1.397444338,-0.42081672000000003,6.3767917155,3.624735713,3.571516515,1.8438029885
346,1.441609,-22.941731455000003,10.415214540000001,25.571331050000005,-2.6013564765,-1.5929430125000001,14.974307535,0.6163622140000001,5.215976712499999,-0.43597371900000004
347,1.4457755,-22.885281565,10.4282793995,25.596210500000005,-1.7530776859999997,-0.8646204695,2.7471925615000004,4.43832016,0.15479325999999993,2.8889276985
348,1.449942,-22.851275445,10.490149018499999,25.580684650000002,-1.5326079129999999,-1.6972853245,15.362892625,2.7115228475000004,7.3805245164999995,0.9458183945
349,1.4541085,-22.80118179,10.477015017500001,25.5997276,0.10999244450000001,-0.8286892175,6.165736794500001,3.9172240495,-2.4757379295,1.1694564225000001
350,1.458275,-22.740056995,10.4934449185,25.5825386,-3.1469672920000002,-0.892039001,13.334184645,5.9213330745,2.4253559124999997,-1.4333600999999998
351,1.4624415,-22.664367675,10.4966850285,25.591308599999998,-2.1967412235,-0.960551441,7.754573821999999,7.273086071,-0.18759393500000066,0.8656910659999999
352,1.466608,-22.55898571,10.5247054075,25.592887849999997,-1.5555228589999999,-0.6939656734999999,7.9442763329999995,10.7653737055,2.8824958800000005,1.0022019745000001
353,1.4707745,-22.489144324999998,10.521768093999999,25.594486249999996,-0.8627700804999999,-1.693411261,13.239424225,6.757767799,-0.5482797599999998,-0.15620207800000008
354,1.474941,-22.367955205,10.486653807,25.619838700000003,-0.5499336715,-0.06168022750000002,4.180980443999999,12.1738348,-5.1884293575,0.7375174760000001
355,1.4791075,-22.283314705000002,10.4919776915,25.619884499999998,-3.4926167130000003,-1.901620388,17.484581945000002,8.519974471,0.44313335300000034,-0.013697326499999996
356,1.483274,-22.147112845,10.462235927999998,25.661407499999996,-1.0612356665000002,-0.8474578859999999,2.1932935565,13.672163484999999,-5.3099275215,2.817847967
357,1.4874405,-22.019644735,10.4858498555,25.646526299999998,-3.5473346114999997,-0.15973744899999998,15.050745965,13.891985895000001,3.1458319425,-0.9341703954999999
358,1.491607,-21.897382735,10.457668305,25.683017699999994,-0.4171320945,-1.826514363,9.772753715,12.207799435,-4.909271476500001,2.488782048
359,1.4957735,-21.749258994999998,10.466588975,25.676387749999996,-2.2760865690000003,-1.586879611,9.997893810499999,16.128740309999998,1.1412243850000001,-0.757605344
360,1.49994,-21.629741664999997,10.458604812,25.704940799999996,-1.438966669,-0.5577174275,13.593955515000001,12.093061446,-2.321567535,2.648602724
361,1.5041065,-21.480543134999998,10.465519903499999,25.70763395000001,-2.728203952,-2.071139455,2.796889186,16.03257465,0.5154170950000001,0.1430364105
362,1.508273,-21.364159585000003,10.4826746,25.720115649999997,-1.6964403390000002,-1.411708057,16.84531021,12.0182914735,1.2016096140000005,1.9278556705
363,1.5124395,-21.23504448,10.44065571,25.7311897,-0.3470333214999999,-0.27778342349999996,4.135504246,13.528851985,-5.322498083499999,-0.954540193
364,1.516606,-21.100617409999998,10.444083215500001,25.736068700000004,-3.1500227455000003,-2.263310969,14.190100195,14.287265300000001,0.008330941500000022,0.390258566
365,1.5207725,-20.98724079,10.424195769,25.75107955,-1.0288569330000001,-1.3190585975,7.637694596999999,11.628377435,-3.0114345534999996,0.5270065964999999
366,1.524939,-20.86320591,10.4452877035,25.760486650000004,-3.306313634,-1.633592546,8.0453021525,12.850591659500001,1.8180179600000006,1.4875601230000002
367,1.5291055,-20.786757465,10.420897009499999,25.76517105,-0.8098659515,-1.3619864585,15.840071680000001,7.44968462,-3.0794401149999997,-0.7474300269999999
368,1.533272,-20.67864895,10.4064917575,25.78980254999999,-1.635302931,-1.1113266945,5.410930872,10.639438152,-2.8165245045000002,1.747134626
369,1.5374385,-20.59327793,10.422422406999999,25.77547835,-2.4105988369999998,-1.5085690614999998,15.633767605,8.9054892085,2.2359957670000004,-1.1643145085
370,1.541605,-20.493268965,10.407742502000001,25.802383400000004,-2.1295754315,-1.057420969,3.6078333854999998,9.656133651000001,-2.9062626375000002,1.9555833935
371,1.5457715,-20.392688749999998,10.4329695715,25.791809099999995,-1.9404934645,-1.8160954115,12.991890435,10.581957814999999,3.1247192619999997,-0.4528853195
372,1.549938,-20.305578230000002,10.3968706115,25.832637750000004,0.350822389,-0.846563831,8.249244448999999,7.8952946665,-5.896648885499999,2.7680795195
373,1.5541045,-20.20532703,10.384752748499999,25.832771299999997,-2.3080983159999997,-0.8622563485,9.1381554605,10.247284409999999,-1.51589537,-0.9000715910000001
374,1.558271,-20.11959648,10.3714919105,25.860889450000002,-3.4363243580000002,-2.077084124,13.224748134999999,8.0300130845,-2.7897319775000007,2.329231262
375,1.5624375,-20.001291275,10.378343103999999,25.879879000000003,-1.6845175620000001,-1.0179681779999998,5.787592888,11.9714579575,-0.1422796249999987,1.9192242025
376,1.566604,-19.918806075,10.353741647,25.890060399999996,-1.1831752060000003,-0.9530244320000001,15.551255704999999,8.054963110000001,-3.3483037949999996,-0.03676281849999999
377,1.5707705,-19.80093956,10.312717437,25.916881600000004,-1.376209259,-1.702296585,5.5656251910000005,11.7824888215,-5.8525526535,0.8846264035
378,1.574937,-19.70277214,10.318608283500001,25.9147186,-3.116664894,-0.466496676,16.455299855,10.144263268,0.610111952,-0.30334311700000005
379,1.5791035,-19.568125725,10.262441635,25.944187149999998,-1.0625212195,-0.6717607084999999,0.7166409490000001,13.803514005,-7.666931629,0.67587015
380,1.58327,-19.43614769,10.2758326535,25.95246125,-2.0798189039999997,-2.2470992805,17.431548115,13.942354680000001,1.0509520175,1.0934845505
381,1.5874365,-19.292354585,10.2166581155,25.982978799999998,-1.6174290180000002,0.03863358499999997,4.9587368965,14.92933893,-8.045338511999999,0.7704124450000001
382,1.591603,-19.141008375,10.247878551,25.9888458,-3.113566756,-1.840741515,11.731565475,16.249087330000002,3.1581296924999993,1.4888920190000001
383,1.5957695,-18.97240639,10.202877522,26.01895905,-1.1021352225,-0.5328219160000001,10.100003718,17.925104145,-6.414377453,1.33064726
384,1.599936,-18.77130413,10.233554841499998,26.047554049999995,-2.399299234,-0.5453219709999999,5.8172733785,21.73936367,2.2403325999999995,3.9832463264999998
385,1.6041025,-18.569613455,10.219150066000001,26.087108599999993,0.007405579000000051,-1.191459626,13.24131298,21.704233170000002,-3.2900419249999997,3.6429481505
386,1.608269,-18.329143525,10.237325666499999,26.120445249999996,-4.329054117,-0.194563486,8.1099541195,26.36788845,0.6780524250000006,4.0141630175
387,1.6124355,-18.04218674,10.272478106,26.169426,-1.1035645305000001,0.38677190250000004,10.157457354,31.71423149,2.0512225620000004,6.5369508265
388,1.616602,-17.71252251,10.32857275,26.2125359,-2.7711583375,-1.049578816,7.902068376499999,36.86746979,4.698285342,6.5084769730000005
389,1.6207685,-17.349236490000003,10.3473014815,26.274066899999994,0.26828682449999997,0.33322811099999994,9.4086694715,40.58696938,-0.19840049999999998,7.3290126325
390,1.624935,-16.949861525000003,10.3780446075,26.316379549999994,-3.2701531055,-0.5896359084999999,9.977564809,45.275884625,1.8950417045,5.5543041225
391,1.6291015,-16.52061939,10.399420261500001,26.39050675,-1.1163708570000002,-0.5568231644999999,11.895103455,48.195604325000005,-0.21416723749999989,8.797830104500001
392,1.633268,-16.08109713,10.423107147,26.417129499999994,-3.3839325904999997,-0.7270313350000001,9.373866082500001,50.44098282,1.707545161,3.440153122
393,1.6374345,-15.602203845,10.436215876,26.476470950000007,-1.3100914955,-0.547373891,10.4533352845,54.451410295,-0.5456290245000002,6.809216499
394,1.641601,-15.11056757,10.4563651095,26.499519350000007,-2.4676246045,-0.526872188,12.73274565,56.79913521,1.4631233215,2.9716305734999997
395,1.6457675,-14.55326891,10.4677176455,26.561328850000002,-0.08426073199999999,-1.11455667,5.3021161555,63.794658659999996,-0.7021722795,7.0520861145
396,1.649934,-14.016191005,10.4721627245,26.580547300000006,-3.274124503,-1.0152977555,13.315517905,62.32269287,-0.177359641,1.9486863615
397,1.6541005,-13.423546315,10.478895187500001,26.653877249999994,-1.027470976,-0.5945810525,5.1449451445,67.79171753,-1.4127910140000002,8.233729839
398,1.658267,-12.856776714999999,10.485708237499999,26.686557800000003,-1.8294300140000002,-0.8764324785,15.964238645000002,65.59937477,-0.21589779850000035,3.5772470235
399,1.6624335,-12.250636575000001,10.448977470500001,26.772838600000007,-0.8167612855,-1.6192279455,8.1978757385,69.14043045,-6.6621253495,8.638974189999999
400,1.6666,-11.666030885,10.438596248,26.81422045,-3.0777556895,-1.2289441825,10.762297154999999,67.54233551,-2.367795229,4.1358958485
401,1.6707665,-11.062662125,10.426141741,26.892314899999995,-2.376009956,-1.4055935739999998,10.035635231,68.984668735,-3.4256005289999996,8.369564771499999
402,1.674933,-10.46113062,10.4083290115,26.941356650000003,-1.62509352,-0.5415943935,14.98154211,69.41047287,-3.3255298134999998,4.9605896475
403,1.6790995,-9.823669909,10.4107837675,27.018447899999998,-2.4749328495,-1.4789269565,6.6286706925,73.114227295,-1.4586166475,8.6682178975
404,1.683266,-9.196221827999999,10.403427601499999,27.077289549999996,-1.410146594,-0.9007501005,9.815926792499999,72.28993224999999,-2.1684097825,6.3593399525
405,1.6874325,-8.5659189225,10.414199350499999,27.139286049999995,-2.9204989670000003,-0.923673183,10.703468324,72.59566498,0.007334232499999871,7.0769143105
406,1.691599,-7.933061123,10.417897699000001,27.213333150000004,0.15369576250000005,-2.08896178,8.7855598915,72.610282895,-0.9631431699999999,8.356554985499999
407,1.6957655,-7.307064056,10.416471959999999,27.269645699999998,-2.167587787,-1.5671541095000001,8.933955669500001,72.194206235,-1.198411822,6.2431390285
408,1.699932,-6.6552238465,10.441731453,27.346069350000008,-3.0792101625,-0.6648733019999999,6.530708789999999,74.82147216999999,1.7622525709999999,8.9488267895
409,1.7040985,-6.023872614,10.477719782,27.407127399999993,-1.078231126,-1.0683274269999998,14.528948305,72.73552704,3.3501696585000005,7.334671259
410,1.708265,-5.385751486,10.5214562425,27.4750557,-2.9210548405,-1.9866985085,13.96346998,73.36729431,4.2779688835,8.113591194
411,1.7124315,-4.753626108000001,10.584323885,27.53968429999999,-2.617731452,-0.7263438105,9.363211156,72.73014831500001,6.6970398410000005,7.910993814499999
412,1.716598,-4.111948729,10.6250710495,27.609420800000002,-1.2680535910000001,-1.5942483545,9.563516137499999,73.752162935,4.094596267,8.1826217175
413,1.7207645,-3.4442559485000004,10.673323635,27.67523955,-1.605225444,-1.845019877,3.787483335,76.96421051,5.1205319165,7.8077850345
414,1.724931,-2.79780066,10.711709500000001,27.75439070000001,-0.7687739279999999,0.013224095000000019,8.071855426499999,74.09324646,3.9418423584999998,9.103752136
415,1.7290975,-2.166866839,10.77433777,27.808769200000008,-2.927497983,-1.0550077555,18.38856697,72.81066512999999,7.092346191500001,6.402090788000001
416,1.733264,-1.501955688,10.821912285,27.897953,-0.7774692775,-2.4668394329999996,12.792888643000001,76.06895828,5.2158300875000005,10.241214275
417,1.7374305,-0.831206471,10.841769695,27.944343550000006,-2.855480939,0.27693616050000003,8.420113087,77.748031615,2.1280869245,5.1602203845000005
418,1.741597,-0.13003376099999997,10.88788557,28.02833175,-1.1772016920000001,-2.084814131,7.0161509515,80.55325699,5.3067765235,9.505432606
419,1.7457635,0.5825186075,10.862456795,28.07929995,0.530764759,-1.2967250345,3.42409721,82.63643646,-3.1805516485000003,5.6912736895
420,1.74993,1.249104142,10.86728096,28.14485549999999,-3.0857747795,-0.2990933655,14.291401385,76.82466507000001,0.5547544960000002,7.2233037945000005
421,1.7540965,1.922073364,10.869946005,28.190422049999995,-0.8765810725,-1.393802166,15.48376751,78.01505661499999,0.31863641750000005,5.049770832
422,1.758263,2.60151124,10.824939725,28.243156399999997,-2.1099939604999998,-2.5617889170000003,9.8031392075,78.66239548,-5.300703764,5.944756507499999
423,1.7624295,3.2462466955,10.799552915,28.28803635,-0.48827677999999997,-1.6820681695,10.917527200999999,74.65015410999999,-2.923951626,5.077906608499999
424,1.766596,3.915109992,10.723504065,28.311534899999998,-0.871255174,-1.7072733645,7.6195189945,78.03349685500001,-9.082240341,2.9897220730000003
425,1.7707625,4.563677311,10.649370195,28.3683281,-1.8846929075,-1.2367011755,7.1725666525000005,74.86728287,-8.5258036845,6.9761495589999996
426,1.774929,5.1815986635,10.5682797455,28.390033749999994,-1.202871561,-1.3463571669999999,14.883139135,71.96465683,-9.632600308,2.997097373
427,1.7790955,5.78085351,10.475732328,28.421382900000005,-2.872246414,-2.244503856,9.457802056,69.530960085,-10.844640255,4.4145430325
428,1.783262,6.3584694865,10.3783712385,28.457740800000003,0.414013684,-0.8467974659999999,10.7527532565,66.82542801,-11.320244314,5.086584568
429,1.7874285,6.9178991315000005,10.271811011,28.474929800000005,-1.806615591,-2.07554847,9.295950413,65.056507115,-12.610973595499999,3.214509368
430,1.791595,7.443394184000001,10.143227577000001,28.503711700000004,-0.8813261389999999,-2.248833835,6.2154521945,60.743659975,-15.0412577365,4.886586189
431,1.7957615,7.953205108500001,10.0452828385,28.514587400000003,-2.9659144729999998,-0.9733235124999999,16.718707085,59.24877739,-11.617197749999999,2.5690909625000002
432,1.799928,8.401581764500001,9.923225879,28.56201935,-1.0289459824999998,-2.9970353845,8.8819599155,51.116378784999995,-13.866415500999999,7.1971566675
433,1.8040945,8.844295502000001,9.8572568885,28.560459149999993,-3.8531259295,-1.2303708230000001,14.391542910000002,51.481790545,-7.9912893775,0.672906101
434,1.808261,9.267648697,9.708733557999999,28.614418,1.6443632245000002,-1.827832937,4.2315998075,47.978187559999995,-16.7593207375,8.7626247405
435,1.8124275,9.6227798465,9.6457138085,28.60219955,-4.9036664965,-2.4785876275,10.1151795395,41.200580599999995,-7.8385000235,-0.5947570799999999
436,1.816594,9.984461308,9.539387700999999,28.6581993,2.0991737415,-1.882049918,11.970562935,40.54279709,-11.60685301,8.427649975
437,1.8207605,10.278139115,9.481679439499999,28.644165049999998,-6.5198082920000004,-1.496655524,9.4750962255,33.869433405,-7.250349525000001,-0.85583064
438,1.824927,10.57540989,9.3879227635,28.71857835,2.5319790839999996,-1.8758631945,14.54121399,32.466207505,-9.630798814999999,10.44973898
439,1.8290935,10.802229405,9.3310575485,28.69852065,-7.0756064635,-1.588750571,6.054702282,25.95916653,-7.284368515999999,-1.482508488
440,1.83326,11.065627575,9.268978596,28.795398750000004,4.111372769,-2.179666132,10.173159125,27.997320175,-5.296241281,12.40483093
441,1.8374265,11.23917341,9.2237553595,28.773361199999997,-7.061273217,-1.6662828324999999,4.853087904000001,19.581748965,-5.975093602499999,-1.9019092325
442,1.841593,11.43295002,9.1848678585,28.87857435,4.766514838,-0.7890809365,20.447703365000002,19.525727275,-2.2791106700000006,12.82677031
443,1.8457595,11.576105115,9.1504688265,28.85772705,-7.9891712645,-1.9964195789999999,4.9207556245,15.874475480000001,-4.687521294,-1.9005894065
444,1.849926,11.742234705000001,9.133451938499999,28.954010000000004,2.281324506,-1.288823597,10.48211908,16.460035325,0.12259769499999962,11.00352192
445,1.8540925,11.88178015,9.106208801000001,28.9541435,-4.6336746215,-0.4879607485,8.7359905255,15.02144718,-3.3508381855000007,0.43622972050000003
446,1.858259,11.998136044999999,9.072221756000001,29.0384331,2.5858455895,-1.446021557,11.39449358,10.743793486000001,-2.1201109849999993,9.943655491000001
447,1.8624255,12.11608696,9.092845440000001,29.051200899999998,-5.707511127,-1.4116472304999998,16.525984765,12.184484006,2.5914430599999996,0.7791470285
448,1.866592,12.23626709,9.001881122499999,29.1203651,1.6997953649999997,-0.25494677499999996,1.0806088445,11.5061247355,-9.14660263,9.6023597715
449,1.8707585,12.353127955,9.0346093175,29.126792949999995,-3.9302902815000005,-0.7491980865000001,11.912680625,12.1882948855,3.84981489,-0.3254033625
450,1.874925,12.447613715,8.914306164,29.172931649999995,1.9162061209999997,-2.5927867294999998,6.161105215999999,8.8338279715,-13.121872606,7.8402900695
451,1.8790915,12.562967775,8.9744319915,29.212017049999993,-4.655495047,0.4297171234999999,20.020132545,11.423517466,7.905946514,2.685320318
452,1.883258,12.689453125,8.8115820885,29.228675849999995,1.908472538,-0.595489234,-1.008570313,13.198279379999999,-18.83324909,5.701514006
453,1.8874245,12.799657345,8.827876091,29.274051649999997,-5.064716697000001,-1.367027402,11.276725295,10.7456233485,2.955148219999999,4.411669135
454,1.891591,12.920552255,8.673861504000001,29.28401945000001,2.6586323975,-0.451445386,14.55610609,12.58702135,-17.934873552,4.990552187
455,1.8957575,13.029150965,8.685492039,29.327842700000005,-5.7130782605,-0.9659210145000001,9.196703433,10.624186993,2.4008421900000005,4.32989645
456,1.899924,13.166363239999999,8.520608902,29.338958750000003,2.5070520045,-0.792907536,10.145613670500001,14.53490782,-19.140767335,5.500467777
457,1.9040905,13.278342245,8.4582128525,29.37334825,-3.2066617605000003,-1.3138676285000002,5.152777076,11.184239386,-6.491204677500001,5.317182541
458,1.908257,13.39598322,8.306475401,29.367324850000003,-0.7974001095,-0.1877509505,14.58038235,12.540850635,-18.069263454999998,3.059391141
459,1.9124235,13.53226948,8.2491240505,29.398582450000006,-1.4818741455,-1.8747816085000002,9.019355774000001,14.143288134999999,-5.9589678049999995,4.9455080030000005
460,1.91659,13.636774540000001,8.057760476999999,29.3624954,-2.821048543,-0.125309663,7.8327946665,11.4862761475,-23.505489825,0.76665467
461,1.9207565,13.73951626,8.0207152365,29.384220149999997,0.13441491100000014,-0.931416869,14.869765755,10.3093216435,-3.8300268669999995,3.2898098525
462,1.924923,13.85177708,7.8369736675,29.33926389999999,-2.3689710495000003,-1.6136220099999998,9.20655799,12.503071787500001,-22.88099098,-0.32899546600000007
463,1.9290895,13.980208874999999,7.7996029855,29.360713950000005,-1.908603668,-0.6166808455,6.55661273,13.4381904605,-3.8603211935,3.2147475485
464,1.933256,14.087479595000001,7.6432421205,29.318546249999997,-3.2231097220000002,0.7797554135,12.0166192045,11.850802898000001,-19.60327435,-0.6897343395
465,1.9374225,14.200979234999998,7.613722324499999,29.353317249999996,1.782134712,-2.9660919905,10.90564823,11.4094274045,-2.5548346040000003,4.5929661395
466,1.941589,14.323849200000002,7.497409105,29.3266487,-7.0533089635,-0.757645309,8.524741410999999,13.499836445,-14.480156605500001,-0.0670762064999999
467,1.9457555,14.44891596,7.4711589815,29.367675749999997,3.7293828725,0.13077865700000002,12.190383910000001,12.7057395,-1.9668350219999997,5.2563240525
468,1.949922,14.54312801,7.36640358,29.33481595,-7.1858444210000005,-2.1394013765,10.34118891,10.115025043500001,-13.327320095000001,-0.995234728
469,1.9540885,14.6306324,7.36918354,29.367748250000005,2.5809001924999997,-1.0767680015,8.094263077499999,8.373332023,1.1879948375,3.3679194155
470,1.958255,14.70266581,7.3065989015,29.33993145,-6.167292594999999,-0.7243364155,10.0278754245,7.3676662445,-8.274909496,-1.6170970795
471,1.9624215,14.753787514999999,7.290064811500001,29.364711750000005,4.9039332865,-2.264033675,13.474394322999999,4.098789692,-1.3046414855,3.075616181
472,1.966588,14.786183835,7.295563221,29.35152435,-9.8684926055,0.276126802,14.13549137,2.4621429445,0.024046182500000235,-2.2946258185
473,1.9707545,14.846142295,7.2754917145,29.374218,6.178721905,-0.819208648,8.080299377500001,5.1732054949999995,-1.7802214625000001,2.9812927245
474,1.974921,14.866939545,7.2624676225,29.3646126,-7.5603995325,-1.2770917415,5.324067891,1.000652194,-2.0310489535,-1.3033610915
475,1.9790875,14.87691212,7.246279955,29.375843050000007,4.6784284115000005,-0.713223487,12.839604375,-0.6061671375000001,-1.672436237,1.4402692915
476,1.983254,14.90389824,7.2617208955,29.382415749999993,-6.806169749,-0.764461681,11.61381674,1.477461219,1.7687081100000002,-0.24644094699999997
477,1.9874205,14.910173415,7.229763269499999,29.382846849999993,1.6750109195000003,-0.9631183745,8.4123210905,-0.896677539,-3.838292897,0.6954008525
478,1.991587,14.906105995,7.281011342999999,29.4055252,-5.1853808165,-0.7694419325,11.2230186465,-2.4527168274999998,6.4438116555,0.48982748400000004
479,1.9957535,14.914348125,7.233391762,29.4048309,3.1777187585,-1.3157894015,7.5385112759999995,-0.6767859455000003,-5.7009547629999995,1.1044857314999998
480,1.99992,14.918618200000001,7.2661445140000005,29.4226303,-5.029455185,-0.21268016100000003,6.6682088375,-1.3704319595,4.1356680395000005,0.4508233365
481,2.0040865,14.900229455,7.2372391225,29.410324099999997,-0.1372847275,-1.014336258,13.38198328,-3.6700137555000003,-3.875984192,-0.8351264895
482,2.008253,14.880201815,7.2665495875,29.438907649999997,-1.419507742,-1.379328221,12.583425045,-4.482657254,4.061963201,1.879674971
483,2.0124195,14.861679075000001,7.220821857500001,29.411193850000004,-2.1768370865,-0.21381777550000003,5.936719179,-3.4275821444999997,-6.300111296,-2.1667981144999997
484,2.016586,14.842261794999999,7.224896669,29.44023895000001,1.5318397284999998,-1.1193825005,12.65301323,-4.4374616145,1.2339599135,3.003870964
485,2.0207525,14.811596869999999,7.154227018,29.403518650000002,-3.673520684,-1.0974054930000001,10.2656140335,-4.7983537915,-9.4750144475,-2.351579368
486,2.024919,14.78163147,7.142549515000001,29.430080450000005,-0.019043222,-0.07904615999999998,8.7918491345,-5.599439025,-0.7354938980000001,2.8849827645
487,2.0290855,14.732999325,7.073666334,29.39027405000001,-3.3837087155,-0.9424254745,11.695405485,-6.8937518595,-9.3543581965,-2.796293378
488,2.033252,14.70349884,7.0254154205,29.41748045,3.2443920375,-1.379769176,10.1928696645,-5.604728818,-4.9256694915,4.3276536465
489,2.0374185,14.65902853,6.968217373,29.36791995,-7.530732155,0.40836738050000004,10.631152154999999,-6.236632109,-8.2844519605,-4.336593389500001
490,2.041585,14.631435395,6.90523386,29.405113250000007,4.365802646,-1.1718415615,12.250727655,-5.498940706,-6.335181474500001,5.909319162499999
491,2.0457515,14.595002175000001,6.836206436,29.35369875,-5.960760355,-0.40837049449999996,10.131692888,-5.295743704,-9.7151998295,-4.113928437
492,2.049918,14.565225600000002,6.759492397,29.375042000000008,3.1301010249999996,-0.426417321,6.546204686,-5.5049605370000005,-8.4284029,4.3940072059999995
493,2.0540845,14.523036955,6.6927828785,29.328720100000005,-6.371828556,-1.79809916,9.992624761,-6.0398509505,-9.285905599,-3.6867341995
494,2.058251,14.494071005,6.610645293999999,29.352752699999996,4.6582791805,0.119025804,11.604233743,-5.4682815075,-8.9834792615,4.9471597670000005
495,2.0624175,14.443181039999999,6.57943964,29.290046700000005,-8.831466675000001,-0.579602003,12.920494075,-6.8689825535,-5.639665842,-6.637378454
496,2.066584,14.413573265,6.492710829,29.330997450000005,3.6038817165,-1.1046895385,10.39752388,-5.752023100500001,-9.021782875,6.982338905500001
497,2.0707505,14.357279305,6.4920833115,29.281654350000004,-6.7560794355,-0.41424408900000004,11.062771319,-7.7074913975,-1.6745821235,-5.997766256
498,2.074917,14.327855110000002,6.409349203,29.3103714,5.378470420499999,-1.0116339024999998,5.764514685,-5.5852495435,-8.9289323075,5.5174605845
499,2.0790835,14.296053885,6.400202513,29.279106150000004,-7.9773190025,-1.233011931,9.63547373,-5.0092868805,-2.1287417415,-3.6928299664999997
500,2.08325,14.242784499999999,6.3257856365,29.308498350000008,3.652279258,0.4948568790000001,14.53656006,-8.431977987,-7.943244933999999,5.3113429545
501,2.0874165,14.210188389999999,6.356767416,29.273063649999997,-7.960830927,-0.774794221,11.1853122725,-5.052766442,2.4285880925,-5.3326792715
502,2.091583,14.193244459999999,6.2637703415,29.3052025,5.1602845195,-1.4264496265,8.037427187,-4.1100605725,-10.071826813000001,6.077054738999999
503,2.0957495,14.12366915,6.299242258,29.270050050000002,-7.5298407075,-0.38466808199999997,12.320913789999999,-9.4961457255,2.9596098525,-5.4440758225
504,2.099916,14.081597325,6.2393355370000005,29.30143355,3.567638278,-0.7074068485,8.022819757499999,-7.089457035,-6.215717553999999,5.051665068
505,2.1040825,14.02312517,6.2620334625,29.274383550000003,-5.3619755505,-1.7623285055000002,8.6564233305,-8.2834134105,1.711120486,-4.1069351435
506,2.108249,13.956151485,6.172644854,29.297435799999995,3.743082404,-0.19848752050000001,11.479068756,-9.9803080535,-9.9405421045,4.861275673
507,2.1124155,13.87218523,6.2309052945,29.275043499999995,-8.4284734725,-0.7144048795,12.549043655,-11.378012179999999,6.0082424285,-4.623421788
508,2.116582,13.797226905,6.1444017885,29.308696750000003,2.6855683925,-1.3440276684999999,8.769836426000001,-11.0557718275,-9.3037571885,5.9695010185
509,2.1207485,13.695890904999999,6.197702408,29.293945299999997,-4.0947495105,-0.44090272500000005,11.809036729999999,-13.582129479999999,5.652717709499999,-3.524506569
510,2.124915,13.609069345,6.124733448000001,29.311717950000002,2.10048455,-0.8885332045000001,8.198797703,-12.2840638135,-8.202434777,3.723849058
511,2.1290815,13.520330905,6.171959877,29.311355600000006,-5.1898276805,-0.623329848,9.3826150895,-12.23948288,5.358011961,-1.7089946864999999
512,2.133248,13.407908915,6.1007249355,29.329307549999996,0.16514617200000004,-0.09653234449999998,14.13950157,-15.354341980000001,-7.987941742,3.733198762
513,2.1374145,13.294610975,6.18270278,29.33041765,-4.1867587565,-1.3579522965000002,11.506474494999999,-15.195684905,9.4719920175,-2.4651337564999998
514,2.141581,13.192955495,6.083954095999999,29.347461700000004,1.572845131,-0.9734121265000001,5.6035034655,-14.05978537,-11.2683725355,4.3069577814999995
515,2.1457475,13.05668211,6.159525156,29.349136350000002,-2.763195217,-0.43299809100000003,11.3362574575,-17.974181175,8.7388629925,-2.1535302325
516,2.149914,12.931193355,6.1056201455,29.361763000000003,-0.906195164,-0.6950282455,9.258100985,-16.850840570000003,-6.1307688345,2.596989691
517,2.1540805,12.821907995,6.18020916,29.379940050000002,-4.1757730245,-0.999941468,9.322790622500001,-14.92904377,9.070464372,-0.227358222
518,2.158247,12.700013160000001,6.145846367000001,29.387798299999993,-0.3162843585,1.2601521905,13.55356884,-16.36487532,-4.0011620225,1.4794725475
519,2.1624135,12.596311095,6.2641570565,29.399898550000003,-3.658794999,-0.766014889,10.816383361,-14.182670115,14.038423065,-2.008777559
520,2.16658,12.515557765,6.232909917500001,29.412761699999997,0.6179374155,-0.812694013,5.739929199500001,-11.495464799499999,-3.5221883060000003,1.9362251759999998
521,2.1707465,12.42593479,6.3592402935,29.414585100000004,-3.1169424059999997,0.1618646385,12.14813566,-12.36553192,14.710976599999999,-3.3639827374999998
522,2.174913,12.354809764999999,6.375832796,29.42533875,-1.53261134,0.4939296615,12.938924790000002,-10.295207979,2.038733423,0.44338887949999994
523,2.1790795,12.30654335,6.4971320630000005,29.42412185,-3.7836757895,-1.3956067859999999,8.4813365925,-7.3491232395,14.053561210000002,-3.5746335984999997
524,2.183246,12.260410785,6.5017344955,29.427890800000007,0.9092096095,0.957264379,7.675010922,-7.2148776055,0.4399822954999999,-0.060225486500000036
525,2.1874125,12.2151227,6.62806654,29.419208499999996,-2.0758049485,-0.7873879675,10.788396835,-6.891511798,14.46487522,-4.514791846
526,2.191579,12.20037317,6.6299753185,29.439353949999997,0.49523159850000004,-0.903802961,7.0260715485,-3.682021022,0.5264044999999999,1.8822048904999997
527,2.1957455,12.172779085,6.745396137,29.41300965,-5.1678102015,0.3703614475,13.53291464,-4.514086485,12.742455960000001,-6.2947244645
528,2.199912,12.15020561,6.7888662815,29.44911955,-0.26542633800000004,-0.248497643,11.60349226,-4.830806851,5.814022303,2.6974226234999996
529,2.2040785,12.14983225,6.8914687635,29.41949079999999,-3.305737853,-0.9689709395,7.2100038525,-1.1870150715,11.156729462,-6.377099633
530,2.208245,12.150105,6.9204583164999995,29.460529299999997,2.1502590555,0.4938487705,10.75511694,-2.18992728,4.2281612455,3.673529416
531,2.2124115,12.156322955,7.026961565,29.411247250000002,-4.2588608265,-0.26970148099999997,14.564128400000001,-0.10702276249999998,11.12195873,-8.7379901425
532,2.216578,12.198558805000001,7.058171272,29.471401199999995,0.1110786915,-0.6168089590000001,8.373780250500001,2.5748710040000002,4.979266644,5.8069655895
533,2.2207445,12.21158266,7.147718191499999,29.403152449999993,-4.372335434,0.545831246,11.718316076,0.9976934194999998,8.6424756035,-10.515376567499999
534,2.224911,12.25117779,7.2000393865,29.47126769999999,0.5358095695,-1.4103685615,7.903285265000001,2.1497262715,7.6763441545,6.174491644
535,2.2290775,12.277796745,7.2275280955,29.39574435,-0.9536675815,-0.3717020750000001,7.576001167499999,2.7328344585,1.155349255,-9.7841138845
536,2.233244,12.308114530000001,7.2561101914999995,29.454006200000002,-0.43803887099999994,-0.7222263369999999,12.04810238,1.1679323165000002,4.652172804,5.6689298155
537,2.2374105,12.3286376,7.2891044615,29.380302450000002,-3.2796627285,0.039558662999999994,10.2930927265,1.991571069,1.8346389534999998,-9.749432565
538,2.241577,12.34482622,7.2891571525,29.4197197,-1.7717783974999999,-1.6926261484999998,11.028708457,-0.22076255100000008,0.8558549135,4.220662653
539,2.2457435,12.34186602,7.3173058035,29.361011500000004,-0.4770611524999999,0.40494191650000005,11.18839836,-1.0722246615,1.6296929119999999,-7.8572568885
540,2.24991,12.357640745000001,7.306413412,29.36606214999999,-1.5908920465,-1.6581134794999999,7.1456105705,0.25684064649999994,-1.302650273,0.4991250039999999
541,2.2540765,12.351207255,7.3137786385,29.335887899999996,0.20268046849999988,0.32119137799999997,13.168685435,-1.938011587,-0.0846359729999997,-3.9841150345
542,2.258243,12.34121513,7.3179171085,29.3213577,-5.1299735305,-0.7480429415,12.22825241,-2.5214012864999997,-0.027439594000000067,-2.1639354825
543,2.2624095,12.332419394999999,7.333747387,29.314456899999996,0.12177681899999993,-0.5731726285,9.6693687435,-2.5581193564999998,1.503632396,-1.516087592
544,2.266576,12.31590271,7.326891422,29.285663650000004,-2.4079937635,-0.410737425,11.48160219,-3.099258423,-1.6805175545,-3.495171966
545,2.2707425,12.31088018,7.331764221,29.292690299999997,0.28095811650000013,-1.0872636285,5.6861968045,-2.316954911,0.5729136505,0.3760874270000001
546,2.274909,12.27838564,7.2984640595,29.239665949999996,-2.676916152,-0.687925734,9.193671465000001,-4.6540427205,-5.4040277005,-5.657083988
547,2.2790755,12.243579865000001,7.317965031,29.25333405,-1.289823517,-0.6246084425,12.780124185,-5.960253239,2.4719469395,0.7644695939999999
548,2.283242,12.213078020000001,7.281582832,29.208225250000005,-2.379980743,-0.018335253000000024,8.337343931500001,-4.554980278,-5.567536354,-4.648523569
549,2.2874085,12.17312336,7.287259817,29.208396899999997,-1.205057027,-0.8947335479999999,12.141720295,-6.3784191605,0.5156598090000002,-0.40130470500000004
550,2.291575,12.107085225,7.286114931,29.1730576,-1.9268695115,-0.4673290475,12.660669325,-8.9696955665,-1.191593617,-4.417341471
551,2.2957415,12.064143654999999,7.2687859535,29.181796999999996,-1.5611188115,-0.621421993,6.379953861,-6.8441245555000005,-1.968677759,1.11232394
552,2.299908,11.98057747,7.266781807,29.15221025000001,-1.54926987,-0.6833517255,11.92945099,-11.16292906,-1.1414922330000001,-3.7225557565000003
553,2.3040745,11.908780095000001,7.2582159045,29.14764785,-0.8854342104999999,-0.851525545,11.308962345000001,-10.107122185,-1.2670722005,-0.6226372419999999
554,2.308241,11.841940404999999,7.233688593,29.133922549999994,-1.7937253714999999,-0.4013545065,7.2460250855,-9.3894109735,-3.4029792545,-1.3845392465000002
555,2.3124075,11.74454403,7.2133705615,29.114410399999997,-2.0159872174999998,-0.685180396,12.413759231,-12.96129179,-3.0156155825,-2.0707317595
556,2.316574,11.658967969999999,7.2360606195,29.10318755,-3.825914502,-0.4672787785,11.182979585,-11.654875279999999,2.2343875165,-2.21447891
557,2.3207405,11.575514795,7.2134051325,29.095729799999994,0.144079931,-0.18044056000000003,5.897958516999999,-11.472744465,-3.0050240754999997,-0.6374871135
558,2.324907,11.474770545,7.23502636,29.064773600000002,-2.2454957364999997,-0.203909069,12.406526085,-13.20439863,1.6497048140000001,-4.376949072
559,2.3290735,11.38295269,7.2559788229999995,29.065490749999995,-0.1947516575,-0.5519822835,11.01540947,-12.598784925,2.316935778,-0.7282895625
560,2.33324,11.30164242,7.258426428,29.031078300000004,-3.5540833469999997,0.426281821,10.66410446,-10.7949543,-0.6812042589999999,-4.418738127
561,2.3374065,11.216623304999999,7.29131937,29.040882100000005,-1.4271270635,-0.525950521,12.501320360000001,-11.91126108,3.940891266,0.069702737
562,2.341573,11.15445089,7.3162062165,29.000297550000006,-3.1444150210000004,0.0566083785,8.289019345,-8.397858618499999,1.8348697125,-5.633275509
563,2.3457395,11.111989975,7.320165634,29.010257699999997,0.6808589700000001,-0.8267015295,5.0403940679999995,-6.8113894465,0.5368548635000001,0.7839366195
564,2.349906,11.05282402,7.336778879,28.982898700000007,-1.457852632,0.640348703,12.370603561500001,-8.262038944,1.14306736,-3.9275461435
565,2.3540725,11.00984716,7.369944811,28.981998400000002,-2.2165038885,-0.06074339150000008,11.54042244,-6.678758621,3.739217937,-1.1930150985
566,2.358239,10.975768089999999,7.3912980555,28.984581,-2.5395828485000003,-0.7354756739999999,11.352411270000001,-5.68364501,2.381541371,-0.624314964
567,2.3624055,10.943526745,7.4179577825,28.964557650000003,-1.3065516355,0.361936733,12.586322305,-5.1082599165,2.5360205094999997,-3.2365380525000003
568,2.366572,10.9390502,7.4640989305000005,28.96226500000001,-2.495552361,-0.468881488,7.971419811500001,-2.0516934095000003,5.203929186,-1.711914718
569,2.3707385,10.943510535,7.4680387975,28.949123399999998,0.6654486505,-0.008425324999999984,5.90522933,-0.8206929115,0.00433528400000005,-1.9222843644999998
570,2.374905,10.928905965,7.50048995,28.933460250000003,-3.045896053,0.133925289,13.539525035,-3.059543759,3.2850899699999996,-2.9681906700000003
571,2.3790715,10.91894388,7.537277222,28.932880400000002,-0.8669294415,-0.6886651515,12.309906479999999,-2.7226649525,4.1691008805,-1.2263709975000001
572,2.383238,10.92620802,7.5389158725,28.9204941,-2.391955793,-0.4772602915,9.367353202,-0.48216879349999986,-0.2745909095,-1.895914495
573,2.3874045,10.935695169999999,7.5428569315,28.917263050000003,-0.6045512555,-0.1780013815,9.354685783499999,-0.3601938485,0.23891043650000032,-0.7394126055000001
574,2.391571,10.948571205,7.560337305000001,28.90779115000001,-2.3895443675,-0.2885532285,8.712700127,0.14208856649999999,1.659098208,-1.8964396715
575,2.3957375,10.965345385,7.5526485445,28.911758400000004,-1.1498370470000001,-0.7269219755,8.021365879,0.41990059599999996,-0.968736887,0.316828966
576,2.399904,10.94132137,7.58106184,28.910076150000002,-1.882877171,-0.013234555500000023,14.26278067,-4.419275373,3.1309049125,-1.1769037765
577,2.4040705,10.938774105,7.5934941765,28.89567565,-1.336280882,-0.40292376249999995,13.450411795,-1.6104374525,0.9918856695,-2.2628385425
578,2.408237,10.951272485,7.602399826,28.90654755,-1.754979432,-0.8733977675,6.7289295195,-0.22793459899999968,1.1133483199999998,0.7151174695
579,2.4124035,10.944699285,7.593922138,28.873599999999996,-1.8398545385,-0.0790270715,9.525798561,-1.8129820975000002,-1.9020555615,-3.9431194065
580,2.41657,10.93844795,7.626409531,28.878578199999993,-3.0994013545000003,-0.132691473,10.994425295,-2.3584308025,3.783325076,-0.48268109550000005
581,2.4207365,10.92642832,7.616605997,28.870494850000007,0.6695326865000001,-1.0128690599999999,6.4675524235,-2.866386771,-1.5060787055,-1.0198692679999999
582,2.424903,10.893677235,7.623687267,28.857254000000005,-2.05270952,-0.0697219965,11.6558542255,-5.2643272880000005,0.3688513040000001,-2.018363476
583,2.4290695,10.854072095,7.6509730815,28.863666550000005,-1.5634747745,-1.397728905,11.450572015,-6.387806654,3.1992566585,-0.186157867
584,2.433236,10.826588155,7.653798103,28.858581550000004,-2.4348354934999996,-0.1395415515,8.147691727,-4.7495965955,0.0447418690000001,-1.0252611335
585,2.4374025,10.784336565,7.6711616515,28.85300065,-2.0525015595,0.1799236385,10.7522826175,-6.518489837500001,1.7624704835000002,-1.3284438255
586,2.441569,10.73552513,7.7090046405,28.86011504999999,-0.8495648055,-0.6665976645,11.84425783,-7.506175280000001,4.429175429,-0.4145151675
587,2.4457355,10.690383915,7.715734243,28.8504791,-1.636609927,-0.3884162155,7.8332166675,-6.790743828,0.41987508549999997,-1.594396591
588,2.449902,10.62450409,7.7575626375,28.856941250000006,-2.1972666975,-0.0060946344999999735,11.937839985,-9.533747196,4.886632681,-0.6020113975
589,2.4540685,10.57433081,7.7846345905000005,28.848838799999996,-1.4910628795,-0.8963512180000001,10.570250032,-7.416243553,2.858151555,-1.8452624085
590,2.458235,10.54459572,7.7964622975,28.86003875,-1.535226822,-0.23617097750000005,6.2298817635,-5.2743035554999995,1.449432582,0.6308657825
591,2.4624015,10.49138546,7.8105518815,28.8576317,-1.0854489804999998,0.513048019,10.816768170500001,-7.888378025500001,1.444482565,-0.8631998000000001
592,2.466568,10.434359555,7.846378088,28.866672499999993,-2.389265597,-0.6685421764999999,12.78824997,-8.499981642,4.237695694,-0.16182431600000002
593,2.4707345,10.403722285,7.8614242075,28.885875699999993,-1.6377868655,-0.4749740805,6.1250035765,-5.5093278885,2.024837613,1.577273488
594,2.474901,10.3661847095,7.8816139695,28.879997250000002,-1.2749281975,0.7581713275,9.824635982499998,-5.933461189,2.0663583875000002,-1.524034321
595,2.4790675,10.3504824625,7.916424750999999,28.888237000000004,-1.9556602239999998,-0.3167145365,11.38764143,-3.5451896190000003,4.1277980805,-0.07058641299999996
596,2.483234,10.341965676000001,7.946702242000001,28.9024887,-1.1415975095,0.137922078,10.312573435000001,-2.781104088,3.6831220384999996,0.5930144115
597,2.4874005,10.321564672000001,7.975657701499999,28.896171599999995,-3.1388578415,0.08711767199999998,12.45569992,-3.864970565,3.1230413915,-1.6641697285
598,2.491567,10.338551523,8.033104419499999,28.919914249999998,-1.70821321,-0.8404624315,7.851353404999999,0.13526189350000006,7.120693684000001,1.1803233175
599,2.4957335,10.366341115,8.037969589500001,28.92365265,0.3599885625,0.35275906299999993,4.9998509885,1.735364467,0.48220711949999995,0.04019516700000003
600,2.4999,10.380793092000001,8.066202402,28.93595885,-1.697337866,-0.13511103400000007,13.628369335,0.01213455200000002,3.4065841734999998,0.42746312000000003
601,2.5040665,10.40218258,8.1046595575,28.948230749999993,-2.2279562950000003,-0.7591409535,11.102024555,0.8468001485000001,4.639365584,0.274725467
602,2.508233,10.4324193,8.1049489975,28.965374000000004,-1.21082747,0.15141747849999998,7.941484213000001,1.8344787955,0.20868560699999994,1.553823531
603,2.5123995,10.45762539,8.1251180175,28.97195434999999,-1.9777447879999999,-0.1813357175,11.45351887,1.396020532,2.359250188,0.037889853
604,2.516566,10.490684510000001,8.1379227635,28.99075700000001,-0.404808182,-0.726483166,9.318866253,2.1416703464999998,1.7274881005,1.4995470045000001
605,2.5207325,10.51148081,8.1252186295,28.980766299999992,-1.0080579,0.24498195650000001,11.554913045,1.1484975215000002,-1.8767868505,-1.1780498625
606,2.524899,10.55697536,8.128847122,28.99583055,-2.4533723595,-0.7828743455,8.5267632,3.704266906,0.5708453654999999,1.2608864309999999
607,2.5290655,10.590504645,8.107827187,28.9767189,-1.197421163,0.15408713349999997,8.128699541,2.8257367465,-3.063769817,-2.061395228
608,2.533232,10.617249965,8.0977385045,28.986267050000002,-1.7457305195,-0.086210862,15.004633899999998,1.5614247319999999,-1.1647239325,0.9177003204999999
609,2.5373985,10.644038675000001,8.064115763,28.9836197,-0.8440066875,-1.0382542015,7.760116577,1.7410061359999998,-4.19274354,0.12378722400000003
610,2.541565,10.65695,8.019412040999999,28.982223549999993,-1.330257207,-0.7565227745,8.9641976375,0.056690693000000014,-5.4768617155,0.5108759700000001
611,2.5457315,10.682986735,7.990293264,28.97713855,-1.752948642,-0.12194858500000003,9.312051059,1.7122793345,-3.707475185,-0.28029662549999995
612,2.549898,10.6855855,7.9296777249999995,28.981414799999996,-1.1631029845,-0.270379126,13.32578707,-1.270446941,-7.223074197499999,1.544256866
613,2.5540645,10.69694328,7.8878126145,28.97443005000001,-1.6183676120000001,-0.304829128,12.386714935,-0.03440654250000019,-5.257910967000001,-0.18168821949999997
614,2.558231,10.72129631,7.828275442499999,28.964740750000004,-2.029078126,-0.55761303,6.411643982,1.5761595220000002,-7.4011833665,-0.11538577050000004
615,2.5623975,10.72400904,7.785697460000001,28.96964645,-0.9195096565,-0.6556772289999999,12.0154790855,-1.268551439,-5.0773816855,1.252753854
616,2.566564,10.72278881,7.7223882674999995,28.95222475,-2.048172593,0.258706048,9.2800593375,-1.359680675,-8.01876807,-0.9677571955
617,2.5707305,10.69617748,7.662338495,28.954139699999992,-1.2461284995,-1.439221561,10.67511463,-4.7268769745,-7.199380397500001,1.267097771
618,2.574897,10.682584285,7.6026546955,28.930824249999993,-1.2719933985,-0.6002646835000001,8.4233570095,-2.7668367700000003,-7.7180047035,-1.6773865815
619,2.5790635,10.657185555,7.5154845715,28.929202999999994,-1.1539782285,-0.384362228,8.316876173,-4.5210665465,-10.4760952,1.4611769915
620,2.58323,10.58980608,7.4737105370000005,28.915378600000004,-1.8992316725,-1.266719818,13.703455445,-9.392611979,-5.4037843940000005,-0.959848677
621,2.5873965,10.520604135,7.4260549545,28.906353000000003,-3.15275687,-0.383136351,10.45949173,-9.6390857685,-5.9741367395,-0.34593948750000003
622,2.591563,10.43614817,7.3805720805,28.905345950000005,-1.0168344675,-0.0959467665,10.213933945,-11.62514925,-5.559980035000001,0.5840045805
623,2.5957295,10.360285281,7.345386267,28.897159549999998,-1.9309546945,-0.687278658,8.289265871,-10.472150324000001,-4.4970278740000005,-0.5026666075
624,2.599896,10.2894425405,7.3084869385,28.891372699999998,-1.1924342515,-0.1163596515,7.758645534499999,-9.905755997,-4.6675801275,-0.262814887
625,2.6040625,10.183679579,7.3023672105,28.900135050000003,-2.0259357094999997,0.05071055899999999,15.35893059,-14.32207394,-0.7009527680000003,0.8806430995000001
626,2.608229,10.089818954,7.292677641,28.901615150000005,-2.45829165,-0.391204655,10.686832906,-12.780313490000001,-1.2845603225,0.06369620549999999
627,2.6123955,10.0065913205,7.286270857,28.9095497,-2.663891554,-0.2234443795,6.679053545,-11.590430260000002,-0.752610341,0.765551891
628,2.616562,9.919403552,7.2900002,28.9173927,-0.5096552670000001,0.25180640800000004,9.029521703,-12.09035635,0.43856120099999973,0.617277533
629,2.6207285,9.8382372865,7.279814482000001,28.921920749999998,-1.5682958070000002,-0.08939337349999998,8.247096300499999,-11.28925657,-1.276248336,0.427860223
630,2.624895,9.735374452,7.286819458,28.9289894,-1.0934760275,-0.30993884799999993,12.597803115,-13.95119381,0.7843658925000001,0.35519913599999997
631,2.6290615,9.641498566500001,7.3078114985,28.924881,-2.418424189,-0.398081422,11.9555912,-12.67778063,2.240042001,-1.2149600235
632,2.633228,9.570213794499999,7.2932977675,28.932491300000002,-2.1266617175,0.06215673700000002,6.591734171000001,-10.148143770499999,-1.754351497,0.7869590524999999
633,2.6373945,9.470603466,7.30807209,28.922504400000008,-1.058065858,0.06559601450000002,11.2996897685,-13.287899016,1.3852118255,-1.7395526769999998
634,2.641561,9.385077953,7.308027029,28.91836165000001,-1.492431343,-0.097256392,12.814293385,-11.6523118,-0.29677295699999995,-1.0323560535
635,2.6457275,9.318449497500001,7.2880506515,28.904983499999993,-0.7887595000000001,0.7219874115,8.379221201,-9.274480341,-2.7915804384999996,-1.4820142385000001
636,2.649894,9.2561345105,7.2655711175,28.889358499999993,-1.3873686790000002,-0.22327593,10.3085813525,-8.7244391445,-3.1651451589999997,-1.8190974595
637,2.6540605,9.2168221475,7.256760597,28.860286699999996,-2.606456399,0.46767610299999995,10.2166457155,-5.7437877655000005,-1.759019211,-3.552694678
638,2.658227,9.1720051765,7.2123916144999995,28.86166,-0.9913538099999999,0.345692381,8.553493023,-6.858763218,-5.4363785985,0.5057915595
639,2.6623935,9.115691185,7.191552162000001,28.817798650000007,-1.9385648965,-0.24736602600000002,11.450933935,-7.576435089,-3.4670919180000004,-5.050410032
640,2.66656,9.1014289855,7.168213129,28.8121376,-2.0823619365,0.09760701650000003,8.4913716315,-3.1102979184999997,-3.032815099,-0.47240967300000003
641,2.6707265,9.0792832375,7.137667656,28.784275099999995,-1.10672605,0.6727104184999999,9.671462535,-3.7257826925,-4.3167931435,-2.9799093005
642,2.674893,9.050780773,7.119320154,28.774036400000007,-1.8419671055,0.029182494000000003,13.61212778,-4.755897522,-2.5370769799999997,-1.1220572295
643,2.6790595,9.049098015,7.130613327000001,28.74766925,-2.052821517,-0.406797657,6.8717319965,-1.2742635015000001,0.681870282,-3.6270396705000003
644,2.683226,9.0748910905,7.109319687,28.753425600000007,-1.0441675485,0.422061458,5.9158053395,1.5173232555,-2.5957979265,0.7848522965
645,2.6873925,9.084841728,7.120818853499999,28.7154083,-2.8323168755,1.213188142,14.6149621,0.29017686850000013,0.48269414899999996,-4.975001812
646,2.691559,9.1042752265,7.1483156685,28.73764035,-1.578141868,-0.33527441300000005,13.574678425,0.529503867,3.5076901915,1.798349917
647,2.6957255,9.1486387255,7.155523777,28.70617289999999,-1.4470920265,0.08993911700000001,5.3573014735,4.313271552,0.08268916599999998,-4.141963243499999
648,2.699892,9.214690685,7.1720790865,28.710899350000005,-1.3007077575000001,0.2764420955,6.790953159500001,6.381005763999999,1.8848876055000001,-0.027913094000000027
649,2.7040585,9.259022712499998,7.204928875,28.694309250000003,-1.0660042765,0.391745329,14.32279825,4.0886086225,3.398727536,-2.868179798
650,2.708225,9.3179969785,7.236595869,28.697181699999994,-2.9923008685,-0.01672184449999997,11.8769011485,5.5943409205,3.600374967,-0.7929142585000001
651,2.7123915,9.407389164,7.2692070005,28.677330049999995,-2.2890850305,0.2435408235,4.858674526,9.561551569999999,3.306401193,-3.272334099
652,2.716558,9.492333412,7.2833404545,28.694053650000008,0.6709287315,0.2412367535,8.7481169725,8.4953589445,1.790915489,1.18417196
653,2.7207245,9.556981563499999,7.306262016,28.67487719999999,-1.6090353135,-0.06723433749999999,13.351472855,6.57056427,2.1555276515,-3.0027956364999997
654,2.724891,9.6482825255,7.3348140715,28.685012799999996,-2.25253579,-0.751456618,8.206221819,9.3750417255,3.3724218009999998,0.07620883
655,2.7290575,9.7362346625,7.3388535975,28.685188299999993,-1.403144449,0.8717059195,9.0224843035,9.069142103,0.2998594640000001,-0.3497175575
656,2.733224,9.810949327500001,7.368351221,28.682033550000007,-2.4493115545,-0.185094714,12.7827754,7.589946987499999,3.218723655,-1.5014233065
657,2.7373905,9.900745866000001,7.402840853000001,28.6930962,-1.137020167,-0.10211575049999999,8.043176651,9.1402742875,4.1278111934999995,0.278343514
658,2.741557,9.989616872,7.3927710055,28.684242250000004,-0.493902847,-0.14192128199999998,8.304022789000001,9.3617980495,-1.5946717264999999,-1.365891874
659,2.7457235,10.0707774145,7.415577172999999,28.6913414,-2.31952858,0.204309456,12.469373704999999,8.157954931999999,2.665174067,0.06422129250000003
660,2.74989,10.1417956355,7.4389545915,28.682395899999996,-2.6897076964999997,-0.22462552800000002,11.47312975,7.2195141315,2.4050809145,-1.876121342
661,2.7540565,10.209615232,7.4236497880000005,28.690387700000002,-0.24486309300000003,-0.4452487675,7.1326403615,6.545999288499999,-1.8186747435,0.9618401565000001
662,2.758223,10.264022826000001,7.4184689520000004,28.66595075,-1.3588584065,0.0069790180000000035,8.9537644375,5.4557933805,-1.3096879719999999,-3.086681724
663,2.7623895,10.314259053499999,7.4163615704999994,28.680645000000005,-0.751136392,-0.48768740899999996,10.656261922,4.337873459,-0.11357992900000002,1.4646348655
664,2.766556,10.349320409,7.376119852,28.649776449999997,-2.105027944,-0.13341115399999998,10.27293301,3.2336308955,-5.5980172155000005,-3.1132311825
665,2.7707225,10.369737626500001,7.368788719,28.656410199999996,-2.4784250855,-0.336646028,10.8182702085,0.8919836579999999,-0.8951918480000001,0.6410986780000001
666,2.774889,10.397058963500001,7.364948511,28.63205719999999,-1.4144971965,0.071981244,10.018362999,2.2080879810000003,-1.1591466069999998,-3.1172013279999997
667,2.7790555,10.42127848,7.3278894425,28.638496400000008,-0.6792141795,-0.0937665925,8.2143993375,1.353046566,-4.4110023975,1.2538296875000001
668,2.783222,10.42891455,7.312669754,28.60616685,-1.7650278805,-0.30131930100000004,10.191781995500001,-0.04264122250000002,-2.6838464215,-3.8059936765
669,2.7873885,10.453157425,7.3063070775,28.621307350000002,-1.460423738,0.14977373900000002,11.083388805,1.2260765435,-0.597541675,1.6177822945
670,2.791555,10.473809245,7.274856329,28.589794149999996,-2.668660462,0.552563332,9.6937975885,1.5269158185,-4.5944131015,-3.456538677
671,2.7957215,10.487843035000001,7.260505676,28.598571750000005,-1.6150612235,-0.4674030095,10.066253665000001,0.10457652049999999,-1.672782317,1.0602883699999999
672,2.799888,10.502322675,7.2422754765,28.57125475,-0.6031215934999999,0.11101540900000001,8.9208841325,0.7252480385,-2.968523346,-3.3268152475
673,2.8040545,10.531584259999999,7.205078602,28.5785408,-1.323105216,-0.0560475925,7.8041801455,1.9587461950000002,-4.4050854445,1.3569268585
674,2.808221,10.542786125,7.1864247325,28.547588350000005,-2.433202863,0.17874369,11.280251025,0.377611578,-3.0883083344999998,-3.6860169175
675,2.8123875,10.553129675000001,7.171708822499999,28.559783950000003,-1.635107398,-0.3412459195,12.661157605,-0.38340021300000005,-1.640162632,1.4692323805
676,2.816554,10.571878435,7.161657095,28.530929549999996,-2.9853749274999997,0.6493228825,9.998559474499999,1.2632685895,-2.0349294845,-3.6787809129999998
677,2.8207205,10.597112655,7.151704072999999,28.5455551,-0.8573915065,-0.353487864,8.820245743000001,1.3735249635,-1.0244157615,1.6401692035000002
678,2.824887,10.608131885,7.1303493975,28.515907299999995,-0.721359968,-0.133349061,9.520134923499999,0.30438035750000003,-3.3572386205,-3.2900969985
679,2.8290535,10.632738114999999,7.1151566504999995,28.5347328,-1.565332949,-0.33329637349999996,9.5585536955,1.2396074085,-1.552574955,2.2340096235
680,2.83322,10.641582015000001,7.104367018,28.510951999999996,-2.6289948225,0.11335678399999999,9.8526234605,-0.030974030500000138,-1.968972623,-2.8238284585
681,2.8373865,10.62915945,7.058269739,28.526031500000002,-0.6818913664999999,-0.220814191,12.611630915,-3.1461070775,-5.273959279,2.5170981885
682,2.841553,10.60715008,7.036184788,28.501632700000002,-2.35260427,-0.3466941045,9.609707354000001,-3.7335699795000004,-3.323498726,-2.6489862200000003
683,2.8457195,10.584397315,7.004243135499999,28.511867550000005,-0.4412368445,-1.006964475,7.3091676235000005,-4.304549217,-3.7116565704999998,1.6134024265
684,2.849886,10.535493854999999,6.947621822,28.4919205,-1.585790813,0.38889417049999997,10.654229166499999,-7.0208113195,-7.313607693,-1.443836182
685,2.8540525,10.46848202,6.9225311275,28.49719235,-2.2435126304999997,-0.8721431270000001,11.801401615,-9.537230016999999,-3.0153591635,0.8658699415
686,2.858219,10.420684340000001,6.907143593000001,28.486907949999996,-1.8221856730000001,0.27061097300000003,8.956831694,-7.034643173,-2.2251217365000002,-1.162258789
687,2.8623855,10.354495525,6.8679261205,28.48602675,-2.055758655,0.32125655399999997,11.512616155,-9.3470578205,-4.815028429,0.45483827600000004
688,2.866552,10.262651920500002,6.8619444375,28.4818382,-1.7906879784999998,-0.444911674,11.607964514999999,-12.415157315,-0.9826322794999998,-0.615439646
689,2.8707185,10.169644833500001,6.8585710525,28.4741783,-1.5673151985,-0.5665418799999999,8.139255523500001,-12.46470833,-0.727533996,-1.1160187350000002
690,2.874885,10.081674578000001,6.848220825,28.472805,-1.5799242855,-0.13197720050000003,6.387057304500001,-11.97254324,-1.4469417335,-0.2830181125
691,2.8790515,9.964714528,6.856471777,28.4536018,-2.618470192,-0.0051726695000000045,11.220067979,-15.172670839999999,0.406561967,-2.716415703
692,2.883218,9.8261437425,6.8468391895,28.46399305,0.026666670999999975,-0.10906817000000002,13.73661709,-18.207819935,-1.1364719870000002,1.0327791574999998
693,2.8873845,9.6879959095,6.8578388695,28.437560999999995,-3.2988399265000004,-0.32709057049999996,9.1238448625,-17.619102005000002,0.592117816,-3.6108782295
694,2.891551,9.5537929535,6.876115799,28.455432900000005,-0.36853417600000005,-0.9210500715000001,5.6506168845,-17.776323320000003,2.3101101515,1.3174685835000002
695,2.8957175,9.393702984,6.8684184555000005,28.430427549999997,-2.6229620575,0.3652001915,11.373781205,-20.266566275000002,-1.580584675,-3.0950844285
696,2.899884,9.211236954,6.907242298,28.442081449999996,-1.4565653205,-0.05906850100000005,13.692800994999999,-23.464992525,4.6077468395,0.13302120599999998
697,2.9040505,9.035807133,6.9309380055,28.406471250000003,-2.0113658009999997,-0.7553853985000001,8.760193109500001,-21.961783405,1.9531561135,-4.908586264
698,2.908217,8.853836536500001,6.9477615355,28.406650549999995,-1.1425119785,-0.832060367,7.968987465,-23.23452091,1.7764055725,-0.8047291335
699,2.9123835,8.61898756,6.974953413,28.3698578,-2.2034881115,0.2325141725,10.169925453,-29.067790035,2.3740830419999996,-5.121813774
700,2.91655,8.3405623435,7.008048296,28.3490105,-1.166530281,-1.7265100775,12.09918785,-34.485313415,3.3536239865,-3.555541277
701,2.9207165,8.060970783,7.038370132,28.3140564,-1.8122482005,-1.539043665,6.590060472499999,-34.459715845000005,2.8175309305,-4.937278032
702,2.924883,7.7354006765,7.0552785395,28.270542150000004,-0.9356651905,-0.0643271505,6.803359151,-39.822317125,1.075613737,-5.921571255
703,2.9290495,7.3461647034999995,7.0875725745,28.229610450000003,-2.4748567345,-1.2136242240000001,14.112992285,-47.514041905,3.019885898,-5.6291875835
704,2.933216,6.91619277,7.1512265205,28.20183565,-2.1031143070000002,-1.2554336785,13.0004735,-52.573747635000004,6.958086251999999,-4.7245702745
705,2.9373825,6.4780681135,7.1923720840000005,28.144886000000007,-1.685991317,-0.428701758,7.2364997859999995,-53.13972092,3.9231749775,-7.585251808000001
706,2.941549,5.9995305535,7.237334728,28.122261050000006,-0.9753081205,-1.0916752515,9.5139379485,-58.46417236,4.864144981,-3.7481553555
707,2.9457155,5.483664751,7.292518615500001,28.081832900000002,-1.670493573,-0.2698264605,10.447849275,-62.714076995,5.9076882600000005,-5.759048104
708,2.949882,4.965090275,7.3575644495,28.03844455,-2.584714174,-0.4781032205,8.587541103500001,-62.94318199,7.1159927844999995,-6.2775726315
709,2.9540485,4.406936407,7.39242816,28.017642949999995,0.20436882950000002,-0.352871314,11.3473072075,-68.083549495,3.76934886,-3.054305136
710,2.958215,3.808386326,7.441673994,27.955215449999997,-2.385316491,-0.8323785515000001,12.553267954999999,-72.242481235,5.1554522515,-8.328891277
711,2.9623815,3.2170730825,7.512745619,27.924488100000005,-2.560131669,-0.5809458195,7.4819743635,-71.868000035,8.1104276155,-4.4932699204999995
712,2.966548,2.6211024524999997,7.5504214764999995,27.868427250000003,-0.9500782045,0.509474784,5.6208797695,-72.031806945,3.9618610145,-7.403405427999999
713,2.9707145,1.9943787455000002,7.600898981,27.811996500000006,-1.394272327,-0.2474407625,12.541250703500001,-75.712566375,5.6003785115,-7.201094866
714,2.974881,1.3440828025,7.674565792,27.770977000000002,-1.158192009,-0.37255179850000003,15.012794495,-78.78248978,8.4891541005,-5.5537216664999995
715,2.9790475,0.6989247505,7.7450716495,27.710510250000006,-3.5579349995,0.03122319300000001,9.6910333615,-77.85013580500001,8.1443235895,-7.6625139715
716,2.983214,0.08207006750000001,7.829690933,27.661174750000008,-2.294429779,-0.41135093549999996,4.4823224545,-74.60453796499999,9.9247717875,-6.3771307465
717,2.9873805,-0.557586163,7.8839037415,27.62067795,0.47032666200000006,0.694740072,9.990305902,-77.50203705,6.3318236485,-5.027396679
718,2.991547,-1.231291622,7.960883379,27.566959400000002,-1.8093090055,0.33803987499999993,14.62402344,-81.362651825,9.136971949,-6.615466356500001
719,2.9957135,-1.878891468,8.048589468,27.527980799999995,-2.1523959044999996,-0.762474321,9.7171368585,-78.45914840500001,10.464024545000001,-4.648522614999999
720,2.99988,-2.509770751,8.1300299165,27.490757000000002,-2.126465678,0.49954119499999994,6.524904251,-76.483795165,9.7361893665,-4.4968075755
721,3.0040465,-3.1303226945000002,8.191244841,27.436466200000005,-1.186042428,1.1965617835,8.663293838,-74.93661499,7.4696111695,-6.341963052500001
722,3.008213,-3.771653891,8.2559447285,27.41231535,-0.2965810295,-0.4520663585,11.79640436,-77.954319,7.726101516,-2.702892542
723,3.0123795,-4.427732825,8.3283901215,27.36024475,-2.2082809809999997,0.595838934,13.318620205,-79.24833297500001,8.9153027535,-5.845598936
724,3.016546,-5.0446977615,8.4035947325,27.318374650000003,-2.551519871,-0.215636343,9.5759346475,-74.689178465,9.228984833,-4.628515005
725,3.0207125,-5.6444983485,8.455989361,27.288860299999996,-0.9301457495,0.18962162700000007,5.1406911609999995,-72.871803285,6.3904230595,-3.1903964279999997
726,3.024879,-6.2677190305,8.4859843255,27.228141750000006,-0.372964725,1.120554656,8.548601151,-75.12244034,4.1326935890000005,-7.0807449815000005
727,3.0290455,-6.911846161,8.525142908,27.19750214999999,-1.107490763,-0.4734232125,15.026684284999998,-78.15919876000001,4.897263527,-3.366471648
728,3.033212,-7.5576925274999995,8.5596807,27.136821750000003,-2.2477129700000003,0.07680061449999998,12.14583111,-77.845779415,4.822369039,-6.9705677035
729,3.0373785,-8.1635437015,8.576141118999999,27.08746335,-1.2991684525,0.45961433649999994,4.88845253,-73.2296257,2.568696737,-5.8129475115
730,3.041545,-8.776325225499999,8.542893171,27.041954049999994,0.22612302,-0.16253721699999996,7.8192930235,-74.128250125,-3.3384917825000002,-6.276696205
731,3.0457115,-9.4360222815,8.539677381499999,26.994579350000002,-2.0654503105,0.567965686,14.84934616,-79.73985672,0.314877484,-5.908981085000001
732,3.049878,-10.090076446000001,8.508452415499999,26.93519595,-1.618901491,-0.1863305865,11.9037361155,-78.84775925,-2.68483448,-7.9114480015
733,3.0540445,-10.723271845,8.4561135765,26.89925385,-1.5849322975,-0.850818425,6.229308367,-76.770366665,-5.59849453,-5.623878479
734,3.058211,-11.370227815,8.3786523345,26.846805600000003,0.03897417,0.766326994,8.4991121285,-78.137073515,-8.132000445500001,-8.1434762475
735,3.0623775,-12.056085110000001,8.304623127,26.808837849999996,-1.5227652790000001,-0.1714047194999999,14.436473849999999,-83.054302215,-7.9697771070000005,-6.504889965
736,3.066544,-12.71571636,8.2228257655,26.769268050000008,-2.14029181,-0.413417786,9.532739161,-79.92266845500001,-8.780443431,-7.014473199499999
737,3.0707105,-13.356983185,8.151207685500001,26.724597949999996,-2.1981885435,1.0364782959999999,7.5475232605,-77.61346435499999,-7.3652598855,-7.408253193
738,3.074877,-14.011325835000001,8.034550667,26.699920650000003,0.05710706150000003,0.6119951605,11.9031925195,-79.539562225,-13.125115873999999,-6.347935676500001
739,3.0790435,-14.673215384999999,7.963455439,26.653644549999996,-2.3941342235,0.007166557000000004,12.20710468,-80.07932663,-7.0948133470000005,-7.7227237225
740,3.08321,-15.30713272,7.8861472610000005,26.622615850000003,-1.307622552,0.48936282550000004,8.428416729,-77.00786972,-8.213465452000001,-6.240903139
741,3.0873765,-15.921964645000001,7.798447609,26.5994034,-2.7717052695,0.448169939,8.7115130425,-74.851932525,-9.5847165585,-5.826447964
742,3.091543,-16.538490295,7.7167940139999995,26.569992050000003,-1.8931950925,1.3847575189999999,11.20225525,-74.94762039,-8.651621819,-6.279873848
743,3.0957095,-17.153731345,7.6588351725,26.556072199999996,-0.5761407915000001,0.1369152665,13.261071205,-75.02997208,-6.366693616,-3.8778223990000003
744,3.099876,-17.74275303,7.5863204,26.5354996,-1.3190553189999998,0.09336617599999997,9.2829923605,-71.82895278500001,-7.797406434999999,-5.165378093999999
745,3.1040425,-18.2864933,7.526311636000001,26.509468050000002,-2.448796928,1.334073633,6.1455602645,-66.26950073,-6.074849844,-5.47443676
746,3.108209,-18.825767515000003,7.4646201135000005,26.516803749999994,-1.135491848,0.620436996,11.9241161345,-66.305667875,-7.527015686,-1.752289027
747,3.1123755,-19.382903095,7.4105570315,26.483608249999996,-2.8561444285000004,1.0794375985000002,15.0163908,-67.781326295,-5.0257251265,-6.157955885
748,3.116542,-19.88959694,7.366964817,26.479530350000005,-0.914521083,0.36488753549999997,9.5085902225,-62.206903455,-4.985968351,-2.441723466
749,3.1207085,-20.352934835,7.3096528055,26.46511075,-1.6972783505,0.515339568,6.2001812455,-56.86890793,-6.0645196435,-4.3229783775
750,3.124875,-20.796067235,7.2379834655,26.449672699999994,-0.907816857,1.3703636525,9.2354180825,-54.403497695,-7.634164096999999,-4.9475307465
751,3.1290415,-21.228591915000003,7.172719239999999,26.444938649999997,-1.4208440185,1.6263142529999999,14.15168858,-53.279310225,-7.3001830575,-3.6262738705
752,3.133208,-21.64883709,7.1235749725,26.427871699999997,-2.191677749,0.6630222315000001,14.623864175,-51.660594939999996,-4.9694428445,-4.296043158
753,3.1373745,-22.01149273,7.0784995555000005,26.404666900000002,-1.6512883305,0.5439830569999999,6.3537302014999995,-44.640365599999996,-4.183183551,-4.8859748839999995
754,3.141541,-22.32447815,7.011799335499999,26.408161199999995,-1.391940743,1.539386839,7.4175970555,-39.117677685000004,-7.7916941645,-2.9106262925
755,3.1457075,-22.641932484999998,6.973021507,26.379737849999998,-3.1967052225000003,1.8219263555,12.797750950000001,-39.14389228500001,-3.195175171,-5.214501858
756,3.149874,-22.9317894,6.948919058,26.375019050000006,-1.038519591,0.34063386949999996,14.306444165,-36.20335579,-2.668045938,-1.8938674925
757,3.1540405,-23.187741275,6.9226157665,26.34726715,-3.3281675575,0.622935295,9.820305584,-31.81069374,-1.8016746435,-4.6110918524999995
758,3.158207,-23.39524174,6.903455734,26.33590315,-1.575424969,1.0031984295,4.658515692,-26.229122165,-1.7914350625000002,-2.4181005955
759,3.1623735,-23.615055085,6.879287958,26.323032350000005,-0.5789279045,0.7129951564999999,12.627470015,-27.67687893,-2.241976917,-2.876774907
760,3.16654,-23.83737087,6.8751943115,26.298023199999996,-1.6345952155,0.46063090100000004,13.09506321,-27.825160025,0.5238815545000002,-3.175591111
761,3.1707065,-24.007214545,6.870485067000001,26.266742750000006,-1.9198116065000002,0.589176668,8.455733775999999,-21.43505287,0.8066634534999999,-3.9704388379999997
762,3.174873,-24.158365250000003,6.8497562405,26.2686577,-1.145773202,0.6580674950000001,9.191056251500001,-19.683598515,-2.5851430300000002,-1.080921054
763,3.1790395,-24.324167250000002,6.838743448000001,26.234500849999996,-1.594481811,0.454061836,13.59031963,-20.898842809999998,0.2693660255000001,-4.550678134
764,3.183206,-24.459926605,6.832807541,26.216888399999995,-2.2782225015,0.584775895,12.737242219999999,-17.565325735000002,0.00461709499999996,-2.49695307
765,3.1873725,-24.56864071,6.809134245,26.207416549999998,-1.5525841715,0.49268224850000003,6.027237177,-14.440308570000001,-2.313221753,-2.5391265155
766,3.191539,-24.667134285,6.805846691499999,26.18897249999999,-1.898720086,0.707530402,11.938137531999999,-13.0964188595,0.34040674550000005,-2.4512057305
767,3.1957055,-24.77421665,6.80535841,26.172496799999998,-1.4229182004999998,0.4641684815,13.199974059999999,-14.114341735,0.5775561335,-2.117541969
768,3.199872,-24.839430805,6.8077900410000005,26.1603432,-2.222882986,0.2462697625,8.3981118205,-9.2276957025,0.660405755,-1.5269928275
769,3.2040385,-24.901540755,6.819963932,26.1339989,-2.2967910765,1.0975896120000002,10.5766596815,-8.591323137,2.4543818235,-2.5507298709999997
770,3.208205,-24.971007345,6.8441867825,26.120121000000005,-1.11672876,-0.18426338599999997,13.75240135,-9.66650486,3.108332515,-0.523580581
771,3.2123715,-25.01230335,6.8678491115,26.095417000000005,-2.6150805950000002,0.291592136,10.213015557999999,-6.1563947205,3.624913886,-1.8215563295
772,3.216538,-25.052983285,6.892208098999999,26.079109200000005,-1.2097589375,0.732164517,8.5082464215,-6.188296794499999,3.2426538915000003,-0.76991269
773,3.2207045,-25.086962695,6.9478354455,26.047290799999992,-2.192658961,0.22000929699999996,14.20814276,-5.140124321,7.4620678425,-0.922932163
774,3.224871,-25.10771656,6.9787337780000005,26.032043450000003,-1.1658992170000002,0.10471305300000001,7.3666734695,-3.862659335,3.9117104410000003,-0.39921081049999996
775,3.2290375,-25.11823082,7.028872013,25.994693749999996,-2.37153101,0.2979934535,9.398778436499999,-2.248494655,7.143273115,-1.7944054605000002
776,3.233204,-25.13704872,7.0900127885,25.973415350000003,-0.8531293719999999,-0.20287683599999995,13.117927550000001,-3.5201773640000003,7.4999251365,0.525226344
777,3.2373705,-25.13919163,7.138025283999999,25.942306549999998,-2.1084291935,-0.11842289549999996,8.4599268435,-1.3730959299999999,6.588903427,-1.2474773825
778,3.241537,-25.134895325000002,7.1841051579999995,25.913803100000003,-1.4264352325,0.7598635855,12.034601684999998,-0.6337538954999999,6.224157094500001,-0.9998773635
779,3.2457035,-25.123537065,7.259717941,25.8833122,-2.055222273,0.25797726249999997,10.5885644,0.2766144275,9.565507409999999,0.24279095250000002
780,3.24987,-25.10011959,7.3024148945,25.869503,-0.7360665795000001,-0.3447996675,10.092932225,1.413214177,5.1152522565,0.381882623
781,3.2540365,-25.090817450000003,7.3601911065,25.840454100000002,-1.7243507505,0.10050460350000001,12.795444965,0.019447624499999983,7.547606109,-0.491127372
782,3.258203,-25.05742836,7.41210413,25.81030655,-2.222267985,0.3544457815,8.13086319,2.8569927215,6.9497249125,-0.9326719195000001
783,3.2623695,-25.038481715000003,7.470476627,25.8077545,-0.789514124,-0.5533196364999999,11.89313984,0.7501511869999999,6.2795414925,2.3695025445
784,3.266536,-25.02944183,7.513294458499999,25.780101799999997,-2.3354654310000003,-0.35082352149999996,10.91877413,-0.10362878449999996,5.8241906165,-1.107085675
785,3.2707025,-25.004564285,7.563493728999999,25.776157400000002,-1.0854350925,0.502505414,9.804469583,1.4495417475,5.4647978545,1.7669211625
786,3.274869,-25.00192833,7.6088302135,25.758960700000003,-2.2827771905,-0.9748551245000001,12.05026054,-0.997245322,5.586683035,0.15285929999999998
787,3.2790355,-24.968434334999998,7.6506521705,25.771018999999995,0.437467143,0.07244876,7.890976429,2.2065639495,3.742995262,3.0642182829999998
788,3.283202,-24.970243455000002,7.672764063,25.753292100000003,-2.72495842,0.22794934,12.892467495,-1.5275817515,3.079541683,-1.0708799365
789,3.2873685,-24.945155145,7.717264652000001,25.754951499999997,-0.47235001249999997,-0.4435360795,8.969133853999999,1.367595255,4.5650077465,2.0779163835
790,3.291535,-24.94183636,7.7474319935,25.752506250000003,-2.3856703039999996,0.07051385949999997,13.1985836,-1.174425542,3.194658607,0.9634923040000001
791,3.2957015,-24.93185139,7.784556865500001,25.760154700000008,-0.728446275,-0.32796229450000003,9.023603915999999,-0.5530304309999999,3.459778607,2.3457005024999997
792,3.299868,-24.932611465,7.805159807499999,25.757671349999995,-2.81081748,-0.3527999745,11.594301225,-1.6824262959999998,2.1493928435000003,0.4785123465
793,3.3040345,-24.93580437,7.841712475,25.7726593,-0.8776555505000001,-0.5337855665,10.7094779025,-2.2393504975000003,3.0392831565,3.1114127635
794,3.308201,-24.944942474999998,7.8434705735,25.781047800000003,-1.3416309505,-0.2122735455,9.89496231,-2.8633385899999997,-0.4460656639999998,0.7033988535
795,3.3123675,-24.956499094999998,7.8512678145,25.805118549999996,-1.1298851075,-0.5361009985,12.22510147,-3.410381913,-0.5459867715,2.6307356955000003
796,3.316534,-24.97694206,7.833530902500001,25.8119736,-1.3354318735,0.052892774000000004,8.708739518,-4.1946767565,-2.4991613625,-0.421053176
797,3.3207005,-24.998523714999997,7.8476421835,25.842544549999992,-1.8545604944999998,-0.9225898685,13.361478810000001,-4.7307443615,-0.18619620799999992,3.6425236465
798,3.324867,-25.02127266,7.809355497,25.873363500000004,-0.456237247,0.0289644305,8.43743062,-4.883725405,-5.9493032705,1.1296005845000001
799,3.3290335,-25.04552269,7.806270122500001,25.908042949999995,-2.4503543375,-0.7595783475,11.81635189,-5.1226929425,-2.2648684980000002,3.209335327
800,3.3332,-25.077058795,7.769830942,25.9404373,-1.1317506435,-0.0622758855,8.956026077,-5.9880447385,-5.8194773195,1.344593644
801,3.3373665,-25.11864853,7.766867399000001,25.972854600000005,-2.6769486665,-0.7086710035,12.888607024999999,-7.141172409,-2.1429766415000002,3.0042553545
