time,Euler_X,Euler_Y,Euler_Z,Acc_X,Acc_Y,Acc_Z,Gyr_X,Gyr_Y,Gyr_Z
0,1.014851511,6.776171804,-64.11555483,-1.631186177,-0.360262372,8.069361091,-134.2523308,18.94723773,-11.02351165
0.008333,-0.06600374,6.932023525,-64.17086028,-2.119819746,0.106252346,9.017961861,-129.279398,18.12989521,-7.310216309
0.016666,-1.128955059,7.045472741,-64.24983215,-1.221561374,1.032411784,15.48038876,-126.8495503,13.23148656,-9.810569167
0.024999,-2.228431959,7.181584001,-64.33226968,-1.455783688,0.939800332,10.59115446,-131.1107426,16.12236762,-9.782603381
0.033332,-3.327538669,7.303728581,-64.41295053,-0.147299375,-0.175028116,5.485739753,-131.1401978,14.6573472,-9.338744879
0.041665,-4.386601091,7.381670952,-64.5075474,-1.697156943,-0.189575691,10.20496213,-126.0519314,9.608702661,-11.20984006
0.049998,-5.442389727,7.470501423,-64.59846495,-1.397674278,1.033800811,14.44243669,-125.7642651,11.10391426,-10.3882724
0.058331,-6.528935432,7.556367874,-64.69340895,-2.088545158,0.166514333,9.197286963,-129.3323631,10.91976023,-10.50749087
0.066664,-7.614631295,7.606773019,-64.7936783,0.70018819,-0.371447012,6.909757971,-129.1596107,6.99316688,-11.65148425
0.074997,-8.686444878,7.629529238,-64.89427948,-2.465733528,0.232558139,11.09804869,-127.4675961,3.925802111,-12.05057407
0.08333,-9.765967368,7.659711361,-64.97280883,-0.192953021,0.532779601,12.24702859,-128.7535171,4.575401604,-9.139270782
0.091663,-10.84384298,7.667832852,-65.0829735,-2.544683002,0.000556793,10.50950825,-128.0399761,2.753913969,-13.06586766
0.099996,-11.90907788,7.645608068,-65.15577318,-0.066876158,0.735723511,10.81157887,-127.1348533,-1.366127015,-9.653271318
0.108329,-12.98136139,7.593619824,-65.24137498,-1.821781352,0.354261469,10.35264087,-127.7968216,-4.457783491,-11.57862902
0.116662,-14.03224397,7.539270639,-65.31035613,0.753778771,0.240723614,8.930157423,-125.5038185,-4.907931723,-10.00775671
0.124995,-15.06153369,7.447735429,-65.39287568,-3.188517638,0.823271305,10.94882965,-122.7591343,-8.66629994,-12.56816459
0.133328,-16.08604384,7.352595806,-65.43572428,0.031657435,0.728372216,11.86674547,-122.7599144,-10.12947535,-8.460085631
0.141661,-17.1077857,7.257480264,-65.52197838,-2.98694972,0.447701452,10.07572341,-121.8616943,-8.563518344,-13.17319155
0.149994,-18.0873723,7.126613855,-65.5592556,0.988866121,0.569061099,8.186139941,-117.4799233,-14.11236584,-9.512263657
0.158327,-19.04571438,6.984837532,-65.60349085,-2.899602771,1.325793192,13.35263968,-114.8650131,-14.96850228,-10.79364252
0.16666,-19.99186468,6.858756542,-65.63746453,0.75150805,0.862773873,9.791118265,-113.5366306,-13.46099877,-9.241724968
0.174993,-20.87379503,6.715025544,-65.67996215,-3.691942156,0.833249163,8.082306504,-105.803709,-14.95816994,-10.94868708
0.183326,-21.69726515,6.569554806,-65.67179108,0.236605537,1.769473702,13.39490962,-99.39056778,-17.187258,-5.875955761
0.191659,-22.49669457,6.408959031,-65.70840455,-3.358463377,2.411962271,11.20449734,-96.03422545,-16.77807713,-11.4630959
0.199992,-23.22931051,6.280893564,-65.68596075,0.191386456,1.599939734,7.607479095,-88.73019219,-15.74310851,-3.851657033
0.208325,-23.88121033,6.124741912,-65.70244598,-3.171035528,1.840754539,11.42924285,-78.64962482,-16.93337393,-9.488369703
0.216658,-24.46231747,5.973253012,-65.67518615,-0.486437574,2.563487798,10.95348823,-70.593503,-18.45979619,-4.840007127
0.224991,-24.99636459,5.818107486,-65.67137145,-3.011886865,2.279609263,11.92687249,-64.8117342,-17.65480423,-7.521642625
0.233324,-25.4802413,5.67734468,-65.65332793,-0.515173078,1.502860889,10.23402858,-58.82682991,-16.72898221,-5.596820772
0.241657,-25.88216019,5.54314661,-65.6551628,-2.507790745,1.449434146,9.473258017,-48.91451645,-14.85925698,-7.544433474
0.24999,-26.22082186,5.396303773,-65.62394333,-1.278616131,1.920250222,13.04596257,-41.55331755,-18.00245834,-4.717011809
0.258323,-26.51775599,5.271250725,-65.63919258,-2.777369469,2.634932459,12.46726632,-36.1856513,-13.1673969,-8.519478797
0.266656,-26.77531052,5.144927442,-65.61637685,-1.453880921,1.184056174,9.275564789,-31.73266649,-15.2992537,-4.672408253
0.274989,-26.96376181,5.054658115,-65.6323433,-2.118146077,0.907055795,10.90914631,-23.18855167,-9.355494676,-6.805585146
0.283322,-27.1034751,4.937927902,-65.62866973,-1.768850695,1.53050834,10.932899,-17.40937448,-13.19350338,-6.295220494
0.291655,-27.20573664,4.865399718,-65.62609483,-2.385671206,1.66003722,12.00917327,-13.02249968,-8.437966377,-3.929800987
0.299988,-27.29481363,4.794957519,-65.64805793,-1.86989115,0.869173817,10.49164569,-11.10504758,-6.835038842,-6.500273228
0.308321,-27.32629299,4.757569969,-65.65732385,-1.643021599,0.34254374,8.753894926,-4.418008432,-4.017926581,-3.311152399
0.316654,-27.33378315,4.695694387,-65.66544723,-2.476785138,0.890620992,13.98475576,-1.446731121,-6.666431665,-4.582150102
0.324987,-27.3362999,4.681254149,-65.68217848,-1.260445878,1.310048668,10.89910865,-0.847866342,-1.163260984,-2.832063586
0.33332,-27.31262207,4.668621361,-65.7124119,-2.709879331,-0.110551652,9.334271074,2.44326232,-0.20241645,-4.228667379
0.341653,-27.26389504,4.654898346,-65.7093315,-1.06482926,0.414864568,12.4602921,5.142138302,-2.152719885,-0.725798697
0.349986,-27.22680759,4.660804391,-65.7490921,-2.223846846,0.19905984,12.25079942,4.135950208,2.298983425,-4.232323468
0.358319,-27.1894455,4.682364524,-65.75525475,-1.640682968,-0.409705729,7.485746623,3.833055377,2.115034581,0.232013717
0.366652,-27.13710785,4.697723508,-65.78459738,-2.086472571,0.322932884,13.43114519,5.879562259,2.73213929,-2.601925977
0.374985,-27.10909844,4.742553055,-65.80565073,-1.799474716,-0.321164422,10.53934812,2.857466399,5.425684482,-0.108918146
0.383318,-27.07774067,4.777275741,-65.83337403,-2.111958757,-0.30363854,8.547181367,3.320738494,4.713182956,-1.385125011
0.391651,-27.05461121,4.846492946,-65.85253905,-2.030263037,0.123858988,13.79181218,2.272687614,7.939363688,1.412247271
0.399984,-27.04926777,4.888498366,-65.88690378,-1.54605338,-0.704746891,8.281539798,0.273207769,5.861670435,-1.720524311
0.408317,-27.03793621,4.959435582,-65.90971183,-1.665416815,-0.38542036,10.81464791,0.886169313,8.320023298,1.120843783
0.41665,-27.04726124,5.025087834,-65.93219568,-1.98156026,-0.485092595,10.67913616,-1.622402519,7.743343651,0.83978194
0.424983,-27.05577898,5.086355567,-65.96297458,-1.329078645,-0.145178415,9.756100656,-1.375756532,7.724005341,-0.269673139
0.433316,-27.08562851,5.165970206,-65.98353195,-1.68424663,-0.247234825,11.58197189,-4.100164294,9.136957764,1.803328972
0.441649,-27.11848259,5.231463075,-66.01844408,-2.560183078,-0.917959657,9.594373346,-4.2617158,8.394093276,-0.467940182
0.449982,-27.15715408,5.317616344,-66.02767183,-1.240422048,0.013267648,13.05261374,-5.254165351,9.217161893,3.38865459
0.458315,-27.22038794,5.388903499,-66.06973458,-2.322371401,-0.708371095,10.22642088,-7.834310286,9.403230428,-0.903564682
0.466648,-27.28642035,5.461880803,-66.06669235,-1.073098399,-0.291843758,10.02175665,-8.672795775,7.133539677,3.991569161
0.474981,-27.36498642,5.5433985,-66.10573958,-1.835249394,-0.529247792,11.92153693,-9.726591764,10.33079326,0.008122936
0.483314,-27.46051455,5.59838748,-66.1014347,-1.092977248,-0.841080993,9.398823977,-12.21098804,5.144524038,3.127498835
0.491647,-27.55784082,5.68155694,-66.13368985,-1.55723621,-0.456319228,9.8321718,-12.06730509,10.13786697,0.852614775
0.49998,-27.66594219,5.740943551,-66.136343,-2.279434309,0.016679779,10.81422901,-13.64689517,5.98075217,2.656971395
0.508313,-27.77388716,5.812045813,-66.1602459,-1.097369083,-0.430427809,10.43365919,-13.42097139,8.386492134,1.111901343
0.516646,-27.88627196,5.877012611,-66.1676712,-2.254402951,-0.048514884,11.13549209,-14.09792519,6.826137364,2.484677464
0.524979,-28.00297451,5.940528274,-66.18152045,-1.214900471,-0.462209307,9.43127632,-14.59432888,7.013057708,1.784249693
0.533312,-28.0955863,6.006513715,-66.1896877,-1.502794981,0.362882532,11.74466276,-11.7251358,6.964599326,2.49540329
0.541645,-28.208848,6.054191709,-66.19583895,-1.548616871,-0.532879402,9.763951063,-14.26910448,4.899834631,1.720105082
0.549978,-28.2953949,6.111478448,-66.1979904,-1.273321293,-0.13944513,9.538361905,-11.06141949,5.698294728,2.652610421
0.558311,-28.39281225,6.161619067,-66.2047348,-1.897763342,-0.180744209,11.08030343,-12.38238502,5.187815584,1.812348396
0.566644,-28.46325827,6.209175706,-66.20593453,-1.425283629,-0.140152883,11.00220227,-9.152454615,4.612545058,2.211347699
0.574977,-28.5457449,6.26123476,-66.21802903,-2.455237359,-0.038489744,11.8669889,-10.53255439,5.690049112,1.377853822
0.58331,-28.61447096,6.307716012,-66.21867753,-1.677013844,-0.256977789,9.682011486,-8.93399012,4.457130373,2.225217819
0.591643,-28.67148686,6.355326772,-66.23217013,-1.013599023,-0.068552695,12.00090218,-7.473926544,5.302531123,0.989087269
0.599976,-28.72838927,6.379824519,-66.22536853,-1.781706035,-0.26851175,9.896473646,-7.604046823,1.706065282,1.756047889
0.608309,-28.78214932,6.429563642,-66.23292925,-1.639147371,-0.652790897,11.60205317,-7.146711469,5.177668246,1.754645676
0.616642,-28.83988619,6.441217422,-66.2196579,-1.024500087,-0.354250431,10.90821624,-7.772442699,-0.018291443,1.692665823
0.624975,-28.89277125,6.476211667,-66.21779063,-1.038095316,-0.743747551,9.164095283,-7.17826116,3.081754267,1.88846074
0.633308,-28.94317484,6.480065703,-66.19348148,-1.927224741,-0.533257164,12.0330472,-7.062799275,-1.470010519,2.394758284
0.641641,-29.00663137,6.51884079,-66.19218445,-1.817254614,-0.694216214,8.433769465,-8.453896403,3.513067007,2.033629745
0.649974,-29.06843758,6.517295957,-66.17299273,-1.174084406,-0.412305996,12.43799687,-8.377129316,-1.749480784,1.5674247
0.658307,-29.12607861,6.561913491,-66.1691513,-2.649648987,-0.105959646,9.254537584,-7.825443983,3.974762917,2.636178821
0.66664,-29.19726467,6.56835413,-66.15578078,-1.184607838,-1.065798037,10.30747569,-9.434607506,-0.578062162,1.438582011
0.674973,-29.24212313,6.612228274,-66.15359498,-2.116092354,0.244240071,10.50309289,-6.233583033,3.976043643,2.435798675
0.683306,-29.31349516,6.636212707,-66.15366555,-1.352238245,-0.990184032,11.88497949,-9.287530423,2.043715,1.073223788
0.691639,-29.35717153,6.656643033,-66.1307831,-1.729298562,-0.150058951,9.366302492,-6.317348003,0.31365335,3.205564082
0.699972,-29.41116619,6.713226915,-66.1454067,-1.994698569,-0.782974199,11.31029129,-7.033215165,6.304742218,1.467081107
0.708305,-29.44967938,6.696136475,-66.10877993,0.028627873,-0.148967207,9.72266364,-5.878609121,-4.431861638,2.465498805
0.716638,-29.49235106,6.755684495,-66.12528038,-3.20237612,-0.976050064,10.80168116,-5.671779871,6.722517372,1.436478466
0.724971,-29.5510993,6.758918285,-66.09329795,-0.481166719,-0.888244964,11.58893079,-8.269530655,-2.040372536,3.204161763
0.733304,-29.58969307,6.780335784,-66.09853363,-2.512291238,-0.077731267,8.637747646,-5.309741736,2.074349776,0.343262803
0.741637,-29.6334281,6.822571755,-66.08880425,-0.970968489,-0.766373471,12.30946517,-6.204344452,3.348193735,3.194466472
0.74997,-29.67463064,6.808094144,-66.07775875,-2.170248524,-0.835074529,7.765789271,-5.799371004,-2.648143889,-0.064019598
0.758303,-29.71315098,6.878005147,-66.09146118,-1.795321554,-0.477074858,12.50172675,-5.289679289,7.60400653,2.417081192
0.766636,-29.761374,6.859375954,-66.08768845,-1.681331031,-0.629250579,11.86430943,-6.567164302,-2.646434068,-1.050084546
0.774969,-29.78263092,6.913566828,-66.08989333,-2.617564976,-0.44955413,8.313832878,-3.335447625,5.274666726,2.66997068
0.783302,-29.80788136,6.950161934,-66.11656,-1.241823979,0.019891214,12.93856287,-3.420275465,4.908994169,-0.891321034
0.791635,-29.82019186,6.944423199,-66.10318948,-1.292743135,-0.736696854,7.722774625,-2.414346576,-1.901399374,0.727806151
0.799968,-29.83470965,7.014667154,-66.14732933,-3.093937278,-0.730539657,13.63759136,-1.93198584,9.457472207,-0.719542418
0.808301,-29.85746718,7.014237165,-66.1441307,-0.763098985,-0.670229733,10.01793802,-3.508375786,-0.748232513,0.0288544
0.816634,-29.85373831,7.060282827,-66.1731186,-1.896049022,-0.665057171,8.727352381,0.069869258,6.028243422,-0.596523553
0.824967,-29.85070562,7.101878524,-66.19402888,-1.304944739,-1.13723205,13.39639664,-0.114434868,5.059839859,0.050639348
0.8333,-29.8554759,7.097075463,-66.1925068,-1.373573698,-0.242299841,5.689714074,-1.318195045,-1.076348611,-0.469448127
0.841633,-29.85723114,7.164983392,-66.23962403,-2.141640007,-1.644910008,13.17579484,-0.336314932,9.360247016,-1.116742253
0.849966,-29.86488104,7.167556763,-66.24482348,-0.678601719,-0.491985902,10.66976792,-1.576437891,0.083810031,-0.688408226
0.858299,-29.86143303,7.194939494,-66.2534237,-3.173144281,-1.080663189,8.001492263,-0.241523048,2.844819248,0.448722959
0.866632,-29.85668755,7.252305985,-66.2930355,-1.342691329,-0.259691745,13.13976241,0.383672381,7.835382104,-0.986753248
0.874965,-29.85491228,7.242226005,-66.28882598,-0.333634448,-1.420978956,7.820067882,-0.593702928,-1.822673857,-0.423678693
0.883298,-29.86242867,7.268833637,-66.30774685,-2.981762409,-0.820856284,10.41754472,-1.402033672,3.402806103,-0.703655109
0.891631,-29.87215281,7.295782089,-66.3305378,-1.578110784,-1.22999949,13.77279282,-1.610875957,3.620338679,-0.975841679
0.899964,-29.87785387,7.278690696,-66.3258667,-0.473135628,-0.794610828,8.242008449,-1.497104065,-2.541569352,-0.860087566
0.908297,-29.88859892,7.288581372,-66.34975053,-3.284344018,-1.231109791,9.910874723,-1.721875474,1.911340743,-2.123490632
0.91663,-29.89265919,7.299348712,-66.35375595,0.241020978,-1.110341959,11.31415343,-1.196825169,0.856277883,-0.059456975
0.924963,-29.92083073,7.268089771,-66.36260798,-2.292537157,-0.996403866,7.60859871,-4.015053883,-3.263445646,-3.022985846
0.933296,-29.93764162,7.270751119,-66.36809733,-1.131886736,-1.091973133,11.37721348,-2.722088695,0.120054007,-0.744368732
0.941629,-29.95182419,7.269229531,-66.39963915,-2.950738996,-0.669905357,13.13997674,-2.015270456,1.192947715,-3.609263837
0.949962,-29.97613907,7.247986794,-66.38804818,-1.518297888,-1.161032558,7.884914995,-3.8304106,-3.374160052,-0.410660284
0.958295,-29.97888041,7.269847393,-66.4298439,-2.521073133,-0.83902216,12.0681777,-0.508096717,4.210147888,-3.231600672
0.966628,-29.98521042,7.263971329,-66.427557,-0.564350195,-0.644081891,11.0387516,-1.542345137,-1.235918753,-0.421197249
0.974961,-29.98940802,7.2325629,-66.4366474,-2.106724173,-0.948985193,7.883868694,-1.128687942,-3.262129486,-3.056521028
0.983294,-29.99112034,7.246734023,-66.45739363,-1.561838373,-1.251045451,13.389467,-0.673318155,2.239821255,-1.649793744
0.991627,-29.99816418,7.213711262,-66.46965788,-0.934831366,-1.127019122,10.41907716,-1.450876638,-3.230509311,-3.490003437
0.99996,-29.99853039,7.192949653,-66.46658135,-2.098954469,-0.874348402,9.03213358,-0.837812886,-2.814501703,-1.273379758
1.008293,-30.00008154,7.200397849,-66.50624848,-2.273030132,-1.320244789,11.34663439,-0.424168557,2.594104245,-3.880441487
1.016626,-29.99576473,7.184305668,-66.50854683,-0.30929438,-1.072779663,8.937205792,-0.197370544,-2.014835179,-1.522625402
1.024959,-30.00687599,7.160016179,-66.53015138,-2.892662644,-1.223647777,9.127199055,-1.81999743,-1.768759578,-3.947672546
1.033292,-30.00731182,7.200144768,-66.5621662,-1.87448056,-1.0723041,13.4269569,-0.342062235,5.589503035,-1.204086863
1.041625,-30.01895666,7.194213867,-66.58537103,-1.47741881,-0.540414516,10.07443059,-1.852488697,0.23538813,-2.99723059
1.049958,-30.02656317,7.198740959,-66.60728455,-1.708355356,-1.689245164,7.687575698,-1.314705074,1.294223637,-2.310020059
1.058291,-30.01920796,7.252938151,-66.64672853,-1.57331474,-0.77060337,13.26603484,0.647524668,7.457709886,-1.079201371
1.066624,-30.03772831,7.247521281,-66.66262438,-1.082240447,-1.456173405,6.910013215,-2.698763937,-0.090146176,-2.292736501
1.074957,-30.04958725,7.27626884,-66.69500353,-1.720813364,-1.059455045,10.89096713,-1.750291139,4.402808339,-1.903995574
1.08329,-30.06225967,7.313570857,-66.73547745,-2.527312931,-1.048470281,13.32159853,-1.64654398,5.813327096,-2.266603738
1.091623,-30.07755995,7.329982281,-66.76385308,-1.284434743,-1.115165083,9.765476704,-2.195088834,2.866095364,-2.175397933
1.099956,-30.0886178,7.355663777,-66.79471585,-1.862588614,-1.454613745,9.478606225,-1.576828376,4.04609537,-1.996854007
1.108289,-30.0926981,7.384374619,-66.82979583,-0.016606517,-0.258383218,11.68599868,-0.749200452,4.548150562,-2.134357557
1.116622,-30.1065898,7.367792964,-66.8367176,-1.218482774,-1.814616651,8.311989546,-2.255439192,-1.784457028,-2.039251819
1.124955,-30.11450911,7.360955596,-66.85082245,-1.808662012,-1.342174933,10.1169616,-1.516017012,-0.391788365,-2.131098002
1.133288,-30.12357664,7.377242565,-66.8834839,-1.730848849,-0.271376524,13.84644055,-1.336861507,3.161562324,-2.704190999
1.141621,-30.14005756,7.3309443,-66.87417603,-0.497936011,-2.211510673,7.659247638,-2.896448284,-5.891440511,-2.06497483
1.149954,-30.14207888,7.313578486,-66.88429263,-2.120347977,-0.941051431,9.452471257,-0.82311026,-1.66335658,-2.440524251
1.158287,-30.14255095,7.294837594,-66.8844452,-0.652829257,-0.864713509,10.68458963,-0.844286785,-2.474447042,-1.37748234
1.16662,-30.14474678,7.237043381,-66.87758255,-1.265866488,-2.083624154,8.603407264,-1.084119424,-6.87138395,-3.120966435
1.174953,-30.15669012,7.209780574,-66.86963083,-2.753846586,-1.166938037,11.85582876,-2.344852254,-3.832806051,-1.087878331
1.183286,-30.1727829,7.207432628,-66.88581468,-1.896296412,-0.906722769,13.45536161,-2.450885296,0.247331187,-2.128664687
1.191619,-30.20459462,7.169222475,-66.86779595,-1.292840227,-1.973652542,10.13175595,-4.844852477,-5.56423825,-0.70250243
1.199952,-30.23102856,7.148266196,-66.86287118,-1.667263702,-1.285605759,9.795286416,-3.986215368,-2.930220485,-1.116268382
1.208285,-30.26177359,7.161518931,-66.86852263,-2.171330884,-1.373587787,11.63553548,-4.401339055,1.18949616,-0.041667992
1.216618,-30.30595589,7.131289125,-66.84729765,-1.088904183,-1.948227048,7.425000667,-6.357888818,-4.869970798,0.010982052
1.224951,-30.34521198,7.133629322,-66.84609225,-2.190397114,-0.50288574,9.702137113,-5.548657954,-0.366700083,0.016540399
1.233284,-30.40242815,7.140104771,-66.85295103,-1.48303234,-1.865340099,11.91012025,-7.538372516,0.620914906,-0.641454101
1.241617,-30.44670344,7.11918664,-66.8246708,-1.172804877,-1.548759848,7.715220093,-6.48535192,-4.402808696,1.394387814
1.24995,-30.4925251,7.142094732,-66.84382628,-3.10490644,0.009829854,9.391305566,-5.995428324,3.061660678,-0.938377559
1.258283,-30.52629471,7.175544501,-66.8465252,-0.089134849,-1.920175672,12.605443,-4.813849926,3.087927751,1.534753811
1.266616,-30.57008409,7.175455451,-66.84412193,-3.11638248,-0.996227458,7.261682748,-6.041521609,-0.620159209,-0.121933445
1.274949,-30.60628891,7.271626473,-66.8790436,-2.557299093,-0.626956541,12.78193378,-4.660164833,11.51671684,2.060448125
1.283282,-30.63542986,7.313204646,-66.8896923,-1.123379856,-1.403066606,11.81162059,-4.068110645,4.461919846,1.128893048
1.291615,-30.65148735,7.393525958,-66.91214755,-2.178232044,-1.332272574,6.047063112,-2.372019321,9.137204946,2.3365791
1.299948,-30.65791321,7.538558603,-66.95397375,-1.785353899,-0.569086775,13.15820837,-0.911501862,17.02973449,4.277809381
1.308281,-30.66956568,7.612399816,-66.96336173,-1.764210839,-2.11882931,6.135336697,-2.00133954,7.670637966,3.288381204
1.316614,-30.66810608,7.807551265,-67.02106285,-3.006230771,-0.00626139,12.35209918,0.285357028,23.16861522,5.691237092
1.324947,-30.68007994,7.950555206,-67.05982588,-1.577244707,-1.496758044,11.33331335,-1.581071575,16.57481718,4.575049341
1.33328,-30.64991999,8.144525051,-67.09612658,-2.975912355,-0.611576513,6.188656092,3.47101681,21.74532533,7.807338357
1.341613,-30.60270262,8.380751252,-67.16552545,-1.69114233,-0.616023529,12.15478349,6.052733629,28.06461382,7.107342124
1.349946,-30.52087975,8.579499483,-67.18341445,-0.687884666,-0.659894947,8.151875018,9.425359429,21.13537764,9.981252192
1.358279,-30.40655661,8.833111525,-67.2532921,-3.071870491,0.730143488,8.443971396,14.18458253,29.91967488,8.006386638
1.366612,-30.24134684,9.087637425,-67.2795143,-1.353325009,0.496262416,13.39909911,19.59349179,27.46043682,12.42575073
1.374945,-30.0046134,9.338836909,-67.32509233,-2.398967795,-0.022783414,6.796308042,28.51194644,28.28733873,10.15435231
1.383278,-29.71208668,9.622782948,-67.3558121,-1.142527327,1.723631561,11.66038012,34.96986866,30.90563345,13.45254898
1.391611,-29.34102488,9.879687307,-67.3907871,-2.268123388,0.639801651,10.25135279,44.46896458,28.35377598,11.3162725
1.399944,-28.89667606,10.14883089,-67.40690993,-0.840089754,0.378908418,9.834670067,52.93712139,28.70188475,13.70374823
1.408277,-28.37030983,10.38483691,-67.42424203,-1.85550274,2.337167382,9.585548877,62.78600979,25.34902144,11.52407313
1.41661,-27.75447178,10.64789438,-67.42944908,-1.003750503,0.584419459,10.55448306,73.30637265,27.71970463,13.97756124
1.424943,-27.06143427,10.83018756,-67.40519905,-0.609562319,0.476813262,9.395735146,81.89384651,17.61508512,12.46270681
1.433276,-26.29379702,11.05872178,-67.38168143,-1.803021483,1.494417727,10.06969583,90.89111902,22.86461639,14.45783568
1.441609,-25.43801737,11.23404217,-67.329113,-0.314163204,1.094154894,12.91494489,100.760479,15.80504799,14.53822995
1.449942,-24.48601437,11.38700223,-67.25673485,-1.157347769,0.553578313,7.826968908,111.8917599,12.68309876,15.27859735
1.458275,-23.44477415,11.53223467,-67.1703186,-1.008944273,1.872344226,11.12884688,122.1739445,11.38872373,16.08591175
1.466608,-22.30692435,11.64211559,-67.05809593,-0.976007782,0.755326018,11.66744614,133.1878624,6.656188621,17.09683108
1.474941,-21.09253836,11.72335076,-66.92028428,-1.128055863,0.796065196,11.12080788,141.6909561,2.7133613,18.35501695
1.483274,-19.79731322,11.79391909,-66.77791215,-1.733532362,0.981871113,11.44583512,151.3015213,1.756015719,18.41778135
1.491607,-18.41707778,11.86581898,-66.61524393,-0.646659747,0.364431055,12.08167076,160.9317169,1.556176245,20.40641213
1.49994,-16.97870326,11.87173033,-66.44475175,-1.133131564,0.230604109,8.398204088,167.7400894,-5.799798747,19.16375542
1.508273,-15.48769999,11.90613151,-66.26106453,-1.90114525,-0.140098143,11.72132397,173.6410332,-2.468941286,21.47187376
1.516606,-13.95988655,11.86410069,-66.07659148,-0.352030814,-0.590452105,11.32255757,178.1049309,-10.80094641,19.60553789
1.524939,-12.38775969,11.83060622,-65.87172125,-1.983264789,0.346118424,9.658827664,182.8806648,-9.811314822,22.19067192
1.533272,-10.79045045,11.75256038,-65.69134713,-0.027134557,-1.004306227,13.27249479,186.5371704,-13.92851746,18.72892094
1.541605,-9.166588426,11.6511364,-65.4819603,-2.42053634,-0.893240515,11.14380312,189.0587921,-16.64154434,21.81837416
1.549938,-7.549391746,11.54211044,-65.30145838,-0.826989167,-0.791639969,10.41480947,188.9677925,-16.5437305,18.81080914
1.558271,-5.907227159,11.3928616,-65.1102524,-0.47718177,-1.782094002,12.96961427,191.7859306,-20.79768205,19.95330286
1.566604,-4.280083924,11.22603965,-64.93208123,-1.636125721,-1.12934944,11.1345818,190.294159,-22.36998463,18.83773327
1.574937,-2.652842827,11.0451088,-64.76409913,-1.529827356,-1.692144006,13.51582933,190.6489639,-23.27291155,18.10426951
1.58327,-1.055251658,10.816401,-64.59695625,-0.193060644,-2.142333239,12.75754738,187.1591148,-28.57453394,18.55761099
1.591603,0.515558243,10.57009125,-64.44784355,-2.187159091,-1.820165754,9.991586686,184.4223786,-30.09900045,17.09911251
1.599936,2.059135013,10.30567503,-64.30455015,-0.507014558,-1.980485045,11.43469787,181.3270951,-31.90025377,17.36401034
1.608269,3.566093341,10.0071727,-64.18845178,-0.663241882,-3.333199024,12.11348546,177.5917435,-35.60354042,15.06128144
1.616602,4.997950971,9.716080906,-64.08860398,-1.870931775,-2.624060661,15.76710248,168.9318733,-34.58450747,13.96346641
1.624935,6.355807185,9.402402282,-64.00131415,-1.202498525,-3.187036216,10.43223882,160.3841515,-36.91563511,13.7738688
1.633268,7.671470404,9.05565357,-63.94840433,-0.541969821,-3.803315639,9.929625274,156.0329781,-41.1363554,10.83189297
1.641601,8.935829759,8.740208744,-63.8986454,-2.939153224,-3.199230075,12.22988653,150.0007172,-37.06447125,10.937253
1.649934,10.11245012,8.370386242,-63.87823295,1.189998485,-2.842917145,10.22183013,139.995388,-43.96329403,9.319105267
1.658267,11.19396281,8.062282682,-63.8656788,-4.595520943,-4.063547194,14.15836704,128.8313465,-36.46706819,7.811877608
1.6666,12.19331742,7.709294677,-63.8490906,1.763367147,-2.494795203,11.95013964,118.8854675,-41.60482502,10.07349968
1.674933,13.12649965,7.414233089,-63.86634443,-5.261405438,-3.026736587,11.10068333,111.5443993,-35.39607239,5.212842703
1.683266,13.99093866,7.08039248,-63.84310148,2.014973596,-4.124926329,10.40892518,102.6670113,-38.7787199,11.61468601
1.691599,14.78343439,6.814187884,-63.8706894,-5.43920964,-2.634795755,10.82489002,94.8009815,-32.15766954,4.228073627
1.699932,15.48918939,6.495051861,-63.84851265,2.910145462,-2.699773729,9.993268667,83.68166352,-36.73641539,12.16292524
1.708265,16.15356612,6.283530712,-63.86372758,-6.091437519,-3.246855736,12.64420092,79.23088074,-25.33843696,4.623475134
1.716598,16.74253941,5.985939622,-63.84346963,2.127207898,-2.419842899,12.1945095,69.70837784,-34.02106523,12.02997529
1.724931,17.24114275,5.807503164,-63.85611343,-4.563896477,-3.313556016,11.14349604,59.30016422,-21.3432486,4.355335683
1.733264,17.70669842,5.578294337,-63.82920073,-0.344155267,-3.068394184,10.27844346,54.81047917,-25.74056673,10.87295962
1.741597,18.10300732,5.4280442,-63.82541085,-3.209521081,-2.382814676,9.016830804,46.82420254,-17.43665671,5.602589489
1.74993,18.44469023,5.264225542,-63.79813575,-0.206677109,-2.309857637,10.04916263,39.99753857,-18.10301018,8.793693543
1.758263,18.72677803,5.118167162,-63.80008508,-2.293858886,-2.076439992,5.227876366,33.140347,-17.10795427,5.051291645
1.766596,18.98278427,4.994175255,-63.76430893,0.109476864,-2.467057407,14.25529599,29.65939951,-13.15009177,8.400360108
1.774929,19.1541605,4.84693861,-63.77841188,-2.734470487,-1.965497539,13.29603529,19.97796702,-17.66978574,3.860853135
1.783262,19.28851843,4.774814785,-63.73150443,-0.558024347,-2.406474978,10.28947866,14.99336025,-6.772755947,7.710826755
1.791595,19.41865969,4.684762061,-63.71709253,-3.644080818,-1.424682677,10.17511839,14.75453925,-10.05340207,4.836606086
1.799928,19.50862265,4.614884019,-63.6739006,2.064710796,-1.096817496,5.162861929,9.71817565,-6.677367211,7.152024269
1.808261,19.57840491,4.551824153,-63.65120315,-3.831873417,-1.622944027,6.469637037,7.436447025,-6.65124905,4.720210552
1.816594,19.61621809,4.444387853,-63.61851503,2.017719031,-0.907785103,9.050270439,3.546092868,-11.327712,7.496151448
1.824927,19.65852737,4.39160341,-63.59278683,-4.175499499,-0.597861778,16.94819606,4.127468981,-5.368611482,4.620927394
1.83326,19.67652321,4.280617654,-63.5612698,1.91171293,-1.138588265,12.73640692,1.167660236,-11.76431051,7.527471543
1.841593,19.70355034,4.235630155,-63.52547265,-3.206006885,-0.569459012,9.442157922,2.25605461,-4.076830857,5.466337979
1.849926,19.76342774,4.099145055,-63.51881408,0.948189832,-0.488294483,5.314087808,6.328807354,-15.640306,5.752642572
1.858259,19.82601738,4.039463103,-63.47700693,-2.463384405,-0.401757255,11.80344451,6.478481923,-5.461553694,6.804541707
1.866592,19.8571167,3.860356391,-63.50308798,1.568951771,-0.256987259,7.567035885,3.128861666,-21.75551641,3.899067521
1.874925,19.90313673,3.786577761,-63.4683151,-2.887908772,-1.465812147,7.39723277,4.600073397,-7.318132528,6.609648109
1.883258,20.00078106,3.568579614,-63.51149178,1.198570103,0.48973018,13.16054392,11.19518495,-26.81661749,3.664070427
1.891591,20.08210945,3.470839083,-63.49274828,-2.457436562,-0.981654763,11.41021228,9.022172212,-10.66214573,5.7893852
1.899924,20.18212032,3.226286829,-63.5544567,1.891205847,0.622093752,7.794773548,11.55298483,-30.56653094,2.774576098
1.908257,20.29585266,3.097655297,-63.5387993,-4.243317515,-1.573286638,9.62777084,12.9869839,-14.23480224,6.724453569
1.91659,20.41646385,2.810849324,-63.62047003,3.31455192,0.605359889,10.81743026,14.07486844,-36.15618134,2.436384022
1.924923,20.54474974,2.652726218,-63.62903595,-4.918107569,-1.276459009,9.714649081,14.89439273,-18.52505469,5.295025224
1.933256,20.67577982,2.385794308,-63.69772913,3.397249252,-0.51370734,10.56384868,15.23361659,-33.37678051,3.187958984
1.941589,20.82396793,2.153076049,-63.7494507,-5.689178288,-0.825297103,10.64068395,17.38350344,-28.69564891,3.742617938
1.949922,20.95922375,1.931554206,-63.79277993,2.037478745,0.137618929,13.85532212,15.60317612,-27.18898582,4.204171657
1.958255,21.08474589,1.664188817,-63.87924955,-2.790010996,-2.073796719,6.994454802,14.7847259,-34.06135035,1.503118932
1.966588,21.21558094,1.43131584,-63.9263897,0.056326598,-0.055114873,9.974298134,15.0078975,-28.59830451,4.338697317
1.974921,21.34205103,1.207174197,-63.9992962,-3.001340926,-0.564864464,14.30129051,14.85802698,-28.62650681,1.309664845
1.983254,21.44115353,0.942769625,-64.06509398,1.213611663,-1.955244333,4.169191003,11.19446325,-32.91110993,3.774003625
1.991587,21.53904104,0.790780183,-64.12691498,-5.494347275,-0.891616985,15.39027286,11.36379838,-20.08547044,-0.588543952
1.99992,21.62972307,0.533492386,-64.1696434,1.648291022,0.140949231,9.903069376,10.11049139,-31.07052135,6.199593811
2.008253,21.69605828,0.370443709,-64.24210928,-3.304263026,-1.734687306,6.237397597,7.528761863,-21.802104,-1.219345093
2.016586,21.78621483,0.179433406,-64.266119,-0.193977237,-0.026395179,11.42440045,10.04585469,-22.83643484,5.359021556
2.024919,21.85771132,0.033080943,-64.32258035,-2.60787633,-0.621875644,11.19107568,8.047852397,-19.23981881,-0.115575195
2.033252,21.89253092,-0.146931857,-64.3492279,0.057066619,-0.814760931,11.11990047,3.438102178,-21.70527411,4.669420555
2.041585,21.93410683,-0.226093933,-64.38655093,-2.936676085,-0.708443537,13.70361042,4.375777409,-10.89671791,-0.955914386
2.049918,21.98058367,-0.337471217,-64.37714768,-1.437274128,-0.92940826,13.50097323,4.911451742,-12.43413302,5.619531602
2.058251,22.0239625,-0.40910323,-64.4211521,-1.705511153,-0.889873622,9.700305343,4.518873751,-10.37728608,-2.014188394
2.066584,22.0448699,-0.481278375,-64.3973999,-1.645217479,0.271772698,10.51845944,1.868033663,-7.418451995,5.455349684
2.074917,22.05127859,-0.459297799,-64.39672088,-2.768555101,-1.540458828,8.729742051,0.131698817,2.033430934,-1.293851912
2.08325,22.0788064,-0.457450144,-64.35931395,-1.991934836,-0.865830362,6.934331775,2.694656491,1.437039494,3.658702493
2.091583,22.10339165,-0.427986331,-64.34947778,-0.816644977,-0.011619166,8.351407528,2.271944463,3.277440816,-0.606071129
2.099916,22.10955811,-0.370883361,-64.30153465,-1.903432876,-0.413137198,13.00161052,0.151853725,8.046922684,2.298522651
2.108249,22.11796904,-0.267867006,-64.26036263,-0.630031794,-0.717612267,10.25251901,0.361439183,12.86634922,-0.440619379
2.116582,22.14382601,-0.237394467,-64.2183132,-0.86771141,0.121026516,10.91188335,2.468898475,4.818149746,2.848145895
2.124915,22.18068075,-0.150051527,-64.19257545,-1.359922529,0.415693812,14.79125691,3.724102288,10.42596579,-1.475521148
2.133248,22.22258663,-0.067921307,-64.12786673,-1.412540019,-0.515169989,12.79491592,4.397791863,11.59541232,3.0286979
2.141581,22.25528908,0.008111242,-64.09669303,-0.353523605,-0.683251128,7.277386546,3.226142146,9.399288773,-0.399204239
2.149914,22.28377676,0.091684812,-64.04781533,-1.710743666,-0.262942661,12.50688648,2.713540322,11.03792846,1.175597668
2.158247,22.32040691,0.184505699,-63.99613763,-0.632713244,-0.851680294,10.18819594,3.702727094,12.20656586,1.13553996
2.16658,22.35801506,0.236159638,-63.96053315,-0.49441557,-0.517208032,5.660829486,3.795213401,6.889215827,1.153850675
2.174913,22.40167856,0.294972405,-63.92901043,-1.246706449,-0.172912449,10.56020427,4.510775924,7.509246265,0.402905576
2.183246,22.44456911,0.340251554,-63.89700318,-1.639682114,-0.108221706,11.91773605,4.423395902,6.020212889,1.04059428
2.191579,22.47471476,0.361697387,-63.87314795,0.96654612,-0.566484198,6.6679492,2.913126147,3.020254404,1.291479468
2.199912,22.51832295,0.374225549,-63.8728981,-1.924337596,-1.161679596,11.39339566,4.484376863,0.931689017,-0.997873014
2.208245,22.55776119,0.380976532,-63.8439579,0.067616373,0.059595976,13.25462556,4.048105892,1.63367945,2.53425631
2.216578,22.57984448,0.357688539,-63.86274528,-1.276384758,-1.002747007,7.323766708,1.935171366,-3.914854288,-1.444044132
2.224911,22.60975838,0.310188136,-63.86452295,0.668667898,-0.794003299,8.65744412,2.902768582,-5.792099416,1.624419734
2.233244,22.63752508,0.252169932,-63.89397238,-2.178729266,0.124360744,11.93796277,2.59802033,-8.223419488,-0.956918802
2.241577,22.64300824,0.193874553,-63.8978653,0.11519593,-1.094222352,9.913524867,0.039055243,-7.098252476,1.849824876
2.24991,22.63676786,0.103667714,-63.9493103,-2.111161675,-0.775321112,11.83993971,-1.480285228,-12.82881188,-1.946970567
2.258243,22.61113262,0.03002587,-63.95302963,0.718817771,-0.761780322,10.60027027,-3.688988394,-8.771400929,2.632509947
2.266576,22.59048223,-0.068025,-64.00302125,-2.81498348,-1.15096046,10.50251067,-3.214708548,-13.61604571,-1.429857314
2.274909,22.56229258,-0.154771894,-64.00805283,-0.097246766,-0.386437148,11.97671509,-3.992677152,-10.28557408,3.088167846
2.283242,22.5230403,-0.24415949,-64.04999543,-2.836689204,-0.440770194,9.814011814,-5.445430637,-12.28322899,-0.935118047
2.291575,22.46774102,-0.337588608,-64.04572488,0.592075378,-1.37573503,9.802250027,-7.204731584,-10.61900711,4.389288396
2.299908,22.40972662,-0.453651741,-64.0989723,-2.843329638,0.115766192,10.67201889,-7.775834187,-15.76287389,-1.000572443
2.308241,22.34433127,-0.532701209,-64.08523753,0.877516747,-1.26221041,10.50921059,-8.39971888,-8.591985584,4.78906852
2.316574,22.29227543,-0.652587369,-64.13621138,-3.204476684,-0.909379273,9.855875731,-7.084915757,-16.07691717,-0.607714206
2.324907,22.211905,-0.731941671,-64.1264839,0.352162128,-0.535411708,10.80476797,-10.19656539,-8.824858397,4.327628344
2.33324,22.13458443,-0.819262099,-64.16264155,-3.646844566,-0.308901623,10.69705367,-10.08707106,-11.77888006,-0.450332761
2.341573,22.05598879,-0.875207562,-64.13861655,-0.2749734,-1.356715352,9.069656134,-9.917791366,-5.591341496,4.834668502
2.349906,21.97160769,-0.942217726,-64.17514038,-3.234261751,0.359358534,12.42095304,-10.95420277,-9.538471819,-1.432575286
2.358239,21.8790679,-0.953382302,-64.13492968,-1.144899845,-0.905610107,9.798416735,-11.55743623,0.107147545,4.629005433
2.366572,21.79487705,-0.974546492,-64.1452713,-3.046866596,0.058221698,11.3887012,-10.8498168,-3.269149481,-0.605638981
2.374905,21.70410347,-0.966705006,-64.11383055,-0.352519289,-1.070814371,10.52731573,-11.41114783,1.81240955,2.776026447
2.383238,21.6144743,-0.946430031,-64.09935,-3.179525256,1.023695707,11.36757255,-11.47534323,2.455833077,0.313277721
2.391571,21.52971125,-0.897546368,-64.05672073,-0.717431948,-2.025102794,10.15845311,-10.62975884,6.866604567,2.213662862
2.399904,21.45375824,-0.870358011,-64.04793165,-2.310452283,0.570424084,10.22739506,-9.880651235,2.948727123,-0.686368704
2.408237,21.37965727,-0.787528722,-63.99069213,-0.780328497,-0.491791453,11.20969391,-9.343188285,11.29690862,2.381353139
2.41657,21.31601525,-0.744063464,-63.97191433,-2.313701451,-0.327123335,11.03444338,-8.372369648,5.195707561,-0.288265586
2.424903,21.2512064,-0.664920829,-63.932621,-0.307318062,-1.04191348,9.83152604,-8.308693529,10.09350693,0.54292208
2.433236,21.19410706,-0.593823668,-63.90003778,-2.326029837,1.251369433,12.58469176,-7.554256678,8.88113022,0.068264365
2.441569,21.14667511,-0.514313139,-63.86655045,-0.317487389,-2.178661555,9.446762085,-6.251408696,9.89322257,-0.082283139
2.449902,21.10264683,-0.452505984,-63.84513283,-2.04475081,0.885340296,10.92436683,-6.041671873,7.354004713,-0.780840636
2.458235,21.05968904,-0.335600518,-63.79600908,-0.975230109,-0.63922672,12.28485298,-5.665034413,14.75309515,0.080130935
2.466568,21.01976395,-0.283962861,-63.77188298,-1.893341318,-0.07123521,9.40828514,-5.527145863,6.324312032,-0.042452335
2.474901,20.9784379,-0.147709787,-63.71911813,-1.540744096,-1.368883953,10.72293746,-5.47508008,17.07593084,-0.316171885
2.483234,20.93978167,-0.050963579,-63.67085458,-1.491093427,1.200863168,12.04632688,-5.356332183,12.40853548,0.718654275
2.491567,20.90187455,0.080361703,-63.6150398,-2.551525548,-1.756250777,8.184570075,-5.110294193,16.64473271,0.232650996
2.4999,20.86490584,0.230402053,-63.5420475,-0.884229669,0.214321047,11.72965121,-5.178915441,19.43560195,1.226539612
2.508233,20.83738136,0.387117222,-63.4901352,-3.009805799,-0.649341056,10.02190983,-3.941734374,19.33862376,-1.257188767
2.516566,20.79950809,0.550888405,-63.40115928,-0.232056335,0.024707265,10.58239305,-5.355584026,21.65820813,2.477546991
2.524899,20.7675066,0.755686894,-63.34846495,-3.119633898,-1.125955075,11.71665859,-4.523851395,24.76744079,-3.198188834
2.533232,20.72795296,0.923666701,-63.25462913,1.196554214,-0.001245767,10.02969706,-5.640035868,22.32937765,2.86119818
2.541565,20.69522619,1.149269715,-63.2195034,-4.067012429,-0.168703761,10.93542266,-4.638850689,26.34951973,-6.051748037
2.549898,20.65134525,1.322042339,-63.11725618,1.438918576,-0.853492663,11.83320236,-6.233928204,23.21488857,3.61041794
2.558231,20.60594511,1.531959096,-63.10024453,-3.025203705,-1.039324269,9.396330596,-6.154323589,23.83687401,-7.360341311
2.566564,20.56661558,1.691671621,-63.0011902,0.11864657,-0.091363944,10.50675166,-5.753026843,21.60778475,3.825580836
2.574897,20.52363444,1.878728494,-62.99817658,-1.884280875,-1.023636863,11.76424146,-5.821775496,20.68610144,-7.924724818
2.58323,20.47409868,2.027395226,-62.90963555,-0.242217388,0.077875376,11.62190771,-6.985263944,19.92165613,3.150513768
2.591563,20.39261675,2.197445035,-62.90496635,-1.246978998,-0.078254015,11.1584394,-10.47923625,18.8599112,-6.981213749
2.599896,20.31964397,2.353379309,-62.82535173,-1.828095138,-0.942221209,11.43837356,-9.79681933,20.35478234,1.885663748
2.608229,20.23666191,2.484597743,-62.81483078,-1.162889228,-0.837534882,9.49679017,-10.70068026,14.759763,-4.646359891
2.616562,20.16601753,2.616930008,-62.75779533,-0.488751404,-0.414138459,9.875639795,-9.413020255,16.74801707,0.385033712
2.624895,20.09565783,2.721865475,-62.75102235,-0.930359267,0.530334681,12.65244007,-9.188735008,11.65235209,-3.957444608
2.633228,19.99816227,2.856772512,-62.69036295,-1.518563386,-1.037024284,10.43583846,-12.67068553,17.19010353,0.753728777
2.641561,19.88616705,2.954025507,-62.67989158,-0.928342536,0.517822109,10.95010448,-14.22250438,10.95416558,-3.186424554
2.649894,19.79202175,3.038890898,-62.65062523,-1.337984726,-1.551760942,8.550030471,-12.1368444,10.26110637,-0.702755138
2.658227,19.72161818,3.117742717,-62.63498118,0.093577847,0.558542224,12.9988575,-9.257898331,9.088331937,-1.82662788
2.66656,19.63629294,3.181940437,-62.62690928,-2.476196543,0.05199562,12.15114403,-10.93795586,7.071550847,-2.227126301
2.674893,19.52890635,3.28483519,-62.59888648,-0.186662581,-0.033471707,9.119417667,-13.75989151,12.32014096,-1.317331149
2.683226,19.4335537,3.331297934,-62.62791638,-2.129713089,-1.020029869,9.85829425,-11.92728019,3.630757764,-5.58803159
2.691559,19.35672426,3.413473428,-62.60857773,-0.385129769,-0.194169801,12.4632175,-10.05385542,9.635715423,-1.426101744
2.699892,19.24304867,3.480239272,-62.64204788,-1.956961602,-0.502309002,12.00384164,-14.07877636,5.79977852,-6.789359093
2.708225,19.09871101,3.574422836,-62.6419754,-0.131638456,-1.171296045,9.388086318,-18.01849389,10.26144207,-3.994907469
2.716558,18.93636894,3.658284307,-62.6830654,-2.773753409,-1.729067058,10.75563991,-19.86370015,7.456317544,-8.361383796
2.724891,18.74378729,3.744035483,-62.70171548,0.088998034,-1.18684868,10.47283053,-23.63316846,8.570954918,-5.804116786
2.733224,18.50373888,3.839554966,-62.76346203,-3.336766601,-1.758577377,11.82304763,-29.00054598,8.012458086,-11.19768095
2.741557,18.18504095,3.955862641,-62.78536608,1.051468991,-1.667131216,9.97317338,-38.74013948,12.00735188,-7.178465814
2.74989,17.80381727,4.092911721,-62.85469625,-4.738716781,-2.248814941,11.53936791,-45.8516531,12.59585083,-13.50397659
2.758223,17.34217811,4.253813267,-62.8614235,0.302868173,-2.691160023,11.25089646,-55.9632473,17.71692658,-6.886434198
2.766556,16.80508113,4.416139126,-62.950346,-3.671363443,-2.473355293,10.24755776,-64.33079243,15.01839447,-16.41086674
2.774889,16.1801467,4.620383561,-62.9547806,0.607294276,-2.943904817,9.353402735,-75.5708971,22.90953517,-7.674900889
2.783222,15.4697957,4.804797947,-63.05333138,-3.565867752,-1.99792403,10.3236084,-84.99863816,17.67412937,-17.91222644
2.791555,14.65580964,5.08190155,-63.0611477,-1.186284669,-3.520807266,10.68756735,-98.21813393,31.41077376,-9.652416467
2.799888,13.7570622,5.326139093,-63.15460778,-3.603172109,-1.836426079,12.36533093,-107.5555801,25.30705357,-18.53551102
2.808221,12.76753998,5.678650022,-63.16859818,-0.974587918,-3.01043123,9.973081469,-119.1918907,40.29445029,-11.25692749
2.816554,11.68583989,5.956638098,-63.26413345,-1.688261859,-2.217015803,10.1442442,-129.3611069,29.87759209,-18.76498938
2.824887,10.5102601,6.342725873,-63.29141428,-1.943362653,-3.66930604,9.436970234,-141.3269062,44.21708298,-12.15336072
2.83322,9.258630871,6.680885315,-63.37560463,-2.211335685,-0.791708872,12.97514009,-149.7739525,38.02108622,-17.39151096
2.841553,7.910384059,7.107152581,-63.4176521,-1.65186891,-3.372253299,11.31506908,-161.7852097,49.14942265,-12.80695188
2.849886,6.503352344,7.479785562,-63.49562453,-0.995244086,-1.342078729,8.688624502,-168.3730431,43.05147839,-15.31839704
2.858219,5.014935732,7.867524982,-63.55931663,-0.580617152,-2.06712348,9.13021934,-178.1957894,44.80787849,-12.84465146
2.866552,3.487027325,8.245706439,-63.6585426,-1.142502122,-1.007343635,11.92238569,-182.4202423,44.34424877,-15.67928863
2.874885,1.896328039,8.633368731,-63.75718118,-3.124131519,-2.083408967,13.28132141,-189.7743683,45.25608635,-14.4900676
2.883218,0.256586373,9.00742507,-63.86229135,1.033022285,-0.513142437,11.0070858,-195.5859795,44.66692257,-13.71665055
2.891551,-1.439636857,9.320038557,-64.01811025,-1.451851025,-1.601710379,8.167189897,-201.1785545,37.08104563,-19.12008953
2.899884,-3.151359824,9.661896231,-64.1335373,1.120930121,-1.138850868,9.849245191,-203.8889084,41.52877522,-12.57337344
2.908217,-4.860075027,9.910527946,-64.32959365,-2.682045907,-0.027260556,11.67955577,-201.6778603,30.84522677,-22.00637722
2.91655,-6.574043274,10.18013406,-64.44874955,0.671154831,0.766268313,12.29056048,-203.9254799,33.39187956,-11.3538847
2.924883,-8.290932774,10.42610598,-64.66640093,-2.510537088,0.502703756,10.61162615,-201.981987,31.97136068,-22.19167567
2.933216,-9.967844129,10.59842181,-64.79678155,1.302221842,1.584290162,9.587986828,-199.1085701,22.64972806,-12.67074907
2.941549,-11.59727502,10.78718638,-65.0151119,-3.159734801,0.923389128,11.66423607,-191.355835,26.50501156,-21.41301918
2.949882,-13.15477967,10.92026091,-65.14779855,1.220756561,1.698061668,12.14687014,-184.6236,18.63956356,-12.41296327
2.958215,-14.6762433,11.00403881,-65.3618965,-1.107729964,1.663340092,9.900224804,-178.3853531,15.41669954,-22.68313885
2.966548,-16.11152577,11.1056869,-65.50693513,0.00257219,2.605054647,11.49391484,-169.6348839,15.97530103,-13.6895194
2.974881,-17.46165109,11.0955379,-65.69351195,-1.652796879,1.882638693,10.04093647,-158.3663063,4.713997125,-22.02554178
2.983214,-18.74460697,11.13577223,-65.83785628,1.179758964,2.187520757,11.73906779,-151.2854843,9.388361512,-15.12581086
2.991547,-19.91531324,11.07996249,-66.0180607,-1.406836942,2.925487265,10.3198458,-137.0197124,0.270176769,-22.68435669
2.99988,-20.97495031,11.01908398,-66.11870955,-0.210724399,3.214843541,12.06385899,-125.4173889,-3.288314224,-14.21723152
3.008213,-21.95142126,10.91637421,-66.26851845,-0.203779429,2.927728355,12.19215059,-114.4722137,-5.531113982,-21.16395331
3.016546,-22.78398609,10.79961181,-66.34645653,-0.913931899,2.855831921,8.077914239,-98.7291317,-10.04234827,-14.21962953
3.024879,-23.4932437,10.62431812,-66.42741583,-0.012130462,4.146568656,12.9709053,-83.96858311,-16.08378792,-17.40391398
3.033212,-24.11320353,10.46350479,-66.4837017,-0.948506942,2.09451966,10.52857542,-73.73289776,-15.55243993,-14.17023134
3.041545,-24.60534239,10.27087116,-66.53446578,-0.757741921,3.110191494,8.884950758,-58.70529175,-19.09611583,-15.20133496
3.049878,-25.00091505,10.06362844,-66.55099298,-1.437010028,2.915293396,14.28731227,-47.65731335,-22.31508422,-12.48027337
3.058211,-25.31165027,9.869677305,-66.57813263,-1.223745585,2.711886317,11.38232374,-37.51916266,-20.21450877,-12.99402142
3.066544,-25.53329706,9.661400556,-66.5900879,-1.369487763,1.507589817,8.928593041,-26.94947123,-22.47373629,-12.28073966
3.074877,-25.66912079,9.45898044,-66.58879853,-1.251926892,2.438668072,12.70277286,-17.13571447,-22.50330591,-10.54230928
3.08321,-25.75012445,9.271822095,-66.61201668,-2.222001359,1.045536442,10.14013553,-9.91390145,-19.54866409,-12.45794248
3.091543,-25.77812958,9.080451487,-66.60533905,-0.912807368,1.75725916,9.166601897,-4.306991638,-21.5617609,-9.462498784
3.099876,-25.76962805,8.926292422,-66.63449095,-2.293717995,0.220751334,12.59236741,0.88805753,-15.63316894,-11.44052613
3.108209,-25.7283516,8.759765984,-66.62896348,-1.042940438,1.266278893,12.26326585,4.062121198,-18.82612324,-8.286906122
3.116542,-25.68985653,8.629255294,-66.66400335,-2.400924251,-0.408316761,8.791514635,4.60702895,-12.77796578,-10.82682026
3.124875,-25.60732651,8.510835052,-66.66903305,-0.634627179,0.263721571,12.5743022,9.175706387,-13.07580221,-6.936099649
3.133208,-25.54019642,8.393995404,-66.6959038,-2.619517893,-0.199738072,10.25952864,7.901008128,-11.72155738,-9.251140832
3.141541,-25.46983481,8.308225274,-66.69757653,-0.977960304,-0.182596941,10.94930911,7.717499495,-9.69347167,-4.915916563
3.149874,-25.42279005,8.226849198,-66.72483063,-1.915974975,-0.526635081,12.47618294,5.470388413,-7.883550764,-7.434092046
3.158207,-25.37483358,8.163310528,-66.72332573,-1.509754049,-0.24060661,10.22185135,4.968432092,-7.454421462,-3.409479082
3.16654,-25.33749342,8.109475374,-66.74191095,-1.957459122,-0.870462785,12.36788106,4.15542984,-5.342758715,-5.086290091
3.174873,-25.32245016,8.078880429,-66.73598483,-1.162007168,-0.75638032,10.29685104,0.955103755,-4.106375158,-1.241925459
3.183206,-25.32500887,8.025526524,-66.74908258,-0.904100813,-1.022172135,10.82271778,-0.765680045,-5.571416974,-4.482562125
3.191539,-25.33990812,8.01788044,-66.74587823,-1.972664017,-0.595984943,11.90700579,-2.620621383,-1.465678454,-0.37586977
3.199872,-25.40542841,7.98719585,-66.7642956,-1.675332025,-1.532966093,9.928550722,-8.243879765,-2.849651694,-3.879347086
3.208205,-25.47395277,7.992358208,-66.76450158,-1.412224912,-0.990747906,10.43188143,-8.978245319,0.100523204,-0.081382856
3.216538,-25.57860374,7.978772163,-66.79117203,-1.359351829,-0.627909604,11.66898895,-12.84006047,-0.547626421,-3.914272249
3.224871,-25.70390844,7.992704988,-66.7975235,-1.949363828,-1.314711005,7.518619537,-15.66649103,1.361445576,-0.278413862
3.233204,-25.84365606,7.979191542,-66.82260513,-0.474433184,-0.885642387,11.43951058,-17.06461239,-0.617066663,-3.727672786
3.241537,-25.99948406,7.996615887,-66.84062193,-1.862817794,-0.733365104,10.25652337,-19.13758755,2.337706656,-1.324832782
3.24987,-26.181777,8.005777955,-66.86851503,-1.199886378,-0.73416879,9.542092324,-22.13555694,1.997433938,-2.839406735
3.258203,-26.35703564,8.037036419,-66.89222525,-1.959682763,-0.403543073,12.53882051,-21.36339521,4.133995771,-1.183371469
3.266536,-26.56632614,8.044963479,-66.92022703,-0.96340432,-0.657064267,10.87033248,-25.35258675,1.885550588,-2.904739261
3.274869,-26.76029015,8.071756601,-66.9366722,-1.798043698,-0.503565558,9.55585873,-23.67878389,3.259211377,-0.627344311
3.283202,-26.96616554,8.079090119,-66.95394325,0.110351272,-0.251751984,11.85236502,-25.13076115,1.277651101,-1.80296471
3.291535,-27.16132307,8.066662073,-66.9604435,-1.215269313,-0.418327593,9.144635915,-23.99189234,-1.459349036,-1.711012411
3.299868,-27.36408854,8.069302678,-66.96784593,-0.900691763,-0.627609163,11.78790915,-24.93877459,0.251551032,-1.000044148
3.308201,-27.56618262,8.040398598,-66.95713428,-1.781162508,-0.179999531,10.10928822,-25.10924721,-4.145945251,-0.818676323
3.316534,-27.76047563,8.026069165,-66.96551133,0.14686656,-0.041973755,10.43039906,-23.93191767,-1.493765354,-2.029487549
3.324867,-27.94802809,7.982345104,-66.94298363,-2.555413496,-0.056598127,11.40406942,-23.55828428,-6.363702773,-0.445585504
3.3332,-28.13041067,7.966283441,-66.94011495,-0.763490535,-0.521128119,9.641341568,-22.68751192,-2.308036177,-0.940065205
3.341533,-28.30110931,7.901096821,-66.91583825,-1.293181009,0.326889914,11.60197449,-21.55109835,-8.738028229,-1.495686591
3.349866,-28.46171856,7.877355099,-66.90198705,-0.780871711,-0.564202368,8.802163719,-20.26223755,-3.733266667,-0.256372839
3.358199,-28.59715986,7.807769179,-66.87357523,-1.576244976,0.133323759,11.63492644,-17.41462517,-9.421476185,-1.349470444
3.366532,-28.73020983,7.788883329,-66.86084175,-1.426332325,0.109489577,9.065154432,-16.94515944,-3.167172789,-0.115103953
3.374865,-28.84140635,7.725688338,-66.83913805,-1.415904034,-0.872782499,12.02408504,-14.39785623,-8.363657711,-1.696709931
3.383198,-28.92632103,7.702550649,-66.8197403,-1.726085648,0.771954581,8.96430409,-11.26072967,-3.996836007,0.301658839
3.391531,-29.00666285,7.663399935,-66.8117886,-1.55919233,-0.212533832,11.56676495,-10.49462128,-5.037863352,-1.749084437
3.399864,-29.05666924,7.638061047,-66.78564073,-1.931996435,-0.239338771,10.52131605,-7.147057175,-4.625194938,0.863769695
3.408197,-29.11808157,7.616262198,-66.79164505,-1.292184878,-0.100999102,12.24768663,-8.039976239,-2.414059043,-2.185553968
3.41653,-29.15296745,7.580841899,-66.75579453,-1.751179144,-0.227645069,11.86843753,-5.433823467,-6.247693539,1.284265876
3.424863,-29.19259167,7.58900094,-66.7639656,-2.178116709,-0.446095608,9.826063633,-5.412339568,0.862306595,-0.688276906
3.433196,-29.2143178,7.530238747,-66.729908,0.333386302,-0.265524067,11.41338468,-3.817302741,-8.588758228,-0.255630095
3.441529,-29.24703265,7.535173774,-66.73695563,-3.252801195,-0.536183088,11.07274199,-4.620981276,0.462263487,-0.790234461
3.449862,-29.29154873,7.501930595,-66.71122743,-0.422044449,-0.89024552,12.00156581,-6.448006273,-5.434969782,0.393806066
3.458195,-29.32313967,7.482109189,-66.71029855,-2.099992652,-0.085100781,9.624076008,-4.569426298,-2.595801592,-1.424343705
3.466528,-29.362813,7.481058002,-66.70417023,-0.898817137,-1.08595738,11.42514694,-5.615549788,-0.917367965,0.24116768
3.474861,-29.38927507,7.439901948,-66.68652343,-1.759993233,-0.425456872,8.416074395,-4.163683832,-5.809254764,-0.931708247
3.483194,-29.4265871,7.473771215,-66.70347593,-1.880952619,-0.465905976,11.89414859,-5.004208922,4.08312416,-0.121350613
3.491527,-29.46863222,7.43440795,-66.69394685,-1.440833256,-0.985984922,11.19064546,-5.91767621,-5.151576759,-1.640214048
3.49986,-29.49181271,7.475698471,-66.70019723,-2.820087731,-0.114082694,8.610069395,-3.454547406,4.217886567,1.435431436
3.508193,-29.52646351,7.487298131,-66.71669388,-0.837327279,-0.335248564,12.2896409,-4.67824164,1.69954278,-1.316603704
3.516526,-29.53897047,7.49665308,-66.71581648,-1.705307977,-1.158512757,8.002736926,-2.234669358,0.458872676,0.28920716
3.524859,-29.56873942,7.564954996,-66.75471113,-2.558250636,-0.32569553,13.51742339,-3.788172722,8.937439143,-0.288912592
3.533192,-29.59707022,7.568316937,-66.7564373,-1.063391607,-0.765490548,8.598411113,-4.05924809,-0.014193565,-0.313025251
3.541525,-29.60381699,7.65549171,-66.8069725,-1.9015387,-0.612957798,10.2439003,-0.842484116,11.57899827,-0.370301899
3.549858,-29.62319756,7.67960012,-66.82049373,-0.769911066,-0.816113137,11.0124831,-2.821302533,2.841272206,-0.283274235
3.558191,-29.62774134,7.732534766,-66.85498238,-2.067909777,-0.255278235,7.659006297,-0.758187786,7.066084904,-0.760765225
3.566524,-29.64248848,7.815124989,-66.9052639,-1.548292913,-0.900641874,14.53318286,-1.706849486,11.10675013,-0.617764115
3.574857,-29.65296173,7.831294179,-66.9245262,-1.270340517,-0.850214414,8.816719294,-1.669090882,2.322330965,-1.322959323
3.58319,-29.64999152,7.92264998,-66.97424508,-2.578556687,-0.336006649,11.00791514,0.426211447,11.99384642,-0.070074171
3.591523,-29.65045357,7.963403345,-67.0032158,-0.356342912,-0.923017412,11.37771833,-0.333590253,5.436898411,-0.812198758
3.599856,-29.64181233,7.993078709,-67.0175953,-0.948971831,-0.579025313,8.881768347,0.581302282,3.476911515,-0.067115724
3.608189,-29.65580511,8.054631472,-67.0621357,-2.024155803,-0.794620447,13.7902174,-1.741117954,8.538069964,-1.228039265
3.616522,-29.66153336,8.074096799,-67.06632043,-0.909850359,-1.143588409,9.688974023,-1.287976623,1.801655084,0.416077524
3.624855,-29.66035223,8.108357191,-67.09510805,-1.984954298,-0.867579482,9.693185924,-0.182475688,4.756426842,-1.220358372
3.633188,-29.65792561,8.145376802,-67.1132717,-0.493263204,-1.085649584,11.27871967,-0.12187906,4.463222757,0.002993666
3.641521,-29.65757132,8.145477891,-67.11585428,-1.196490409,-0.367831487,8.330220461,-0.695660256,-0.342299029,-0.540927887
3.649854,-29.66962767,8.168848634,-67.1387558,-2.707945407,-1.326748371,11.28129148,-1.774967216,3.322266608,-1.317721218
3.658187,-29.66629982,8.191645622,-67.15417673,-0.232257672,-0.708735175,13.13436222,-0.144316912,2.769481361,-0.491620321
3.66652,-29.68073273,8.170103312,-67.16349223,-2.089729421,-0.643827433,8.383433222,-2.273893982,-2.156510189,-2.583509266
3.674853,-29.67499018,8.190668583,-67.16734315,-1.176180721,-1.078287087,11.05785298,-0.045951933,1.844855651,0.582979985
3.683186,-29.67968178,8.187052965,-67.18692973,-1.140439868,-1.461202041,10.583606,-0.954997987,0.293686211,-2.535213709
3.691519,-29.6933341,8.15065968,-67.1682167,-0.520108685,-0.507902771,7.570301354,-2.725979049,-5.425444483,-0.459215284
3.699852,-29.70087147,8.16650033,-67.20222475,-3.361785054,-1.468090907,13.60942173,-1.087878265,3.199234091,-2.939777822
3.708185,-29.71267557,8.155430436,-67.1978474,-1.108808088,-1.060646808,11.61897659,-2.284549594,-1.950031191,-0.410304852
3.716518,-29.72276402,8.139051676,-67.20763205,-1.776597364,-0.257758896,9.489026428,-1.772159174,-1.597953663,-2.321238846
3.724851,-29.73447752,8.158027411,-67.21697428,-2.120997257,-1.353234112,12.26081467,-2.049020171,1.973547869,-0.020276904
3.733184,-29.74274302,8.143698573,-67.21896363,-0.142727152,-1.230360925,9.124226808,-1.666401446,-1.857717544,-1.351691984
3.741517,-29.76664114,8.11643827,-67.2114506,-1.730832016,-0.741865464,9.565969229,-3.772749603,-3.819943994,-1.07335823
3.74985,-29.78752136,8.117932916,-67.21740533,-1.192093842,-1.567549676,12.24592781,-3.168999642,0.027945124,-0.838863045
3.758183,-29.81131458,8.099486947,-67.20791433,-1.910161823,-0.78452849,11.12071157,-3.804648772,-3.040233761,-0.293471929
3.766516,-29.8429718,8.081965923,-67.20212935,-2.374656201,-0.833774016,7.461606502,-4.637098819,-2.636370777,-0.783808425
3.774849,-29.85790015,8.105279565,-67.21204188,-1.23623693,-1.476555824,12.65322209,-2.461745739,2.451458395,0.202867966
3.783182,-29.89643622,8.058802962,-67.1971283,-0.544952884,-0.944393546,7.961251616,-5.61274904,-6.199922829,-1.542742454
3.791515,-29.92938376,8.049297452,-67.18910028,-2.158101902,-0.837629691,9.135388375,-4.884231448,-1.988503725,0.013255358
3.799848,-29.968009,8.053550482,-67.20196345,-1.290378534,-1.312313572,14.45003295,-5.202103972,0.717515469,-1.3665803
3.808181,-30.01065207,8.009891391,-67.19074058,-1.629544512,-1.109054491,7.864220024,-6.065778197,-5.74352242,-1.677591577
3.816514,-30.04885054,8.027818918,-67.2059288,-2.787397683,-0.990253925,11.04615402,-5.120279372,2.303741068,-0.840310164
3.824847,-30.08664179,8.024120331,-67.22006225,-1.469187588,-1.522819843,12.05594397,-5.106332094,-0.083143741,-1.877055988
3.83318,-30.12452507,8.001126528,-67.21269035,-0.341919985,-0.293021126,8.433428884,-5.40638429,-3.305942972,-0.939053105
3.841513,-30.17939663,7.995376945,-67.2349987,-2.819180638,-1.622765511,12.02348518,-7.014484167,0.197453737,-2.86085397
3.849846,-30.22300863,8.001046658,-67.2385254,-0.413648345,-1.256353334,12.0040493,-5.912092209,0.32025516,-0.327673335
3.858179,-30.27706862,7.960124254,-67.24360083,-2.005198136,-0.852063291,8.202153921,-7.17226255,-4.46894218,-3.233528644
3.866512,-30.31089306,7.972134948,-67.24791335,-1.50445807,-1.077223778,10.44884038,-4.748482108,1.0451473,-0.064884085
3.874845,-30.3416872,7.95534277,-67.26296045,-1.495538771,-0.83265999,10.67916155,-4.260409355,-1.370624274,-2.785355941
3.883178,-30.37878656,7.919827104,-67.24451253,-1.214054272,-0.908742734,7.158460914,-5.467647374,-5.245978594,-0.59861752
3.891511,-30.40971995,7.915008664,-67.2632637,-1.831211649,-1.138322856,12.5371213,-4.238554209,0.098396972,-2.459370047
3.899844,-30.44762039,7.889015555,-67.26206398,-0.842847552,-0.966401041,11.54997885,-5.29573071,-3.233131647,-1.765870988
3.908177,-30.47340918,7.849763751,-67.25043678,-1.447902374,-0.712538138,7.962150216,-4.066278935,-5.294071422,-1.434441969
3.91651,-30.48809242,7.847926021,-67.26490595,-2.965726227,-1.262204305,11.08990002,-2.276907027,0.202032238,-1.911865853
3.924843,-30.49218512,7.830870986,-67.2615452,0.183610007,-0.793660924,11.12605142,-1.356747626,-2.503516078,-0.911348071
3.933176,-30.51907349,7.783323646,-67.25525288,-2.889338583,-1.612008736,8.480059145,-4.052710116,-5.766593457,-2.584073007
3.941509,-30.52791023,7.79354167,-67.26268388,-1.487618342,-0.698767822,13.51205993,-1.756143853,0.975515068,-0.375988107
3.949842,-30.54925347,7.768273473,-67.2660942,-1.52809877,-0.605675068,12.24311328,-3.251391277,-2.890438556,-2.18777591
3.958175,-30.56529188,7.736953974,-67.2549515,-0.533849463,-1.931406051,7.419086336,-2.881390333,-4.461408377,-0.965547793
3.966508,-30.56688404,7.744486451,-67.26428223,-3.165436745,-0.905317679,11.13496625,-0.804174908,0.868617415,-0.832084797
3.974841,-30.56836891,7.73170352,-67.26055335,-0.125540098,-1.07092602,9.815022112,-1.050247625,-2.104530037,-0.571607281
3.983174,-30.57592344,7.712585449,-67.24720193,-2.476922602,-1.183830798,8.100565554,-1.858418643,-3.248250567,-0.148159146
3.991507,-30.57636356,7.751957178,-67.26636315,-2.35532862,-1.119758457,12.54716754,-0.602584318,4.690572381,0.209767785
3.99984,-30.58029175,7.777317405,-67.2680378,-1.92562002,-0.524334125,11.67659116,-1.187722489,2.24706322,1.066458345
4.008173,-30.57529736,7.816324234,-67.27478028,-2.035076551,-1.498899132,6.147568584,-0.119064502,3.894078076,1.463081947
4.016506,-30.54574156,7.937316537,-67.3146782,-2.087416282,-1.081608221,13.69909334,3.406329572,14.43116897,2.985852733
4.024839,-30.53143597,8.000184059,-67.31397628,-1.231593609,-0.987367928,6.565663278,0.908127085,5.913824468,3.693489492
4.033172,-30.49746752,8.164751887,-67.36829185,-3.96246177,-0.93371667,9.692870378,4.211790185,19.84229293,4.073165983
4.041505,-30.46505261,8.348963857,-67.41259958,-1.873501651,-0.956816144,14.31495667,3.814678699,21.1775806,6.463218034
4.049838,-30.40140295,8.546886206,-67.45197298,-3.577581942,-0.243117072,8.076793343,7.601323784,22.37193537,7.662759779
4.058171,-30.32154989,8.830939531,-67.5232563,-2.137133867,-0.046080083,11.89509821,10.03576333,33.18333435,9.64359331
4.066504,-30.19992876,9.076405049,-67.56400683,-1.825946927,0.023031376,10.19901955,14.6534791,27.41137362,10.35290718
4.074837,-30.03749943,9.399187328,-67.62723733,-2.660780616,0.099884004,7.990895688,19.886433,36.77554512,12.6124034
4.08317,-29.81099844,9.704123022,-67.6778774,-1.345414609,1.000088856,13.34821391,27.46969867,34.253304,12.72830343
4.091503,-29.5087924,10.02300334,-67.71887018,-1.234488357,0.46499905,6.385272265,36.31735134,35.18034935,14.36412931
4.099836,-29.13491726,10.3464303,-67.7762413,-2.256224156,0.989709787,11.21487856,45.34820557,36.69670296,12.76155401
4.108169,-28.67269755,10.68176126,-67.80679893,-0.456885219,1.279019743,11.6078279,55.3450613,36.50244856,15.9334414
4.116502,-28.15597725,10.97574806,-67.85102653,-2.058723509,1.027913392,8.804806948,62.28147984,33.0377965,11.92386055
4.124835,-27.54885244,11.33000756,-67.88274955,-1.186770741,0.231448479,11.33487463,72.81759167,38.92097092,16.09808326
4.133168,-26.86318302,11.61326862,-67.9024963,-0.627272353,1.336278871,9.666575194,82.04390335,30.83057261,13.24614287
4.141501,-26.09884358,11.9267745,-67.9062271,-1.990693197,1.402721688,8.264054179,91.07665635,33.51330471,15.94178415
4.149834,-25.26578617,12.22995448,-67.92031285,-1.57223168,-0.157010988,14.03785777,99.6150322,33.09003544,13.93557954
4.158167,-24.35285473,12.48845506,-67.87094688,-0.390146963,1.064232409,8.376279473,107.5994148,25.42832184,17.91580153
4.1665,-23.3876996,12.78063751,-67.85074615,-2.065450385,1.109270692,11.09295583,114.570467,30.67361927,15.97276068
4.174833,-22.33508778,13.02768755,-67.78086853,-0.507839881,-0.166124709,12.22584116,123.7868958,23.90084601,18.61753321
4.183166,-21.23406744,13.25815773,-67.70614628,-1.658934802,0.301951707,7.122293115,129.4064789,22.03269959,18.12290597
4.191499,-20.05846548,13.49278212,-67.60022925,-0.752888926,1.220394954,12.08558536,137.5016041,21.81169462,20.97779322
4.199832,-18.80893088,13.6646688,-67.46924018,-0.291595608,-0.098970462,8.447530388,145.6040116,14.01087976,21.11283159
4.208165,-17.50495291,13.85368323,-67.32574845,-2.27810961,0.416079467,10.98332906,151.6914597,16.07676113,22.66652155
4.216498,-16.13843942,14.02217675,-67.15872383,-1.014283132,0.484170351,14.08527565,158.4768639,13.36389637,24.25268173
4.224831,-14.71327281,14.13617373,-66.9689045,-1.856202878,0.600924526,9.891900302,164.7853241,6.997129559,24.83450079
4.233164,-13.23076511,14.29108787,-66.77967645,-1.961077608,0.434885759,13.9216795,171.609375,12.27440214,25.40191841
4.241497,-11.7144916,14.35984802,-66.5731182,-0.815972746,-1.211480916,9.068707227,175.1144066,2.506452948,25.17064667
4.24983,-10.15478527,14.46597648,-66.36090085,-1.506860998,-0.357759409,12.44419968,180.0980492,7.341037541,26.16927004
4.258163,-8.599990011,14.5058229,-66.15634345,-0.744397352,-0.568036821,11.81697774,179.6832505,0.413463889,24.14978457
4.266496,-7.009984851,14.54316879,-65.94770623,-1.266081892,-1.910342544,9.084144831,183.7901345,0.640578449,24.31395006
4.274829,-5.430427194,14.55218101,-65.74210165,-1.278941006,-0.751171544,12.23214519,182.5847549,-1.932998002,23.68026447
4.283162,-3.860534147,14.51286602,-65.53430178,-0.775555358,-1.702756137,10.14000404,181.4098816,-7.130006968,23.56634807
4.291495,-2.300205935,14.49444437,-65.33506203,-2.038805589,-2.337564498,15.62698221,180.5320702,-3.874691576,22.46609878
4.299828,-0.780316264,14.41074467,-65.12234308,-0.428614095,-1.078189224,11.78677201,175.3248177,-11.13476694,24.12099552
4.308161,0.720833361,14.32268429,-64.9486141,-1.787723974,-2.777854562,10.25765991,174.1779137,-11.03934133,19.95144987
4.316494,2.203400553,14.21426964,-64.74325563,-1.191675978,-2.963873625,15.18473244,171.1210823,-12.85397041,23.90726662
4.324827,3.621818423,14.07095623,-64.58023643,-0.571972028,-1.480909064,9.270285367,164.6312981,-16.70715046,19.57856226
4.33316,4.982228339,13.91198564,-64.4158554,-1.278793547,-2.68399322,10.26778602,157.7110367,-18.10935426,20.20092774
4.341493,6.313886106,13.75340438,-64.26685523,-1.919953078,-3.028825104,10.10310554,154.6464195,-17.77891874,18.89028025
4.349826,7.602580189,13.53203559,-64.14376833,-0.44664184,-2.49977079,12.18739987,150.3976898,-25.14207983,17.13288474
4.358159,8.838483452,13.37919807,-64.0335369,-3.030807644,-3.125700951,14.79101956,144.3684692,-16.86726666,14.89404249
4.366492,9.990929247,13.14135504,-63.9404869,1.419142574,-2.051858291,11.23786539,134.9845925,-26.88668966,15.06237912
4.374825,11.09574175,12.98865032,-63.86372375,-5.515492857,-2.431663811,12.34936047,129.6494923,-16.88534543,11.64998126
4.383158,12.13375735,12.79745317,-63.77617838,1.839052946,-3.612379253,11.50125241,121.5508442,-20.85751295,14.1636107
4.391491,13.09965563,12.61391688,-63.73212053,-4.767064989,-3.242323757,10.00242394,113.9056454,-20.843431,9.450510502
4.399824,14.00302697,12.48896527,-63.63150025,1.003115297,-2.713594258,10.74497581,105.1735764,-12.22742087,14.3479383
4.408157,14.83418179,12.28801632,-63.6038265,-3.81571785,-3.165278256,11.16038704,98.20790862,-22.9836638,8.852015377
4.41649,15.60271001,12.22291517,-63.48768998,0.321233016,-2.884946048,8.812828779,88.71163369,-4.352110864,14.49970031
4.424823,16.29778719,12.03797055,-63.46307753,-3.293707728,-2.412112698,11.12139737,81.9258709,-21.01891923,8.612492443
4.433156,16.93819094,11.99216986,-63.34604648,0.684170663,-3.340741396,10.76640493,73.32860089,-1.745194592,14.18212819
4.441489,17.51363754,11.83677006,-63.3126011,-3.262086868,-1.618670553,14.18238068,67.38953114,-17.10815358,8.97124207
4.449822,18.03944159,11.80039477,-63.2099209,-0.096742198,-3.439946652,9.681965827,59.93017388,-0.902387416,12.33612144
4.458155,18.50573254,11.69746017,-63.166193,-3.899378062,-1.429500356,15.98227215,54.08894348,-10.5695132,8.366501391
4.466488,18.91682577,11.69333172,-63.05865478,0.016766399,-2.999164701,2.067439899,46.07388878,3.168346294,11.69983292
4.474821,19.30364275,11.63335466,-63.00992203,-3.016674057,-1.644123137,10.58856583,44.45260429,-5.36002764,7.400791168
4.483154,19.64115095,11.64943862,-62.90010455,1.047247991,-2.096101738,6.114761919,37.21907902,5.641305135,10.97085023
4.491487,19.93860388,11.60266638,-62.85118865,-2.698240753,-1.72415787,11.58541393,33.76680899,-3.789617956,6.866137027
4.49982,20.19629049,11.60545278,-62.76284028,0.600251805,-1.273459785,11.91605937,28.13558197,3.388092562,9.122122765
4.508153,20.44955158,11.56214404,-62.70345498,-3.484145001,-0.685785771,17.28522873,28.17387581,-2.885288536,7.969656469
4.516486,20.66699076,11.5666802,-62.62349893,0.937466093,-3.091805011,7.334626497,23.54779982,3.323292733,8.075067639
4.524819,20.87571764,11.53413081,-62.56892775,-2.507718965,-0.410742294,13.07331634,22.93316174,-1.820049166,6.982051969
4.533152,21.05278397,11.50479365,-62.50841333,0.746226058,-1.251039505,3.24815312,19.14412618,-1.234274508,7.400388003
4.541485,21.23150587,11.47572112,-62.45661545,-3.121269159,-1.523634166,11.46213376,19.39808226,-1.506281614,6.512092649
4.549818,21.36817599,11.42157197,-62.42111395,1.535463095,-0.980547771,6.239393921,14.89393091,-5.039433777,5.729537726
4.558151,21.51248265,11.36664987,-62.38471985,-3.233682305,-0.341434,12.33625805,15.65929222,-5.014493941,5.976486564
4.566484,21.62805605,11.2959404,-62.36198043,1.952316999,-1.93698293,9.051758914,12.72669578,-7.397280156,5.102558881
4.574817,21.78376484,11.20709562,-62.35715485,-3.700178906,0.043336686,13.02402151,17.73848582,-10.1080499,4.121630505
4.58315,21.91804648,11.14824724,-62.32491685,1.050507471,-0.641698215,9.883654475,14.73318219,-5.540218295,5.86725992
4.591483,22.04431009,11.04290652,-62.33905983,-2.632684171,-1.468470033,12.47073412,14.66236067,-12.77241373,2.804335013
4.599816,22.1592741,10.99537587,-62.31550788,0.847041488,-0.864525333,5.732519448,12.63392186,-4.671575189,4.36113517
4.608149,22.29259729,10.84994197,-62.32847788,-2.760624707,0.591044068,15.04114437,15.48059631,-17.14193058,4.854723603
4.616482,22.41701651,10.83120775,-62.29704095,-0.100336134,-1.716461003,8.924725473,13.67015243,-1.100958229,3.882619463
4.624815,22.54738331,10.68736148,-62.31855393,-1.846766114,-0.095913593,10.31208086,15.34596062,-17.33787257,3.891941428
4.633148,22.67050791,10.66640687,-62.27220343,-0.316426322,-1.789714515,10.27296346,13.15150714,-0.645612836,5.621489346
4.641481,22.77495623,10.52005029,-62.28836635,-1.282581046,-0.763467208,11.56803691,12.14143884,-17.34133142,4.729321957
4.649814,22.90343332,10.49392676,-62.2372074,-1.35917604,-0.257542177,7.338292151,13.62969398,-0.975387454,6.368100882
4.658147,23.01323414,10.35808659,-62.2395954,-1.460683279,-1.578220479,12.61637167,12.51694941,-15.53051198,5.789924264
4.66648,23.11018896,10.28553486,-62.212801,-0.359885968,-1.507271812,9.760534793,10.30079508,-7.206091097,5.913946986
4.674813,23.1836977,10.20065427,-62.19735338,-2.107814487,-1.115310073,9.342231481,7.844691754,-9.047182142,5.393369556
4.683146,23.2580452,10.04456473,-62.20811843,1.272366107,-0.460271359,9.633774521,8.272239209,-18.13243413,5.873183012
4.691479,23.31255055,10.00262904,-62.18572045,-4.719762802,-1.657950193,12.30686164,5.543360531,-4.001419189,4.042929113
4.699812,23.37229824,9.811317921,-62.22311403,3.789656937,-0.555854112,6.876405716,7.041502953,-23.31712794,4.553275347
4.708145,23.41053295,9.749276043,-62.21684075,-6.424590111,-1.584048912,12.92896008,3.902309597,-6.953899495,3.238661064
4.716478,23.45089865,9.593513489,-62.23898508,3.634106595,-0.756801456,11.28069699,4.491355025,-18.65064788,4.644595862
4.724811,23.47403526,9.461608648,-62.28268625,-4.682396382,-0.83448875,5.103650689,2.994666696,-17.00412106,1.145789027
4.733144,23.51396799,9.326711774,-62.29098128,2.290887252,-0.505332179,15.28370261,4.189477593,-15.71216464,5.099139303
4.741477,23.55598164,9.211838602,-62.33213043,-6.054643869,-1.22513466,8.908287764,5.239127219,-14.97740567,0.71321848
4.74981,23.59126759,9.038779973,-62.36680223,4.229790747,-0.103525251,9.083773076,4.097902194,-21.13986989,4.12866086
4.758143,23.63146925,8.944850204,-62.4103527,-7.237837969,-1.105480479,13.83096313,5.052779256,-12.78424346,-0.551090396
4.766476,23.69350386,8.800096037,-62.42199515,2.914145976,-0.720386166,10.25220513,6.891272456,-16.91404438,5.313934148
4.774809,23.73317337,8.705915927,-62.47907258,-4.827263177,-0.845520876,9.454828738,5.234075486,-13.46500134,-1.971105754
4.783142,23.7983408,8.564056874,-62.49477003,3.211169694,-0.269801397,6.144912362,7.307612062,-16.78985894,4.742694941
4.791475,23.86909008,8.50127542,-62.54118728,-7.363494635,-1.725212351,13.7673645,8.748303413,-9.514737322,-2.355818689
4.799808,23.93050909,8.396326423,-62.53375628,4.076304734,-0.041628309,11.72118604,6.528458238,-11.61140537,5.518661321
4.808141,23.98013067,8.34724915,-62.58535385,-6.800440073,-1.302682802,9.512212395,6.275562287,-8.277167736,-3.579128929
4.816474,24.03581762,8.240099669,-62.5672512,4.2689659,-1.340743139,12.62253785,5.625991584,-11.31775779,6.823566079
4.824807,24.08197403,8.22979641,-62.60893823,-8.201449513,-0.784686979,12.25892162,5.657504618,-3.546098568,-4.379443206
4.83314,24.12368822,8.144623518,-62.58038713,4.947670162,-0.843833506,9.896108149,3.77170682,-8.386442364,6.907338501
4.841473,24.14223719,8.12522018,-62.6184864,-6.68577528,-2.241773755,9.728891491,2.286536083,-4.38088128,-3.511442684
4.849806,24.16095352,8.028911114,-62.59349443,4.164940477,0.493233799,8.083563448,1.067002699,-9.774106323,7.041934253
4.858139,24.14976359,8.026731014,-62.63819123,-6.783687711,-2.036597952,12.86849475,-1.197955459,-2.834769726,-5.114289045
4.866472,24.15594959,7.967908025,-62.5889511,2.72351259,-0.942979243,11.73807454,-0.784676344,-4.511983097,7.780033349
4.874805,24.11791468,7.968767405,-62.63164523,-6.341159463,-0.740013545,11.31425524,-4.46192658,-2.419130504,-5.060928438
4.883138,24.08010578,7.937896252,-62.5793228,4.173800588,-1.696710609,9.117438316,-6.078918337,-1.311256886,6.749181748
4.891471,24.03925705,7.940367341,-62.62186433,-6.915369868,-1.178012878,10.75630975,-4.879310504,-2.21453625,-5.134604633
4.899804,23.99653149,7.936354041,-62.5514278,3.004476607,-0.580314063,11.77050758,-6.934507878,2.501019195,7.416737568
4.908137,23.92019796,7.961190462,-62.58730888,-6.14958179,-1.389212836,10.88781953,-9.214111211,0.567070961,-5.483714342
4.91647,23.83534098,7.950492501,-62.51449585,4.027189553,-1.757051051,8.354011417,-12.02572262,1.857992545,8.014562011
4.924803,23.74352551,7.979081989,-62.55387498,-5.216793835,0.042785175,9.930044534,-11.07138097,0.829856754,-6.064382554
4.933136,23.6522603,7.973176718,-62.4752617,1.656949863,-1.968414202,12.11692405,-12.87561011,2.635483867,8.415431618
4.941469,23.54069662,8.026654005,-62.5063553,-4.80188489,-0.362625655,11.48505521,-13.59582019,4.012721778,-6.278185962
4.949802,23.43874121,8.042194605,-62.42755318,0.431025267,-1.120462924,10.38094115,-14.15370345,4.99376838,7.479461432
4.958135,23.33573532,8.097422957,-62.44267275,-3.128359377,-0.185631484,12.81013155,-12.84272242,4.971737623,-4.60845691
4.966468,23.23852968,8.128246069,-62.37966158,-0.007025689,-1.215014979,9.398814082,-13.31230712,5.895152569,5.014423429
4.974801,23.12876654,8.171650648,-62.38565063,-1.027147353,-0.018164613,10.2423594,-13.83669544,4.098499805,-3.067510172
4.983134,23.05472374,8.222669005,-62.33820723,-2.004698813,-1.395543821,10.30734658,-10.28898084,7.402089566,2.412944855
4.991467,22.96952534,8.261637211,-62.31469535,0.040482164,0.409168109,11.00294697,-11.37648535,4.988280475,0.405983447
4.9998,22.88402462,8.322453022,-62.28892708,-3.328014538,-1.599886302,10.1006918,-11.28260863,7.457385062,-0.434330882
5.008133,22.80587864,8.35517776,-62.2463646,0.947510701,0.0367494,9.317528486,-10.86784267,5.149919033,2.739997686
5.016466,22.74432469,8.401618839,-62.24712945,-3.119066045,-1.355665624,10.32428217,-7.965256631,4.634726912,-2.68397212
5.024799,22.69095659,8.395500898,-62.2061062,0.718968473,-0.478198156,11.27885771,-7.880646348,0.776428461,4.391926528
5.033132,22.62922716,8.448523641,-62.21998788,-1.898404598,-0.901376609,10.55243826,-7.768667102,4.771878064,-4.4070898
5.041465,22.56825161,8.437526942,-62.18602563,-0.075422243,0.400390886,12.37520409,-8.659331441,-0.096696891,3.840448122
5.049798,22.50264406,8.499837637,-62.19079973,-3.339834869,-1.38027484,9.363245487,-8.392565846,6.22339195,-3.834284544
5.058131,22.4566493,8.475631237,-62.17003633,0.200728536,-0.307355598,11.17800713,-6.577599227,-2.175263286,3.004370928
5.066464,22.42102862,8.529461026,-62.18026733,-3.842750818,-1.394725815,10.52646208,-4.727226198,5.040059298,-4.049441308
5.074797,22.3857441,8.520650745,-62.14558223,1.501487374,0.884285588,14.15227461,-5.506846785,0.162810549,3.857680544
5.08313,22.33396673,8.586396456,-62.1595917,-4.358218537,-0.563978954,10.19721413,-6.60533917,6.193423809,-5.009322226
5.091463,22.28469897,8.582546592,-62.1153984,0.477537155,-1.125558719,10.39068997,-7.350565017,1.127945341,4.652073741
5.099796,22.25960398,8.6347574,-62.14357568,-2.086169481,-1.260879845,10.43485618,-3.175624222,4.059936687,-5.93883729
5.108129,22.24578858,8.627478957,-62.10210415,-0.120632924,0.429890949,11.91492999,-3.052419484,0.631666081,4.538301378
5.116462,22.21806955,8.711536408,-62.11304668,-2.675452784,-0.684868436,9.095204712,-3.818227828,8.400007127,-5.43288181
5.124795,22.18148136,8.706713557,-62.0866127,-0.346258938,-1.081680564,11.89548802,-5.488058805,0.236717359,2.803215921
5.133128,22.16809941,8.769973993,-62.0940685,-2.803637236,-0.780444317,8.748664501,-2.196612999,6.24578792,-4.119732738
5.141461,22.15818596,8.779254079,-62.07299045,0.862838253,0.226016819,14.13190341,-2.165014431,1.574049533,1.622821749
5.149794,22.13834095,8.833062887,-62.08350373,-2.920557618,-0.699657917,9.974334835,-2.93955046,5.072636567,-3.996960402
5.158127,22.0984931,8.851861955,-62.05924988,-0.508937717,-1.955239862,9.299849391,-5.809023321,2.760093838,1.505182311
5.16646,22.0863843,8.866508961,-62.08512115,-0.48137123,0.549537734,11.40068447,-1.729953736,-0.014558315,-4.032872438
5.174793,22.06434488,8.876592873,-62.07260895,-1.81980399,-1.116672498,12.01058936,-3.450026024,1.254838347,0.579765089
5.183126,22.02948809,8.901938199,-62.07955168,-1.060650036,-0.393367965,8.986396551,-4.791715861,2.01773268,-2.448266387
5.191459,21.98064852,8.919040918,-62.0905552,-1.879509792,-1.03332609,10.96369696,-6.205551745,0.972691044,-2.35960637
5.199792,21.95503283,8.918847203,-62.0905781,-1.395535737,-0.385236036,11.26017761,-3.817283333,-0.525978729,-0.563926429
5.208125,21.91312361,8.961701751,-62.0915489,-1.854101137,-0.758343581,12.60986066,-5.531737209,4.291346192,-2.384893254
5.216458,21.86312294,8.957799672,-62.09880448,-0.535963554,0.669102036,10.36666322,-6.604762435,-1.267238513,-1.216570705
5.224791,21.80781508,9.003670691,-62.10372543,-3.131552674,-2.39269878,9.264911773,-7.092015981,4.4550336,-2.961133912
5.233124,21.76369763,8.986964346,-62.1031952,1.21361284,-0.103994101,12.78159499,-6.016198562,-2.355299712,0.213389009
5.241457,21.70043135,9.03380871,-62.12439728,-2.819539219,-0.518758737,9.664674878,-7.764306246,3.850556612,-4.807987541
5.24979,21.62250137,9.024292946,-62.10853575,-0.850139536,-0.772049517,9.63620162,-10.35916316,-0.875507593,1.589232061
5.258123,21.54992008,9.068462015,-62.1370487,-1.767857507,-1.268326849,11.13714731,-8.760149121,3.271207214,-5.411414325
5.266456,21.45030117,9.051616073,-62.13651085,-0.296410173,-0.631713539,13.51605654,-12.68349659,-2.30030635,0.396908559
5.274789,21.3285017,9.089293837,-62.15157888,-2.694335893,-0.881511063,7.279340029,-14.95950747,3.151140701,-3.637353301
5.283122,21.18444538,9.063751935,-62.17936135,1.029499844,-1.497843519,11.74377191,-17.48798323,-4.468425691,-2.29631117
5.291455,21.02115488,9.064773917,-62.22086335,-3.086716898,-1.600734771,10.31253994,-19.50563765,-2.054086864,-4.989351631
5.299788,20.79812908,9.091258407,-62.23479845,-0.033598214,-1.646585256,13.47931933,-27.16106176,1.936602429,-3.042714804
5.308121,20.52649165,9.081956388,-62.30168153,-3.238898404,-1.621475935,11.10017109,-32.01982165,-4.23334159,-7.377572655
5.316454,20.20958758,9.151241898,-62.30719758,-1.097280145,-2.550711036,9.652152895,-38.54935742,7.1099782,-3.866850257
5.324787,19.82741881,9.123192192,-62.4066601,-0.617531836,-2.1836119,10.48250395,-44.66661072,-7.584756137,-10.31033444
5.33312,19.39596748,9.205471636,-62.43208123,-2.742544221,-2.631314099,11.42309558,-51.95428372,7.847075106,-6.533407867
5.341453,18.8594184,9.251172542,-62.51328278,-0.692947094,-2.237788439,13.88976908,-63.48352814,1.648657441,-11.21529567
5.349786,18.2640357,9.313540339,-62.56907843,-3.455842048,-2.353322268,8.963633121,-71.04900837,4.538410812,-9.102680803
5.358119,17.59123945,9.438515662,-62.62322235,-0.047689386,-2.773362696,11.06971884,-80.2670517,11.89545354,-10.90117383
5.366452,16.83238077,9.44919026,-62.73091508,-1.191088349,-2.932235897,7.066641271,-89.66148756,-3.00905776,-13.29421616
5.374785,16.03087402,9.614431858,-62.77581788,-3.489526227,-1.886955925,12.71452284,-95.90720177,17.13683069,-10.77494598
5.383118,15.1241467,9.711060524,-62.87679483,-0.460171432,-2.839183301,15.29173922,-107.4380779,7.516156913,-15.1483469
5.391451,14.14535356,9.80955553,-62.9539013,-2.682515681,-2.907040417,5.039862692,-116.5364246,8.729806661,-12.15026641
5.399784,13.09550643,9.981703044,-63.04503823,-0.310397774,-1.921121582,13.9409504,-124.7781277,17.14079654,-15.70867396
5.408117,11.97942591,10.07451892,-63.12994958,-2.664008856,-1.994963862,10.51103866,-132.8092404,8.267427743,-12.64061713
5.41645,10.80625987,10.2725327,-63.2097969,-0.740249157,-2.634219617,8.809701593,-139.7404404,21.00920886,-14.18132091
5.424783,9.5410949,10.35621548,-63.3231888,-1.058938593,-2.311694443,11.28799939,-150.0188026,7.058071407,-15.30938482
5.433116,8.25768566,10.51271605,-63.39839173,-1.943255037,-0.527809263,7.353252648,-153.0896492,16.81238973,-12.19476104
5.441449,6.927498818,10.69233251,-63.51517103,-1.805902161,-2.306080759,16.99538994,-157.6480942,19.10853195,-16.73016477
5.449782,5.578341067,10.7818296,-63.5919342,-0.704861984,-0.511521414,5.226034582,-160.899025,9.330223009,-11.00626135
5.458115,4.164291471,10.97457886,-63.73315048,-1.078571469,-1.313988209,11.49553549,-167.1043129,21.23144293,-18.66058779
5.466448,2.751280628,11.02745199,-63.83198358,-0.84697482,-0.739403516,14.47888398,-168.0241661,5.257532179,-12.9373281
5.474781,1.313994125,11.2457869,-63.9669323,-3.386340142,-0.237670958,8.491825551,-169.9772949,25.25169328,-16.86986494
5.483114,-0.132582009,11.26221991,-64.09873963,0.788941622,-0.863822401,11.59672338,-171.2184257,1.458431453,-16.44300103
5.491447,-1.593418911,11.41203379,-64.24646188,-2.144190133,-1.771239788,5.428147615,-172.489708,17.92540622,-17.36961698
5.49978,-3.076467298,11.41979289,-64.38016893,1.341140479,1.183882028,14.62846649,-175.4792061,1.165557175,-16.5032475
5.508113,-4.559570283,11.54332519,-64.56325913,-4.530821145,-0.816796299,9.066573024,-174.2982407,15.89294422,-20.66168404
5.516446,-6.056646645,11.55634117,-64.7014904,1.350043476,-1.61617522,12.01487034,-177.0099411,2.613534092,-16.65204024
5.524779,-7.524262666,11.57751704,-64.88511278,-1.654269695,0.724278301,9.593598099,-172.3837052,4.730344474,-21.60773564
5.533112,-9.023753524,11.57085514,-65.02393343,-0.029634331,0.71837879,13.66327894,-177.2716637,1.061431644,-16.73200822
5.541445,-10.48043394,11.53847933,-65.19153975,-2.466778107,-0.345053509,7.071627974,-171.4405441,-0.887829245,-20.62521029
5.549778,-11.91670203,11.51367331,-65.34065058,-0.185579688,1.09388274,12.77879393,-169.445427,-0.021959544,-18.02452588
5.558111,-13.31122112,11.43950009,-65.4833584,-2.321732342,1.038201317,8.761535644,-164.6369629,-5.410086157,-18.73800874
5.566444,-14.69223118,11.38102031,-65.6170864,-0.272074968,0.072509475,9.278248072,-163.2086029,-3.559267043,-17.16197562
5.574777,-16.00632501,11.26966071,-65.75297355,-0.596274272,2.14139764,12.76466429,-155.2051544,-9.096441508,-19.25395727
5.58311,-17.28177643,11.16101408,-65.86540223,-1.339431791,0.76999778,8.628901721,-151.0656166,-9.240627171,-16.7970717
5.591443,-18.47227621,11.0421114,-65.98153305,-1.03247726,1.649317175,11.83897948,-140.8923187,-9.813849688,-17.68153691
5.599776,-19.62889242,10.89166904,-66.07642175,-1.166819558,1.169643715,8.942795277,-137.2035484,-14.0386697,-16.82381511
5.608109,-20.70469332,10.74807,-66.17349625,-0.539023886,2.003318131,10.63418543,-127.6724625,-12.67801833,-16.82695675
5.616442,-21.71683169,10.55847788,-66.24070933,-1.798405692,1.819311858,11.30962992,-120.5413914,-18.93763876,-16.00144529
5.624775,-22.64425993,10.3949697,-66.31490518,-0.806126989,2.556999624,10.75670242,-110.4121933,-15.36082697,-15.65494681
5.633108,-23.50124359,10.18056965,-66.35606193,-1.583039116,1.448823497,10.72654581,-102.5180359,-22.35738993,-14.90322685
5.641441,-24.27206612,9.988376617,-66.40257073,-0.086170342,2.20972538,9.689477087,-92.25855828,-19.37543965,-14.49791122
5.649774,-24.96134758,9.753173112,-66.42798233,-2.447537109,2.422358602,11.02696467,-82.8298359,-24.95645094,-14.75077415
5.658107,-25.57991171,9.529601096,-66.44659423,-0.294475451,1.684685603,10.67891026,-74.57014084,-23.86318064,-13.57720351
5.66644,-26.11600351,9.293664217,-66.46475983,-2.916416437,1.785219521,11.21772778,-64.64568138,-25.07297564,-14.51457429
5.674773,-26.5835371,9.04730773,-66.46013835,0.476994865,2.127971292,10.05259883,-56.90144062,-27.28627157,-12.76502848
5.683106,-26.97303915,8.823899148,-66.48038483,-3.599215563,1.62451832,11.65832508,-47.09339237,-23.36351919,-14.44089961
5.691439,-27.30525732,8.573829414,-66.45748713,0.552579448,1.29153052,11.34629822,-40.93520403,-28.47841644,-11.46753431
5.699772,-27.57619524,8.35080135,-66.47418403,-3.850136161,1.916096211,10.88301539,-32.93889284,-23.35127592,-14.336519
5.708105,-27.79772282,8.120645643,-66.44498255,0.373692557,1.258934155,12.06574237,-27.76739311,-26.5850029,-9.961589098
5.716438,-27.96441555,7.895645142,-66.4435463,-3.521392941,1.057688669,9.855063916,-20.73085761,-24.45164156,-12.74953318
5.724771,-28.08997011,7.697870732,-66.4118347,-0.64417515,1.441951126,13.55466366,-16.27330827,-23.22753906,-8.035390616
5.733104,-28.18613243,7.474036336,-66.39573478,-2.007920653,0.426987056,9.460414648,-12.4519676,-25.07939434,-11.28455901
5.741437,-28.24221897,7.293541908,-66.35492705,-1.613412172,1.057064355,11.58692217,-8.081507624,-21.85899115,-6.231293917
5.74977,-28.26635456,7.095199824,-66.33998298,-2.090903987,0.682109687,10.83057022,-3.824351593,-22.29609776,-9.993540048
5.758103,-28.27580547,6.924174905,-66.29082105,-2.120701954,-0.076174394,10.55723286,-2.56462723,-21.32694054,-4.844332755
5.766436,-28.26367331,6.770644546,-66.28120803,-1.525986936,0.452267464,12.35297895,0.560295403,-17.24628806,-8.029866934
5.774769,-28.24030209,6.615989804,-66.23972128,-1.920289621,0.355194008,10.4481138,1.507106722,-19.16419792,-4.715607405
5.783102,-28.19120264,6.50211978,-66.2371845,-2.379813358,0.292005183,11.5962677,5.079748482,-12.65606618,-6.527590394
5.791435,-28.14510441,6.386999965,-66.21105195,-2.096296571,-0.738540478,10.57043648,4.477779448,-14.11072612,-4.079125993
5.799768,-28.08223915,6.302992106,-66.20849035,-1.787740855,0.270407897,11.17154074,6.758592069,-9.501422406,-4.833509266
5.808101,-28.0243187,6.240249634,-66.20118523,-2.118365787,-0.438100941,11.16405344,6.130863905,-7.508429558,-3.093287489
5.816434,-27.95445728,6.171744704,-66.196722,-1.65599829,-0.110568365,10.46375251,7.587571383,-7.98275423,-3.717682421
5.824767,-27.89327049,6.157254934,-66.20822525,-2.970900282,-0.80403085,10.46996784,6.756926895,-1.346899092,-2.366813138
5.8331,-27.83651734,6.12421453,-66.20899008,-0.775385618,-0.465730272,12.48308611,6.087371051,-3.934286267,-2.249368713
5.841433,-27.79120016,6.120505572,-66.22330665,-3.446499992,-0.692815207,8.882560491,4.895360887,-0.046685338,-2.079347849
5.849766,-27.75137091,6.141740322,-66.24142838,-0.429454476,-0.635842469,12.65558898,4.240292583,2.794181003,-1.035241053
5.858099,-27.72633219,6.133877516,-66.25482558,-3.532019913,-0.867102579,9.126569748,2.491804511,-0.545333743,-2.218650714
5.866432,-27.71240282,6.200957775,-66.29056168,-0.376061872,-0.608395392,11.4158746,1.331373654,8.647440912,-0.355045348
5.874765,-27.71852303,6.186447382,-66.30572318,-3.191662222,-1.07649497,11.87143958,-1.198086455,-1.16649437,-2.738619983
5.883098,-27.72226429,6.264954567,-66.33158875,-1.323328897,-0.647432968,8.767466306,-0.890075564,9.320628166,1.300553247
5.891431,-27.74071503,6.283766508,-66.36888693,-1.693164181,-0.485848029,12.6988554,-2.410988092,3.608829618,-3.21507372
5.899764,-27.76678658,6.313470841,-66.3649063,-0.465423942,-0.704896968,8.521199824,-3.888353159,2.478737474,1.714008585
5.908097,-27.81498146,6.366135597,-66.42061425,-3.198318288,-0.696811736,13.66719508,-5.800639093,8.232429147,-3.264598846
5.91643,-27.86225319,6.378540039,-66.40815353,-0.040107674,-0.706666805,10.027192,-6.503314018,0.165445984,1.667845383
5.924763,-27.90657997,6.40976286,-66.44379615,-3.046315238,-0.600410186,10.10506809,-5.599387646,4.845116437,-2.369028926
5.933096,-27.9620862,6.452228069,-66.44623755,0.259077959,-1.38287494,11.90818572,-7.333214819,4.178047418,1.810404718
5.941429,-28.02773047,6.432504535,-66.45194815,-2.123868929,-0.304214112,8.206085324,-8.529554248,-2.226245597,-2.069371164
5.949762,-28.10856962,6.478194475,-66.46433068,-1.533070564,-1.003409252,12.2596581,-10.24782169,5.078852654,0.929627225
5.958095,-28.19218969,6.484164357,-66.48143005,-1.386544414,-0.96606683,12.67793393,-10.56919122,1.139039816,-1.806594908
5.966428,-28.28539753,6.482459545,-66.47104643,-1.800773174,-0.966923511,6.720400453,-12.01010084,-1.218639016,0.635819137
5.974761,-28.36819744,6.523522377,-66.5025177,-1.551398211,-0.142175957,12.74232864,-10.31533981,5.656494975,-1.292465672
5.983094,-28.46653461,6.511604667,-66.49653628,-0.679258145,-1.602355272,8.92549342,-12.55593931,-2.052625567,-0.402284414
5.991427,-28.56427622,6.515765548,-66.50353433,-2.060510576,0.056658678,9.460681022,-12.41328812,0.386890054,-0.857772842
5.99976,-28.67170286,6.526901603,-66.52366065,-1.576440111,-0.997535646,13.85777044,-13.32987452,1.862510726,-1.806879789
6.008093,-28.7723856,6.522564054,-66.52730368,-1.327699483,-0.528455544,9.63703525,-12.78349018,-0.715306245,-0.957482606
6.016426,-28.87564087,6.5106982,-66.53138735,-2.166922387,-0.850209758,8.804237127,-13.03256369,-1.465982988,-1.471791097
6.024759,-28.96759653,6.53460443,-66.5453224,-1.006974325,-0.314880647,12.60570049,-11.6290555,2.853820264,-0.405649469
6.033092,-29.07999611,6.497304439,-66.54478648,-1.019711838,-1.049519763,8.841011405,-14.19048739,-4.403295845,-2.462072581
6.041425,-29.18522978,6.490748763,-66.53974915,-1.719889552,-0.371076211,10.35024571,-13.45950866,-1.450252384,-0.189221986
6.049758,-29.29539061,6.49157238,-66.55135535,-2.377460651,-0.968069419,13.4905479,-13.78976441,0.300240368,-1.495951438
6.058091,-29.39651871,6.48281169,-66.54634288,-0.652270332,-0.172059538,9.577146529,-12.94728112,-1.677796826,-0.322579254
6.066424,-29.50084114,6.462900996,-66.54405023,-2.416534037,-1.03014262,8.734129548,-13.26363492,-2.671293408,-1.295689866
6.074757,-29.57957459,6.495628357,-66.54976083,-1.631854128,-0.215721693,12.35039568,-10.15715218,3.290984392,1.010302365
6.08309,-29.6769495,6.458179236,-66.54050638,-0.765904151,-0.789071717,8.255605101,-12.52203965,-4.912472144,-1.60387408
6.091423,-29.7586565,6.475109577,-66.54109573,-2.131630421,-0.313623822,10.98206305,-10.59333086,1.325757667,0.618804693
6.099756,-29.83683252,6.477584839,-66.54823493,-1.166779667,-0.651048705,13.41237712,-10.01789546,0.220743448,-0.932534389
6.108089,-29.90015173,6.486647964,-66.5466423,-2.066972807,-0.494385667,9.071232319,-8.373658539,0.370993466,0.387133539
6.116422,-29.95318461,6.487567544,-66.54597093,-1.530351773,-0.328114666,9.452983379,-7.083533645,-0.400436942,-0.226148106
6.124755,-29.98306513,6.520872235,-66.55747985,-1.865780048,-0.480148411,12.13722158,-4.215155721,3.676945806,0.469819546
6.133088,-30.026299,6.512163758,-66.54709055,-0.098448858,-1.125196591,8.681122661,-6.048609674,-1.990508005,0.226384968
6.141421,-30.05889273,6.514854312,-66.54979518,-2.889498979,-0.442510709,10.3244977,-4.656181336,-0.028694272,-0.457774416
6.149754,-30.08001661,6.527281165,-66.5502281,-0.746866457,-0.646408938,12.86991143,-3.264681608,0.845807711,0.373996645
6.158087,-30.10139322,6.534587026,-66.56441305,-2.609552771,-1.193870589,10.70234585,-3.162448824,1.120030344,-1.333995789
6.16642,-30.12496519,6.532121897,-66.55857085,-0.553822668,-0.568340868,9.322049023,-3.634692043,-1.071209639,0.134135366
6.174753,-30.14325476,6.541198254,-66.58015443,-3.277284056,-0.419244664,11.27602244,-2.6987288,1.7490105,-2.002981961
6.183086,-30.15829802,6.562633872,-66.58101843,-0.202281719,-1.420238629,10.59822416,-2.530747325,1.807692692,0.879464738
6.191419,-30.18489742,6.554632187,-66.5964756,-2.449146122,-0.837287374,8.876716735,-3.774568152,-0.384802656,-2.393765599
6.199752,-30.20595026,6.572591901,-66.5988903,-0.999976486,-0.543773536,11.67207742,-3.214010239,1.54020984,0.507273868
6.208085,-30.22758198,6.58364749,-66.62773323,-3.17743662,-0.806854615,12.72881437,-3.00264132,2.39011851,-2.629006453
6.216418,-30.24550676,6.607895851,-66.64052393,-0.477012392,-0.686367583,9.843542457,-2.713898629,2.814377263,-0.168532042
6.224751,-30.26487732,6.598300099,-66.65582658,-2.412914664,-0.862341229,10.0509032,-2.90694055,-0.572126016,-2.457071289
6.233084,-30.26544714,6.627666354,-66.66848375,-1.470401853,-0.912175104,11.14352035,-0.615958263,3.331445038,0.151197672
6.241417,-30.26837635,6.61779654,-66.68647388,-1.039079812,-0.166983703,10.11812496,-0.905018136,-0.446920395,-2.742211968
6.24975,-30.25853014,6.621349573,-66.6950073,-1.298964203,-1.06745699,9.77090323,0.604159743,0.408425488,-0.970613018
6.258083,-30.25370598,6.59893024,-66.69603158,-2.014412418,-1.119589776,11.48089242,-0.216075331,-2.771486014,-1.741220594
6.266416,-30.24485255,6.619802952,-66.7235508,-2.097071409,-0.222362142,13.22869778,0.717028882,3.345599949,-1.911721798
6.274749,-30.24066973,6.610052586,-66.72704123,-1.133979011,-1.173984386,10.60285056,-0.300528653,-1.326788551,-1.193149444
6.283082,-30.22305679,6.611642599,-66.74736405,-2.418939635,-1.325772688,10.44239402,1.683117777,0.909625374,-2.312507585
6.291415,-30.20238781,6.621433377,-66.7533073,-1.44170027,-0.46776411,10.8124671,1.729313141,0.851567626,-0.282992527
6.299748,-30.1778307,6.636070252,-66.78742028,-2.197060198,-1.673339993,10.51552343,2.678679347,3.074537754,-2.935513288
6.308081,-30.16820288,6.634559035,-66.78253938,-0.181774289,-1.322974682,10.09643352,0.268776775,-0.997027576,0.222847045
6.316414,-30.16208172,6.62963903,-66.81111715,-2.73320353,-0.802875122,10.5436244,0.411191764,0.712962747,-3.551516235
6.324747,-30.15660286,6.652256131,-66.81896785,-1.384744408,-1.510172755,12.89719963,-0.067781661,2.254846588,0.371819358
6.33308,-30.15296364,6.659435034,-66.84960175,-1.892360643,-1.29584983,10.84154629,0.112478614,2.074819982,-3.000752419
6.341413,-30.16047621,6.669850111,-66.85330583,-1.724487037,-1.083342999,8.455374836,-1.666209251,0.745627223,0.067451865
6.349746,-30.156003,6.68490088,-66.88224985,-2.261880964,-1.071381152,10.76526237,0.175326299,2.792403124,-2.367411546
6.358079,-30.15196466,6.711170554,-66.8987694,-1.251418784,-1.238923356,10.59572625,-0.116480776,3.1491099,-0.293026865
6.366412,-30.16182804,6.711919546,-66.91339113,-0.965385959,-0.545563653,8.640919806,-1.733523369,0.454447728,-1.74440299
6.374745,-30.17815113,6.712958813,-66.92358973,-1.463411361,-2.089278609,10.74819494,-2.605348796,0.149660826,-1.149739765
6.383078,-30.19962883,6.721122503,-66.93952178,-2.17498577,-0.730057686,13.21285605,-3.098707765,1.294415534,-1.439203009
6.391411,-30.22420263,6.719465614,-66.95452118,-0.858785503,-1.31483458,9.596474409,-3.545826472,0.176052898,-1.826903276
6.399744,-30.25664473,6.690849781,-66.95216563,-1.221673824,-1.488002867,8.933676244,-4.674271822,-3.603535533,-1.778697457
6.408077,-30.27976656,6.669432998,-66.96178058,-1.570037306,-1.462779179,9.518631935,-3.453605652,-2.208776385,-2.460176766
6.41641,-30.31048203,6.647794008,-66.96029663,-1.389540415,-0.742036904,11.0697937,-4.462236882,-2.834231258,-1.447976075
6.424743,-30.35331822,6.603691935,-66.9694252,-1.376227141,-1.941789731,9.002824545,-5.83124733,-4.596558273,-3.760099411
6.433076,-30.40094805,6.553032518,-66.95629885,-1.780654758,-1.12285839,10.00700426,-6.618776262,-6.534025072,-2.012107134
6.441409,-30.43686962,6.521787048,-66.97008705,-2.068242192,-0.826287499,12.85650778,-4.951417148,-2.974100746,-3.495721996
6.449742,-30.47649765,6.478810311,-66.9658947,-1.84204945,-0.97901246,11.82042718,-5.546160936,-5.184891835,-2.486572445
6.458075,-30.51396561,6.422532797,-66.96119118,-1.489551231,-1.105753467,9.480583907,-5.370645642,-6.673872232,-3.109830856
6.466408,-30.5485282,6.373584152,-66.95209123,-2.236279518,-1.058709592,9.85571313,-4.987719119,-6.108828723,-2.342216909
6.474741,-30.57490683,6.336123228,-66.94769288,-0.676837131,-1.372264415,11.58459187,-4.070755065,-4.724583924,-1.982458532
6.483074,-30.61765003,6.253837586,-66.92141533,-1.038424792,-1.331522375,7.850956381,-6.184020296,-10.5948956,-2.600511253
6.491407,-30.65494633,6.189626694,-66.9001808,-1.657720417,-1.481281877,10.7985214,-5.569060564,-8.514307976,-1.887122691
6.49974,-30.69106722,6.125681997,-66.88204765,-1.810583018,-1.074042775,11.64481068,-5.313551784,-8.204591989,-2.348396391
6.508073,-30.72024966,6.072256685,-66.86583708,-1.157453001,-0.957023077,10.92253804,-4.546763837,-7.07435143,-1.77344656
6.516406,-30.76371527,5.980621577,-66.82572938,-1.75093782,-1.713381022,8.584499001,-6.443473458,-12.38748205,-1.803370595
6.524739,-30.78967667,5.945144892,-66.81530763,-2.838474721,-0.487335623,10.69997573,-4.072689176,-4.859167926,-1.30559919
6.533072,-30.82138348,5.880475998,-66.78377533,-0.251769573,-1.284870416,10.90368676,-4.961189791,-9.081239938,-1.036371276
6.541405,-30.85195637,5.815592885,-66.75788688,-1.849432603,-1.333087728,8.318872809,-4.80459702,-8.83125782,-1.527876437
6.549738,-30.88603306,5.751360416,-66.7209835,-1.214658186,-0.983689144,11.03713489,-5.283122122,-9.365039109,-0.471807852
6.558071,-30.90891981,5.712839961,-66.7184925,-2.984642983,-1.487828091,13.0949657,-3.625503242,-4.703111035,-2.294491321
6.566404,-30.93319321,5.664979577,-66.69402888,-0.846504678,-1.275280077,9.334126353,-3.969290912,-6.909446955,-0.737606779
6.574737,-30.94903374,5.616993308,-66.6762085,-2.955161929,-0.615536895,8.55476892,-2.928565085,-6.609228134,-1.317858756
6.58307,-30.95195723,5.60668838,-66.67572023,-1.749713421,-1.208917826,11.84182811,-1.138933694,-1.563569755,-0.912894521
6.591403,-30.95785332,5.573268771,-66.66590883,-1.505515918,-0.890124105,10.09191346,-1.647639006,-4.59665729,-1.27463489
6.599736,-30.96518469,5.555721521,-66.66054728,-2.083327636,-1.36400041,8.918422819,-1.70692306,-2.610865489,-0.841939915
6.608069,-30.96163798,5.554082155,-66.66331865,-2.390492097,-1.242220014,13.31802106,-0.376702205,-0.573044837,-0.58622656
6.616402,-30.95917034,5.585956812,-66.6849995,-1.901082561,-1.034047857,11.38841343,-0.25129497,4.121789068,-0.548157482
6.624735,-30.95153856,5.592589736,-66.6874485,-1.522322715,-1.158553995,9.025501251,0.124174582,0.255389877,-0.012947995
6.633068,-30.91948557,5.64331913,-66.70927238,-2.545439482,-1.418818042,9.040451169,3.324894577,6.075930595,0.582711086
6.641401,-30.88514948,5.725560546,-66.7370987,-1.962990742,-1.006066725,11.47550011,3.602456749,9.598126111,2.029441815
6.649734,-30.86080408,5.789250255,-66.7600231,-0.838463575,-1.801244855,8.500630379,2.434284181,7.476110519,1.284768578
6.658067,-30.83581305,5.891480804,-66.79513933,-3.624767959,-0.760789424,11.23319769,2.585914478,12.10135877,2.503407925
6.6664,-30.79017734,6.04832685,-66.85251045,-1.868637294,-0.727763042,13.31640268,5.388015121,19.16871882,3.47653231
6.674733,-30.7235508,6.18108058,-66.88981245,-2.674456925,-0.838360004,7.966575981,7.650801362,15.40505767,4.114326447
6.683066,-30.6119957,6.378062368,-66.94086455,-2.042432249,-0.343527556,8.906789542,13.29129553,22.94686365,6.511361122
6.691399,-30.47898722,6.572148323,-66.99549293,-1.5631902,-0.079659261,10.54525852,15.88403511,22.82369209,6.000555873
6.699732,-30.30365801,6.772997022,-67.03578755,-1.65380419,0.420336237,8.918582499,20.87429428,22.73247051,7.762613654
6.708065,-30.08232594,7.00756371,-67.08711818,-2.289618567,0.352215451,11.71957564,26.4588263,26.87180805,8.596937894
6.716398,-29.79445028,7.247650623,-67.12845993,-1.626285851,0.741334863,11.05556547,34.43611908,26.95025587,9.809068442
6.724731,-29.43241263,7.491749883,-67.17038918,-1.750487119,0.464485422,8.704149247,43.2604208,27.41613579,9.834227084
6.733064,-29.00166941,7.75564301,-67.2055702,-1.629551202,0.479326352,9.562311173,51.52231217,29.22504377,11.48119259
6.741397,-28.49529219,8.015855193,-67.24066543,-2.028684974,1.176117696,10.24071288,60.5250063,28.89592218,10.99447012
6.74973,-27.93911981,8.282883287,-67.271513,-1.452356934,0.189372301,9.27382517,66.5372839,29.51501942,11.60538197
6.758063,-27.31135321,8.547685266,-67.2936077,-2.060793757,0.342727144,11.11297298,74.92433834,28.90281248,12.06163621
6.766396,-26.61200905,8.827650547,-67.3185978,-0.524140507,0.629090142,9.761474848,83.65439415,30.85405874,12.24894381
6.774729,-25.87009526,9.061751127,-67.32479098,-1.692250565,-0.125615979,8.172468306,88.37305451,25.05307007,11.52055049
6.783062,-25.05403519,9.335635901,-67.33142663,-1.46824567,-0.381240832,10.96423328,97.34112741,29.59359598,13.06876469
6.791395,-24.19981051,9.555904628,-67.31309893,-1.192272738,0.830967993,10.82111752,101.4005261,22.73811102,12.62516093
6.799728,-23.29799414,9.796612979,-67.29100798,-1.800632574,-0.450091234,10.39857566,107.0888786,25.01510811,13.6607368
6.808061,-22.33315134,10.02981639,-67.2549801,-0.559254712,-0.379469272,11.99671745,114.281435,23.7692709,14.34372044
6.816394,-21.3234272,10.20838809,-67.18651773,-1.34549626,1.619090408,8.301333666,119.0632649,16.50129759,15.30077505
6.824727,-20.25799847,10.43905735,-67.12826538,-1.585721463,-0.647094637,12.6006062,125.8513336,23.11165381,15.64564157
6.83306,-19.13012552,10.57625818,-67.02029993,-0.266661383,0.070923608,10.26683158,132.3483792,10.87761027,17.40253115
6.841393,-17.94049597,10.77065396,-66.9134407,-2.23419115,1.562206,8.741030813,139.6713505,17.82925177,18.67110062
6.849726,-16.68998933,10.9140389,-66.79057503,-0.259468336,-0.397495475,12.57366204,146.6234284,11.77057981,18.67346359
6.858059,-15.37633753,11.04376626,-66.64661788,-1.613672018,0.217671261,6.666298032,153.6180191,9.914877117,20.25167274
6.866392,-14.00586891,11.19971752,-66.50299835,-1.241970956,0.967968442,13.24613762,160.4483986,13.4723705,20.58737373
6.874725,-12.58161616,11.27243138,-66.33324053,-0.779919833,-0.447699351,8.079142809,166.2430191,3.547015362,21.13766337
6.883058,-11.10845447,11.40891337,-66.17480085,-2.276598185,-0.174481981,12.03344941,172.3222084,11.77473254,21.02106953
6.891391,-9.609018684,11.46595979,-66.00299453,-0.758910373,-0.386350248,13.63358962,175.1199837,2.695823476,20.81294918
6.899724,-8.080233573,11.55813289,-65.83337403,-2.782122225,-1.09241195,11.37979078,178.678318,7.419219314,20.90518284
6.908057,-6.547417462,11.61435867,-65.6634655,-0.401299163,-1.361520246,11.31262124,179.0941429,3.733317584,20.30586004
6.91639,-4.993588567,11.64876747,-65.4994583,-0.828910856,-1.537654638,9.943150162,181.7814941,1.694982529,19.21773911
6.924723,-3.454494968,11.69721508,-65.33486175,-1.712420553,-1.425483745,13.38801741,179.9006958,3.892140404,19.32272387
6.933056,-1.937283345,11.69117761,-65.17724798,-0.951157505,-2.336373508,10.14937019,177.53125,-2.018424615,18.24374771
6.941389,-0.416506827,11.6655004,-65.01110078,-0.205138529,-1.198493373,10.97418261,177.7277603,-3.923418938,18.94649696
6.949722,1.080582947,11.63178921,-64.85454943,-2.174641857,-1.65582341,12.63471246,175.1679383,-4.358216226,18.0559659
6.958055,2.552224148,11.55896139,-64.695549,-0.172364105,-2.721107781,9.808802604,172.0182037,-8.606929998,18.5388608
6.966388,3.991567254,11.4573431,-64.54461478,-0.892569679,-1.828748852,12.92736077,168.4372788,-11.56158936,18.01868439
6.974721,5.390146136,11.36034679,-64.3980179,-1.218898341,-2.24653092,14.92499185,163.5253029,-10.67481101,17.90463781
6.983054,6.722984076,11.21588707,-64.2590599,-0.570632503,-3.320109248,8.258779825,155.9680252,-15.92488456,17.86636114
6.991387,8.034362435,11.03120804,-64.13802148,-0.706721023,-2.059113384,8.970685363,153.696579,-20.68059516,16.77957893
6.99972,9.300553204,10.87499666,-64.02834893,-1.777632192,-3.455236614,14.19038963,148.6929016,-17.10048723,15.1325841
7.008053,10.49064636,10.62365913,-63.93556978,0.5339483,-1.942948505,12.75321603,139.8060417,-28.38850522,15.93273473
7.016386,11.60901523,10.46703291,-63.86403655,-3.748165928,-2.637841523,13.77821493,131.902998,-17.35762024,11.17582917
7.024719,12.65713215,10.18928707,-63.79607773,1.666778274,-3.391911804,11.10981536,123.4234047,-31.39361382,14.84307504
7.033052,13.68016601,10.0062685,-63.77117535,-4.325008869,-2.973281264,9.886246681,121.5027027,-21.26368499,7.067419887
7.041385,14.62535357,9.754434229,-63.71594428,1.129563183,-3.236920148,12.02152195,111.4927463,-28.13626242,13.53467751
7.049718,15.51529479,9.53998351,-63.72664833,-3.650993198,-3.117034316,9.375246449,106.2280922,-25.74260521,4.771320522
7.058051,16.31796575,9.35274148,-63.677433,0.309892327,-3.403507412,12.47997964,94.6762905,-20.38006365,11.42314362
7.066384,17.0674448,9.128625991,-63.70406915,-2.794033855,-2.162779033,9.731746555,89.60387803,-27.24091363,4.176893057
7.074717,17.73985386,9.003152846,-63.65029333,-1.086544514,-4.155274928,11.75913703,79.10704422,-12.77464074,10.14783972
7.08305,18.35533571,8.793348311,-63.67894173,-2.051964268,-2.367329568,11.41736507,73.52154446,-25.56193119,4.098160491
7.091383,18.89512205,8.708466172,-63.62973403,-1.508788809,-3.65859592,8.654388189,63.3294096,-8.114002128,8.327574909
7.099716,19.385777,8.53184402,-63.64424895,-2.002386868,-2.173039258,13.86114836,58.27278328,-21.134314,4.90248604
7.108049,19.81326103,8.495757461,-63.58464813,-1.853890233,-3.453532875,7.117123916,49.70794964,-2.035098673,7.693891727
7.116382,20.18420219,8.351142645,-63.58808325,-1.161770702,-0.888478656,12.05044341,43.71720124,-16.97442269,5.145617239
7.124715,20.50280237,8.357973814,-63.5210514,-2.262821965,-3.285838426,7.519212245,36.52447414,3.191862345,6.79593658
7.133048,20.79014206,8.229091287,-63.51175118,-0.247101061,-1.457313612,12.11352575,33.48128796,-14.56554174,6.115200132
7.141381,21.03390741,8.253555894,-63.45058823,-1.425137955,-2.099020869,9.134244859,27.6303525,4.967021823,5.392496942
7.149714,21.25164843,8.159100294,-63.42445375,-1.280770332,-1.217688793,14.12220478,24.85996532,-9.949443938,6.535360338
7.158047,21.43227196,8.196222425,-63.35727885,-1.77866821,-2.734900564,9.488818108,19.94165039,6.656159192,5.44853349
7.16638,21.58305264,8.127592445,-63.32663535,-1.422386438,-0.484536728,13.91458857,16.78950858,-6.864312917,5.829697698
7.174713,21.72173739,8.211455941,-63.24049188,-2.250399933,-2.633225978,5.706442583,14.56400729,12.71124691,5.408771992
7.183046,21.8491745,8.161501527,-63.20185473,-1.027611923,-0.368299213,9.368366243,13.87413621,-4.391958594,5.907031536
7.191379,21.92894363,8.264765024,-63.117918,-1.399700701,-2.331705414,6.377226875,7.514280796,14.78709864,4.237156332
7.199712,22.0089407,8.220395207,-63.07928275,-0.189342648,-0.869618684,8.232967614,8.177777707,-3.747753918,5.680254728
7.208045,22.09302521,8.313848615,-63.009243,-2.797455728,-1.036345311,12.02560651,8.225370288,13.08807349,3.105781198
7.216378,22.14878798,8.262185574,-62.97094535,1.46198988,-0.282545,13.99620312,5.298340351,-4.553679883,6.008334875
7.224711,22.23045254,8.360285163,-62.91785625,-4.044463694,-1.277241297,7.668316349,8.20104289,12.84454787,0.952139154
7.233044,22.29724264,8.293994308,-62.87868693,3.578187913,-0.575258931,13.22521264,6.598263502,-6.116243542,6.811431646
7.241377,22.36892653,8.349146128,-62.85551643,-5.031310975,-1.389225274,8.108944789,7.503137469,6.736443661,-0.40151909
7.24971,22.43765163,8.308196783,-62.81432535,3.082579702,-0.540768672,9.921410352,6.819487453,-3.183041066,5.92542267
7.258043,22.5034461,8.289632201,-62.80998423,-4.792813561,-0.999720015,13.18694079,7.083563923,-2.271142125,0.938665882
7.266376,22.56717444,8.290156484,-62.75012395,2.442625225,-1.14926669,8.364092709,6.007823228,2.293643834,6.08449316
7.274709,22.63647223,8.189425945,-62.78646088,-2.645919293,-0.272792205,8.903694988,8.125654816,-13.21534491,0.330510065
7.283042,22.71039248,8.192656994,-62.71573643,0.545774887,-1.429509208,11.23370066,7.045075805,3.138455093,7.202305555
7.291375,22.78051186,8.061927795,-62.7648754,-2.334919453,-0.437604092,9.413981439,8.441031573,-17.13510323,0.369216906
7.299708,22.85935593,8.004593134,-62.71638488,0.582673788,-0.207358659,10.14082965,7.963195503,-4.588909984,7.471581578
7.308041,22.93241692,7.922506213,-62.75803758,-2.747746945,-1.778266497,13.99009413,8.748478175,-11.4182753,-1.036901891
7.316374,23.01258707,7.764048934,-62.7571888,2.636689961,-0.154684972,4.105996788,8.834485769,-17.90954792,7.110615551
7.324707,23.08706618,7.719192028,-62.79876708,-5.402520821,-0.765266731,15.16844869,8.933500646,-7.297581255,-2.749982774
7.33304,23.18619395,7.551781058,-62.80421068,3.542057127,-1.021480315,8.63335389,11.22639036,-19.15324593,6.963736862
7.341373,23.26355171,7.457793474,-62.8701229,-6.422192454,-0.748152599,10.3469885,9.619450809,-13.87827915,-3.131476522
7.349706,23.3476038,7.341354966,-62.86488345,3.559973657,-0.463216469,15.39904928,9.366774559,-13.00418842,5.770293056
7.358039,23.42283297,7.221511126,-62.94599723,-5.328517914,-1.601897068,5.822687507,9.530859231,-17.46070385,-3.52113241
7.366372,23.5060544,7.08872366,-62.93713188,2.84677694,-0.449385669,10.59596228,9.201048613,-14.6347599,6.927314907
7.374705,23.58095026,7.022642016,-62.99954035,-6.322599232,-1.207728163,12.37733984,9.239593626,-10.65312347,-3.992138028
7.383038,23.65077257,6.877143741,-63.00652315,4.319252342,-1.325236323,8.042877316,7.819520355,-16.76612961,5.867879153
7.391371,23.69891119,6.808515072,-63.06994058,-6.528947354,-1.311377634,12.92844677,5.97498697,-11.00158981,-3.980086805
7.399704,23.76162672,6.725263119,-63.04859925,1.767283961,-0.574863866,13.64561105,6.624472738,-8.550272824,5.97402799
7.408037,23.79926539,6.65287304,-63.10704423,-3.658533871,-0.654765003,9.249295591,4.64155376,-11.1882343,-3.217467785
7.41637,23.85186196,6.559627414,-63.099844,2.205815325,-1.334289834,9.857554437,5.582293511,-10.31394812,4.944669427
7.424703,23.90188599,6.523963451,-63.1269436,-6.061389029,-0.433205083,13.12098599,5.708790064,-5.640242217,-1.579719067
7.433036,23.93763781,6.448793531,-63.12378883,2.813625414,-0.956945516,10.85582769,3.603555262,-8.520997316,3.656221986
7.441369,23.96582222,6.421569467,-63.14251138,-4.972082078,-1.049980782,9.167674899,2.953910917,-4.314075708,-1.066019028
7.449702,23.99965954,6.374900222,-63.12708473,1.374982662,-1.063958242,12.52587152,3.186350495,-4.800786495,3.575171232
7.458035,24.00554133,6.386042356,-63.1238632,-4.020962074,-1.240229059,11.67127419,0.035661653,0.955288635,-0.528280556
7.466368,24.01543713,6.342620373,-63.12140273,2.352659673,-1.653573498,6.256301344,0.460380837,-5.080379011,2.00738126
7.474701,24.01387453,6.343655348,-63.1111107,-4.963228554,0.04660967,11.91773939,-0.968064487,0.188133836,0.704032771
7.483034,24.00353003,6.355449796,-63.09502983,0.647399843,-1.403722689,11.91814542,-2.137187779,1.621358534,0.767805994
7.491367,23.98590756,6.37071693,-63.07152175,-2.267127931,-1.197837915,8.545498491,-3.02407445,2.361955614,1.421670243
7.4997,23.95677471,6.353143454,-63.06617355,-0.931542337,-0.705601484,11.03805554,-4.294719517,-2.129785271,0.988065873
7.508033,23.92498779,6.416247725,-63.02048875,-2.959971816,-0.678297319,12.92097903,-4.995087266,8.696642637,1.540606842
7.516366,23.88822699,6.410889983,-63.01712228,0.35784775,-1.366549387,8.388434054,-5.179691762,-0.888878346,0.191815391
7.524699,23.83828116,6.439224839,-62.97229768,-1.830647886,-0.699325522,8.069502533,-7.187470212,4.835074842,3.155069038
7.533032,23.79134178,6.454623342,-62.96410178,-0.965474308,-0.251472613,10.3753283,-6.462641358,1.624816716,-0.309102893
7.541365,23.72834301,6.497695923,-62.91343308,-1.348959327,-1.416997239,11.83911693,-8.810046911,6.720359698,3.084178746
7.549698,23.66373158,6.517216206,-62.90005493,-1.696142376,-1.358225085,10.32429826,-8.647574305,2.3271752,0.086905718
7.558031,23.58606434,6.538224816,-62.85406685,0.486944914,-0.647800641,10.81092548,-10.553563,4.068620399,3.646679968
7.566364,23.49545288,6.564177156,-62.84701728,-2.849029452,-0.807068952,13.4394505,-11.71128214,2.757552117,-0.871162951
7.574697,23.42016173,6.597732663,-62.78398513,0.13966161,-0.8835408,9.540678976,-10.48266327,6.234708339,4.913875118
7.58303,23.3203764,6.571074247,-62.79625513,-1.682797801,-0.516310521,8.77273035,-12.54880238,-3.972198606,-0.516725518
7.591363,23.21620607,6.583313465,-62.75416758,1.27265212,-1.379727736,8.987717509,-13.67811143,2.892831132,3.667722285
7.599696,23.12732935,6.555474639,-62.7712078,-4.174845399,-0.18045656,11.05274248,-11.20264649,-4.314462662,-1.004228443
7.608029,23.03001881,6.555922508,-62.72570228,1.158365026,-0.737629064,12.20270753,-12.86740518,1.733789526,4.61512208
7.616362,22.92606116,6.550562978,-62.75008393,-3.834208369,-0.820492551,10.28494716,-12.87173581,-2.155434728,-2.799771726
7.624695,22.8328414,6.528596163,-62.71388053,2.208569735,-1.107414991,9.858383538,-12.27168942,-1.203680754,4.610691309
7.633028,22.738904,6.523855806,-62.73540118,-4.288147211,0.169066244,12.54050136,-11.7191385,-1.967439951,-2.57925123
7.641361,22.64788056,6.522904039,-62.69323925,1.045222819,-1.615306701,9.369518519,-12.03804922,1.399558485,4.341933727
7.649694,22.54909277,6.514658451,-62.72122575,-3.960605473,0.13287402,11.6888808,-12.22453332,-2.642022609,-3.125145122
7.658027,22.4647789,6.556071997,-62.65789985,-0.351182073,-1.147734374,9.690895557,-11.46846544,7.033308566,4.718182237
7.66636,22.37889767,6.54732728,-62.68071748,-2.769719869,0.085148961,10.19826698,-10.7608974,-2.433368712,-2.484635994
7.674693,22.29507542,6.614841103,-62.620615,-0.308008135,-1.351892064,9.16831088,-11.36404324,9.785802843,3.245706529
7.683026,22.22467041,6.634085536,-62.63192943,-2.090434987,0.297262013,9.184427023,-9.103367805,1.216276445,-2.475132942
7.691359,22.16013956,6.713037849,-62.57829668,-1.663266182,-1.727203185,10.01578045,-8.979331612,10.75087023,2.005501985
7.699692,22.10220623,6.770161271,-62.56248285,-1.001174189,0.394671377,10.07687569,-7.955613375,6.623871416,-1.234218596
7.708025,22.04614067,6.862720966,-62.53340533,-2.764700293,-1.278758057,10.71215761,-7.665167332,11.1762135,-1.275894522
7.716358,22.00290775,6.958911538,-62.48314288,-0.765928522,0.008335484,12.2462244,-6.679236413,12.50807875,0.834744573
7.724691,21.94533921,7.060958266,-62.47784805,-2.78120479,-1.057168661,11.62835097,-7.513863325,11.14386869,-4.386634634
7.733024,21.89484453,7.175397754,-62.40198135,0.102035172,-0.251285837,10.25881791,-7.909418822,15.63234997,2.773205488
7.741357,21.82163477,7.268657207,-62.42977525,-2.38797608,-2.049637526,10.67665231,-8.954888582,8.705188454,-7.640987157
7.74969,21.7477808,7.387279391,-62.35486033,-0.114598605,-0.879753526,9.743451952,-10.70904535,16.05163884,2.513624266
7.758023,21.61595631,7.494752169,-62.39796065,-2.442197025,-2.314375371,11.78719092,-15.75974536,9.637727378,-9.941218614
7.766356,21.47953796,7.612724304,-62.33001518,-1.396755852,-1.776011602,9.574826837,-18.12737084,15.6574831,1.806751743
7.774689,21.2727766,7.748997212,-62.37560655,-0.452084586,-1.239696369,11.34679925,-24.69737673,12.80898291,-11.39098441
7.783022,21.01976776,7.83474791,-62.357481,-1.702178315,-3.030072332,9.763441204,-31.36163402,9.898379921,-2.247626722
7.791355,20.69477606,7.999921799,-62.3869667,-0.648149222,-2.453460008,12.20498657,-39.13843584,16.85155225,-10.70142937
7.799688,20.30543613,8.059426069,-62.41901205,-1.573624045,-1.949470773,12.23238229,-46.89229918,4.871952534,-6.673340976
7.808021,19.85946942,8.228229285,-62.44649888,-2.033720508,-3.318651199,10.47246206,-53.67068482,17.49896204,-10.34059453
7.816354,19.34102059,8.319338083,-62.49742315,0.093938053,-3.063870177,12.61903477,-61.97611523,7.786003948,-9.860920309
7.824687,18.71871758,8.380644679,-62.56904985,-0.464506298,-2.426422805,5.983276666,-74.12526798,3.790739655,-10.97686744
7.83302,18.03602791,8.512035013,-62.62000465,-2.311064601,-3.215232492,16.30558419,-81.6608429,12.56615305,-11.17662096
7.841353,17.25719333,8.579821229,-62.69230463,-0.47221409,-2.738444269,12.54095769,-92.80739783,4.762376308,-11.01430654
7.849686,16.39407468,8.614860058,-62.78677943,-1.107112974,-3.182338715,4.694069326,-102.5495434,0.290150462,-12.6054616
7.858019,15.48082066,8.719205976,-62.85541533,-0.992479041,-2.281208202,13.16913033,-108.9732552,9.429605842,-11.55803108
7.866352,14.47505283,8.722876072,-62.96635818,-0.519316603,-2.778685033,11.42435444,-119.3911495,-3.37409234,-13.43124724
7.874685,13.40133834,8.824415445,-63.04338838,-3.987820566,-2.797582477,10.03187686,-127.9969692,9.180285336,-11.89950633
7.883018,12.25179887,8.876030803,-63.14744188,1.84204799,-2.233570636,13.47758907,-136.6820126,2.862495004,-13.93056226
7.891351,11.05967426,8.902056933,-63.24809455,-4.436196745,-2.153755056,9.010299564,-141.7888298,0.17204234,-12.6548276
7.899684,9.832550048,9.048971891,-63.3302765,-0.438926138,-1.61994233,13.87360394,-146.4067497,15.22863156,-12.79432535
7.908017,8.534356237,9.067750811,-63.44084548,-2.780764937,-1.915278554,9.101226925,-154.3093147,-0.316373453,-13.69019079
7.91635,7.215595007,9.201043963,-63.5083885,0.729504153,-1.248900905,5.322090269,-157.6745339,14.41780591,-10.16677439
7.924683,5.859297455,9.22230804,-63.63344955,-3.530676484,-1.11231029,15.03623786,-160.9200974,0.342715533,-15.59810519
7.933016,4.50920409,9.385333298,-63.6988678,-0.647419766,-1.128768817,8.698926329,-161.4407921,18.41888213,-9.487406612
7.941349,3.125501588,9.451756479,-63.83262823,-3.338038668,-1.293587901,12.73025942,-163.9987946,6.459248902,-16.80320358
7.949682,1.759886036,9.616569041,-63.89122965,0.219671309,-0.599375651,7.09007615,-163.4044723,19.0797646,-8.061167717
7.958015,0.357209265,9.683788299,-64.04120825,-2.007129928,-0.501635686,11.46922791,-165.9072228,7.361525088,-18.44300318
7.966348,-1.013276279,9.872571231,-64.1194229,-2.084593892,-1.071812246,9.847554207,-163.5542908,22.32033402,-9.365351916
7.974681,-2.406159386,9.97250843,-64.26915743,-0.915659666,-0.231077872,12.7926743,-164.6583405,12.21823889,-17.95272279
7.983014,-3.794205189,10.12932014,-64.3751488,-1.291192766,-1.20995076,7.053968012,-165.0266609,19.02870083,-11.82833791
7.991347,-5.199770928,10.21432185,-64.51611328,-0.475668483,0.213692613,10.51803884,-166.2957077,11.14268151,-16.57609344
7.99968,-6.547706962,10.35462856,-64.657032,-2.869742528,-0.071490481,13.12728214,-159.4129791,17.99044836,-15.13638234
8.008013,-7.918335558,10.42638636,-64.79814913,-0.541325867,-0.679362789,9.69535911,-162.0574837,10.34135747,-16.09048414
8.016346,-9.25576222,10.50610924,-64.93988993,-0.039463475,-0.198560331,8.64430584,-158.065319,11.49223304,-15.57080603
8.024679,-10.6225164,10.56364775,-65.08628273,-0.794126719,0.78493762,12.72716028,-161.425251,9.466433227,-16.39094448
8.033012,-11.93123531,10.59442043,-65.2232342,-2.217555016,-0.229969487,7.088784934,-154.6635933,6.297220945,-15.78041363
8.041345,-13.21045137,10.65262651,-65.3873043,-0.415561401,0.612814471,13.68357206,-150.5627632,10.66301817,-17.4960835
8.049678,-14.45682287,10.60372067,-65.50666235,-2.27571565,0.305241935,9.523019673,-147.5512924,-2.771711109,-15.8512063
8.058011,-15.69097901,10.6516633,-65.65844725,-0.23269172,0.920537442,7.46991688,-145.4501915,9.768492221,-15.75570035
8.066344,-16.8627615,10.53402233,-65.7626686,0.247092962,0.84242199,11.94701326,-138.883358,-10.63637161,-16.52291083
8.074677,-17.99051809,10.5346067,-65.90893368,-1.847851112,-0.133434117,6.022593321,-132.8144608,4.814832509,-16.63410163
8.08301,-19.07928705,10.41709304,-66.00265695,0.065739349,0.600315951,14.73253319,-129.1985359,-10.37953091,-15.51321173
8.091343,-20.10950756,10.33893323,-66.10510065,-2.448622614,1.985937745,6.622798324,-122.0936661,-5.301413895,-14.69745851
8.099676,-21.08622789,10.22587562,-66.20486833,-0.454101548,0.659524884,15.64388156,-115.7159138,-9.068817976,-16.08861137
8.108009,-21.97450733,10.06637454,-66.2541485,-1.482755443,1.899849296,7.359559476,-106.1258011,-16.2275424,-12.86230016
8.116342,-22.80646563,9.9624393,-66.34759715,-1.162491832,1.16810301,10.72765315,-98.58474731,-7.825137794,-15.11297536
8.124675,-23.55485344,9.734197856,-66.35778238,0.511496723,1.991281808,10.3593474,-90.13708878,-25.25346136,-12.32376337
8.133008,-24.23428965,9.605651142,-66.42576215,-3.10685128,1.181983005,9.878975154,-80.91765785,-11.32646121,-13.74988151
8.141341,-24.84339667,9.360599161,-66.41744993,0.988923431,1.980783939,13.92600125,-73.81087875,-27.65378729,-11.72559476
8.149674,-25.36417866,9.183827045,-66.45181655,-3.478668809,1.659361676,6.790829599,-62.52357865,-17.98410427,-12.95355893
8.158007,-25.82540751,8.97080457,-66.4451523,0.815431655,0.888975803,13.73493779,-56.12043381,-23.90426946,-10.5334692
8.16634,-26.21240473,8.721867204,-66.4339943,-2.701046169,1.301874518,8.08277327,-47.26826191,-27.91947556,-12.29577255
8.174673,-26.55644035,8.560694456,-66.43891145,-0.980933279,0.789277628,13.98644543,-41.91362762,-17.56014144,-9.291558505
8.183006,-26.83818293,8.28426814,-66.40242385,-1.117912498,1.228373125,9.40954861,-35.03032255,-32.07068932,-11.41006732
8.191339,-27.05790997,8.125895023,-66.39307403,-2.896970332,0.736220896,9.219335437,-27.22130299,-17.93623602,-7.856371521
8.199672,-27.23431921,7.876059055,-66.34893225,0.021013081,0.62259629,12.6952332,-22.57563138,-29.55266834,-9.30542779
8.208005,-27.37041283,7.677826882,-66.3095684,-2.501730144,0.628797859,7.760949216,-17.6246357,-23.77692294,-7.0437423
8.216338,-27.48570204,7.504491091,-66.29073908,-2.011595905,0.33632686,15.44798708,-14.91338801,-19.95153189,-7.889381766
8.224671,-27.56100273,7.292112351,-66.24113083,-1.462181211,0.420464825,9.233017683,-10.4280746,-25.80803442,-6.849648476
8.233004,-27.59908104,7.134760022,-66.21971703,-2.964391947,0.280606818,10.53821135,-5.682202974,-18.36808419,-6.821778059
8.241337,-27.61280346,6.978632569,-66.18800738,-1.025331348,-0.56190981,12.0932132,-2.80033198,-18.8212347,-5.646129131
8.24967,-27.61953163,6.816398502,-66.15961455,-1.165300306,0.149696639,8.853585543,-1.955257622,-19.27969551,-6.351122856
8.258003,-27.62679768,6.67898798,-66.14136505,-2.90210706,-0.364040546,13.19868684,-1.836803734,-16.08384729,-6.045594573
8.266336,-27.61469412,6.576764226,-66.1393051,-2.120835618,-0.477766767,12.729882,0.654357285,-11.43883479,-5.812095404
