time,Euler_X,Euler_Y,Euler_Z,Acc_X,Acc_Y,Acc_Z,Gyr_X,Gyr_Y,Gyr_Z
0.0,-1.378656387,5.633533955,-144.2397919,-0.034605224,-0.778563976,3.30875206,-132.0413513,17.34406853,-12.51620865
0.008332999999993262,-2.417726278,5.759828568,-144.2987213,-3.375850916,0.666977763,10.58029652,-124.3010712,14.79156685,-7.317293644
0.016665999999986525,-3.46737051,5.853569508,-144.3885803,-0.04075443,1.565566063,20.50627518,-125.6526184,11.32051182,-10.57547283
0.024998999999979787,-4.585078239,6.034459591,-144.4817047,-2.799656391,1.029943824,12.10443115,-133.3216248,21.86060715,-10.25828266
0.03333199999997305,-5.661888123,6.163593292,-144.5822449,0.232164457,-0.781166971,0.317536533,-128.721344,16.04139709,-11.00621605
0.04166499999996631,-6.691913128,6.199525833,-144.682312,0.01851395,-0.204741672,9.172196388,-122.7050705,4.996007919,-11.93434334
0.049997999999959575,-7.768640995,6.268124104,-144.7910919,-0.805331528,1.98657465,18.81157494,-128.5766754,9.334669113,-12.27544498
0.05833099999995284,-8.867629051,6.396604061,-144.8981018,-5.180333614,-0.405838013,9.280333519,-130.9145203,16.50600243,-10.68729401
0.0666639999999461,-9.925079346,6.424939156,-144.9961548,3.699988842,-0.101370692,4.740747929,-126.3670654,4.800751686,-11.42044735
0.07499700000016674,-11.00453281,6.392708778,-145.1036987,-3.003383875,0.546841502,11.96837807,-128.5763245,-2.080726385,-13.54316521
0.08333000000016,-12.09683132,6.417087078,-145.1806335,1.517783165,0.762636542,8.649353027,-130.8319244,4.240103722,-8.84383297
0.09166300000015326,-13.15089893,6.413642883,-145.2842255,-4.582221508,-0.053273991,15.89091873,-125.6340332,1.638270974,-12.14879608
0.09999600000014652,-14.19834232,6.357944965,-145.3546448,1.192425013,1.992078304,14.32435894,-125.5392303,-4.973009109,-10.1797905
0.10832900000013979,-15.27100563,6.307973862,-145.4419708,-2.559652567,-0.202842578,5.277810097,-128.148819,-3.863208055,-11.43401527
0.11666200000013305,-16.29827499,6.22507143,-145.5016327,3.213567972,0.100110456,5.876841068,-123.2778702,-8.099701881,-9.993234634
0.12499500000012631,-17.30986977,6.090246677,-145.5922394,-4.375477791,1.640367866,16.20794868,-120.8283844,-13.09372044,-14.85587502
0.13332800000011957,-18.31639099,5.993452072,-145.6305847,0.553216517,1.24508822,11.44140053,-121.0835037,-10.1213026,-8.350976944
0.14166100000011284,-19.3025341,5.938321114,-145.730545,-4.99243927,-0.019815996,10.64715099,-117.7271652,-3.180443525,-13.21750355
0.1499940000001061,-20.2231102,5.762032032,-145.7509918,2.133583069,2.06003952,9.172660828,-111.004715,-19.54653358,-9.890010834
0.15832700000009936,-21.14201164,5.643372059,-145.7971497,-3.033596516,1.392626643,10.30007267,-110.3091965,-11.91152859,-10.6309309
0.16666000000009262,-22.04371834,5.523200512,-145.8091583,2.521878242,0.92782408,5.057236195,-108.8482513,-13.34460735,-7.081604958
0.17499300000008589,-22.82741737,5.383159637,-145.8573761,-4.433758259,1.027727485,8.43648243,-94.17822266,-14.16395283,-11.46260262
0.18332600000007915,-23.55883408,5.209294796,-145.8101959,1.856545568,3.720150709,14.76184654,-89.07509613,-21.86174583,-3.474455595
0.1916590000000724,-24.28924942,5.070118427,-145.8616028,-3.292659998,1.845039845,11.14109898,-87.80780792,-13.63505173,-12.08973503
0.19999200000006567,-24.90856361,4.942784786,-145.8181915,-0.46323359,1.323856354,4.122045994,-75.55404663,-16.51564789,-2.083204031
0.20832500000005894,-25.4230957,4.807031631,-145.8519745,-2.524943113,2.038598537,11.77410221,-62.11899185,-13.87342644,-10.35181427
0.2166580000000522,-25.90180588,4.627052784,-145.7945862,-0.853135824,3.431497812,13.67405891,-58.79068375,-22.90408707,-3.604819298
0.22499100000004546,-26.33625984,4.512489319,-145.8242188,-2.403185844,1.390732765,9.784327507,-52.59753036,-11.65328979,-8.980257988
0.23332400000003872,-26.72195625,4.367150784,-145.7826233,-0.713977754,0.895716727,6.841081619,-47.44757462,-18.29084778,-3.777531862
0.24165700000003199,-27.00331688,4.264726639,-145.8196869,-2.215887308,1.050401926,10.76451015,-34.12530518,-9.479800224,-9.971364021
0.24999000000002525,-27.24885941,4.092329979,-145.7635651,-1.346622705,2.68375802,13.30193806,-30.73442078,-21.93899155,-3.891844749
0.2583230000000185,-27.47738647,4.002414703,-145.8170471,-1.602065682,2.45611167,13.13840008,-27.74258041,-7.513160229,-10.41748428
0.2666560000000118,-27.65022469,3.879043818,-145.7760162,-3.474816561,0.073826835,5.160811424,-21.85629463,-15.86045933,-2.936353922
0.27498900000000503,-27.72891235,3.847508669,-145.8245392,-0.743088603,1.136947274,12.24151134,-9.831243515,-1.516503811,-6.70297718
0.2833219999999983,-27.80387306,3.72137022,-145.8067169,-3.238291025,1.381130219,12.49560642,-9.912776947,-14.85097313,-5.600976944
0.29165499999999156,-27.85255241,3.70300889,-145.8317566,-0.299803346,1.391852498,11.54424095,-6.44606638,-1.439174294,-3.437725067
0.2999879999999848,-27.90073204,3.65379262,-145.8482208,-3.305638313,-0.149246842,7.652659893,-6.432337284,-4.76049614,-4.944432259
0.3083209999999781,-27.85733414,3.64579463,-145.8760681,0.358870804,0.463824093,10.41327286,4.611945629,-0.173139423,-3.164369822
0.31665399999997135,-27.83365059,3.579535007,-145.8770599,-3.595885992,1.431580544,13.39720917,2.074240923,-7.438566208,-4.259557724
0.3249869999999646,-27.81110191,3.607370853,-145.9041595,0.83735019,-0.066729918,9.763726234,2.086996794,3.59769845,-1.097019196
0.33331999999995787,-27.75321198,3.609722137,-145.9432373,-5.159275055,-0.099972732,10.0599823,6.466596603,1.967096448,-4.446977615
0.34165299999995113,-27.67836952,3.612478018,-145.9305267,1.891208529,0.362572104,10.72675419,8.059493065,-1.245248795,1.640130639
0.3499859999999444,-27.65415764,3.651022196,-145.9921722,-3.492007017,-0.221530035,14.08109951,2.596848249,7.061153412,-4.827373981
0.35831900000016503,-27.61535454,3.679588556,-145.9911346,-0.076206572,-1.020499468,4.050611973,3.814753771,2.164710522,1.816510439
0.3666520000001583,-27.56263542,3.716510773,-146.0341034,-2.289311409,0.464513659,15.18433285,5.883283138,5.846885204,-2.947903872
0.37498500000015156,-27.56662369,3.767901182,-146.0481873,-0.558409214,-1.135991573,9.808532715,-1.206673741,5.477450371,1.396769762
0.3833180000001448,-27.52960968,3.805328846,-146.0923615,-2.765143871,0.145846039,10.99062824,4.016184807,5.964480877,-3.051590681
0.3916510000001381,-27.52801704,3.913675785,-146.1055145,-2.300265551,-0.381768048,12.99028778,-0.548721015,11.49810314,4.633846283
0.39998400000013135,-27.52986717,3.956856251,-146.1520691,-0.766671836,-0.620296597,8.838115692,-0.613499463,6.707267284,-2.985966921
0.4083170000001246,-27.52299881,4.033637524,-146.1697998,-2.203099251,-0.3018426,11.71039295,0.119925834,8.397985458,2.388962984
0.41665000000011787,-27.5575161,4.121563435,-146.21875,-1.246774197,-1.055009604,6.294074535,-4.500152111,11.60117435,-0.755248547
0.42498300000011113,-27.56703758,4.167687893,-146.2215729,-0.531644285,-0.5038625,11.18057346,-1.973154187,4.318918705,2.256639719
0.4333160000001044,-27.62808609,4.257516384,-146.2631989,-1.161812425,0.190278754,11.9209013,-7.735155106,11.39641571,0.139341459
0.44164900000009766,-27.67105103,4.301080227,-146.2760468,-2.680090666,-1.562765002,8.599318504,-5.901916981,4.622703552,1.021521449
0.4499820000000909,-27.72599411,4.418398857,-146.2976532,-0.817876697,0.315409541,16.02023888,-7.172588348,13.20388412,3.814882278
0.4583150000000842,-27.81534386,4.462520599,-146.3208923,-2.829208374,-1.595905304,12.07069683,-11.37347794,5.262291908,-0.043761931
0.46664800000007745,-27.8933773,4.545042515,-146.3282928,-0.723596513,0.293447047,9.510652542,-10.06958485,8.704666138,3.404926538
0.4749810000000707,-27.99987221,4.636592865,-146.3704529,-2.263196945,-0.929980457,10.86983681,-13.24534225,11.37085342,0.601934731
0.48331400000006397,-28.11022758,4.679591656,-146.3587646,0.388234466,-0.686495602,9.025248528,-14.1327486,3.432590485,3.220914125
0.49164700000005723,-28.21453094,4.771582603,-146.4044952,-1.811625719,-0.071194768,11.50991154,-12.93679333,11.62671375,0.279220819
0.4999800000000505,-28.33564758,4.815172195,-146.3965912,-1.765897274,-0.288646519,9.03678894,-15.39012432,3.695673704,2.870510817
0.5083130000000438,-28.43521881,4.902240276,-146.4337616,-0.83745724,-0.145402849,12.19176292,-12.4477644,10.62942219,0.925647438
0.516646000000037,-28.54813957,4.941204071,-146.4248047,-2.479639292,0.186812684,13.46404362,-14.4183979,3.132622004,2.736471891
0.5249790000000303,-28.64875031,5.015532017,-146.450592,-1.329320312,-0.321321756,7.851371288,-12.68869209,8.627260208,1.436241627
0.5333120000000235,-28.73955154,5.079796314,-146.4510803,-1.560993433,0.385349929,11.88624954,-11.66555786,6.32815218,3.21402359
0.5416450000000168,-28.84260941,5.130027294,-146.4639435,-1.035412312,-1.048820376,7.571379662,-13.11709023,5.350712299,1.415955067
0.5499780000000101,-28.90765572,5.170607567,-146.4529114,-0.386475295,0.16322194,9.180654526,-8.701116562,3.162564039,3.068764448
0.5583110000000033,-28.9988327,5.228087425,-146.4686737,-2.010174751,-0.688319445,8.025344849,-11.65807724,6.274310112,1.556756616
0.5666439999999966,-29.0531311,5.250692844,-146.4603119,-0.191611364,-0.247233197,12.74197578,-7.382856369,1.422128201,1.751296759
0.5749769999999899,-29.12998199,5.313271046,-146.4916992,-3.307420492,-0.459895164,13.30057144,-9.767360687,7.712062359,0.23782818
0.5833099999999831,-29.18274498,5.324733257,-146.4674835,-1.27097106,-0.581587553,10.41566658,-7.377963543,-0.671387672,2.759114742
0.5916429999999764,-29.23221016,5.40672636,-146.5128937,-0.926134467,0.365286231,11.92204094,-6.322860718,10.56080055,-0.068479657
0.5999759999999696,-29.2916317,5.382751942,-146.4744263,-1.283740401,-0.872947693,10.15131187,-8.341519356,-5.219374657,2.163608789
0.6083089999999629,-29.32607651,5.466393471,-146.5068512,-2.081950665,-0.697875142,13.24019146,-4.664442062,9.973415375,1.403429747
0.6166419999999562,-29.39348984,5.445192337,-146.4547577,-0.632387757,-0.444993764,9.442760468,-9.460784912,-5.731710434,3.737834215
0.6249749999999494,-29.4433918,5.495666027,-146.4692841,-0.725619972,-1.214027047,9.054181099,-6.725080967,5.452348232,1.333220959
0.6333079999999427,-29.50306129,5.472778797,-146.4293518,-1.391720414,-0.50388217,9.016586304,-8.395540237,-5.201623917,2.364271164
0.6416410000001633,-29.57145882,5.520132542,-146.4404907,-2.231502771,-0.71763283,12.3639946,-8.984334946,4.915910244,1.527761221
0.6499740000001566,-29.62953186,5.529231071,-146.4206238,-0.163178995,-0.758895874,8.774177551,-7.976130962,-0.685961962,2.165452957
0.6583070000001499,-29.69846916,5.563367367,-146.4329681,-3.508170605,0.449086756,14.70973969,-9.034025192,3.608840704,0.626088738
0.6666400000001431,-29.76208115,5.59780407,-146.4288025,-0.215212792,-1.865891218,4.269691944,-8.458295822,2.878656149,2.042223215
0.6749730000001364,-29.79641724,5.629355907,-146.4237671,-2.782912254,1.271595716,17.36977768,-5.089100361,2.298390865,2.298058033
0.6833060000001296,-29.86178589,5.692875385,-146.4436493,-0.687215745,-2.042319059,8.578286171,-8.38654995,7.329334259,1.295030236
0.6916390000001229,-29.89370346,5.668156624,-146.3936768,-1.421859503,-0.118047513,11.35049534,-5.338275909,-6.248630524,3.615500927
0.6999720000001162,-29.94440079,5.766414642,-146.4260406,-3.219064474,-1.006911397,11.41451645,-6.474446297,11.6831913,2.09624362
0.7083050000001094,-29.98241615,5.708930492,-146.3756104,2.299963713,-0.38304624,3.062456131,-6.084803104,-9.693387032,1.699709535
0.7166380000001027,-30.01762581,5.777366161,-146.4027557,-4.712737083,-0.558906496,19.51435089,-4.675302982,8.267738342,0.863148689
0.724971000000096,-30.08054352,5.797937393,-146.3840942,0.484980553,-2.291178226,2.569887877,-8.697147369,0.302376091,3.110669851
0.7333040000000892,-30.1223774,5.78772974,-146.3721466,-2.157219887,0.57910043,15.14010525,-5.942593098,-2.238645792,0.183346704
0.7416370000000825,-30.17624664,5.874124527,-146.3943024,-1.310850024,-0.852911115,7.90561676,-7.118183613,9.568172455,2.877298355
0.7499700000000757,-30.20975685,5.801147938,-146.359024,0.096157372,-0.929980159,5.291724205,-5.227264404,-10.15057755,-1.204496741
0.758303000000069,-30.23258018,5.915383339,-146.3985596,-4.229321003,0.233470455,19.26284409,-3.177766562,13.47708607,2.814313412
0.7666360000000623,-30.27560234,5.880186081,-146.4065247,0.36918053,-1.805606604,4.90348959,-5.842773438,-3.632470131,-3.386137962
0.7749690000000555,-30.2802372,5.914274693,-146.3940887,-4.022882938,0.006073848,17.49213409,-1.641219378,2.005492449,3.395576954
0.7833020000000488,-30.30792999,6.00083971,-146.4610138,-0.904742837,-0.256195903,6.260237694,-3.264675617,12.53412247,-2.093592644
0.791635000000042,-30.30412292,5.940585613,-146.409668,-0.063445941,-0.995843291,8.681208611,-1.125169396,-10.12680626,1.716819882
0.7999680000000353,-30.30264664,6.044070244,-146.4934845,-4.999175072,0.138064981,22.72422409,0.451681495,15.30525017,-2.807768822
0.8083010000000286,-30.32064056,6.045222282,-146.485733,-0.431544006,-2.244113684,-0.302688092,-3.208016634,-1.185439706,1.019549131
0.8166340000000218,-30.30880165,6.073004246,-146.5151062,-1.258069754,-0.157585651,16.61745262,1.017090082,4.183957577,-1.781610847
0.8249670000000151,-30.31511116,6.162012577,-146.5589905,-2.127537251,-1.07175374,8.152783394,-1.151961923,11.01348209,1.047058702
0.8333000000000084,-30.31025505,6.098878384,-146.5375214,1.12067163,-0.44963035,4.571378708,-0.466832221,-8.297385216,-2.050560236
0.8416330000000016,-30.3035965,6.207677841,-146.5935364,-4.230291843,-1.231036305,18.51496506,0.565844119,13.79203892,1.001414299
0.8499659999999949,-30.31454468,6.206053257,-146.6173859,2.086767912,-1.251340508,2.073724031,-1.779971719,0.803262472,-2.991448402
0.8582989999999882,-30.30296135,6.193785667,-146.595993,-4.492907047,-1.422221541,15.45093346,0.150739744,-3.451863527,1.71307981
0.8666319999999814,-30.30437088,6.283017159,-146.6607208,-1.264698029,-0.126702681,11.63192368,-0.100676768,12.67671871,-1.699620128
0.8749649999999747,-30.2949791,6.260795116,-146.6491241,0.952716112,-1.584089875,4.696668148,-0.000192107,-3.942811728,0.186215475
0.8832979999999679,-30.31183434,6.238303661,-146.6588287,-3.2934165,-0.955953777,16.64564323,-2.671705723,-2.209599257,-2.799494982
0.8916309999999612,-30.32040787,6.303620815,-146.7010651,-3.1100564,-1.846629739,11.5126915,-1.45054698,8.366172791,-0.052931815
0.8999639999999545,-30.33902168,6.269187927,-146.6967468,1.049568176,-0.559246302,7.452693939,-3.067265987,-4.290447712,-2.080426455
0.9082969999999477,-30.36265373,6.254689217,-146.7090912,-4.02304697,-1.579929471,11.24236393,-3.646737576,-1.697673202,-1.814422965
0.916629999999941,-30.36221886,6.286148071,-146.7364197,0.585683942,-0.681974649,8.136838913,-0.365809709,4.441354752,-1.341430426
0.9249630000001616,-30.40458107,6.244467735,-146.736496,-1.288073301,-1.811903477,4.724076748,-6.057240963,-5.26642704,-2.176377535
0.9332960000001549,-30.41889,6.222951412,-146.7397156,-0.812678993,-0.359095126,14.74439812,-2.452140093,-2.494736671,-2.076276779
0.9416290000001482,-30.4269352,6.254801273,-146.7918701,-3.020176172,-0.789259076,12.12384033,-1.246888041,5.542535782,-3.157838106
0.9499620000001414,-30.44906616,6.201951981,-146.7686615,-1.109322548,-1.595767617,7.655580044,-3.736104965,-7.333803654,-1.26438272
0.9582950000001347,-30.44199562,6.22961998,-146.8085938,-2.720761299,-0.887215793,16.76484871,0.397276789,4.324323654,-2.069540501
0.9666280000001279,-30.44721413,6.23176384,-146.8185883,-0.682755709,-0.654682219,7.736639977,-1.273552537,0.362774402,-1.334079027
0.9749610000001212,-30.43954849,6.168866634,-146.8139038,-1.335020065,-1.563329816,9.49378109,-0.108079262,-7.726751328,-3.013783693
0.9832940000001145,-30.44578743,6.195325851,-146.8389587,-2.801742792,-0.955434561,16.34767532,-1.200961828,3.7871418,-1.403877974
0.9916270000001077,-30.45441437,6.172478199,-146.8766632,0.236714318,-1.290304184,5.761001587,-1.518245339,-1.022789121,-4.935286522
0.999960000000101,-30.46188164,6.12348032,-146.8599548,-2.109563828,-1.328099012,10.10103607,-1.888422489,-6.542400837,-1.698979378
1.0082930000000943,-30.46563911,6.1499753,-146.9159088,-2.440826654,-0.974260569,12.03944492,-0.70074141,5.179351807,-3.797656059
1.0166260000000875,-30.45543098,6.172142982,-146.9342346,0.743159652,-0.70338726,6.023569107,0.684719622,2.939514875,-0.974198878
1.0249590000000808,-30.46741486,6.1056633,-146.9474945,-2.444689035,-2.083894014,11.68949509,-2.231320143,-7.001126766,-5.095657349
1.033292000000074,-30.45540428,6.195205212,-146.9930725,-3.304276466,-0.383633018,16.95243645,1.249795318,11.55578518,0.323994488
1.0416250000000673,-30.47976685,6.216853619,-147.0384369,-0.87503171,-1.3840909,7.214661121,-3.303967476,4.045537949,-3.015525341
1.0499580000000606,-30.48653603,6.203514099,-147.0406494,-1.182917476,-2.127485752,7.920687199,-1.560406446,-1.708815217,-1.47831285
1.0582910000000538,-30.48674393,6.287149429,-147.110199,-1.968054891,-0.099720702,12.53188133,-0.081491701,11.92675781,-1.737990022
1.066624000000047,-30.51163292,6.281210423,-147.1200104,0.789173007,-2.769905567,0.508055747,-3.635518074,-0.48440358,-1.805816293
1.0749570000000404,-30.52859306,6.286039352,-147.1496735,-1.341965795,-0.169619143,15.96170044,-2.608976364,1.366544962,-2.435414076
1.0832900000000336,-30.54288864,6.329617023,-147.1916046,-3.019717932,-1.001366377,14.10772324,-1.940291166,6.580732822,-2.084601641
1.0916230000000269,-30.54761505,6.354539871,-147.2374268,-0.88260752,-1.721954584,9.621021271,-0.93211484,4.402626038,-2.83494544
1.0999560000000201,-30.56296921,6.349969387,-147.2419128,-2.49178791,-1.579928637,11.89007378,-2.559925079,-0.663139701,-1.17632091
1.1082890000000134,-30.56173325,6.391537189,-147.2977753,0.780808508,-0.106515989,10.09680653,-0.07805939,6.742640972,-2.864734888
1.1166220000000067,-30.58082962,6.345160961,-147.2854004,-0.071450487,-2.325743198,4.33068037,-3.23406601,-6.006345749,-1.995387316
1.124955,-30.58098984,6.287380695,-147.2792969,-1.404168725,-1.161997914,13.81254673,-1.069817185,-7.287006855,-2.551318884
1.1332879999999932,-30.58685875,6.335793972,-147.3238831,-3.716231108,0.217109129,17.10022926,-0.89195174,7.242553234,-2.056938648
1.1416209999999865,-30.59788513,6.274839401,-147.3219299,0.794679344,-3.066374302,4.40927124,-2.318434,-7.355088234,-3.185834408
1.1499539999999797,-30.60139656,6.231659889,-147.3185272,-2.865748405,-0.524569511,10.83356762,-1.242251992,-5.131287098,-2.723190308
1.158286999999973,-30.6048584,6.218874931,-147.3236542,-0.39189741,-1.754106641,7.007684708,-1.318198323,-1.949589133,-0.966514766
1.1666199999999662,-30.60623932,6.159986973,-147.3134003,0.333839893,-1.945290685,6.225792408,-1.074786186,-7.168925762,-2.982047796
1.1749529999999595,-30.63924599,6.093993664,-147.2867737,-3.331548691,-1.227665186,16.11755371,-5.263764858,-9.374389648,-0.958241642
1.1832859999999528,-30.65533829,6.149808407,-147.3246765,-3.157491446,-0.775008678,17.44309235,-2.222329617,7.603919029,-0.91236645
1.191618999999946,-30.70677948,6.1270504,-147.3050995,-0.715536296,-2.213295937,7.511085033,-7.391282558,-4.484066486,0.958074927
1.1999520000001667,-30.75150681,6.092037678,-147.2892456,-0.640746534,-0.862676859,10.80469894,-6.346605301,-5.041278362,-0.958420575
1.20828500000016,-30.80033875,6.118887424,-147.3050232,-2.462007761,-2.09251976,9.245270729,-6.621779919,2.796972275,0.357984573
1.2166180000001532,-30.85075951,6.093627453,-147.2916412,-0.051128846,-2.130994797,5.92362833,-6.997975826,-3.884591579,-0.618929684
1.2249510000001465,-30.89938736,6.093724251,-147.285141,-3.280488729,0.587085664,15.89202881,-6.876717567,-1.322783113,0.994754434
1.2332840000001397,-30.94567108,6.147919178,-147.3298492,-1.383524299,-2.730136395,9.756573677,-5.760244846,7.855374336,-1.669625521
1.241617000000133,-30.99031067,6.11785841,-147.2948151,-0.476418138,-1.337057114,4.480690956,-6.771342278,-6.197608471,2.082130194
1.2499500000001262,-31.03979111,6.129318714,-147.3087006,-3.057336092,0.041537143,10.80882454,-6.537713528,1.567463279,-1.147018313
1.2582830000001195,-31.05721283,6.223134518,-147.3454742,0.04483721,-2.023067951,8.489227295,-2.576676846,10.96868229,2.373030901
1.2666160000001128,-31.10251617,6.192316055,-147.3321838,-1.893995881,-1.060928583,10.16157436,-6.384771824,-4.449564934,-0.9877491
1.274949000000106,-31.11349297,6.362941742,-147.3939972,-5.401243687,-0.886979163,19.2826786,-1.469399452,20.3985157,4.595527649
1.2832820000000993,-31.1456089,6.453821659,-147.42276,0.74554497,-1.69789362,4.397536755,-4.245854378,10.64417458,2.266962528
1.2916150000000926,-31.14541054,6.525056839,-147.4285889,-1.919255495,-0.820519507,9.168068886,-0.863391995,6.72760582,4.16510582
1.2999480000000858,-31.13875771,6.75220871,-147.5146484,-1.964447618,-0.887777269,11.61282158,1.215575576,28.17081261,4.881078243
1.308281000000079,-31.13293076,6.813571453,-147.5054474,-0.060396202,-2.360568523,0.795353174,-0.403283298,4.782356739,5.091418266
1.3166140000000723,-31.10715103,7.056489468,-147.5831909,-4.778540134,0.879028618,23.52908516,3.443145037,29.2766571,6.703916073
1.3249470000000656,-31.10759544,7.260337353,-147.6539001,-0.828787923,-2.659409523,4.588258266,0.02978937,24.35694504,5.748374939
1.3332800000000589,-31.03761292,7.460092545,-147.6747437,-3.344772816,1.035917521,9.989104271,7.94103241,21.34822083,9.811922073
1.3416130000000521,-30.9438591,7.765475273,-147.7715454,-2.373228073,-0.602355957,8.291733742,11.8091526,36.40684128,9.320392609
1.3499460000000454,-30.79132652,7.977065086,-147.7708893,1.973386884,-0.133434072,4.099655628,17.51881981,21.28798294,12.66020393
1.3582790000000386,-30.57765388,8.234425545,-147.8385468,-3.010705471,2.044572115,12.56863499,25.79982185,29.72780037,9.174111366
1.366612000000032,-30.31160736,8.535993576,-147.8662109,-0.821648955,-0.081726223,6.225429535,31.6355114,32.39771652,15.07221317
1.3749450000000252,-29.94636345,8.754526138,-147.884491,-1.301917076,0.60443294,10.00534821,43.17980576,22.89374542,11.53017139
1.3832780000000184,-29.53468513,9.062525749,-147.9199677,-1.12864697,1.551336765,7.880744934,49.28804016,33.7138443,14.24960327
1.3916110000000117,-29.03443718,9.285346031,-147.9425659,-1.173275471,0.313458264,11.09092045,59.47821808,23.77186775,10.98327255
1.399944000000005,-28.44698524,9.553692818,-147.948822,-0.917405069,0.937269688,9.752963066,69.84520721,28.12611389,14.39957714
1.4082769999999982,-27.78471184,9.719454765,-147.9360352,-1.012362719,2.340593576,8.557231903,78.24446106,16.03626442,10.86446667
1.4166099999999915,-27.01586151,9.986450195,-147.9193115,-2.308887243,0.782543957,12.62790871,91.14887238,27.07218552,16.06384277
1.4249429999999847,-26.17453575,10.0882349,-147.8572998,1.160684228,0.712265193,5.594881535,98.69947815,6.897871017,12.11338425
1.433275999999978,-25.25034714,10.27658176,-147.7866821,-2.654416084,1.302748561,15.81011486,108.6376114,16.27945518,16.88692856
1.4416089999999713,-24.24775887,10.42998886,-147.7118378,-0.130827233,1.105493307,8.307792664,117.7709427,12.38018036,15.64764977
1.4499419999999645,-23.13479805,10.50553703,-147.5731354,-0.5283705,1.231957793,7.596601486,129.764389,1.26200664,18.19472694
1.4582749999999578,-21.94103622,10.60280323,-147.4599304,-0.36616689,2.024211884,8.320610046,139.8730621,5.110180378,16.55848312
1.466607999999951,-20.63384438,10.65960407,-147.3028717,-1.27706039,1.104929447,10.96089077,152.6217041,-0.838614643,19.29965019
1.4749409999999443,-19.25754166,10.6818037,-147.1286774,-0.33979103,0.84904325,12.56275654,160.4570313,-4.934709072,19.66827011
1.483274000000165,-17.82179832,10.68011761,-146.939743,-2.066289425,0.670000851,10.50775433,167.324234,-7.7396245,20.62433052
1.4916070000001582,-16.32546043,10.72867775,-146.7525787,-1.328886986,0.107132278,12.48702908,174.5966034,-1.288366914,22.07284546
1.4999400000001515,-14.79878616,10.64572716,-146.5511932,0.516594708,-0.034117892,5.900884628,177.9583435,-16.42510796,19.77394676
1.5082730000001447,-13.23212242,10.63874722,-146.3474426,-2.789737463,-0.41356039,15.07140541,182.7241974,-6.987566948,22.2185154
1.516606000000138,-11.63899994,10.54125881,-146.1497192,1.288960695,-1.020201206,6.680292606,186.053421,-16.91181183,19.82430458
1.5249390000001313,-10.03352547,10.4196167,-145.9234619,-2.571758747,0.489782751,11.40324402,186.9866486,-19.7064209,22.43279648
1.5332720000001245,-8.396828651,10.28677654,-145.7470245,1.379672527,-0.732204854,9.628601074,191.8386993,-19.53574944,17.57362366
1.5416050000001178,-6.75469017,10.08462524,-145.5222626,-3.61937809,-0.198052719,14.56201267,191.5686188,-27.91983032,21.98705673
1.549938000000111,-5.114488125,9.928156853,-145.3520203,-0.705200791,-0.799647689,12.1133194,192.5144348,-21.22079086,17.6356926
1.5582710000001043,-3.464213848,9.721443176,-145.1456757,-0.191396743,-1.988724709,10.13394833,193.0925751,-26.97060013,21.31264687
1.5666040000000976,-1.87593925,9.462378502,-144.9928284,-0.103996545,-0.924373865,12.6921072,186.7765808,-32.3621788,16.18321419
1.5749370000000908,-0.266152561,9.241176605,-144.8227997,-2.052314281,-2.158031225,14.06755543,189.1365356,-27.36593437,18.49567795
1.583270000000084,1.270561695,8.942631721,-144.672821,0.830608845,-2.144329309,12.54883575,180.8010254,-36.13335037,17.64962387
1.5916030000000774,2.76849103,8.599022865,-144.5368652,-2.743891954,-1.127175927,10.98673248,176.5271912,-41.12356949,16.49232101
1.5999360000000706,4.256430626,8.284803391,-144.4244995,-0.819764614,-2.468377352,10.43094826,175.8119202,-37.28299332,15.18564034
1.608269000000064,5.688360691,7.923538685,-144.3263092,-0.325786978,-2.612168312,15.39458847,169.4260559,-42.69237518,14.34004402
1.6166020000000572,7.004090309,7.581365585,-144.2783661,-2.011308432,-3.235180855,20.21316147,156.3478851,-40.64370728,9.769583702
1.6249350000000504,8.2269907,7.234298229,-144.2127075,-1.566155434,-4.628099918,8.058310509,144.9069214,-40.70652008,12.82034779
1.6332680000000437,9.408346176,6.840656281,-144.2062225,0.877041459,-3.311409473,6.772593498,140.9022064,-47.02496338,7.569525719
1.641601000000037,10.53884697,6.514047146,-144.1772156,-5.235941887,-3.086848736,14.17012405,134.4339142,-38.46351242,9.752827644
1.6499340000000302,11.5899353,6.109228611,-144.1985931,4.624503613,-2.260601997,10.20611668,125.6462936,-48.62874222,6.384744644
1.6582670000000235,12.5408268,5.816187859,-144.1929932,-8.031829834,-4.836718082,22.19668579,113.219986,-34.7093544,7.562734604
1.6666000000000167,13.38094902,5.453989983,-144.1909943,5.321317196,-1.237694144,6.018188953,100.0237198,-42.76902771,9.546077728
1.67493300000001,14.16378593,5.172516823,-144.2143402,-9.169231415,-3.758064032,15.85557938,93.38591766,-33.93032074,4.892349243
1.6832660000000033,14.90555954,4.856561661,-144.1855011,5.483055592,-2.976967096,1.953183651,87.9424057,-36.30084229,12.41507912
1.6915989999999965,15.57950306,4.612188339,-144.2177277,-8.284556389,-2.132633686,22.47151184,80.38362885,-29.7675724,3.553447723
1.6999319999999898,16.15512466,4.294417381,-144.1794434,6.345373154,-2.565912724,3.544258833,67.94638824,-35.89101028,14.39518929
1.708264999999983,16.7062149,4.143630028,-144.1989899,-8.913665771,-3.076944351,18.20805168,65.49822235,-18.47761726,2.437293768
1.7165979999999763,17.19353867,3.808321953,-144.1759796,4.915663719,-1.689365387,10.92961788,57.51663971,-38.15074539,13.93122005
1.7249309999999696,17.57063103,3.724818945,-144.1759186,-4.75929594,-4.644994259,14.44902134,44.4505043,-10.02332973,2.562696218
1.7332639999999628,17.92823219,3.449421644,-144.166687,-0.464144945,-2.510856628,7.98345089,42.06965637,-31.60210419,10.69283104
1.741596999999956,18.20791626,3.392603397,-144.1442108,-1.987800956,-2.554817438,7.440791607,32.60538101,-6.109333992,4.239813328
1.7499299999999494,18.45713997,3.221564054,-144.117691,-2.286611557,-2.25925231,11.5632,28.94915199,-18.94776726,9.034034729
1.7582629999999426,18.65709496,3.117611408,-144.1208191,0.856313288,-0.740340173,2.109749556,23.22402382,-12.41008091,3.178588152
1.7665960000001633,18.86345863,3.000196695,-144.0779877,-3.481640339,-2.59029603,20.45178413,23.71486473,-12.15503788,8.954781532
1.7749290000001565,18.95538712,2.877368927,-144.0978699,1.49208045,-2.803543568,13.93104839,10.36530304,-15.18071556,2.088162899
1.7832620000001498,18.98534012,2.854886293,-144.0281372,-2.984813452,-2.583286762,11.7008419,2.399938822,-0.297996044,8.344900131
1.791595000000143,19.05182076,2.745685816,-144.0255585,-2.811590195,-0.55205667,8.19966507,7.17904377,-12.75417519,4.127106667
1.7999280000001363,19.07084084,2.708543301,-143.9553223,2.877099037,-0.397546947,1.048619032,1.105164766,-1.927394629,8.978853226
1.8082610000001296,19.13420296,2.653630018,-143.9441833,-4.78955698,-1.594000101,7.686491966,6.758379459,-6.254484177,2.984199047
1.8165940000001228,19.17587662,2.530460835,-143.9010315,4.842867851,-0.083661705,9.438544273,3.991454124,-12.72884178,9.299031258
1.824927000000116,19.21248245,2.474834204,-143.8862305,-6.468294144,-0.778422356,23.69159508,3.534828663,-6.184275627,3.436188698
1.8332600000001094,19.20510864,2.352515936,-143.8533936,4.230973721,-1.749230981,7.397470951,-1.826090336,-13.0308342,8.111351967
1.8415930000001026,19.21022606,2.353788137,-143.8025055,-4.049833298,-0.971048653,11.83920097,-0.411748767,1.686684489,5.276903152
1.8499260000000959,19.28561974,2.103075266,-143.8443298,2.883847713,1.38419497,1.67819953,8.466805458,-30.52092171,4.749074936
1.8582590000000891,19.36196709,2.080168962,-143.7893219,-4.440020561,-0.406745255,18.9069767,8.147799492,-0.875725269,6.698007584
1.8665920000000824,19.41215897,1.818698645,-143.8618927,4.440985203,-0.876333594,1.387343764,5.543655872,-32.95095444,1.77298069
1.8749250000000757,19.50198364,1.792717695,-143.8030853,-5.254528999,-1.516809702,12.86210632,9.785982132,-1.054589272,7.251197815
1.883258000000069,19.6287632,1.445319891,-143.9069214,3.27486968,0.953055978,6.356356621,14.79113388,-43.91542816,1.791347742
1.8915910000000622,19.70988655,1.40984726,-143.8467255,-4.336659431,-2.075375557,19.15592194,8.787566185,-2.042530537,7.798831463
1.8999240000000555,19.8211956,1.080988407,-143.9722137,4.367019653,0.686685026,-1.985550046,12.91009617,-42.69416046,-1.257661104
1.9082570000000487,19.96676445,0.957719088,-143.9197083,-6.968792439,-1.5122298,23.21013641,16.59177208,-12.22996044,10.52296162
1.916590000000042,20.08652878,0.606854022,-144.0532684,6.238135338,0.722192407,-2.869505882,13.81492329,-45.51076889,-1.073366642
1.9249230000000352,20.22042274,0.452814758,-144.0329437,-7.361233234,-2.857865095,19.03811836,15.28444386,-16.97768593,8.223697662
1.9332560000000285,20.37580299,0.209876403,-144.1299286,4.613273621,0.362084627,3.419514418,17.93678665,-31.84293938,-1.236989856
1.9415890000000218,20.52136993,-0.131453529,-144.1912994,-4.362359524,-1.731908798,16.78676414,16.71453476,-41.41677856,6.976650715
1.949922000000015,20.64509773,-0.275567621,-144.2555084,-1.181743741,0.749675035,14.85697746,14.0441227,-19.36257362,-1.569333553
1.9582550000000083,20.76238251,-0.596243143,-144.3151855,0.32387194,-3.546146631,-1.757436514,13.26613426,-38.99630356,6.474201202
1.9665880000000016,20.88532829,-0.838723063,-144.4223938,-2.86890626,1.270199418,23.87037277,13.81811428,-32.23409271,-2.117095947
1.9749209999999948,20.98146248,-1.007771254,-144.4272766,-1.691339016,-2.184493303,4.232095718,10.77526093,-19.62453651,6.268639088
1.983253999999988,21.07104683,-1.298065662,-144.5468597,1.522819281,-1.064270973,7.233268261,9.685204506,-38.12801743,-1.328151226
1.9915869999999813,21.15149117,-1.414587736,-144.5535736,-5.108108521,-2.128558874,18.59194756,8.885592461,-13.80379581,3.850345373
1.9999199999999746,21.20158577,-1.638611913,-144.6269836,-0.881610394,1.146719694,7.213844776,5.001887798,-28.71375656,1.063490987
2.008252999999968,21.24358177,-1.785898805,-144.6425018,0.513050556,-3.144002199,0.540785015,4.238043308,-17.6197319,4.233278751
2.016585999999961,21.34327888,-1.950388908,-144.7008362,-4.518688679,1.791399598,15.75876617,10.95991325,-21.39714241,0.211919472
2.0249189999999544,21.40353775,-2.067311764,-144.7050629,1.582428098,-1.377018929,12.93125439,6.469605923,-13.72167587,4.210532665
2.0332519999999477,21.42359352,-2.20063138,-144.7393951,-3.004941702,-0.312215775,8.638139725,1.476622343,-16.86177635,1.571727991
2.041584999999941,21.43647766,-2.26072669,-144.7548981,1.885418892,-2.613854885,12.20993614,0.733835161,-7.865440845,0.47203204
2.0499180000001616,21.47214127,-2.297876835,-144.7324219,-7.573868752,0.152825505,18.81901932,3.610338926,-3.628512859,3.702550411
2.058251000000155,21.49570274,-2.360611677,-144.762207,5.310865402,-0.949203074,7.143318653,1.945311785,-8.786759377,-0.995369375
2.066584000000148,21.49246025,-2.363796711,-144.7286072,-5.88457489,1.085288644,10.37998486,-0.999826074,0.655224919,3.451761484
2.0749170000001413,21.50927925,-2.322801828,-144.713562,0.157230616,-3.131032705,8.272121429,1.356824517,4.762313843,-0.558390319
2.0832500000001346,21.5602684,-2.247878551,-144.6499939,-6.169189453,0.69876641,8.780569077,5.647363663,10.69672394,3.357681036
2.091583000000128,21.58904266,-2.231338501,-144.6490021,2.612732649,-1.041772008,6.123235703,2.725444555,1.411715865,-1.052514672
2.099916000000121,21.57860374,-2.098585367,-144.5680389,-2.790380001,-0.595106184,13.32897186,-1.661903262,17.91983986,2.733488083
2.1082490000001144,21.59070396,-1.951705694,-144.5259399,-0.810532212,-0.721891105,10.09987736,0.900814354,17.76740646,-2.222035408
2.1165820000001077,21.63322449,-1.925027132,-144.4686584,1.906068444,0.508297682,8.061016083,4.558245182,5.043404102,4.774172783
2.124915000000101,21.66092491,-1.860146523,-144.4617462,-0.898827434,0.673761427,15.68977356,2.623602152,7.063011169,-2.535656214
2.133248000000094,21.70821953,-1.727617025,-144.3663177,-2.5905931,-1.391459107,13.39807892,5.257489681,18.54382706,4.324542046
2.1415810000000874,21.75437737,-1.691298485,-144.3562164,0.299624652,-0.340040147,9.936876297,4.850785255,4.018373966,-0.917732537
2.1499140000000807,21.76752472,-1.635216832,-144.3143311,-0.443100095,-0.70088315,15.19918919,0.948687375,7.647528172,1.734839678
2.158247000000074,21.78841209,-1.503053784,-144.2634583,-1.581316233,-0.678683639,8.400497437,1.951946259,16.51220894,-0.647963524
2.1665800000000672,21.84342003,-1.494710803,-144.2355499,1.186437249,-0.701188564,1.68285346,5.912392616,1.70930171,2.300222158
2.1749130000000605,21.90543365,-1.490410686,-144.2324982,-0.893189549,0.727736831,14.32470322,6.730408669,0.137612477,-0.282704294
2.1832460000000538,21.96160698,-1.447581291,-144.2038574,-3.228972435,-1.042898536,11.67679882,6.053424358,5.585913181,0.83142519
2.191579000000047,22.0092392,-1.4642061,-144.1884308,2.457264423,-0.490295827,5.406702042,5.046657562,-1.639413595,2.031452417
2.1999120000000403,22.05413437,-1.511393905,-144.2238922,-2.47403574,-2.01360774,13.77602577,4.501176834,-7.309099197,-2.25428319
2.2082450000000335,22.06095505,-1.495162845,-144.1893311,0.630883932,-0.246396199,13.4056263,0.212201118,2.881793261,2.681848526
2.216578000000027,22.06563568,-1.542355418,-144.2257385,-2.476872444,-1.80480659,5.570591927,-0.331653118,-7.352873802,-2.357610941
2.22491100000002,22.080019,-1.645491123,-144.2368317,3.514701366,-0.369193196,6.28016901,0.976145864,-12.4496727,2.987452745
2.2332440000000133,22.08290863,-1.704790115,-144.2962341,-4.611090183,-0.321837366,12.06745434,-0.639229,-9.736587524,-4.360311508
2.2415770000000066,22.08377457,-1.803388357,-144.2817078,1.721833348,-0.791835666,14.63504696,-0.554317653,-10.79063702,5.630687714
2.24991,22.0620842,-1.889888763,-144.3563843,-4.681247234,0.030192072,14.67167664,-3.667523146,-13.44857597,-4.832715511
2.258242999999993,22.00406647,-1.974212408,-144.3350067,3.857117653,-2.331415176,3.358750343,-7.586527824,-8.900334358,5.741906166
2.2665759999999864,21.98010826,-2.091581821,-144.4143982,-5.073833942,-1.165112615,13.14336777,-3.989034176,-17.08977127,-3.98911047
2.2749089999999796,21.91867447,-2.202058077,-144.3925018,2.757846117,0.328580022,13.28121567,-7.981372356,-11.79658699,6.960913181
2.283241999999973,21.8672123,-2.24685955,-144.4524231,-6.398480892,-0.599375963,11.43656445,-7.231822491,-8.13341713,-5.098565102
2.291574999999966,21.81556702,-2.367787838,-144.4095917,3.488882303,-0.902997315,11.17000866,-6.695766926,-12.04174042,9.735139847
2.2999079999999594,21.74492264,-2.473194838,-144.4956512,-4.867432594,-0.141166747,10.78711414,-9.691586494,-16.0381546,-5.323690891
2.3082409999999527,21.66929817,-2.546428919,-144.438385,3.876366854,-2.377754211,3.982625008,-9.478266716,-6.109840393,9.198648453
2.316573999999946,21.62110329,-2.667752028,-144.5324554,-5.639657974,0.034651849,13.04541016,-7.074603081,-18.15645218,-5.548122406
2.3249070000001666,21.51244354,-2.763962746,-144.4786987,4.184038639,-1.119049907,7.65909338,-13.43728352,-8.852333069,9.809191704
2.33324000000016,21.42290306,-2.776848555,-144.5457306,-7.346461296,-0.87425971,9.209605217,-11.9116478,-4.844601154,-7.348726273
2.341573000000153,21.34508133,-2.864964485,-144.4704437,2.870641708,-1.240261793,10.79325962,-9.596195221,-7.039459229,11.82720852
2.3499060000001464,21.24479866,-2.85908556,-144.5358429,-5.088002682,0.745440841,14.73925114,-13.20196438,-2.65553093,-7.997354984
2.3582390000001396,21.13630486,-2.86122489,-144.443634,0.127742767,-1.906466246,6.518079281,-13.16889477,3.26982379,9.969279289
2.366572000000133,21.0688324,-2.817458391,-144.483139,-4.468867779,0.800212026,16.02349472,-9.108345985,2.730464697,-6.742921829
2.374905000000126,20.96393776,-2.830827713,-144.4070282,1.888749242,-1.453867912,10.30721378,-12.83885574,1.28753829,8.658240318
2.3832380000001194,20.87884903,-2.711694479,-144.4245911,-5.698602676,1.197166681,10.27826405,-11.08999348,12.13726902,-7.505356789
2.3915710000001127,20.81082916,-2.703110218,-144.3286743,1.641460776,-2.406355619,11.05412006,-8.318966866,4.565033436,9.948377609
2.399904000000106,20.74295044,-2.612216949,-144.3636932,-3.704795599,1.536360741,12.48958111,-9.117568016,8.244134903,-8.229701042
2.408237000000099,20.6746006,-2.544120312,-144.258728,0.409499139,-1.467802882,8.440139771,-8.333287239,11.60462284,8.449973106
2.4165700000000925,20.63269043,-2.46051836,-144.2807465,-2.57742548,0.040793397,14.02079105,-5.921294689,7.99052763,-6.444311619
2.4249030000000857,20.5723362,-2.423961401,-144.2075958,1.420697331,-1.104241252,8.161532402,-7.567341805,6.705205917,6.238104343
2.433236000000079,20.52593422,-2.286142588,-144.2170258,-3.978011608,0.868883789,11.79824638,-6.390752316,14.62379551,-7.299341202
2.4415690000000723,20.48905563,-2.265725136,-144.1474304,1.8500278,-2.580999136,9.294688225,-4.790426254,4.728221893,6.528441906
2.4499020000000655,20.44861603,-2.153943777,-144.1718445,-2.599723577,2.006845713,10.68691635,-5.742967606,11.07847691,-7.868283272
2.458235000000059,20.40351295,-2.042137146,-144.073761,-1.469476819,-2.235612631,11.04078007,-5.678472042,16.18849373,5.909602165
2.466568000000052,20.3741703,-1.962526441,-144.0837097,-0.723212779,0.526448071,10.6780405,-4.339640617,8.075182915,-4.879358292
2.4749010000000453,20.32542038,-1.815897346,-143.9707794,-2.333409309,-1.837849975,8.416075706,-6.098751545,20.71632767,6.14722681
2.4832340000000386,20.28535652,-1.661486387,-143.9486694,-1.123991609,1.428613663,12.69113731,-5.50519228,17.83500481,-4.375757694
2.491567000000032,20.24397087,-1.536832929,-143.8439636,-2.405953646,-2.477237463,7.809128284,-5.311343193,17.89148331,6.173275948
2.499900000000025,20.21085167,-1.308950543,-143.7879639,-0.877670109,0.491626829,9.3975811,-4.584131241,27.51760864,-3.58917141
2.5082330000000184,20.19231796,-1.179060459,-143.7187805,-3.408617735,-1.103456378,12.72237492,-2.740006924,17.00349045,1.981837869
2.5165660000000116,20.16195488,-0.938383579,-143.6470184,1.889744163,1.070300817,10.16935921,-4.261033535,29.61403465,-2.316347837
2.524899000000005,20.1374836,-0.756595612,-143.57901,-4.321829319,-3.340159416,11.77026081,-3.510509253,22.79912567,-0.280194253
2.533231999999998,20.09453583,-0.562808096,-143.5085449,3.598723412,2.182883501,11.05302429,-5.833157539,24.27860451,-0.494303733
2.5415649999999914,20.05197906,-0.335659206,-143.4730988,-5.149871826,-1.177479625,9.599563599,-5.769200325,26.57149506,-5.789077282
2.5498979999999847,20.01235962,-0.166341811,-143.3820496,2.409845114,-0.654027641,12.77095795,-5.483446121,22.3674221,2.869909525
2.558230999999978,19.96136475,0.037020482,-143.3750916,-3.328721285,-1.232012153,9.181945801,-6.812852383,22.72891808,-7.981194973
2.566563999999971,19.92131424,0.157921001,-143.2868805,0.46298629,-0.339657813,10.06960106,-5.600835323,16.78397369,4.56746769
2.5748969999999645,19.87159348,0.34400624,-143.2920227,-1.492621064,-2.269591093,11.41040993,-6.656630516,20.2945385,-8.609563828
2.5832299999999577,19.80120277,0.464727789,-143.1999512,-0.766516626,1.305360198,15.03643036,-9.302913666,16.91307259,5.0435853
2.591562999999951,19.69714928,0.638234615,-143.2178192,0.37387535,-0.561700583,9.79646492,-13.15867901,18.38079834,-9.478961945
2.5998959999999443,19.61046028,0.791249275,-143.1277161,-4.634920597,-0.709401488,11.45114517,-11.31442833,20.4641571,3.571458578
2.608229000000165,19.52877808,0.896102667,-143.1464233,1.417839527,-1.244196177,8.493345261,-10.45980644,10.61166,-6.753553867
2.616562000000158,19.47013092,1.022187233,-143.061142,-2.338921785,-0.332248896,11.74557304,-7.98675108,17.21321869,4.158638477
2.6248950000001514,19.39094543,1.093147993,-143.0911713,1.911626101,0.49807623,14.07501221,-10.1290741,6.341662884,-6.654784203
2.6332280000001447,19.27010345,1.242529273,-142.9971924,-3.574156523,-1.187644124,11.3696909,-15.50686741,20.18196869,4.269575119
2.641561000000138,19.14262009,1.294913054,-143.0287323,1.20501399,0.416861922,10.61773968,-15.90577602,4.200978279,-6.067398548
2.649894000000131,19.05791473,1.370946884,-142.9881287,-3.136439085,-1.850013256,5.709265709,-11.05508137,9.751303673,1.18433857
2.6582270000001245,19.00177002,1.443154335,-143.0059052,1.794794559,1.912060857,15.42504787,-7.376054764,7.006274223,-5.266286373
2.6665600000001177,18.91329956,1.508198977,-142.9846039,-3.938778877,-0.894328654,12.58527851,-11.46042538,7.748345852,-0.554497004
2.674893000000111,18.8089962,1.613297582,-142.9735107,0.146964803,0.165816471,10.58588314,-13.24171925,11.87413597,-3.242917061
2.6832260000001042,18.72569466,1.639925718,-143.008606,-2.151438475,-2.050412416,6.891489983,-10.65475464,1.207672834,-5.447123528
2.6915590000000975,18.64406013,1.752811909,-143.0105743,0.198482141,-0.12521933,14.70507717,-10.47945213,12.26779842,-4.988577843
2.6998920000000908,18.48571968,1.815075397,-143.0437317,-2.50452733,-1.332036495,12.6452961,-19.65558052,5.351853848,-6.586908817
2.708225000000084,18.29115295,1.937937021,-143.0612946,0.660381198,-1.540850282,8.183944702,-23.9699707,12.8383112,-7.072863102
2.7165580000000773,18.07579231,2.015430927,-143.1162415,-3.977406025,-2.613725424,9.283332825,-26.39377213,6.313363075,-9.596302986
2.7248910000000706,17.82374573,2.145493269,-143.13974,1.408922553,-1.395967722,11.1397562,-30.83408737,13.49091434,-7.916676044
2.733224000000064,17.4904995,2.235408783,-143.2161407,-4.022991657,-2.63670826,14.45074081,-40.41820145,7.037330627,-12.43708897
2.741557000000057,17.05931282,2.404543161,-143.2431641,2.642054319,-1.514138937,9.567778587,-52.30308151,17.93099785,-9.54591465
2.7498900000000503,16.54887962,2.548252583,-143.3334961,-6.425354481,-3.662246466,14.11193752,-61.56482697,12.91355324,-15.78693104
2.7582230000000436,15.95951557,2.79800415,-143.3173676,0.601777494,-2.586985588,12.38473797,-71.50434875,28.82329941,-6.959629059
2.766556000000037,15.26765156,2.97453928,-143.4207306,-4.695129871,-3.161893606,13.60735893,-83.18202209,16.6047287,-18.06529808
2.77488900000003,14.49222851,3.28862977,-143.394928,1.149386168,-2.758768082,5.577291965,-93.91033936,36.73155975,-7.11764431
2.7832220000000234,13.61636066,3.469492197,-143.5411224,-2.25921011,-1.923781991,9.058146477,-104.8544159,16.33591652,-22.69398689
2.7915550000000167,12.65645027,3.845385551,-143.519577,-1.886466622,-3.310825825,13.50682354,-116.0476913,44.02630997,-8.163907051
2.79988800000001,11.60916996,4.095357418,-143.6578369,-2.954068422,-1.573159337,15.83373737,-125.3114624,25.38327789,-22.92103195
2.808221000000003,10.47714043,4.599238396,-143.6217346,-3.136533022,-2.955777407,12.76030159,-136.8653259,59.68670654,-7.76690197
2.8165539999999964,9.235682487,4.890453339,-143.7659149,1.101349235,-1.734850764,6.873705864,-148.3321686,31.01408958,-23.40587616
2.8248869999999897,7.909581184,5.374601841,-143.742569,-2.208216906,-4.692412376,9.925180435,-160.0781555,57.37796021,-6.321729183
2.833219999999983,6.506187916,5.70620966,-143.8890991,-0.086603746,0.521138191,15.17110252,-167.4996338,36.81847763,-22.79319954
2.8415529999999762,5.031492233,6.233194351,-143.8796539,-4.298070908,-2.663553238,18.16869926,-177.6922302,62.46135712,-6.505578995
2.8498859999999695,3.516116858,6.641894817,-144.0208435,0.645271778,0.122424312,5.786291122,-180.735611,47.18863678,-20.88114166
2.8582189999999628,1.938663244,7.043201447,-144.0447693,0.921503305,-2.80993247,5.200747967,-189.5450592,47.43786621,-6.472550392
2.866551999999956,0.321914464,7.401630878,-144.2252502,0.439367563,0.497405708,14.06590176,-192.0789032,42.11592865,-22.76764107
2.8748849999999493,-1.350291014,7.786133766,-144.3016815,-4.804827213,-2.30463171,19.45488167,-200.0478363,45.74399567,-9.926832199
2.8832179999999425,-3.068809032,8.209482193,-144.4889069,1.318284273,1.275755763,14.88103676,-203.8892365,51.15800476,-20.70961571
2.891551000000163,-4.827287674,8.474057198,-144.6300201,-0.548238039,-1.666775584,3.419190645,-209.1585236,32.39900208,-15.7245388
2.8998840000001564,-6.584753036,8.821270943,-144.8155365,2.695355177,0.864348769,6.439568996,-208.3422546,43.18427277,-18.19211388
2.9082170000001497,-8.292778015,8.975759506,-145.0069122,-1.940250039,0.673930109,12.29582691,-202.0255432,20.91903114,-21.14028358
2.916550000000143,-9.98120594,9.257062912,-145.1651306,-0.079576448,2.915201902,15.29340076,-200.3966827,35.84114456,-13.58546638
2.9248830000001362,-11.6337595,9.474543571,-145.3622742,-3.355868101,0.963316083,13.79203033,-195.1401825,29.57059669,-18.65861702
2.9332160000001295,-13.2394762,9.616829872,-145.5224457,2.180024385,3.935559273,11.33827877,-190.2908936,20.29180908,-15.26773357
2.9415490000001228,-14.76679707,9.795064926,-145.7471161,-4.287589073,0.478982747,8.528465271,-179.5028839,26.63907433,-20.77025795
2.949882000000116,-16.20703125,9.89863205,-145.8876038,1.703988314,3.929102421,13.32329273,-170.7359467,15.94906712,-13.12744522
2.9582150000001093,-17.62492752,9.941473961,-146.1218872,-0.399415165,1.274488926,7.130565166,-166.104599,12.37782478,-25.02669525
2.9665480000001025,-18.93230247,10.02650833,-146.2848511,0.1309136,3.278293371,9.464127541,-154.2840118,15.26653671,-15.5226965
2.974881000000096,-20.12343407,9.921797752,-146.4605255,-0.981426775,3.416240215,10.89048576,-140.1176147,-5.572053909,-23.65221024
2.983214000000089,-21.25993347,9.97167778,-146.5949249,1.743959427,2.179675341,8.471879959,-134.3823547,10.74834442,-13.17975044
2.9915470000000823,-22.23949432,9.829989433,-146.7738342,-1.669475079,4.048904896,10.86554337,-114.719574,-8.703707695,-25.68474579
2.9998800000000756,-23.10170555,9.726306915,-146.825592,1.123443723,4.354112148,10.82408428,-103.1953583,-9.586462975,-10.87620163
3.008213000000069,-23.89737129,9.590530396,-146.9785309,-0.529024482,2.246009111,11.77253914,-93.29090118,-8.546988487,-22.71771622
3.016546000000062,-24.5138855,9.42515564,-146.9984436,-1.215662956,3.577715158,6.162840843,-74.36895752,-17.59756851,-10.72239208
3.0248790000000554,-25.02474213,9.207528114,-147.0768127,0.961274087,4.371014595,10.65807247,-60.66020966,-20.64030266,-19.05408287
3.0332120000000486,-25.46042252,9.045139313,-147.0827484,-1.040254116,0.942584336,9.294910431,-52.94940186,-17.7914505,-9.379279137
3.041545000000042,-25.75399971,8.794173241,-147.1366272,-1.444024682,4.083067417,10.833004,-35.14404297,-25.33174706,-18.23735619
3.049878000000035,-25.98051071,8.602525711,-147.1099091,-0.217104763,1.313826323,7.736727715,-28.44500923,-22.53959084,-7.616566658
3.0582110000000284,-26.15745544,8.39632988,-147.1523285,-2.266018867,2.223875761,15.18729687,-21.38312912,-20.91895103,-14.93602085
3.0665440000000217,-26.23381996,8.20135498,-147.1321106,-0.937805414,1.16966939,6.079116344,-10.29071617,-22.51847076,-8.609269142
3.074877000000015,-26.27049255,7.998901844,-147.1626282,-1.686839938,1.683719754,10.37552261,-4.802479267,-21.14657402,-13.43012714
3.083210000000008,-26.24943924,7.854542732,-147.1637421,-1.922097325,0.064700536,10.97984028,1.76979053,-15.9414463,-8.219726563
3.0915430000000015,-26.21327209,7.658825874,-147.1874237,-0.731465876,1.741142988,8.899774551,3.824130297,-20.73433685,-12.43875217
3.0998759999999947,-26.14090729,7.563196659,-147.2130432,-1.488173842,-0.916986406,9.956583023,8.315765381,-9.419266701,-8.230688095
3.108208999999988,-26.06904221,7.396778107,-147.2268677,-0.902633071,1.149139047,13.55896568,7.950686932,-18.0887928,-9.859627724
3.1165419999999813,-26.01417542,7.301863194,-147.2431793,-1.625493288,-2.001105309,6.884159565,6.059611797,-9.845767975,-7.178582668
3.1248749999999745,-25.92840576,7.217072487,-147.2805176,-1.174964905,0.815355182,10.92450714,9.980025291,-8.038196564,-8.128870964
3.133207999999968,-25.86990356,7.114029884,-147.2824402,-0.555426002,-1.386093736,9.458959579,6.273618698,-11.48651314,-6.042181015
3.141540999999961,-25.802248,7.039895058,-147.2935638,-1.250538111,0.413892776,14.48982716,7.414400101,-8.234196663,-4.809470654
3.1498739999999543,-25.78664017,6.986402512,-147.2996063,-1.237596512,-1.15424192,11.12817287,1.184530258,-5.930604458,-3.874960184
3.1582069999999476,-25.76097107,6.935359478,-147.3103485,-1.702081442,-0.290788293,10.93276215,2.374414206,-5.726869583,-3.628167152
3.166539999999941,-25.7404232,6.909278393,-147.3153229,-1.479850769,-1.574601412,13.44089031,1.760671258,-3.02584815,-2.328269958
3.1748730000001615,-25.76507759,6.897461414,-147.3108826,-2.356714487,-0.791843116,11.6087532,-3.879826784,-2.250018358,-0.004290384
3.1832060000001547,-25.80272102,6.861079693,-147.3232269,1.31888175,-1.93541646,7.511363506,-5.11722517,-3.75554657,-3.6579566
3.191539000000148,-25.86264801,6.873588562,-147.3401642,-3.018064022,0.150912017,14.92043209,-7.802826881,1.507295609,-1.065898061
3.1998720000001413,-25.97724152,6.840338707,-147.3556519,-0.233046472,-2.587317467,8.075743675,-14.30805016,-3.246541023,-3.837871313
3.2082050000001345,-26.07949257,6.869382381,-147.3686829,-2.345991135,-0.120698243,13.79650974,-12.93789387,3.099169016,0.201840222
3.216538000000128,-26.23967552,6.858967304,-147.4142303,-0.613638699,-0.909124851,11.06548691,-19.34662819,0.807130396,-5.857913494
3.224871000000121,-26.39418983,6.893277168,-147.423645,-3.241181135,-1.333352804,6.905426502,-19.26248741,3.484126568,0.865018725
3.2332040000001143,-26.55676651,6.89202404,-147.4610138,1.531357288,-1.074942946,8.882398605,-19.74913216,1.385141373,-4.48742342
3.2415370000001076,-26.74707603,6.909216881,-147.4739532,-2.725188494,-0.338216871,12.31287766,-23.5064621,1.84046042,-0.432253182
3.249870000000101,-26.95175362,6.920511246,-147.5157471,0.208453909,-1.065788984,7.476921082,-24.7351284,2.99412632,-4.266603947
3.258203000000094,-27.14197731,6.974016666,-147.5367126,-2.470973253,0.534973204,16.66694832,-23.37557411,6.179897785,0.667635381
3.2665360000000874,-27.37232018,6.972365856,-147.5709991,0.116186485,-1.314103603,10.98272991,-27.92003441,1.229355931,-4.155515671
3.2748690000000806,-27.55394554,6.986534595,-147.5595398,-2.32916522,-0.13945362,11.01039791,-22.81633568,0.20885855,1.953547239
3.283202000000074,-27.77034187,6.993874073,-147.5897217,1.056087255,-0.480203509,8.56884861,-26.30513382,1.98474586,-3.211169004
3.291535000000067,-27.96188545,6.942060471,-147.5665131,-0.81131506,-0.158211529,9.457838058,-24.18103981,-7.464465618,-0.501437247
3.2998680000000604,-28.15847015,6.951131821,-147.5952454,-0.57802248,-0.845474422,12.48567867,-23.95401955,2.105849504,-2.940528154
3.3082010000000537,-28.35694313,6.891695976,-147.5526581,-1.709870577,-0.794060469,10.04295063,-25.28960991,-9.352930069,1.033714533
3.316534000000047,-28.54228592,6.897805214,-147.5897522,0.393843502,0.694913924,11.47950649,-22.48589134,2.285610676,-3.969017506
3.32486700000004,-28.72878647,6.817595959,-147.5377502,-3.098693132,-0.707033694,11.46396828,-23.98245811,-12.07160091,0.734360635
3.3332000000000335,-28.88391113,6.822234631,-147.5574341,-1.117545962,0.193732247,12.03597641,-19.11346245,1.153895974,-2.220306635
3.3415330000000267,-29.03829765,6.743189812,-147.5071106,-1.379602551,-0.132998079,8.887879372,-20.10225296,-11.86801434,0.577703714
3.34986600000002,-29.17369843,6.726079464,-147.5095062,-0.48593688,-0.53417933,10.05919933,-16.99209023,-2.119821548,-1.681434035
3.3581990000000133,-29.28441238,6.653853416,-147.4790192,-1.247765422,0.226508915,6.389443874,-14.57326031,-9.999197006,-1.147658825
3.3665320000000065,-29.39230156,6.638973236,-147.4708862,-1.870045543,-0.004152583,13.29436874,-13.83849144,-2.495966911,-0.464860052
3.374865,-29.46583939,6.59939909,-147.455719,-0.373824388,-1.371505976,6.836366653,-9.898507118,-5.686987877,-0.844565451
3.383197999999993,-29.52916908,6.547037601,-147.4291687,-1.48405087,1.674922585,12.53136635,-8.742791176,-7.49125433,-0.773895741
3.3915309999999863,-29.57584953,6.550771713,-147.4386292,-1.067365289,-1.592493892,7.172781467,-6.339689255,0.27940008,-0.84154284
3.3998639999999796,-29.60744286,6.49405098,-147.3949738,-2.016937733,0.313507974,14.18161774,-5.161409855,-8.954442978,0.731004775
3.408196999999973,-29.65170288,6.511583328,-147.4265289,-0.227176264,-0.917237401,12.14953709,-5.754251003,3.019329309,-2.306984663
3.416529999999966,-29.67895889,6.43234539,-147.3620911,-1.949438691,-0.822655618,12.6513052,-4.920021057,-12.5304718,1.537673831
3.4248629999999594,-29.72140884,6.48212719,-147.3939056,-2.904043198,-0.448572576,11.8110466,-5.538450718,6.395643711,-0.408482999
3.4331959999999526,-29.74396133,6.410301685,-147.3501129,1.434270859,-0.384577066,5.688642502,-4.073009491,-10.5374279,-0.176085085
3.441528999999946,-29.77702332,6.410770416,-147.3688507,-4.140954018,-0.143396825,19.70589066,-4.593797684,0.479267925,-1.974511862
3.4498620000001665,-29.82141876,6.403076649,-147.3564148,-0.510442674,-1.446561933,5.007814884,-6.269505978,-2.003353119,0.394074976
3.45819500000016,-29.85806274,6.361158848,-147.3448029,-1.376811862,0.306132972,14.49527168,-5.434329987,-5.740778923,-1.349447727
3.466528000000153,-29.9098568,6.409522057,-147.369873,-1.252916932,-1.595301628,7.401139736,-6.660200119,6.05779171,-0.135512099
3.4748610000001463,-29.92893982,6.329871655,-147.3352356,0.340710133,0.037589483,6.391916752,-3.636901617,-11.04123592,-1.223271966
3.4831940000001396,-29.95914268,6.408498287,-147.3709106,-4.02112627,-0.478290945,17.43099785,-3.925907373,9.833561897,0.589793444
3.491527000000133,-29.99602318,6.362695694,-147.3679352,0.993032396,-1.909614325,5.133042336,-5.359714508,-5.654150009,-2.443866968
3.499860000000126,-30.00835419,6.414063931,-147.3734436,-4.875367165,0.356178343,16.52375603,-2.182601929,5.202814579,2.078467131
3.5081930000001194,-30.04848862,6.470742226,-147.4222107,0.290561318,-0.935457468,5.186915398,-5.061308384,8.066716194,-1.610174894
3.5165260000001126,-30.04752159,6.458760738,-147.4011993,-1.62749064,-0.82897228,11.96235275,-0.944127977,-2.963810682,1.016219258
3.524859000000106,-30.07170105,6.578241348,-147.4863281,-3.351413488,-0.188471794,16.36290359,-2.644682884,16.76170349,-1.584714651
3.533192000000099,-30.09076118,6.574459076,-147.4772491,-0.345307559,-1.885827065,1.771795392,-3.188396215,-1.397704959,0.272996545
3.5415250000000924,-30.0881691,6.694704533,-147.5516663,-2.346650839,0.102959096,15.94355679,0.43031925,16.1743679,-0.378411949
3.5498580000000857,-30.11231995,6.726721287,-147.5767365,0.984401226,-1.588536739,0.861803949,-3.323408842,4.358620644,-1.093177199
3.558191000000079,-30.10187721,6.726747513,-147.5905304,-1.360170364,0.236973688,14.74951267,0.532801688,0.063856289,-1.34978056
3.566524000000072,-30.11357307,6.870545387,-147.665329,-2.333326578,-1.128985524,13.1943655,-1.119098902,18.93548012,0.511132181
3.5748570000000655,-30.11707115,6.83263588,-147.6688385,0.511410952,-1.382793903,6.491961956,-1.296810389,-4.521847248,-2.514792919
3.5831900000000587,-30.10832024,6.918800831,-147.7059479,-4.363360882,-0.023177238,18.73756599,0.805593371,10.69678783,0.930539727
3.591523000000052,-30.10599899,6.97325182,-147.7514343,0.471360356,-1.55719173,3.880717754,-0.003880557,7.539244175,-1.221530318
3.5998560000000452,-30.09735107,6.974154472,-147.7374878,-0.336648554,-0.5012784,14.37221432,0.058707826,-1.203958631,1.057944655
3.6081890000000385,-30.11527443,7.038980007,-147.7986145,-2.693380594,-0.418972939,15.6525631,-2.20304203,9.54386425,-2.19543457
3.6165220000000318,-30.11166763,7.058076859,-147.7923431,-0.472075343,-2.063616991,3.641586781,-0.434763223,1.142420411,1.361498952
3.624855000000025,-30.1235218,7.063371658,-147.8156586,-1.6347363,-0.434691697,13.57648754,-2.041006327,1.050055623,-1.786631465
3.6331880000000183,-30.11905098,7.123224735,-147.8427582,-0.128423318,-1.389868975,8.58642292,0.160703704,7.368087769,0.378142953
3.6415210000000116,-30.11403084,7.083443642,-147.8482361,-0.020268567,0.235214397,7.992705345,-0.285893291,-4.713877678,-2.629544735
3.649854000000005,-30.11842346,7.087984085,-147.8537445,-4.331075191,-2.45479846,15.93075466,-1.221017718,0.335520864,-0.729147553
3.658186999999998,-30.10891533,7.14068222,-147.9004059,0.329846948,0.328745604,12.32689857,0.846729815,7.295370579,-1.215459466
3.6665199999999913,-30.13671684,7.086506844,-147.8961182,-2.205682039,-1.805824041,7.302896023,-4.176362514,-6.343941212,-3.256145477
3.6748529999999846,-30.12642479,7.101310253,-147.9007874,-1.350564003,-1.037884712,12.22340012,0.306346238,0.814686358,0.891016781
3.683185999999978,-30.14669609,7.126329422,-147.933136,-0.524186552,-1.609267831,5.701758385,-2.7292099,4.06618309,-2.257011175
3.691518999999971,-30.15974617,7.041249275,-147.8986816,0.880217314,-0.496028334,6.067596436,-3.078690767,-11.91624355,-1.05562675
3.6998519999999644,-30.16793442,7.055940628,-147.9362793,-4.357584953,-1.509011507,18.75936317,-1.206366539,3.310050726,-3.420076609
3.7081849999999577,-30.17774963,7.06743145,-147.9513245,-0.845537782,-1.174448252,8.979748726,-1.971310019,1.034302831,-0.277415007
3.716517999999951,-30.19538498,7.033693314,-147.9500732,-1.069563031,-0.468154997,13.15621662,-2.911556959,-4.039582253,-2.340846539
3.724850999999944,-30.21525192,7.052890301,-147.9586945,-3.26975584,-1.237493634,13.80388355,-3.269029379,1.470359445,0.811791897
3.733184000000165,-30.21674728,7.058223724,-147.9692841,0.859714508,-1.224981546,5.054234505,-0.800688148,0.724959731,-1.202498674
3.741517000000158,-30.25749207,7.0014534,-147.9398499,-1.568246007,-1.414419174,10.21175003,-6.337333679,-8.701220512,0.159935296
3.7498500000001513,-30.27979279,7.009290695,-147.9576569,-0.475598961,-1.504021287,12.58848,-3.193237066,1.415954947,-1.789807439
3.7581830000001446,-30.31492805,7.002068043,-147.9600372,-2.035950661,-0.685978055,10.03780937,-5.200599194,-1.659687161,-0.114405975
3.766516000000138,-30.35008621,6.951830864,-147.9369202,-2.305770159,-1.251783252,10.37223911,-5.333024979,-7.057861328,-1.102014065
3.774849000000131,-30.36110306,7.026227474,-147.9749451,-2.795943737,-0.700357795,14.53898621,-1.786887527,8.929865837,1.181226134
3.7831820000001244,-30.40599442,6.962528229,-147.9700012,1.355283856,-1.396855116,3.554824829,-6.23546648,-7.355807304,-3.79161191
3.7915150000001177,-30.43570518,6.939450264,-147.9529877,-2.693698168,-1.662061334,12.25792599,-4.823711395,-4.439881802,0.856591225
3.799848000000111,-30.48792267,6.976783276,-147.9928589,-0.622152984,-0.662286699,10.37647724,-6.465045929,5.805057049,-2.255602598
3.808181000000104,-30.54025269,6.901052952,-147.9700012,-1.045939207,-1.955307245,6.247847557,-7.633081436,-10.27869892,-1.690040112
3.8165140000000974,-30.58457947,6.911836147,-147.9914856,-3.066872835,-0.617996812,16.46063042,-5.788445473,1.952188849,-1.979557633
3.8248470000000907,-30.62256241,6.942073345,-148.0287933,-2.351732016,-1.771763921,9.746031761,-5.033978939,4.341434002,-1.442683458
3.833180000000084,-30.66165161,6.91016674,-148.0185547,1.406543374,0.250228286,9.962219238,-5.616087437,-4.380251408,-1.337536812
3.8415130000000772,-30.71847153,6.880996704,-148.0359192,-3.704313993,-2.471034288,14.40092564,-7.589279175,-3.015679121,-3.002231359
3.8498460000000705,-30.75526619,6.918179512,-148.0559998,0.28195107,-0.678674042,8.568795204,-4.901963234,4.592299461,-0.207872346
3.8581790000000638,-30.82789612,6.844288349,-148.0444183,-1.555496812,-2.013145447,6.547492027,-9.904888153,-9.386813164,-2.792247057
3.866512000000057,-30.85518456,6.859803677,-148.0510864,-1.621515393,-0.491531432,13.77466488,-3.957361221,1.540286303,-0.159794405
3.8748450000000503,-30.8760643,6.85615015,-148.0901337,-1.480472088,-0.111539602,9.385836601,-2.958712816,0.982049823,-3.719916582
3.8831780000000435,-30.88566208,6.797593117,-148.057373,-0.882149339,-1.273998022,8.22256279,-2.396327019,-8.498867989,-0.688421011
3.891511000000037,-30.90845299,6.7952981,-148.08815,-2.152667999,-1.49253583,15.35091305,-3.319131374,0.583108127,-2.730080605
3.89984400000003,-30.94551086,6.797544479,-148.1038055,-0.57421875,-1.013656855,6.913724422,-5.001806736,0.724037647,-1.893160939
3.9081770000000233,-30.97979546,6.717711926,-148.0786438,-0.459720045,-1.65789187,6.954388142,-5.490526199,-10.82673836,-1.794238687
3.9165100000000166,-30.99222183,6.726581097,-148.0870209,-3.568379641,-0.754105687,11.81931305,-2.15019989,0.96386373,-0.74359411
3.92484300000001,-30.98646164,6.737082005,-148.1080017,1.21427381,-0.345532387,9.563930511,-0.029750938,1.31623888,-0.963850915
3.933176000000003,-31.00934601,6.648404121,-148.0833588,-2.712351561,-2.745091677,11.25974941,-3.866686344,-11.09914589,-3.394334316
3.9415089999999964,-31.00639534,6.669039726,-148.0989075,-2.415742159,-0.112247869,18.05025864,-0.447775245,2.009616137,0.245947883
3.9498419999999896,-31.04681969,6.678677082,-148.1220856,-1.636966467,-1.348719954,8.505690575,-5.304312229,1.948808193,-2.20332408
3.958174999999983,-31.06277847,6.619645596,-148.0956726,0.683765113,-1.88279593,6.32886219,-3.299357176,-8.752449989,-0.41391328
3.966507999999976,-31.06476212,6.629200459,-148.1042633,-3.457712889,-0.872661173,12.05724716,-0.896511018,1.048160076,-0.719491005
3.9748409999999694,-31.04697418,6.658154011,-148.1253052,0.388152033,-1.328461289,6.576251507,1.412471414,3.225959539,0.160473198
3.9831739999999627,-31.05816078,6.627196789,-148.0952759,-2.174981833,-1.251304507,10.14696598,-2.535053968,-5.493319035,0.716711998
3.991506999999956,-31.03731918,6.699439526,-148.1403198,-3.303676605,-0.798307419,16.91193581,2.113559008,9.144436836,0.398429453
3.999839999999949,-31.04001427,6.788377762,-148.1673737,-2.548640013,-0.68712002,9.197509766,-0.718697131,10.3425684,2.307971001
4.0081729999999425,-31.0210762,6.831307888,-148.1695862,-1.378391743,-1.623844743,5.146035194,1.286859155,3.511020422,2.938208818
4.016506000000163,-30.9743042,7.046571732,-148.2436676,-3.704832315,-0.726384342,13.2532177,5.910667419,26.22122955,5.306862831
4.024839000000156,-30.95293808,7.141725063,-148.2579498,2.069954157,-1.695198059,-1.957767725,1.761798382,9.662842751,4.865193844
4.03317200000015,-30.88371849,7.345927238,-148.3109436,-5.447816849,-0.354035914,17.6212368,8.332775116,23.79899025,6.745615005
4.041505000000143,-30.83686638,7.6270895,-148.3970642,-0.871194065,-1.216556311,8.489750862,5.944301128,33.19966507,8.985532761
4.049838000000136,-30.73706055,7.849147797,-148.4155121,-2.875644207,0.470076948,12.87478447,11.50077343,23.54928207,11.32283115
4.058171000000129,-30.60033798,8.209287643,-148.5171204,-1.592065096,1.13002944,11.96879482,17.08498383,42.35611725,12.06576347
4.066504000000123,-30.39873314,8.481600761,-148.5410767,-0.599951625,0.354582578,6.772483349,23.83520889,29.13480377,13.70238113
4.074837000000116,-30.12625313,8.817539215,-148.6020203,-3.1983428,0.968963146,13.9480257,32.78071594,37.54999161,14.38655186
4.083170000000109,-29.77651405,9.167645454,-148.6572723,-1.152262211,0.984585345,7.331611633,42.23139954,39.20481491,14.87195301
4.0915030000001025,-29.33147621,9.47018528,-148.6873932,-0.2348461,1.141852498,7.512817383,52.98570633,32.51175308,14.99198723
4.099836000000096,-28.81767464,9.78208065,-148.7399139,-2.427881002,0.402292341,9.944829941,61.93651962,35.26622391,12.32572842
4.108169000000089,-28.2060318,10.13131809,-148.7723236,-0.644555926,1.981171012,11.23328304,73.0872879,37.91560364,16.68877602
4.116502000000082,-27.54911804,10.3827486,-148.7952728,-0.960094571,-0.180396676,7.990580559,78.55110931,27.47336006,11.27927494
4.1248350000000755,-26.80062294,10.74138451,-148.8136749,-1.867902875,0.553390265,11.44841862,89.25375366,38.5963707,17.69000816
4.133168000000069,-25.98668289,11.0085535,-148.8201904,0.926151991,1.331958532,3.457167625,97.05256653,28.59450531,13.13148785
4.141501000000062,-25.08517838,11.26912308,-148.7743835,-1.497011423,1.422297716,10.36315155,106.2034073,25.35024261,18.04992867
4.149834000000055,-24.11620712,11.58997536,-148.7836151,-2.25280118,-0.337158352,13.53027821,115.7285843,34.99644089,14.60834694
4.158167000000049,-23.06771088,11.7725687,-148.6668701,1.009583831,1.451883078,7.523398399,122.1316681,14.18110466,20.75944138
4.166500000000042,-21.9921875,12.0364666,-148.6271667,-3.047653675,0.581077576,13.86862659,127.313446,26.99973297,16.00762558
4.174833000000035,-20.82114601,12.26176739,-148.5090027,0.186990112,0.348083586,7.774865627,136.7795715,19.85303879,21.80259323
4.183166000000028,-19.60224533,12.40458298,-148.3917542,-1.100106359,0.666888833,9.972759247,142.4971313,10.86808777,18.38828278
4.191499000000022,-18.30449486,12.60845852,-148.2246704,-1.51366818,1.383987546,10.65106964,150.6598511,16.53471756,25.37780571
4.199832000000015,-16.92933083,12.72311306,-148.0497589,1.433742762,0.622583151,3.463044643,159.6539307,6.451247215,23.24855232
4.208165000000008,-15.51982784,12.83658886,-147.8403168,-2.511683941,0.074543901,12.66838932,162.9035034,6.011472225,26.04630661
4.216498000000001,-14.04218102,12.99078465,-147.6434631,-0.774290681,0.69832617,12.18939686,171.276886,11.55176258,26.55228996
4.224830999999995,-12.52380466,12.99604988,-147.3964081,-0.467968255,0.581675053,9.361002922,174.8874207,-6.258241653,26.86603737
4.233163999999988,-10.96053505,13.13623238,-147.2056427,-4.007085323,0.940684736,17.70866203,181.6569061,11.46648884,24.82485962
4.241496999999981,-9.382604599,13.11535454,-146.9624023,0.89722836,-1.848045707,3.300675392,182.0651093,-7.780760288,26.17467308
4.2498299999999745,-7.769913197,13.17856026,-146.7512817,-2.628250122,-0.082063407,19.53717232,187.0009308,3.355403662,25.09345055
4.258162999999968,-6.206767559,13.13516808,-146.5280151,0.110095046,-1.530796885,9.910606384,180.8106232,-8.692599297,23.95076752
4.266495999999961,-4.599741459,13.11454773,-146.3271484,-1.208574176,-1.720586896,11.2065115,186.6102295,-5.139425278,22.70407677
4.274828999999954,-3.055369139,13.0691185,-146.1121826,-0.846829534,-0.634712815,7.642381191,178.7977295,-7.521016121,23.47423744
4.2831619999999475,-1.506230593,12.93585491,-145.9047852,0.64806205,-2.06975174,10.80593777,179.5369415,-17.40919685,23.16077232
4.291494999999941,0.025816308,12.87883568,-145.7076721,-3.950545788,-1.485874891,20.59669685,177.8519592,-7.586023808,21.85518074
4.299828000000161,1.465699553,12.73680782,-145.4942932,0.492530614,-1.808945537,8.06030941,166.3486938,-17.1822052,24.75469208
4.308161000000155,2.907114267,12.57126999,-145.3344116,-0.998621047,-2.940510273,12.4130125,167.9106598,-19.59085655,19.01417542
4.316494000000148,4.327104568,12.42340088,-145.1402283,-2.246809244,-2.182602882,17.38693047,164.5942688,-16.7378006,23.39196587
4.324827000000141,5.646234512,12.19552612,-144.9988403,0.550579309,-0.981722414,11.03995895,153.8278351,-26.25554848,18.43802834
4.3331600000001345,6.903859615,11.97768688,-144.8643951,-1.987677336,-3.178673267,8.408126831,146.7728424,-24.72422028,18.10586929
4.341493000000128,8.160375595,11.78945923,-144.7519226,-2.478435993,-2.293578625,7.89789772,147.1581573,-21.11545753,15.60210228
4.349826000000121,9.379358292,11.50014973,-144.6582489,0.822704673,-2.810262203,13.71602917,143.2437286,-33.09668732,15.74356556
4.358159000000114,10.52397251,11.35302448,-144.5858459,-4.69453001,-2.958350658,21.60201645,134.7938995,-16.37260628,10.98946857
4.3664920000001075,11.55305958,11.09374142,-144.5097046,4.880511761,-2.187952995,3.417232275,120.944458,-29.28613281,14.32238388
4.374825000000101,12.53292656,10.92765331,-144.4750214,-8.804653168,-3.102906227,18.78466988,115.9547958,-19.09106064,7.705586433
4.383158000000094,13.46200275,10.76247215,-144.3712158,3.988001823,-2.980302572,6.661762238,108.3786774,-17.02727318,15.94701672
4.391491000000087,14.29819393,10.54547787,-144.3675995,-7.208277702,-3.579035044,15.86380005,99.43462372,-25.62935829,6.212343216
4.399824000000081,15.07783604,10.48698807,-144.2286682,3.021377087,-2.363335848,9.780164719,89.74486542,-3.096451044,17.20404243
4.408157000000074,15.77415943,10.23757362,-144.2343292,-5.134224415,-3.037081003,9.517202377,82.85931396,-29.48121452,6.87051487
4.416490000000067,16.44142151,10.25128078,-144.0634613,0.819128871,-1.959443569,13.58624458,75.65552521,6.71315527,18.49717522
4.42482300000006,17.02280807,10.02064514,-144.088562,-3.153731823,-2.801656246,5.672151089,69.47942352,-27.80996895,4.683265209
4.433156000000054,17.56348419,10.03135586,-143.9281464,2.481120348,-3.051703215,18.54320526,60.75841904,6.397395134,17.28453255
4.441489000000047,18.01990318,9.863353729,-143.9331055,-3.713543892,-1.611742258,6.493330002,54.06320953,-19.82685852,5.157837868
4.44982200000004,18.454813,9.85442543,-143.8036804,0.483378947,-3.548442841,19.08949852,48.75802231,3.306280375,14.43750858
4.458155000000033,18.8078289,9.786535263,-143.7909546,-4.84263134,-1.516934156,11.58568001,41.29701614,-7.690096378,3.586830854
4.466488000000027,19.1253624,9.806444168,-143.6500549,0.491129756,-3.487887383,5.546387672,34.45344925,7.209813595,14.54691696
4.47482100000002,19.44417953,9.740413666,-143.6292419,-2.385550261,0.40625596,6.522630692,37.03588486,-7.119280815,4.500644684
4.483154000000013,19.71762276,9.811968803,-143.4902344,-0.857735455,-2.497329235,7.391126156,29.20710754,13.13544083,12.17698002
4.4914870000000064,19.99617958,9.750747681,-143.4633331,0.827527702,-1.216885328,11.46298122,32.08223724,-6.282640934,5.04942894
4.49982,20.19499397,9.763056755,-143.3613739,-0.231045634,-1.838061333,13.37723255,21.01017189,5.065588474,10.38307953
4.508152999999993,20.40157509,9.67179966,-143.3413086,-1.740757823,-0.526763082,18.70660019,23.59514236,-9.901469231,5.583150864
4.516485999999986,20.58045387,9.702173233,-143.2337952,-1.291526198,-3.624752522,6.102165222,18.51865005,7.40263176,10.20442009
4.5248189999999795,20.73347282,9.616919518,-143.2285919,-0.881776154,-0.115239576,19.5634079,17.47294807,-9.807257652,3.745429993
4.533151999999973,20.85855293,9.604524612,-143.1520996,0.699551821,-1.115933537,-1.922149539,12.70318985,1.358130932,8.556372643
4.541484999999966,21.03393745,9.510416985,-143.1586151,-3.094594955,-0.511073232,14.34749603,20.39540863,-11.27308559,2.879079819
4.549817999999959,21.16659164,9.463021278,-143.1106873,1.802956939,-1.193109035,4.614347935,14.19514275,-3.728690386,6.906124115
4.5581509999999525,21.30424118,9.365312576,-143.1230164,-4.271423817,-1.043852329,15.02540493,15.98179054,-11.90688324,2.450169086
4.566483999999946,21.41378403,9.331519127,-143.0596008,3.962499857,-2.677235365,1.501848817,11.13341999,-1.505835295,8.037324905
4.5748170000001664,21.55633736,9.147019386,-143.1202087,-5.203091621,0.765748918,19.73394585,17.50194931,-23.68178558,0.992232144
4.58315000000016,21.69123268,9.149425507,-143.0379944,0.84023726,-0.47661975,6.059636593,13.8451004,3.39287591,8.513368607
4.591483000000153,21.80412483,8.98487854,-143.1086884,-3.087907553,-2.683934927,13.42743111,14.11492538,-21.89475441,-0.901134908
4.599816000000146,21.91039276,9.011467934,-143.0385284,2.14606142,-0.565058172,8.238194466,10.65883923,5.593573093,6.096918583
4.6081490000001395,22.0130024,8.806130409,-143.1006165,-2.571531534,0.9343068,8.731361389,12.70319462,-26.05563736,1.952407718
4.616482000000133,22.15696907,8.870873451,-143.003006,-1.375379205,-1.506618857,16.09374428,14.70082092,11.08747005,7.371637821
4.624815000000126,22.29754829,8.658093452,-143.0652618,-0.346119404,0.287964731,3.571778774,17.24736977,-26.879776,2.38910532
4.633148000000119,22.42092514,8.662382126,-142.9761505,-0.612491071,-1.752129555,22.86443138,12.41966629,4.03317976,9.148777962
4.6414810000001125,22.4863224,8.505428314,-142.9983521,0.909556091,-2.35424161,-6.742010593,7.489438057,-18.86248207,4.323441029
4.649814000000106,22.61795616,8.44965744,-142.9520416,-2.659640074,0.386983901,24.18134689,14.20252323,-4.536692619,7.209577084
4.658147000000099,22.71733665,8.340805054,-142.9444275,-0.996362507,-1.954822183,-0.373092502,11.04021263,-12.1543932,5.431743622
4.666480000000092,22.78394318,8.181008339,-142.9572144,0.006351085,-1.857910752,23.72920799,7.438210964,-18.73582458,5.581024647
4.674813000000086,22.82971954,8.198077202,-142.905014,-3.769329071,-2.023097992,1.186089873,3.853239298,3.842558146,4.489163876
4.683146000000079,22.86484909,7.900486946,-142.9907379,4.892712593,0.820266962,11.50666142,4.878275394,-37.32817841,4.048885345
4.691479000000072,22.90573883,7.999187469,-142.9031677,-9.003945351,-2.542959213,15.42427349,2.707412243,14.51124763,4.54605341
4.699812000000065,22.95484924,7.668626785,-143.0218506,7.903721333,0.571081281,-1.0224967,7.057617188,-42.49411011,2.028484344
4.708145000000059,22.98933601,7.656085491,-142.9900055,-9.687164307,-2.375876188,25.67405128,2.886199236,-0.356089085,3.639769793
4.716478000000052,23.02100945,7.477443695,-143.0261841,5.305426121,-0.501593471,1.546524525,3.595971346,-21.87822914,3.985077381
4.724811000000045,23.02726555,7.322368622,-143.0801086,-4.46121645,-1.311715245,8.075936317,0.844335079,-20.084589,0.940491021
4.733144000000038,23.06294632,7.173792362,-143.1125031,1.995813966,0.271143168,14.38455868,3.996320724,-18.38072777,2.99639225
4.741477000000032,23.12037468,7.099617481,-143.1234436,-6.767106056,-2.176766157,8.878267288,6.31904459,-9.147535324,1.860016346
4.749810000000025,23.17904663,6.884031296,-143.1903992,5.709858418,1.364858508,9.843989372,7.243160248,-27.38732529,2.405805826
4.758143000000018,23.21732903,6.835560799,-143.2113037,-7.646626472,-3.525313139,10.91116142,4.160047054,-6.776502609,-0.432419598
4.7664760000000115,23.29661942,6.658349991,-143.2458801,1.96549511,1.071738243,16.32591438,9.2263937,-21.62872505,4.179310799
4.774809000000005,23.33898544,6.644304276,-143.2573395,-4.694714546,-2.366453171,6.081543922,4.513753414,-2.538293839,-1.017832756
4.783141999999998,23.40193176,6.457535744,-143.3115692,4.264948368,0.123721346,2.324788094,7.520253658,-23.6031189,2.522427082
4.791474999999991,23.48404121,6.43543005,-143.3311768,-7.612696171,-2.462012529,17.31141472,9.387809753,-3.813984871,-1.522945642
4.7998079999999845,23.54145432,6.34806776,-143.3157501,3.424678564,0.686762989,14.09939861,5.908397675,-9.343945503,5.43847847
4.808140999999978,23.59453011,6.338519573,-143.3428802,-6.167768002,-2.694849253,8.463945389,6.006654263,-2.796178102,-2.94120574
4.816473999999971,23.63008881,6.200152397,-143.3327484,6.007716656,-0.942965329,9.160699844,3.357322931,-15.19406128,7.325993538
4.824806999999964,23.64562607,6.221310616,-143.3631134,-8.515295982,-2.203009844,13.93549156,1.538122058,0.421930522,-4.76842308
4.833139999999958,23.65960121,6.119238377,-143.3414307,4.349660873,0.679245591,13.45375633,0.621183693,-10.64545727,6.854153156
4.841472999999951,23.65917587,6.184438705,-143.3488464,-6.77763319,-3.900544405,5.426802158,-0.673885047,6.359977722,-4.382390976
4.849805999999944,23.65469742,6.012439251,-143.350174,5.900562286,2.106795311,8.020522118,-1.29633677,-19.43370438,7.704469681
4.858139000000165,23.62650871,6.074730396,-143.3779755,-7.17860651,-3.764362574,13.18613434,-3.746696949,5.064254761,-6.467288017
4.866472000000158,23.61836815,5.977977753,-143.3349457,1.836696506,0.750154316,15.78711224,-2.295804501,-9.044131279,8.924193382
4.874805000000151,23.56580162,6.050994873,-143.3611298,-6.606414795,-1.91024363,12.77622223,-6.689746857,6.323936939,-6.801271439
4.8831380000001445,23.50739098,5.994641304,-143.293457,4.934905052,-1.532404542,4.873458862,-8.639631271,-3.438839436,9.671051979
4.891471000000138,23.43987465,6.017616272,-143.3659973,-5.885467052,-1.676555037,10.88105297,-7.902811527,-1.372718096,-9.466867447
4.899804000000131,23.37709808,6.013521671,-143.2647552,2.572004795,0.544248521,14.18653393,-9.58285141,3.885026932,10.851614
4.908137000000124,23.29475403,6.078328609,-143.3113098,-6.627527237,-1.868918419,16.02528,-10.0004921,4.485451221,-8.610484123
4.916470000000118,23.19781303,6.064862251,-143.1981201,4.757280827,-0.944209814,5.047019958,-13.84723663,3.381553411,12.61530876
4.924803000000111,23.07996941,6.113832951,-143.2770081,-3.346562147,-1.353388906,5.531565189,-13.84209061,1.249065876,-11.39459801
4.933136000000104,22.97064781,6.06846714,-143.1606598,0.964281142,-1.349884868,11.16889572,-15.37845802,-0.042673327,14.47467232
4.941469000000097,22.83832741,6.181429863,-143.2306519,-3.128967762,-0.400469631,13.03061962,-15.68588352,8.779218674,-13.39840221
4.949802000000091,22.74626541,6.166026115,-143.1059723,-2.723151445,-1.30810225,12.27212715,-13.43346691,3.594485283,13.99786282
4.958135000000084,22.64670181,6.302034378,-143.1581879,-0.290905356,0.366722286,13.8347683,-11.97017765,12.19646549,-12.46967888
4.966468000000077,22.56468201,6.291229248,-143.0454102,-2.951351404,-1.146565795,9.101238251,-12.10395813,3.509906769,12.48239517
4.97480100000007,22.45921898,6.370439053,-143.1034698,3.671027899,-0.364171118,8.516509056,-12.58594322,5.670597076,-10.46295738
4.983134000000064,22.4034729,6.388448238,-143.0170288,-5.19500494,-1.728051901,8.786836624,-8.620267868,5.467679501,8.272694588
4.991467000000057,22.3318634,6.448404312,-143.0335846,3.45804286,0.99498117,13.86256695,-9.068029404,5.443499088,-4.989831924
4.99980000000005,22.25928879,6.486969948,-142.9650574,-6.75134182,-2.944648266,11.68848801,-10.41346836,6.91844368,5.372394085
5.0081330000000435,22.18229294,6.536118984,-142.9674377,3.396482706,1.164917231,9.24777317,-9.903923035,4.894432068,-2.916974783
5.016466000000037,22.14016151,6.567127705,-142.9355316,-5.660955429,-2.679528713,9.215715408,-6.269494534,4.416291714,1.685916424
5.02479900000003,22.0875206,6.547053337,-142.9389954,3.917680025,0.075894833,10.2215271,-6.963973045,-2.845485687,0.100266933
5.033132000000023,22.03355789,6.597784519,-142.9246979,-3.662256002,-1.463659883,10.55144882,-7.449594498,5.817569733,-1.140960574
5.0414650000000165,21.95152473,6.575082779,-142.9319153,2.615047216,0.586964607,9.15651226,-10.43759632,-3.305850029,-0.20250614
5.04979800000001,21.89729309,6.645232201,-142.9150543,-5.529871941,-1.841050148,10.66354179,-7.518521309,8.094751358,-1.711363792
5.058131000000003,21.85895538,6.60755825,-142.9096222,2.700684071,0.179842532,9.928655624,-5.368103981,-4.411949635,1.861937284
5.066463999999996,21.84488678,6.665462017,-142.9135895,-6.20819521,-2.081840515,15.45912552,-2.410248518,5.809423923,-3.458306313
5.07479699999999,21.79862785,6.669585705,-142.8746033,3.54110074,1.773388743,12.68248844,-6.784008026,1.727667689,3.704600334
5.083129999999983,21.74446106,6.750608444,-142.8868256,-6.743870735,-1.130705714,14.36971664,-7.106363297,8.024928093,-5.390516758
5.091462999999976,21.70835114,6.733724117,-142.8390045,1.948263526,-1.250677466,5.350466251,-5.695325375,-0.231014818,5.62105751
5.099795999999969,21.70448685,6.802263737,-142.8737793,-2.429432154,-1.052790284,13.29940605,-0.748524845,5.644417763,-7.324852943
5.108128999999963,21.68615532,6.78892374,-142.8272552,1.187701225,0.574089825,7.886618137,-3.548186302,0.103238173,5.316144943
5.116461999999956,21.66136169,6.893173218,-142.8534241,-2.817085981,-0.702541649,12.33463478,-3.378286839,10.01010799,-7.948301315
5.124794999999949,21.6336441,6.874611378,-142.8078918,-0.032079067,-2.083042383,8.595042229,-4.667349815,-0.527397096,5.439657211
5.133127999999942,21.63796425,6.929232597,-142.8489532,-2.137089729,-0.33085078,13.87083817,0.334150493,3.824064255,-7.397467136
5.141461000000163,21.62983131,6.953968525,-142.7913361,0.480501592,0.473874807,9.979512215,-2.496824265,4.831754208,4.863182545
5.149794000000156,21.58750343,6.998469353,-142.8426208,-2.242886543,-1.230149388,13.67315292,-5.109015465,2.250505209,-8.079548836
5.15812700000015,21.56204605,7.022810936,-142.7836456,-1.535585046,-2.884258509,5.467288494,-4.602954388,4.842358112,5.03566885
5.166460000000143,21.54733467,7.007531166,-142.8565369,1.858802438,1.063881755,12.14597797,-1.474022746,-5.359601021,-7.833679676
5.174793000000136,21.50520897,7.028465271,-142.8128662,-3.454311371,-1.761334777,10.16418648,-6.380275249,3.789356947,3.493384361
5.183126000000129,21.44366264,7.032022476,-142.8620453,0.707173288,0.412499964,8.911057472,-7.440858364,-2.210406065,-6.040682316
5.191459000000123,21.40738678,7.066634178,-142.8376923,-3.58594656,-2.023818493,11.3024025,-5.394203663,4.468338966,0.761242211
5.199792000000116,21.38727188,7.03391695,-142.881485,0.883748353,0.337987483,14.72987652,-2.54408288,-6.023597717,-3.857196569
5.208125000000109,21.33766747,7.125590801,-142.8329926,-4.758495808,-0.770962059,13.45359325,-7.352312088,11.8939867,0.949327886
5.216458000000102,21.25828743,7.088609695,-142.8825531,1.843202114,0.358993858,8.448986053,-9.566944122,-6.743486404,-4.321890831
5.224791000000096,21.22193146,7.159236908,-142.8561554,-5.572108746,-3.16787529,11.59639645,-5.436776161,8.582345009,-0.560285866
5.233124000000089,21.16366005,7.123261929,-142.8793488,4.512286186,0.807305813,9.52833271,-7.423159599,-5.488080502,-1.447844863
5.241457000000082,21.07609177,7.185523987,-142.8838501,-4.403283596,-1.55120945,13.40764141,-11.11916637,6.320300102,-3.615885496
5.2497900000000755,20.97462082,7.155910492,-142.8929596,1.041342497,-0.626492858,5.283502102,-12.81828594,-4.171253204,-0.169540629
5.258123000000069,20.91126633,7.213521481,-142.9065704,-2.766162634,-1.003672481,16.94986725,-8.076194763,5.420549393,-4.407800674
5.266456000000062,20.7745018,7.196349621,-142.9172821,0.790139019,-1.537581682,10.5227232,-17.02735138,-2.844205618,-0.890581608
5.274789000000055,20.61137962,7.219105244,-142.9387817,-4.552093506,-1.440566182,10.92231655,-19.92903137,1.19430244,-3.779637575
5.2831220000000485,20.42230606,7.213389397,-142.9681702,3.669360638,-2.156950474,3.646317959,-23.02336502,-2.333150387,-3.470115662
5.291455000000042,20.18932343,7.170081615,-143.0506592,-4.425335884,-1.888262868,16.12196541,-27.39511299,-8.738789558,-7.827742577
5.299788000000035,19.89017105,7.263704777,-143.0456085,0.916989446,-2.023123264,11.86352825,-36.75460052,10.29681969,-3.717500925
5.308121000000028,19.50938988,7.213754654,-143.1494446,-4.635822296,-2.567088842,14.33638859,-44.79667282,-10.26748753,-10.03724098
5.3164540000000216,19.10782242,7.373830318,-143.1249237,-1.732565403,-2.638751507,12.34560966,-49.34361267,18.62959862,-4.031742096
5.324787000000015,18.61926079,7.33149004,-143.2528687,1.01488328,-2.311688423,2.63726449,-57.33603668,-10.18911934,-13.18617344
5.333120000000008,18.07079315,7.437207699,-143.2859802,-3.528156757,-3.257216692,20.92069244,-66.08750916,10.33547497,-8.165184975
5.341453000000001,17.40547562,7.547129631,-143.3732605,0.247112557,-2.485518694,9.782493591,-79.14596558,8.942735672,-14.33060455
5.349785999999995,16.66383743,7.587704182,-143.4461517,-5.211674213,-2.270632744,17.69680405,-88.62820435,1.649504066,-10.1487875
5.358118999999988,15.87181282,7.851818085,-143.4687805,-0.419942707,-2.426831722,7.747059822,-95.35070038,29.21295166,-11.88057709
5.366451999999981,14.9750824,7.803964138,-143.61203,1.770109415,-3.696388245,-1.946867228,-106.0513992,-10.52960682,-15.32382202
5.374784999999974,14.05766678,8.000387192,-143.6584473,-5.811642647,-0.20023647,27.68528175,-110.0000839,20.97971535,-11.66533947
5.383117999999968,13.03917599,8.2032547,-143.7501831,0.250218511,-3.894782782,9.591244698,-121.454071,20.64792824,-16.73200798
5.391450999999961,11.92624378,8.260550499,-143.8420258,-2.814674377,-2.210454941,11.3873291,-132.6481781,3.897433281,-12.553195
5.399783999999954,10.7472887,8.510341644,-143.9379578,1.036650419,-2.311188459,10.42900944,-140.5844116,26.68710327,-17.49300003
5.408116999999947,9.492050171,8.58139801,-144.0302582,-2.985202074,-1.898731112,7.169492245,-149.6583405,6.011358261,-12.69774246
5.416449999999941,8.231536865,8.842132568,-144.1066589,-1.70433569,-0.217563033,23.53804398,-150.6622467,29.05402756,-14.20748901
5.424783000000161,6.888839722,8.999616623,-144.2028656,0.767015755,-3.404876471,-5.275958061,-160.0119781,16.77656937,-14.20756912
5.433116000000155,5.519757271,9.045101166,-144.3088684,-1.613040328,1.731044888,18.98447227,-163.0855408,3.60276556,-13.51113701
5.441449000000148,4.144805431,9.37092495,-144.4135437,-3.187701225,-2.791413784,13.11959457,-163.5205078,37.38259125,-16.96409225
5.449782000000141,2.742303133,9.374001503,-144.5147247,0.713641465,1.694328547,8.000213623,-167.1143799,-0.816064,-12.41275978
5.458115000000134,1.310940862,9.699929237,-144.6534729,-0.840790868,-2.034778118,12.47311783,-169.515152,38.01138306,-19.24620819
5.466448000000128,-0.157282621,9.630147934,-144.7723389,1.301247716,-0.639893532,6.773542404,-174.5842896,-8.979901314,-14.40819168
5.474781000000121,-1.621395826,9.941281319,-144.9202118,-7.402312279,0.956977248,22.06037712,-173.1829071,37.16195679,-18.38180161
5.483114000000114,-3.083327055,9.917914391,-145.0656738,3.079902411,-0.870233297,-1.106927633,-173.2131805,-2.561363935,-17.72716331
5.491447000000107,-4.550186634,10.08996677,-145.2343445,-3.268592834,-1.416249156,16.28159142,-173.0045929,21.54372978,-20.03507614
5.499780000000101,-6.060999393,10.07236385,-145.3713226,4.651510239,1.724600911,1.834311962,-179.2120056,-1.07267797,-16.74206924
5.508113000000094,-7.554085255,10.16742802,-145.5672913,-7.394588947,-0.160052836,24.03676796,-175.5511932,13.73702621,-23.0736351
5.516446000000087,-9.04035759,10.22288609,-145.7080078,2.189068079,-1.201968193,2.537913084,-176.1558533,8.519031525,-15.91991997
5.5247790000000805,-10.49770641,10.16629887,-145.8916626,-0.501424372,2.376309872,17.85373497,-171.5615082,-3.356578112,-23.60321808
5.533112000000074,-11.99961948,10.20552158,-146.0320435,0.017363889,0.356760979,5.315695286,-178.0426483,7.385842323,-15.77580452
5.541445000000067,-13.41720963,10.06217575,-146.1850128,-1.47058332,1.154274344,9.232913017,-167.530426,-13.19090843,-22.14126205
5.54977800000006,-14.7934761,10.12049675,-146.3380585,-2.281182528,2.436855555,13.4554491,-162.7252045,10.73021126,-16.26361847
5.5581110000000535,-16.11866379,9.971652985,-146.4801941,-1.799052715,1.361872196,10.96962452,-156.8121185,-13.27252674,-21.08739662
5.566444000000047,-17.40789986,9.979089737,-146.6117096,-1.513373733,0.345100582,11.12294102,-152.763382,4.873055458,-15.05698681
5.57477700000004,-18.65130615,9.821427345,-146.7437744,1.315661788,3.229101181,7.974042892,-147.2609253,-13.71931744,-20.80151367
5.583110000000033,-19.84350586,9.721416473,-146.8423462,-0.775017381,0.55978334,5.203603745,-141.8456268,-7.952709675,-15.39390755
5.591443000000027,-20.92440796,9.559085846,-146.9610901,-0.648362696,3.24928093,9.861735344,-128.1497803,-14.04258537,-19.78049278
5.59977600000002,-21.9654007,9.41852951,-147.0176239,-1.063145876,0.336904287,8.925789833,-124.5883484,-13.71695995,-12.82611084
5.608109000000013,-22.91639137,9.250153542,-147.1324768,0.667653739,3.439963579,10.76719856,-112.7699661,-14.30844593,-19.80694008
5.616442000000006,-23.81001091,9.036428452,-147.1571045,-1.85903132,1.204567552,9.589851379,-107.5494308,-22.85099792,-13.28308296
5.624775,-24.61231232,8.857453346,-147.2445984,-0.041568317,3.164886951,11.35059929,-95.5140152,-16.14575195,-17.89375877
5.633107999999993,-25.33419037,8.629692078,-147.2359161,-2.699609756,0.914609909,10.1452322,-87.56783295,-25.67573166,-11.03847313
5.641440999999986,-25.97450256,8.433152199,-147.2991486,1.228304148,2.793541193,8.659173012,-76.62007141,-18.9543457,-16.37802505
5.649773999999979,-26.53272057,8.185173035,-147.2988892,-3.613698721,2.116568804,9.865189552,-67.77375793,-27.16544533,-13.56860256
5.658106999999973,-27.02160072,7.951693535,-147.3287048,1.469702363,1.893172145,9.579978943,-59.08485413,-24.43547249,-15.08946896
5.666439999999966,-27.42014694,7.727217674,-147.3318939,-5.20507431,1.345322609,11.10192204,-48.55479813,-24.2439785,-13.09291744
5.674772999999959,-27.77097511,7.456714153,-147.3296204,3.22927618,2.104977608,7.554230213,-43.05296326,-29.92304802,-14.12069035
5.6831059999999525,-28.05036354,7.26597929,-147.3525391,-6.555413246,1.612460136,14.91117764,-33.95227432,-19.41220093,-13.55967045
5.691438999999946,-28.27401543,7.010477543,-147.3255768,3.221774817,1.130834699,6.724779129,-28.12968636,-29.49677277,-11.139431
5.699772000000166,-28.45385551,6.799409389,-147.3306732,-5.395176888,1.520730853,14.92533398,-22.28442192,-22.46298027,-13.00060844
5.70810500000016,-28.59143257,6.591791153,-147.3090973,1.455458283,0.78367734,7.22638464,-17.68596458,-24.02341652,-9.235437393
5.716438000000153,-28.69116211,6.366824627,-147.2913971,-3.343683958,0.710935295,12.11053658,-12.98513222,-25.16888618,-11.51945972
5.724771000000146,-28.75345802,6.209947586,-147.2675934,-1.243231893,1.334738612,13.58648109,-8.648715019,-18.72623062,-6.257445812
5.733104000000139,-28.79739952,5.971302986,-147.22789,-0.315680385,-0.156153291,8.81219101,-6.554213524,-27.84731865,-10.06357098
5.741437000000133,-28.81052971,5.81748867,-147.1937408,-3.395149708,1.10148108,11.8235178,-2.843142748,-18.92681313,-5.141713619
5.749770000000126,-28.78911781,5.634242058,-147.1794586,-0.240352646,0.271010041,8.36832428,1.622073412,-20.55539513,-9.534736633
5.758103000000119,-28.76626015,5.485400677,-147.1271057,-3.657992363,-0.857595921,12.78560066,1.296592832,-19.41312218,-3.014168501
5.7664360000001125,-28.72576714,5.361194611,-147.1344604,0.173170224,0.666625559,13.01641464,4.166028023,-13.10874081,-8.371771812
5.774769000000106,-28.69234085,5.232489109,-147.0962524,-3.105294228,-0.445452571,7.527457714,2.750123978,-16.47127533,-3.342388868
5.783102000000099,-28.62343597,5.150139809,-147.1134796,-0.945350647,0.987403989,13.41676521,7.679378986,-8.149334908,-6.978022099
5.791435000000092,-28.56271744,5.085806847,-147.0929413,-3.16450882,-1.822976112,7.351436615,6.233250141,-8.647815704,-1.535586357
5.7997680000000855,-28.48275375,5.008935452,-147.0946655,0.055492796,0.470618099,14.50768948,8.838756561,-8.470666885,-5.019097328
5.808101000000079,-28.42977715,5.001347542,-147.0983582,-3.750805855,-1.113569021,9.085536957,5.560108185,-1.272937894,-0.837726414
5.816434000000072,-28.36419678,4.930941582,-147.1005096,0.982595444,-0.0410349,9.031318665,7.11640358,-7.773933411,-4.677274704
5.824767000000065,-28.30837631,4.969320297,-147.115387,-5.272028446,-1.204876661,12.49342823,6.014043331,4.218690395,0.597631395
5.833100000000059,-28.25872231,4.958358288,-147.1344604,1.70216012,-0.654412806,9.381854057,5.379860401,-0.54229176,-3.065780878
5.841433000000052,-28.23394966,4.951377869,-147.135498,-4.773654461,-0.88686192,13.13810253,2.146780252,-1.341327906,-0.560631514
5.849766000000045,-28.20723915,5.038144588,-147.1985779,1.250545263,-0.641717434,7.606929302,3.08815527,12.27539539,-2.15324831
5.858099000000038,-28.22041512,4.990781307,-147.1790466,-3.896677256,-1.672228575,10.16202068,-2.627418756,-6.768318653,-0.697462857
5.866432000000032,-28.21874809,5.119907379,-147.258606,0.593634069,0.065834217,13.97546673,0.265312284,17.68425179,-1.484255552
5.874765000000025,-28.25481415,5.069532394,-147.2492523,-2.548360825,-2.116635323,7.034806728,-5.272908211,-6.501520634,-1.964471102
5.883098000000018,-28.26986313,5.159843445,-147.2861938,-1.679643869,0.41423434,17.25341415,-2.187366247,11.17182922,0.811254144
5.891431000000011,-28.31041718,5.198409557,-147.3246155,-1.164812207,-1.407943726,5.487366676,-5.297805786,5.609416008,-1.949077129
5.899764000000005,-28.34896469,5.174635887,-147.2961731,0.404926538,0.148645952,13.45419598,-5.711372852,-4.589008331,1.20522666
5.908096999999998,-28.41284752,5.25150013,-147.3709106,-4.246650696,-1.304102898,15.98489189,-7.701753139,11.72630024,-3.590129852
5.916429999999991,-28.45877266,5.261604786,-147.348114,0.292011768,-0.852509022,5.407486439,-6.538712025,-0.694824457,2.540470839
5.9247629999999845,-28.5253315,5.261279583,-147.3735199,-3.514671087,-0.899705589,16.05835533,-8.558907509,0.7776227,-2.802313089
5.933095999999978,-28.58973122,5.354127407,-147.3887024,0.481192857,-1.417189717,7.737086296,-8.337421417,10.18870449,3.29970336
5.941428999999971,-28.67865372,5.285314083,-147.3907928,-0.873986304,-0.49693644,7.868311405,-11.50574875,-7.76463604,-4.292062283
5.949761999999964,-28.76496315,5.345036507,-147.3902588,-2.772655487,-0.719826818,16.77556801,-11.1392107,5.78776741,3.069431067
5.9580949999999575,-28.86635017,5.369426727,-147.4377289,-0.42012468,-1.235670805,8.932383537,-12.4995575,4.654031277,-3.668074608
5.966427999999951,-28.96756935,5.337387562,-147.4017944,-1.405734539,-0.58632195,6.986545563,-13.32643414,-5.906527996,1.468617916
5.974760999999944,-29.05183411,5.393693924,-147.4608612,-1.938085079,-0.473733544,14.72496223,-10.31125546,8.69862175,-3.02636075
5.983094000000165,-29.15071487,5.388039112,-147.4467316,0.053856343,-1.911436677,3.96808219,-12.80272579,-1.877664685,0.712511301
5.991427000000158,-29.25327682,5.364253998,-147.4556122,-1.226263762,0.466084331,13.99943161,-13.0755167,-2.615072727,-2.437642813
5.999760000000151,-29.36422348,5.381726742,-147.4750366,-2.064695358,-1.736984849,13.59359741,-13.87119865,2.49930954,-1.430209637
6.0080930000001445,-29.46304512,5.376840591,-147.4903564,-0.371128976,-0.216070071,8.598711014,-12.55828857,-0.250699371,-2.007836103
6.016426000000138,-29.57437134,5.336239338,-147.4743195,-2.739746332,-1.564578295,9.036860466,-14.3168869,-5.648952007,-1.16402638
6.024759000000131,-29.66253471,5.388412476,-147.5072174,-1.055455327,0.173754558,13.98485756,-11.08390808,6.739209175,-0.442985475
6.033092000000124,-29.78145218,5.337524891,-147.5025635,-0.369858503,-1.340093136,6.852309704,-15.09927368,-6.042104721,-2.979794025
6.0414250000001175,-29.885746,5.311078072,-147.490448,-1.311784387,-0.256494224,13.306633,-13.53155518,-4.136071682,-0.414579272
6.049758000000111,-29.9977169,5.340454102,-147.5088959,-3.709926367,-1.252247334,13.34810162,-14.00818253,3.690627337,-0.582454979
6.058091000000104,-30.09422684,5.349824429,-147.509079,0.138396502,0.39327392,7.846029282,-12.46397972,0.314235508,0.456087172
6.066424000000097,-30.19526672,5.299396515,-147.4899597,-2.130545139,-1.734933972,9.960567474,-13.11534977,-6.843729019,-1.497216582
6.074757000000091,-30.25136566,5.376102924,-147.5184937,-2.567529678,0.254352838,12.89949131,-7.30086422,8.99571991,1.606909275
6.083090000000084,-30.34373474,5.328139305,-147.5101318,0.513664365,-1.197329998,4.387055874,-11.9553299,-5.93785429,-2.474962711
6.091423000000077,-30.41106224,5.340423107,-147.5105438,-2.497569084,-0.219453797,15.52712631,-8.966966629,0.607390344,0.645248115
6.09975600000007,-30.4745636,5.360648632,-147.5305023,-0.368512362,-0.558960199,10.7199831,-8.175231934,2.837058544,-1.258978128
6.108089000000064,-30.51692772,5.375061989,-147.5271149,-2.21113205,-0.595239937,9.443196297,-6.021970749,0.581468821,1.188551784
6.116422000000057,-30.54878044,5.364705563,-147.5131226,-0.826873362,-0.481682628,8.301574707,-4.758112907,-2.383596897,0.377041548
6.12475500000005,-30.56216621,5.418923855,-147.5344086,-3.189229012,-0.900231838,13.75722599,-2.271816015,6.181969166,1.096084237
6.133088000000043,-30.5916214,5.408971786,-147.5294037,2.200208664,-1.280451536,5.722726345,-4.367957115,-1.79767096,-0.524874091
6.141421000000037,-30.61872673,5.383460999,-147.5289307,-3.692587137,-0.854602158,11.25876045,-4.169728756,-3.392490149,-1.503978252
6.14975400000003,-30.63121986,5.397080421,-147.5305328,-0.428132743,-0.724297523,12.6216774,-2.258624792,1.037222981,0.237495184
6.158087000000023,-30.65524864,5.416275501,-147.5587158,-3.108251095,-1.474003792,11.1171236,-3.483267069,2.943818331,-1.678359985
6.166420000000016,-30.67531586,5.40853405,-147.5519104,0.754367292,-0.423523962,8.518768311,-3.262933254,-1.67682302,-0.208230913
6.17475300000001,-30.70096588,5.400262356,-147.5759583,-4.214297771,-0.727087498,11.97946167,-3.731648684,-0.159307733,-2.902899742
6.183086000000003,-30.70505524,5.449202061,-147.5854187,0.111958481,-1.488109231,10.27022648,-1.159184933,5.161780834,1.594639659
6.191418999999996,-30.73804474,5.446614742,-147.6119537,-1.524593949,-1.149517894,6.621642113,-4.591210365,0.560695648,-2.778670549
6.1997519999999895,-30.75091934,5.456410885,-147.6028137,-0.788568318,-0.525341809,12.84344387,-2.425322294,-0.011590442,1.105638385
6.208084999999983,-30.77833939,5.457771778,-147.6405945,-2.733876705,-0.552746117,13.80609131,-3.800806522,1.634392858,-3.652602434
6.216417999999976,-30.78011894,5.507878304,-147.6661835,-0.634139001,-0.463810235,10.80732155,-0.69587481,6.265038013,0.01992788
6.224750999999969,-30.79883575,5.460196495,-147.6808319,-1.36276567,-1.5839082,7.600026608,-3.034198523,-4.892588139,-4.196803093
6.2330839999999625,-30.79055786,5.488195896,-147.6845398,-1.932667255,-0.929798961,13.89124107,0.259446591,2.647538662,0.910483658
6.241416999999956,-30.7892971,5.457718849,-147.7105713,-0.218307063,0.177767232,8.948428154,-0.511170447,-2.433083296,-4.292420387
6.249749999999949,-30.75549126,5.468174458,-147.7066803,-2.377210617,-1.532809734,10.49165058,3.236435413,0.375248581,0.611693561
6.258082999999942,-30.7452774,5.427284241,-147.7124329,-0.61726892,-1.374943495,9.298300743,0.320536554,-4.783804417,-2.787379742
6.266416000000163,-30.73257065,5.461189747,-147.7291412,-3.828806877,-0.5636127,18.44074059,0.939299583,4.053119183,-0.068454035
6.274749000000156,-30.73163986,5.46851635,-147.7690277,-0.141715541,-1.591791749,7.661874294,-0.42136696,2.18627739,-3.191674471
6.2830820000001495,-30.71592712,5.464639187,-147.7765198,-2.641892433,-1.239223838,12.33258915,1.193111062,-0.407074243,-1.438892365
6.291415000000143,-30.70066261,5.471528053,-147.795639,-1.380032897,-0.253883511,10.20070553,1.048979878,0.830131769,-1.014925718
6.299748000000136,-30.66595078,5.496416569,-147.830368,-2.795322657,-2.089925528,11.85306549,3.787730932,4.220098972,-2.475167751
6.308081000000129,-30.65118408,5.517687798,-147.8465729,0.909695327,-0.843336225,7.863014698,0.943987012,2.085408449,0.248329997
6.3164140000001225,-30.65492821,5.474636078,-147.854248,-2.557715178,-1.057060719,11.41362953,-1.137182355,-4.441290379,-3.854315042
6.324747000000116,-30.64860535,5.527906418,-147.8771973,-1.736978173,-1.705356121,12.52871704,0.000896498,5.761332512,1.575685024
6.333080000000109,-30.66235924,5.542887211,-147.9156952,-0.886396825,-0.902540326,10.3267889,-1.982247233,3.427235603,-3.471663952
6.341413000000102,-30.67974472,5.558864117,-147.9269257,-1.134920716,-1.841457605,7.794734001,-2.988707542,1.161631227,0.559056342
6.349746000000096,-30.6842804,5.546907902,-147.9535065,-2.216000795,-1.230603218,11.18175697,-1.013542295,-0.077419013,-3.893452883
6.358079000000089,-30.67614174,5.600833416,-147.986496,-1.670411825,-1.222714663,11.60671711,0.330090612,6.416365623,0.625858128
6.366412000000082,-30.6907177,5.593479156,-148.0052643,0.341462612,-0.446679562,8.957439423,-2.306548834,-0.079980448,-2.80889535
6.374745000000075,-30.70093918,5.576180935,-148.0096741,-1.295270205,-2.902601242,10.39269066,-2.208882332,-2.675573349,-0.799663603
6.383078000000069,-30.73823547,5.547688484,-148.0111084,-2.494286537,-0.760105908,16.25829124,-5.236458778,-3.316466808,-2.323531151
6.391411000000062,-30.7695961,5.581766605,-148.0484619,-1.980277896,-1.596932054,8.698312759,-4.361476421,4.639403343,-1.04033494
6.399744000000055,-30.82685661,5.522937775,-148.0423737,-0.202637702,-2.04595542,5.57940197,-7.720195293,-6.90117979,-3.421076059
6.408077000000048,-30.85609055,5.486245155,-148.0542603,-1.229568005,-0.967055261,9.183758736,-4.40148592,-4.196495533,-2.797957897
6.416410000000042,-30.89629555,5.435369968,-148.0485077,-1.500999451,0.060653824,11.34181023,-5.669289112,-6.05591011,-2.974235535
6.424743000000035,-30.92554665,5.398299217,-148.0692749,-0.824985802,-2.815276861,7.97315073,-4.306046963,-3.705367804,-3.70695591
6.433076000000028,-30.97904778,5.316327095,-148.0378571,-1.189771533,-1.270361066,7.954307556,-7.550014496,-10.83050632,-2.271611452
6.4414090000000215,-31.01384735,5.279280186,-148.0538025,-2.557401896,-0.802638352,17.70433426,-5.027882099,-3.993041277,-3.216110229
6.449742000000015,-31.05941772,5.246770859,-148.0514832,-2.304214001,-1.213856816,12.49890709,-6.271735191,-3.950214863,-2.206294775
6.458075000000008,-31.09286308,5.191888809,-148.0549774,-1.070706844,-0.844691157,10.91708088,-5.000347137,-6.572036743,-3.085759878
6.466408000000001,-31.13070107,5.116410732,-148.0230408,-2.474106073,-1.204223156,9.343742371,-5.662526608,-10.19112396,-1.842752218
6.4747409999999945,-31.14689636,5.099742889,-148.0412445,-0.521774709,-1.065238237,12.3333807,-2.776979923,-1.75745666,-2.189645529
6.483073999999988,-31.19525337,5.00752449,-148.0074921,-0.048243113,-1.857108831,3.59153533,-6.93811655,-12.02164745,-2.706490278
6.491406999999981,-31.23202705,4.922421932,-147.9796143,-0.816038549,-1.944024682,12.74270916,-5.724974632,-11.62954426,-1.740193009
6.499739999999974,-31.27552223,4.860174656,-147.953125,-2.407756567,-0.319902629,11.68345356,-6.26740694,-8.494282722,-1.599493861
6.508072999999968,-31.29852867,4.826468945,-147.9593811,-0.231279284,-1.005746126,11.8943243,-3.718918085,-4.229921818,-2.050509214
6.516405999999961,-31.34556961,4.709792137,-147.906601,-1.458661556,-2.283951521,8.048174858,-6.948696136,-15.70582199,-2.317512989
6.524738999999954,-31.36841583,4.672375679,-147.8978577,-4.124904633,-0.518141389,14.8206749,-3.842813969,-5.527154922,-0.779735684
6.533071999999947,-31.39885521,4.645454407,-147.8843536,-0.939756393,-1.000683308,8.523694038,-4.56093502,-4.065402031,-0.732733667
6.541404999999941,-31.42827988,4.59063673,-147.8682709,-0.825052202,-1.512623072,7.097123623,-4.703631878,-7.778082848,-1.106547832
6.549738000000161,-31.45392609,4.521937847,-147.8284454,-0.653155684,-0.976461232,9.319217682,-4.235071182,-9.983801842,-0.665445089
6.5580710000001545,-31.46636772,4.48591423,-147.8378143,-3.604454041,-1.545630336,14.51418495,-2.419815063,-4.28322506,-2.502702951
6.566404000000148,-31.48242569,4.479778767,-147.8377686,-0.113559924,-1.24741292,6.80376482,-2.704773426,-1.096302032,-0.809448242
6.574737000000141,-31.50959969,4.404046535,-147.8132782,-2.006849766,-1.346602559,7.4316926,-4.500203609,-10.44093895,-1.574135661
6.583070000000134,-31.50579071,4.411866188,-147.8258362,-2.148026943,-0.8934623,13.75948143,-0.204363182,1.121237516,-1.222426534
6.591403000000128,-31.50708199,4.389032841,-147.8303375,-0.950537086,-0.61242348,9.383826256,-1.123376369,-3.209630251,-1.22929132
6.599736000000121,-31.49431038,4.399102688,-147.8370667,-1.665975809,-1.860762,9.397626877,0.817913711,0.986532271,-0.486350298
6.608069000000114,-31.48869133,4.389456749,-147.8332367,-2.991802216,-1.421255946,15.21513367,-0.36872977,-2.355036974,0.406907767
6.616402000000107,-31.47773933,4.491783619,-147.8922272,-2.329009295,-1.501811385,12.83612728,1.086555958,13.69175911,-0.037563287
6.624735000000101,-31.47120285,4.503676414,-147.9020691,-1.250088096,-1.767453194,6.411300659,-0.133847177,0.693633437,0.374377608
6.633068000000094,-31.42206383,4.585395336,-147.9291534,-2.797670841,-0.415046155,11.2016592,5.37737608,9.591736794,1.921759367
6.641401000000087,-31.37259293,4.707951069,-147.976059,-2.763174057,-0.811207414,10.78250694,5.374123096,14.30944633,3.554206371
6.64973400000008,-31.32070351,4.830934525,-148.0222015,0.860018909,-1.252287388,5.742559433,5.909384251,15.00984097,2.533940077
6.658067000000074,-31.28284645,4.924579144,-148.0505371,-3.449775457,-1.501470685,11.5939846,3.809554338,10.20373821,3.615270376
6.666400000000067,-31.21018791,5.167171478,-148.1459198,-1.515327811,-0.524082005,14.81017876,8.949493408,30.33599091,4.924238682
6.67473300000006,-31.11361313,5.335679531,-148.1898346,-1.537527919,-0.243179291,3.666984081,11.04429913,18.89283371,6.594848156
6.6830660000000535,-30.93403244,5.552611828,-148.2371063,-1.535488009,0.303416312,12.72879696,21.31290627,24.75346565,8.147613525
6.691399000000047,-30.71928215,5.779181957,-148.302063,-0.985835135,0.925599992,8.571670532,25.50804138,26.21225548,7.8785882
6.69973200000004,-30.44675636,5.986465931,-148.3280334,-1.573871493,0.155574888,9.665764809,32.24685287,22.52718544,9.555633545
6.708065000000033,-30.11949158,6.240300655,-148.3838043,-2.717172861,0.274692297,12.7743597,38.94910812,28.59145927,10.17291927
6.7163980000000265,-29.71658897,6.514091969,-148.4192505,-1.690861464,1.276715994,6.848422527,48.04580688,30.12004471,12.2924099
6.72473100000002,-29.22672081,6.766849518,-148.4628448,-1.288261533,0.46526742,8.815816879,58.35911179,27.97855949,10.84098434
6.733064000000013,-28.66278648,7.046312332,-148.48703,-0.954416037,0.884693384,5.957660675,67.2502594,30.27630234,13.27835751
6.741397000000006,-28.02484131,7.298997879,-148.5248413,-2.109640121,1.112495065,11.14660645,76.10890198,27.96604156,10.68506622
6.74973,-27.33601379,7.571940899,-148.5422516,-0.966353416,-0.26607275,8.574040413,82.15910339,29.50383186,12.94790554
6.758062999999993,-26.59390831,7.807482719,-148.5493317,-1.308773041,-0.646556079,9.700893402,88.18214417,24.84681702,12.10322762
6.766395999999986,-25.79144096,8.085103035,-148.5587921,-0.986593127,1.371476412,9.24767971,95.68318939,29.92460632,13.26813793
6.774728999999979,-24.95906258,8.260555267,-148.5397644,0.532711923,-1.301701188,2.83191061,98.57386017,17.34388351,11.10189629
6.783061999999973,-24.0390892,8.509531975,-148.5126343,-3.100616455,0.410604537,16.52111435,109.1534348,25.38647461,14.89120579
6.791394999999966,-23.09156036,8.706629753,-148.4743805,0.223009646,0.837815583,7.426206112,112.102417,19.37285423,13.19670582
6.799727999999959,-22.10050201,8.885499954,-148.4008484,-2.602962732,-1.009299636,14.82132053,116.809433,16.00128365,15.86916256
6.808060999999952,-21.05121231,9.142771721,-148.3582764,0.067325749,0.481381029,8.784477234,124.1930313,26.34249687,15.6826458
6.816393999999946,-19.9636116,9.225893021,-148.2328339,-0.304663211,1.713943005,5.85454464,127.3436432,3.671469212,16.98194313
6.824727000000166,-18.79530716,9.464718819,-148.1553955,-2.502954483,-0.33722204,17.15734863,137.8238983,23.60411072,17.46450233
6.83306000000016,-17.56056404,9.541735649,-147.9980927,1.391743898,0.753582537,3.466480017,144.2875824,2.508039236,20.14315605
6.841393000000153,-16.26019287,9.685245514,-147.8509827,-3.101002693,1.827511311,15.2171793,152.2977905,11.12093353,20.61871147
6.849726000000146,-14.88920975,9.828053474,-147.7043457,0.120750353,-0.087204948,6.626195908,160.7738647,11.38804626,20.87475586
6.858059000000139,-13.46461773,9.851636887,-147.5138855,-1.316653132,1.151653767,9.873182297,166.2959442,-3.025897264,21.22027969
6.866392000000133,-11.98080158,10.03255463,-147.3563538,-2.215605259,0.517376304,13.23974228,174.0326691,16.61151695,22.51263618
6.874725000000126,-10.47307777,10.01683235,-147.1530304,1.51668632,-1.369374633,1.725030899,175.9568787,-6.802036285,21.76148415
6.883058000000119,-8.936477661,10.14002705,-146.9928894,-3.630835533,0.207467958,16.36965752,180.268158,10.91720676,20.71158028
6.891391000000112,-7.393378258,10.11762428,-146.8020782,0.891751468,-1.051020741,7.696218967,180.4250793,-6.192320347,20.50951958
6.899724000000106,-5.828683376,10.16583729,-146.6329193,-4.45442152,-0.767724037,19.51172066,183.4281158,2.982547045,20.08302116
6.908057000000099,-4.291913509,10.17914677,-146.4450073,-0.008495075,-1.851716518,6.414868832,179.7075043,-0.751235843,20.86061668
6.916390000000092,-2.739729881,10.14940929,-146.2867126,0.245451778,-1.230971932,12.28189087,182.1489868,-5.174791813,18.01444626
6.9247230000000854,-1.234474778,10.1511879,-146.1220703,-2.348090887,-0.802571237,16.37034607,176.4157104,-0.898341596,18.14507484
6.933056000000079,0.262530714,10.09110069,-145.9642181,-0.050902821,-3.357342482,8.320363998,175.5501862,-7.832997799,18.15488434
6.941389000000072,1.745640755,10.00509739,-145.793808,0.782319188,-0.113090083,10.72945976,173.6554565,-10.44492149,19.14007568
6.949722000000065,3.187728167,9.896780968,-145.6425934,-3.033535957,-2.00366354,12.37554455,169.1525574,-12.68113899,17.98258972
6.9580550000000585,4.61924696,9.760489464,-145.4864044,0.157168686,-2.278625965,9.627613068,167.8160095,-15.56649685,18.47548866
6.966388000000052,6.005648136,9.594729424,-145.3366394,0.046756376,-1.833894849,16.7755394,162.5842438,-18.63116264,19.0531044
6.974721000000045,7.312200069,9.430781364,-145.208374,-2.028792143,-1.626206994,19.41345596,153.375824,-18.24407387,16.91099167
6.983054000000038,8.540380478,9.234640121,-145.0737457,-0.281879544,-4.438943386,1.561305285,143.9974823,-21.57891655,18.60490417
6.9913870000000315,9.7542696,8.950624466,-144.9910583,0.678539813,-1.206178308,10.27711296,143.2392273,-32.55334473,14.64577007
6.999720000000025,10.94421101,8.792448044,-144.9042206,-3.790796041,-3.641024113,16.17993355,140.4208832,-17.28817558,13.10858822
7.008053000000018,12.02140427,8.433381081,-144.8639832,3.787166595,-1.48414886,13.24392986,127.6877899,-41.73822784,12.81346035
7.016386000000011,13.02643585,8.29574585,-144.8174591,-7.616384029,-2.904455662,21.8800869,119.0246277,-15.39053535,8.544261932
7.024719000000005,13.94477558,7.981688976,-144.7728729,5.535927296,-3.982537746,-4.710038185,108.6004944,-35.87556458,13.4963131
7.033051999999998,14.85848045,7.764856339,-144.7910461,-8.642241478,-2.34801054,24.19443512,109.1766129,-26.20511436,3.948183537
7.041384999999991,15.70090103,7.560416698,-144.7226257,2.913847208,-3.936741114,0.246185884,99.15840149,-21.9817791,13.87680912
7.049717999999984,16.48388672,7.275060654,-144.7928467,-4.883601665,-2.561939716,24.3425312,94.27690887,-35.6823349,1.032890558
7.058050999999978,17.15809822,7.198703766,-144.6923981,0.677121401,-3.71709013,5.511209011,78.56052399,-5.773070812,13.65892982
7.066383999999971,17.77383804,6.886389256,-144.7922821,-1.21139884,-1.53640914,12.40809917,74.58665466,-39.78514862,-0.527887046
7.074716999999964,18.34630585,6.88566494,-144.6587982,-3.576677322,-4.521949768,14.16792107,65.95606995,4.385520458,14.70671558
7.083049999999957,18.84682083,6.599099159,-144.7633362,0.756478012,-2.126368046,7.873797417,60.76227188,-37.02981567,-1.268729687
7.091382999999951,19.27869034,6.60862875,-144.6397552,-3.159512043,-4.037299633,16.18184471,49.30678558,5.431037426,13.1118927
7.099715999999944,19.64483261,6.402331829,-144.717865,-0.552634954,-1.802853346,5.317555428,44.22539902,-26.90779114,-0.961740077
7.108049000000165,19.97881317,6.454838276,-144.5791016,-2.756192684,-3.498983383,15.15347385,37.40924454,11.07357311,12.99635887
7.116382000000158,20.24856758,6.2908535,-144.6390991,-0.396654844,-0.127314642,5.736321449,32.39463425,-21.40343857,-0.3808842
7.124715000000151,20.49601936,6.376556873,-144.4961853,-2.202514887,-3.205909491,12.72898006,27.00381851,15.11211777,11.96630383
7.133048000000144,20.71538734,6.20426178,-144.5410461,-0.462919921,0.275488824,7.019900799,26.13941193,-21.70152473,1.834121585
7.141381000000138,20.91420364,6.294465542,-144.4106445,-0.219877288,-2.890901804,15.83553314,21.3615303,15.18286228,10.26256752
7.149714000000131,21.07746506,6.1895051,-144.4401703,-1.994647145,-1.24529016,8.267040253,19.20186043,-13.48518372,0.791160047
7.158047000000124,21.20916939,6.261431217,-144.3152924,0.072193503,-2.992747784,19.22753143,13.39321518,12.96097469,10.3504982
7.166380000000117,21.29096985,6.18793726,-144.3295288,-1.32638371,0.034615554,4.955160618,9.224442482,-9.300093651,1.182442904
7.174713000000111,21.39833832,6.312809467,-144.2028656,-3.630451441,-3.38541317,12.09102726,10.44831944,18.99553871,8.189733505
7.183046000000104,21.5130825,6.237416267,-144.2036133,0.105278447,1.351513624,3.715982437,13.00456715,-8.9189291,2.793783426
7.191379000000097,21.5613327,6.387508392,-144.0828857,-2.912639141,-4.115248203,15.29679966,3.422486067,21.57632446,6.351270199
7.1997120000000905,21.6257267,6.317830563,-144.0786285,3.141643524,0.330686748,-5.301387787,6.892727852,-8.05155468,3.117752314
7.208045000000084,21.71150398,6.431014538,-143.9961243,-6.216412067,-1.65783298,24.09794044,8.422076225,15.79242039,3.698888063
7.216378000000077,21.75392532,6.372696877,-143.9691772,5.57977581,-0.496291071,2.038963079,3.95415926,-5.776036263,5.146271229
7.22471100000007,21.82945251,6.449610233,-143.930481,-8.231711388,-0.976238489,22.29411125,7.779415607,9.82186985,0.427079022
7.2330440000000635,21.88629913,6.382527351,-143.8973999,8.188732147,-0.463372558,-1.49579215,5.600821972,-6.466032982,6.228422165
7.241377000000057,21.94361496,6.391466141,-143.8998108,-8.694402695,-2.622868299,20.99581337,6.150119305,0.426797241,-1.097826123
7.24971000000005,22.03411102,6.38259697,-143.8483124,7.179366589,1.023711801,-0.518861651,9.396006584,0.849073529,5.662065506
7.258043000000043,22.09011841,6.26579237,-143.8875122,-8.062189102,-2.584089756,22.60733795,6.482823849,-15.20661163,0.502282441
7.266376000000037,22.16617393,6.332812309,-143.7735443,3.871074915,-0.587526977,5.327698231,6.849440575,12.10494614,9.132745743
7.27470900000003,22.20910072,6.102752686,-143.8760529,-1.947210193,-0.50463444,5.366408825,5.734839916,-30.64053917,-1.325921893
7.283042000000023,22.29677391,6.174271107,-143.763382,-0.100494705,-0.947931647,19.45005035,8.299283981,12.56907463,8.760468483
7.291375000000016,22.37714195,5.984652042,-143.8558044,-1.099991083,-0.884701848,-3.981402397,10.07348251,-25.69857407,-1.980288982
7.29970800000001,22.46379852,5.856428623,-143.8232574,0.275120378,-0.061186049,27.52989769,9.219935417,-13.20580673,9.030032158
7.308041000000003,22.54084396,5.85514164,-143.8603821,-5.067378998,-2.530708313,1.849325895,8.961921692,-2.298545122,-4.463075638
7.316373999999996,22.6146965,5.554219723,-143.8985901,6.182769775,1.079455495,8.467615128,8.541089058,-35.5595932,9.220277786
7.324706999999989,22.69412041,5.624551773,-143.9333496,-8.76629734,-2.429254293,16.61512375,9.199775696,5.731173038,-7.510222435
7.333039999999983,22.80577469,5.376170158,-143.9486847,5.861945152,-0.037165467,2.343846083,12.79886913,-28.65958977,9.407182693
7.341372999999976,22.89255524,5.296753883,-144.0410309,-7.145356178,-1.778345823,17.77150726,10.71081257,-13.52455044,-6.893996239
7.349705999999969,22.96967125,5.169499397,-143.9968567,3.125438213,-0.28493163,13.10264587,7.994370937,-12.47244549,10.38036346
7.3580389999999625,23.03183937,5.086920738,-144.1079254,-5.341566086,-2.135708809,4.977263927,7.922524452,-14.76699734,-8.773033142
7.366371999999956,23.10092354,4.890976429,-144.0823212,3.751071453,0.092752784,9.870752335,7.247154236,-20.89991951,11.59614563
7.374704999999949,23.16858673,4.916862488,-144.1473541,-8.130774498,-2.589430332,14.41508484,8.065320969,-0.659540951,-8.79974556
7.383037999999942,23.23082733,4.721798897,-144.1319275,6.042094231,0.119797222,7.584827423,6.535104752,-21.2512722,10.48973942
7.391371000000163,23.25724792,4.720946789,-144.2210083,-5.938510895,-3.366320848,10.0343914,3.331169844,-4.759278297,-10.17566586
7.399704000000156,23.30441475,4.603759289,-144.1603851,0.927223742,0.490633309,17.47404099,4.291857719,-10.51636124,11.78737831
7.408037000000149,23.32275963,4.619320393,-144.2250366,-2.761992931,-0.828818262,7.061215878,2.112034798,-1.807827353,-8.268378258
7.416370000000143,23.36990929,4.464343548,-144.1928253,2.969017506,-1.131458759,5.417227745,4.575997353,-16.01251221,10.47808266
7.424703000000136,23.42265129,4.498003006,-144.230011,-5.814555645,-0.204810917,19.22456551,5.964416027,1.479747295,-6.112786293
7.433036000000129,23.45430565,4.390572548,-144.1951599,1.622200847,-1.081485868,13.10806656,2.699728251,-10.63462353,8.521051407
7.4413690000001225,23.46704102,4.439062595,-144.2283936,-2.859657049,-1.438036561,4.627611637,1.128960252,3.29279995,-6.388933182
7.449702000000116,23.49205399,4.322081089,-144.2094574,0.035585552,-0.726903617,17.50398064,2.052199841,-12.43799114,7.240005016
7.458035000000109,23.47358704,4.439920902,-144.1885376,-3.114147186,-1.215088248,13.00319958,-3.109389305,13.5045042,-3.760989428
7.466368000000102,23.47634315,4.3459692,-144.1876221,1.702035308,-1.872146726,2.481460333,-0.454396546,-10.7628212,4.158689022
7.4747010000000955,23.45857811,4.370068073,-144.1818695,-1.89911902,0.305977821,12.8820734,-2.883701324,2.465280294,-0.943782091
7.483034000000089,23.434515,4.36591053,-144.1628418,-2.587443352,-1.972434759,13.57859898,-3.839113235,-0.016598025,1.856430292
7.491367000000082,23.41945076,4.44519186,-144.1152649,1.042980194,-0.202708587,6.474203587,-2.93841362,10.52677155,1.014695048
7.499700000000075,23.37919235,4.365481377,-144.1392975,-3.526408434,-2.056399107,10.86571503,-5.387775421,-10.38470364,0.731376052
7.508033000000069,23.33331299,4.486348152,-144.0623169,0.273825049,-1.058138251,13.00400925,-6.909109116,16.50288391,2.280551195
7.516366000000062,23.28283882,4.47029829,-144.0760498,-5.059058189,-1.227930903,11.07051945,-6.706524372,-2.884265423,-1.177307129
7.524699000000055,23.21814346,4.524888039,-144.0065308,3.764693022,-1.112563729,2.603211641,-9.104222298,8.836182594,4.633782864
7.533032000000048,23.15992546,4.515874386,-144.0283508,-5.498976707,-0.035697632,12.01895046,-7.557018757,-2.486552954,-2.403972626
7.541365000000042,23.09026146,4.58078289,-143.9374542,3.171602249,-1.984342813,15.32578468,-9.908971786,10.9666214,6.518478394
7.549698000000035,23.01856613,4.624275684,-143.9417725,-6.246958256,-0.840218723,8.612095833,-9.339488029,4.135046959,-2.949095249
7.558031000000028,22.9212513,4.592741966,-143.8798981,7.656265736,-1.183068037,8.391856194,-12.95555496,-1.06217134,7.868655682
7.566364000000021,22.79126167,4.628379345,-143.9051971,-8.462607384,-1.816369653,16.76681328,-16.13300133,2.300888538,-4.880050659
7.574697000000015,22.701931,4.663829327,-143.8127441,4.069451332,0.204953268,7.779898643,-12.29335117,7.731826305,8.132330894
7.583030000000008,22.59677887,4.643903732,-143.8578339,-5.575481892,-0.758149028,9.610466957,-12.95627117,-4.747957706,-4.484770775
7.591363000000001,22.4871273,4.617262363,-143.7954407,6.585323811,-1.32270205,5.428330898,-14.43572617,-0.558031857,7.697015285
7.5996959999999945,22.40923309,4.588246822,-143.8665314,-8.174360275,0.118851997,13.40633583,-9.441022873,-6.930393696,-6.960745811
7.608028999999988,22.32095146,4.562728405,-143.7862549,4.51564455,-0.816313505,14.97285461,-12.03382492,0.355128616,9.625408173
7.616361999999981,22.2265358,4.603343487,-143.835495,-8.199419975,-0.732576728,13.07057285,-11.63665295,1.81393671,-7.728585243
7.624694999999974,22.13601875,4.522681236,-143.7777863,6.594894409,-1.06473732,6.4413867,-12.07931709,-6.823555946,9.627278328
7.6330279999999675,22.02287292,4.584733963,-143.8315582,-6.636682034,-0.586766064,10.1153841,-13.84339333,4.017580509,-9.189159393
7.641360999999961,21.94024086,4.523699284,-143.7518921,4.048866749,-1.64606595,8.604752541,-11.33921909,-3.690755844,11.15736961
7.649693999999954,21.83958435,4.594021797,-143.8156738,-5.931984425,0.944137812,14.77032852,-12.2478323,4.519696712,-10.65598488
7.658026999999947,21.77113724,4.62637043,-143.6942596,-0.986056566,-1.569921374,9.903721809,-10.04656982,8.532986641,11.62124443
7.6663599999999406,21.70384026,4.68207407,-143.7557373,-3.058133602,0.792994618,13.06589699,-8.255162239,3.021033049,-9.734358788
7.674693000000161,21.62726402,4.754961967,-143.6249847,-1.114973664,-2.378438711,6.062468529,-11.13720036,13.43378735,10.88399124
