time,Euler_X,Euler_Y,Euler_Z,Acc_X,Acc_Y,Acc_Z,Gyr_X,Gyr_Y,Gyr_Z
0,12.81886411,7.611781239,-52.7926941,-2.381507412,1.229317576,10.17382264,-8.434515237,3.311370068,-3.215525091
0.008333,12.77405643,7.634496093,-52.79504965,-1.971510001,1.061641559,11.13856578,-5.880685985,2.085914493,-1.205264978
0.016666,12.70310283,7.66777575,-52.79794888,-1.612263918,0.235921685,8.501342773,-9.107644677,3.281324573,-1.627426282
0.024999,12.64447689,7.696555972,-52.8084812,-0.318313308,1.319014892,10.11437011,-7.425377846,2.581998378,-2.301868238
0.033332,12.56282473,7.709522248,-52.79559708,-1.518741936,1.053953037,9.426169157,-10.65728748,1.320032895,0.778858587
0.041665,12.5078404,7.757293105,-52.81443405,-2.529938132,0.581490748,12.79959249,-6.860907912,4.594918922,-3.755104959
0.049998,12.42441416,7.775036097,-52.7926903,-1.359155536,0.697595063,8.384130001,-10.97449136,2.103959963,1.642791666
0.058331,12.35408783,7.818097234,-52.80874063,-1.269220024,0.822657652,7.666584611,-8.746077538,4.114450068,-3.323626608
0.066664,12.27932763,7.826207876,-52.79245948,-0.850657016,0.845681235,9.603685855,-9.868628265,0.846006483,1.317791671
0.074997,12.22120834,7.848678827,-52.81377223,-2.159864485,1.966225073,10.93611765,-7.214618802,1.568923265,-3.392103166
0.08333,12.15833998,7.865153193,-52.80439183,-0.916876473,0.23908768,9.031886579,-8.314839125,1.646579621,0.278484218
0.091663,12.10074353,7.868177772,-52.8081894,-1.148908922,0.828160346,10.94657183,-7.432729244,-0.273947716,-0.871793158
0.099996,12.04165244,7.891534686,-52.8113632,-2.181159526,2.145568311,10.22040963,-7.666283608,2.137251869,-1.360612213
0.108329,11.99277544,7.901198507,-52.8008404,-2.322864264,-0.01789261,10.04716563,-6.608738779,0.867695034,0.625198871
0.116662,11.93239451,7.944934249,-52.81432725,-1.709065556,1.35502556,7.003874183,-7.647203924,4.275800586,-3.070449233
0.124995,11.87186837,7.951867461,-52.7867794,-0.050907254,0.343125235,7.189059019,-8.299941659,0.967023873,2.700198665
0.133328,11.81607676,8.006406784,-52.80819703,-2.764654152,1.875246063,13.36932993,-6.989420712,5.353874535,-4.224485755
0.141661,11.76055503,8.02668941,-52.77993583,-1.500575304,0.10076927,9.188376784,-7.701749563,2.556128016,2.48161304
0.149994,11.71583844,8.097698808,-52.791893,-2.22944586,1.355258391,9.967506885,-5.796188057,7.522587718,-3.535706043
0.158327,11.66509509,8.126874089,-52.76135635,-0.555165202,1.13000901,7.347065926,-7.189596176,3.65708232,2.558317781
0.16666,11.65140772,8.197035194,-52.76578903,-2.963910893,1.847222939,11.71550894,-2.214184097,7.603585959,-2.625116691
0.174993,11.62560297,8.249031544,-52.74541665,-0.496404544,0.561170578,6.189860106,-4.019578099,6.092648089,0.800140441
0.183326,11.61139846,8.317832947,-52.7351036,-1.709068313,0.970664159,10.71539271,-2.520143025,7.791355235,-0.885875121
0.191659,11.59026027,8.390713453,-52.72561835,-1.591036886,1.045705278,11.10083246,-3.289511845,8.287573456,-0.956788153
0.199992,11.58415175,8.465792179,-52.69848443,-2.755421043,1.204825223,10.45474875,-1.833342247,8.9347682,0.92364952
0.208325,11.56516528,8.566419482,-52.70068743,-1.131441474,0.527074792,6.600379229,-2.82390593,11.26845956,-2.998159886
0.216658,11.54965377,8.631561399,-52.6588135,-0.018788114,0.983955793,7.827910899,-3.245013088,8.119004966,2.887191802
0.224991,11.52638745,8.725685,-52.67335893,-2.173324347,1.194538206,11.25041986,-3.14373159,10.20488346,-4.257781431
0.233324,11.51039028,8.789950013,-52.62351418,-1.640240729,-0.252135523,8.788184405,-3.43238759,8.214475632,3.855893463
0.241657,11.46998096,8.879587412,-52.63990023,-1.457920984,1.213303574,8.949283718,-5.143342108,9.626019715,-4.408015192
0.24999,11.42291021,8.948943854,-52.6006279,-0.955077283,-0.213119676,8.071142316,-6.992670894,8.560179353,2.503160969
0.258323,11.37867928,9.006756426,-52.61253738,-1.379565359,2.461409181,12.55409074,-5.70073697,5.993513643,-3.080249541
0.266656,11.31657743,9.067152502,-52.59375383,-0.994446293,-0.265915584,8.273330926,-8.423268558,7.027221739,0.358397439
0.274989,11.25200725,9.108388424,-52.60111238,-0.830263363,0.815612614,11.07784033,-8.213375449,4.156720102,-2.143098414
0.283322,11.16771603,9.167440773,-52.59346008,-2.396626324,0.603815027,8.497048198,-10.89012122,6.601093412,-0.909222275
0.291655,11.10621953,9.201915263,-52.59347535,-1.186849073,1.406117871,8.22454536,-7.958212614,3.535715789,-1.152944902
0.299988,11.01582194,9.234784841,-52.58777045,-1.459780157,0.230436087,6.383589864,-11.58268476,3.475253314,-0.517420396
0.308321,10.92245627,9.265030861,-52.59407235,-0.581346618,0.506968729,11.25868487,-11.68771577,2.902230919,-1.73231968
0.316654,10.7893219,9.281477093,-52.58496665,-1.582779274,0.079556793,12.91787791,-16.7974484,1.628739283,0.349605531
0.324987,10.65505528,9.307132244,-52.59646795,-1.603090555,1.138282076,12.46969914,-16.48807573,2.252138674,-2.219390366
0.33332,10.49121809,9.313545347,-52.59549523,-1.507632583,-0.735996969,3.857077777,-20.29922629,0.269983709,-0.397837259
0.341653,10.32006216,9.312510489,-52.60035705,-0.800670445,0.913444244,9.783119916,-21.04777718,-0.750747368,-0.869299097
0.349986,10.10490489,9.306970002,-52.62364195,-1.069267785,0.660052747,10.12023211,-26.02358198,-1.655304596,-2.947156281
0.358319,9.892623185,9.271182657,-52.6272354,-1.112193689,0.397973672,13.46875,-25.99387455,-4.823938608,-0.000342429
0.366652,9.635615826,9.261243939,-52.66098215,-2.16443263,0.106773675,7.311352074,-30.82613897,-2.372279747,-4.132438272
0.374985,9.386168957,9.241465807,-52.67115785,-1.233393441,0.188129891,6.557013392,-30.29949951,-3.069999844,-1.224726405
0.383318,9.086270571,9.216002465,-52.70619583,-1.563193526,0.41129439,9.70249486,-35.97022152,-4.208932772,-3.993628562
0.391651,8.781874418,9.198250056,-52.7329006,-1.556937516,0.86534974,13.35047746,-36.61197567,-3.101336326,-3.089624942
0.399984,8.428142905,9.167493104,-52.76858138,-1.461526722,-0.507082179,9.124154566,-42.40530777,-4.802824162,-4.002486765
0.408317,8.06554842,9.158869028,-52.80317498,-1.232674331,-0.012327068,8.220849515,-43.45014572,-2.126564162,-4.222721875
0.41665,7.664036632,9.146964311,-52.84630013,-2.185146183,0.622667492,8.341678739,-48.013237,-2.621097073,-5.16555655
0.424983,7.23568821,9.129617333,-52.88428118,-1.489072405,-0.132845432,12.74847269,-51.26319313,-3.174933039,-4.608524084
0.433316,6.768688083,9.132895469,-52.92837143,-2.137705341,0.122476367,10.71989799,-55.85710526,-0.758045867,-5.538254619
0.441649,6.282243967,9.120110393,-52.95586968,-0.266460074,-0.001790956,6.795497418,-58.43399429,-2.41557327,-3.45494163
0.449982,5.758700848,9.099102616,-52.99734115,-1.685544267,0.352833618,8.76503563,-62.6863823,-3.546114743,-5.006953895
0.458315,5.204328776,9.086152673,-53.03316688,-1.600354553,-0.29764648,11.93278241,-66.43930245,-2.469423413,-4.465882122
0.466648,4.624808848,9.051705956,-53.0614166,-1.628764451,0.641082101,13.4677608,-69.64880658,-4.917778015,-3.306315005
0.474981,4.014409542,9.028128386,-53.10291863,-0.945362833,0.404005144,6.071760237,-73.07390595,-3.711897612,-5.055614769
0.483314,3.406638503,8.982089638,-53.13472365,-0.77880884,0.204103567,6.612824321,-72.98484612,-6.262118042,-3.701809049
0.491647,2.774636149,8.927941561,-53.16844748,-1.556890756,1.261021,11.41066813,-75.81831741,-7.224661947,-4.004828215
0.49998,2.141681165,8.890322685,-53.21200563,-2.047441252,0.919433648,15.29489231,-75.7960701,-5.241413117,-5.275672436
0.508313,1.491462946,8.832125187,-53.24822618,-1.164396033,0.225889279,9.69535327,-77.95582771,-7.628898621,-4.403293073
0.516646,0.85524378,8.78756702,-53.2991886,-1.727826,1.439082816,6.644054413,-76.07165909,-5.984504684,-6.277739048
0.524979,0.212953113,8.728652954,-53.34417343,-0.894235466,0.542998214,8.862335683,-76.8565979,-7.625266852,-5.589981079
0.533312,-0.417417312,8.662667275,-53.39152145,-1.676897347,1.610178083,12.38490129,-75.44270134,-8.428634287,-5.967304826
0.541645,-1.059252843,8.603629351,-53.4551258,-1.052472591,1.182866544,12.46934557,-76.49559975,-7.493967057,-7.923629999
0.549978,-1.68612504,8.529741764,-53.49497605,-1.076838881,0.675266303,11.51045287,-75.16955185,-9.265006899,-5.257409215
0.558311,-2.305352271,8.472309589,-53.56051828,-2.281092823,1.921936333,8.517519594,-73.76921844,-7.131957413,-8.311434388
0.566644,-2.90262121,8.412803531,-53.59592245,-1.648770779,0.204563163,8.239412427,-71.69285965,-7.447639227,-4.810750067
0.574977,-3.497527242,8.349821568,-53.65459633,-1.787673742,1.560314119,8.820433737,-70.99582863,-7.678731083,-7.689475656
0.58331,-4.085992515,8.302540541,-53.70199395,-1.122583904,1.114730284,10.01422441,-70.44651413,-5.791093469,-6.274378955
0.591643,-4.663507938,8.232492805,-53.74693678,-1.582300201,1.266694903,13.16928148,-69.15472031,-8.50091815,-6.247591139
0.599976,-5.239624143,8.184126139,-53.80636598,-1.044425845,1.006719172,9.580539943,-68.78183937,-5.67756915,-7.799680591
0.608309,-5.803536177,8.107152701,-53.84263608,-0.705901876,1.264429003,11.02567148,-67.69041252,-9.307761194,-5.422424495
0.616642,-6.363856316,8.067190051,-53.9060116,-3.027259923,0.678863585,9.238677501,-66.83665657,-4.480399191,-8.280631781
0.624975,-6.893865585,8.004536152,-53.92790795,-0.707122043,1.334437445,8.941866874,-63.8592701,-7.692837715,-3.662711412
0.633308,-7.450644493,7.972938061,-54.00003433,-2.767361512,1.292057142,8.969983101,-66.28965187,-3.204721838,-9.310974836
0.641641,-7.983104229,7.918151975,-54.02518653,0.551492483,-0.015873358,8.808693886,-64.10696698,-6.639679015,-4.015312076
0.649974,-8.520175696,7.881213784,-54.08662415,-2.667308976,1.997535676,12.80277252,-64.11156941,-3.859109521,-8.179106593
0.658307,-9.058604241,7.826905728,-54.12804223,-0.180360181,0.208792444,8.598607182,-64.5721035,-6.210130247,-6.034066796
0.66664,-9.593831064,7.776023626,-54.1782875,-2.382148743,0.90687827,12.19903326,-64.09419537,-5.584222316,-7.18272841
0.674973,-10.12898731,7.735095024,-54.23272323,-1.425374196,1.298874706,9.622054576,-63.98460674,-4.254376769,-7.392381846
0.683306,-10.66512847,7.676960468,-54.2672081,-1.733486064,0.575946257,8.801342487,-64.44351673,-6.646608591,-5.589337766
0.691639,-11.20511508,7.628850222,-54.3344269,-0.546639592,0.84106471,9.567610264,-64.38815022,-4.683474124,-9.114830972
0.699972,-11.76063991,7.566803217,-54.35430338,-1.497913957,0.00789123,9.598433494,-66.99828816,-7.341016114,-4.111379743
0.708305,-12.32312417,7.533558727,-54.42781448,-1.763473019,0.70704522,12.12089276,-67.01964569,-2.624195159,-9.557462097
0.716638,-12.89413953,7.490008712,-54.45539665,-1.967282485,-0.001831882,9.59893477,-68.73970604,-4.89601177,-4.631556332
0.724971,-13.4618454,7.454301,-54.51617433,-1.061614625,1.591970951,8.692175984,-67.86095428,-3.074448105,-8.219971538
0.733304,-14.02712345,7.418230295,-54.5386181,-0.905450419,0.504192237,10.58120847,-68.13604546,-4.076537878,-3.908533633
0.741637,-14.60176825,7.367566228,-54.58371735,-1.125917774,0.613861221,10.61191892,-68.93622971,-5.122507304,-6.890344858
0.74997,-15.15951681,7.32773757,-54.61636543,-1.055358961,1.32624121,11.27471161,-67.09830666,-4.127955756,-5.25874871
0.758303,-15.72912502,7.265382409,-54.63999748,-2.062095568,0.908038423,10.36425769,-68.66363526,-7.021099627,-4.906955064
0.766636,-16.2953105,7.227348685,-54.68577005,-0.808695972,0.443294259,10.92362714,-67.93462753,-3.393188607,-6.798868477
0.774969,-16.85950947,7.157029748,-54.69403458,-1.685087666,1.136957944,10.00847542,-68.24582672,-8.366474628,-3.541409761
0.783302,-17.40966749,7.104209185,-54.74609188,-1.288170427,1.568712756,9.820298909,-65.92473984,-4.746761978,-8.071611762
0.791635,-17.95364523,7.032332301,-54.74686433,-0.967456967,0.17993279,10.08176756,-65.91955757,-8.739153623,-2.905122817
0.799968,-18.4921732,6.97513783,-54.7948475,-0.667606656,1.427370712,9.132733821,-64.61835862,-5.258170366,-7.861847759
0.808301,-19.00927401,6.904157281,-54.79628943,-1.284064442,0.904496689,11.26970458,-62.66920376,-8.508870364,-3.22472471
0.816634,-19.52531958,6.855981946,-54.8390827,-2.763502121,0.679189474,12.1025312,-62.00485611,-4.305290878,-7.018680155
0.824967,-20.01419354,6.810351014,-54.8446312,-1.571557969,1.700238168,11.22656369,-59.24687672,-5.463154853,-2.695816874
0.8333,-20.50934792,6.774592281,-54.86589243,-1.64482674,0.942474265,9.472702504,-59.81132984,-3.68973875,-4.139058685
0.841633,-20.9706831,6.736032963,-54.8866024,-0.855551738,1.025822125,9.806386949,-55.74489403,-3.941259809,-4.305601344
0.849966,-21.43095589,6.699687243,-54.89434435,-1.231866002,1.737673342,10.16698956,-55.79224777,-4.272665501,-2.703493495
0.858299,-21.8499031,6.664542198,-54.93665315,-1.88062489,1.475290224,11.22512555,-50.38939572,-2.599146754,-6.483189404
0.866632,-22.25725078,6.630161047,-54.9393673,-1.089831138,1.267529488,11.44025707,-49.49479199,-4.231279791,-2.124074212
0.874965,-22.63132668,6.59711802,-55.00285913,-1.338792682,2.118932933,10.93742013,-44.73932266,-1.322372198,-8.741395474
0.883298,-22.98580837,6.569680333,-54.9938412,-0.604681328,1.36310643,8.609176398,-43.31626225,-3.986135696,-0.542952327
0.891631,-23.30498457,6.549578071,-55.06720163,-1.847368479,1.452539176,12.78422093,-38.02954197,0.675202131,-9.249982119
0.899964,-23.59912968,6.534633994,-55.04818343,-1.428645119,1.569254562,10.67641521,-36.19437313,-3.069764525,1.094350398
0.908297,-23.86501932,6.530177951,-55.12571525,-2.306491614,2.392724723,12.44978571,-31.59074068,2.682757795,-8.939379217
0.91663,-24.11031532,6.52506423,-55.10581208,-0.823431596,0.186572574,8.95740521,-30.33220768,-2.038283408,1.648853719
0.924963,-24.32890559,6.524439097,-55.18664553,-1.615159363,2.521914184,10.47289896,-25.8924141,3.336176694,-9.106100678
0.933296,-24.54093361,6.514313817,-55.17969703,-0.36222068,0.129401822,9.904458999,-26.16931772,-1.965968549,-0.00665319
0.941629,-24.7163744,6.505108953,-55.2493839,-2.298644554,1.871293481,11.84751463,-20.87112522,1.914764404,-8.316455784
0.949962,-24.88468504,6.502202749,-55.26264,-0.754161287,0.900500235,9.81401229,-20.65343618,-0.163901925,-1.852601737
0.958295,-25.01481485,6.503808617,-55.30537415,-3.456775248,1.869637847,13.70486522,-15.78974176,1.777567595,-4.838005127
0.966628,-25.14438677,6.521535277,-55.33413695,-0.146784753,0.639020309,7.601265611,-15.80799198,2.869377987,-2.474015653
0.974961,-25.24072409,6.54653585,-55.36425208,-3.276053578,2.132795602,12.54868793,-11.89131713,3.700770885,-2.272566229
0.983294,-25.33512211,6.585113168,-55.4043846,0.094074764,0.390140638,8.706384182,-11.45286632,5.726181484,-2.646918118
0.991627,-25.41287327,6.623804212,-55.41977693,-2.64899984,1.101932848,11.91409397,-9.838489414,4.44415044,0.033355575
0.99996,-25.49425841,6.669928074,-55.47486878,0.064530999,1.071059361,10.5881052,-9.712544917,7.31262546,-3.866956115
1.008293,-25.56041622,6.721042871,-55.48140908,-1.729040884,0.960298132,10.73779941,-8.529595613,5.34329614,1.650101245
1.016626,-25.62605667,6.767381907,-55.55121993,-1.105187848,0.591062736,10.92193604,-7.638982296,8.095451296,-5.427247644
1.024959,-25.68672466,6.83435607,-55.55233958,-1.141352721,0.78597074,10.73205137,-7.917639494,6.785280166,3.070199177
1.033292,-25.74771118,6.883761048,-55.62220003,-1.823995739,0.611708775,12.36276126,-7.087342143,8.437265829,-5.272432685
1.041625,-25.80718756,6.961771965,-55.62900923,-1.516188786,1.183230862,8.858646631,-7.689801335,8.265847563,3.064477891
1.049958,-25.85898877,7.011769891,-55.68746375,-2.161047392,0.53162967,13.510131,-6.134593487,7.911518805,-3.986033529
1.058291,-25.92557526,7.115483165,-55.71876143,-1.857796604,0.220125418,11.92455018,-8.194888831,12.31535,1.786906719
1.066624,-25.98859072,7.168272495,-55.76708985,-0.895372521,1.698791638,14.04380036,-7.590187223,7.694610329,-2.732754216
1.074957,-26.06750011,7.27070415,-55.8159275,-1.822689854,-0.232596949,9.678964586,-9.440630793,13.08474422,-0.146113161
1.08329,-26.10454083,7.319435358,-55.85490038,-0.719051927,1.713842511,9.074674905,-4.553740442,6.771651446,-1.888796941
1.091623,-26.14667988,7.417529702,-55.89956473,-2.233172748,1.016519193,9.189894913,-5.141830921,12.40184832,0.050722659
1.099956,-26.17374897,7.471874595,-55.93614195,-0.370866813,0.161447728,11.65245509,-3.34266147,7.251570464,-1.307078533
1.108289,-26.19374371,7.55441165,-55.95965195,-2.118043885,1.272539854,12.66992092,-2.842799425,9.615895687,1.478399649
1.116622,-26.22929955,7.614813447,-55.99912643,-0.349039078,1.017247126,12.2033987,-4.291124285,8.049209596,-1.268320888
1.124955,-26.21057987,7.675684452,-55.99899295,-2.027844131,0.727697228,10.63556123,1.443006747,6.042492987,2.881208228
1.133288,-26.19861508,7.752048612,-56.04225158,-0.894703925,1.604003817,9.243553698,1.44551756,9.967997179,-0.867093176
1.141621,-26.15183449,7.807775498,-56.03903578,-1.779781044,0.301016726,11.34122896,4.812719703,5.326765225,2.975311488
1.149954,-26.09459687,7.875403047,-56.06155585,-1.579283908,1.248819209,9.959217311,6.488672853,7.94686048,0.824912734
1.158287,-26.0297556,7.921749473,-56.07284165,-1.29122591,1.56456855,12.42350078,7.267685175,5.072923898,0.960774042
1.16662,-25.92692614,7.985773921,-56.0665226,-1.483031273,0.735796442,12.51003504,11.45822048,6.063208937,3.679549854
1.174953,-25.82985974,8.03672123,-56.09261893,-1.188941628,1.211862087,11.11868131,11.38393712,6.340910673,-0.409946054
1.183286,-25.69164133,8.089239478,-56.07161905,-1.35464927,0.476527948,10.09153998,15.47459746,4.08279875,4.641233266
1.191619,-25.56081629,8.127756357,-56.089283,-1.179214358,0.53342462,9.336671352,15.24620056,4.5623253,-0.217061511
1.199952,-25.41474295,8.163579822,-56.0778351,-1.443910483,1.237844817,12.96263945,16.62073279,2.777848508,2.778040648
1.208285,-25.26634741,8.203410983,-56.0798664,-1.238292232,-0.559732683,11.30834401,17.04519916,3.91689539,1.464910547
1.216618,-25.11920548,8.23218894,-56.06993293,-1.439554736,1.034015317,9.597890854,16.82152367,2.100205064,2.272031397
1.224951,-24.95688439,8.262110353,-56.06983758,-1.752623409,0.23475641,10.35043812,18.62353349,2.745672704,1.140061386
1.233284,-24.81782484,8.290660262,-56.039814,-0.804523371,-0.164281816,10.81635761,15.53999376,1.086669205,4.423295319
1.241617,-24.65884018,8.312462687,-56.04537773,-2.058457255,1.290513162,12.78349876,18.32073903,2.14645815,0.115827686
1.24995,-24.51478624,8.36628449,-56.01638033,-1.352717012,-0.649325304,7.559739889,16.12927938,3.928178817,5.536278844
1.258283,-24.37002611,8.384669304,-56.00519945,-1.687692419,-0.609544419,12.2340709,16.344028,0.95204556,1.757511526
1.266616,-24.25545121,8.449488998,-55.98644828,-1.833336376,0.673759923,10.40530896,12.74903059,5.662425815,4.929572583
1.274949,-24.13046455,8.48571229,-55.9799633,-1.668388071,-0.049120754,13.21485758,14.08099651,3.148988962,2.127515555
1.283282,-24.02651787,8.559996843,-55.96343803,-2.062129334,-0.896990903,7.701755047,11.4654367,6.823989034,5.10981369
1.291615,-23.92470169,8.614031911,-55.9729614,-1.721610963,1.130679131,14.60990071,11.59022892,5.87577498,1.263034895
1.299948,-23.85515165,8.69511044,-55.9511757,-1.745035626,-1.302668691,10.36490583,7.254698277,7.336593211,5.997109413
1.308281,-23.76707697,8.756094456,-55.95411685,-1.460267171,0.117155882,10.05408311,9.809391142,6.323460281,2.288692921
1.316614,-23.70828009,8.822456002,-55.9248638,-1.380275451,0.533423588,8.65448761,5.806642056,5.377692938,6.084255695
1.324947,-23.65009928,8.86952877,-55.91151428,-0.737148091,-1.287980497,13.73308635,5.96290189,4.024111964,3.395125493
1.33328,-23.61020708,8.905439735,-55.8808651,-1.578980729,0.272751749,10.36704683,3.491175924,1.972821206,4.755151808
1.341613,-23.58336211,8.939306975,-55.87051008,-1.722887397,-0.31531173,10.01245093,2.228553817,2.721060991,2.417858869
1.349946,-23.58148289,8.972657203,-55.8319149,-2.063164689,-1.338358529,12.96262264,-1.190549691,1.3246338,5.49835521
1.358279,-23.59095049,9.004765035,-55.82305528,-1.592992094,0.479796644,8.524539234,-2.116292894,2.592278928,2.175304979
1.366612,-23.6184907,9.031383752,-55.80408478,-1.79966075,-0.117719181,10.41166222,-4.382832647,1.507740161,3.04521858
1.374945,-23.66820383,9.062273502,-55.79534913,-1.582441874,-0.677484177,10.22589552,-6.894933582,2.462331742,2.13868314
1.383278,-23.7181859,9.086578131,-55.77952005,-0.734025009,-0.344198842,8.901955963,-7.040153146,1.402703107,2.565493167
1.391611,-23.78888893,9.100106241,-55.77021215,-1.362198606,0.64570263,11.03189433,-9.441545369,0.527220726,1.350014374
1.399944,-23.86087752,9.118853091,-55.74907113,-1.28368783,-0.844168946,12.2855823,-9.74225676,0.541827642,2.878351778
1.408277,-23.93112326,9.135932446,-55.73005675,-2.029187292,-0.088506543,10.21661377,-9.615044118,0.450410545,2.540660247
1.41661,-24.01266718,9.146636248,-55.71761895,-1.281499624,0.426661678,10.13585758,-10.73310447,0.067035675,1.54457365
1.424943,-24.08624792,9.154873847,-55.69054413,-2.340013117,-0.049394161,13.67293692,-10.13684428,-0.918814734,3.020267487
1.433276,-24.16504717,9.164845943,-55.67387965,-1.536999255,-0.135557488,7.581093907,-10.5023464,-0.225097925,1.953095198
1.441609,-24.23918581,9.167487859,-55.65299418,-1.639611334,0.747624114,11.44125438,-10.08675623,-1.2308186,2.057146713
1.449942,-24.31395531,9.177770377,-55.63843155,-1.649001539,0.054931186,11.4027102,-9.947637796,-0.093181223,1.765490055
1.458275,-24.37009096,9.177271367,-55.62117388,-1.48831746,-0.009775206,8.574665666,-7.878391505,-1.400980264,1.488516837
1.466608,-24.43449259,9.18789339,-55.6136131,-1.241925612,0.535615031,11.98039413,-8.59110117,0.249207412,1.097118609
1.474941,-24.48880577,9.191872359,-55.60552788,-1.50148043,-0.023040816,10.3918221,-7.466466308,-0.483593591,0.782678157
1.483274,-24.53219843,9.198696375,-55.60087013,-1.569869876,0.56816813,9.865197898,-6.046976447,-0.015214622,0.550318673
1.491607,-24.57984209,9.20583129,-55.60480883,-1.865504652,-0.132566065,9.87156272,-6.42829895,0.44677347,-0.351158351
1.49994,-24.60366488,9.223231794,-55.59674835,-1.890695065,0.574746445,12.30296135,-3.738234341,0.970830813,1.461711496
1.508273,-24.62561846,9.229349374,-55.59973718,-1.99315545,0.381009991,8.875434874,-3.388952613,0.293119684,-0.329367071
1.516606,-24.62735128,9.246301174,-55.5914879,-1.852046609,0.585980317,10.36893535,-1.073015511,0.906724695,1.485824049
1.524939,-24.62371063,9.269654989,-55.58614733,-1.514225036,0.143064231,10.64420724,-0.465010464,1.757142872,1.453278014
1.533272,-24.60680819,9.280791997,-55.57164573,-1.04393962,0.187021978,8.019704104,1.021303542,-0.037947502,1.857214421
1.541605,-24.59074879,9.30192232,-55.56849863,-1.451228648,0.542143751,11.99473357,1.073281398,1.619091779,1.117795676
1.549938,-24.56428909,9.324649334,-55.55651665,-1.317886502,-0.506177454,8.721833945,2.22575254,1.363842636,2.152597994
1.558271,-24.53433561,9.337333441,-55.53588105,-1.345864072,0.112728372,11.32235634,2.373200625,-0.168647498,2.573014245
1.566604,-24.51897621,9.356301308,-55.53350448,-1.346261367,-0.306200106,11.97806525,1.106419541,1.446579933,0.891698767
1.574937,-24.47764683,9.36775589,-55.50971413,-2.742982656,0.254317468,10.36673522,3.655039728,-0.453259349,2.844541252
1.58327,-24.45395899,9.378320216,-55.49833298,-0.783396616,0.300087132,11.84611964,1.926552341,0.062559664,1.498660192
1.591603,-24.41327619,9.383650063,-55.47542193,-2.365541071,-0.106544476,9.736176612,3.610682011,-1.087823749,2.479614943
1.599936,-24.37016583,9.377190114,-55.46880533,-0.824436546,0.695225578,10.71363401,4.323301971,-1.533914909,0.06351696
1.608269,-24.32570315,9.367282392,-55.43337058,-2.067107156,-0.618805818,10.34622824,3.874214292,-3.359957486,3.108989
1.616602,-24.26683235,9.354306937,-55.42874718,-0.435813379,0.594587185,10.24158489,6.211109996,-2.183232963,-0.4188696
1.624935,-24.21977329,9.332333565,-55.40400698,-2.017717123,-0.113014912,9.51155448,4.393894911,-4.161233901,1.38605994
1.633268,-24.14587927,9.325150967,-55.40416335,-0.90925514,-0.043026358,11.76306653,8.130070806,-1.282290459,-0.714240238
1.641601,-24.07867956,9.312567235,-55.37447928,-2.28438808,0.28405419,9.349130869,6.70020783,-3.365166784,2.372278839
1.649934,-24.01058769,9.318901062,-55.38741873,-0.723441914,-0.445607126,10.80894732,7.691656947,0.783997357,-1.361633435
1.658267,-23.92046785,9.324378252,-55.36848448,-3.629540913,0.550935507,10.86887097,9.628613352,-0.85879758,2.080190212
1.6666,-23.84989786,9.343835115,-55.37000655,-0.537424013,-0.301715881,9.57192254,7.81050098,1.698220968,0.470309287
1.674933,-23.7584362,9.369024753,-55.35848238,-3.278383672,-0.459857322,9.678584098,9.930246115,1.676852286,2.197704837
1.683266,-23.69216824,9.387193681,-55.37008285,-0.361496802,0.09065051,9.638300897,7.468595864,2.008556262,-0.624449477
1.691599,-23.61815548,9.417763232,-55.35950088,-3.231902182,-0.675450992,10.9771924,7.892396569,2.317220874,2.381419778
1.699932,-23.55723715,9.44648385,-55.3626442,0.303157285,-0.330531269,9.884073496,6.641448616,2.767935232,0.775784813
1.708265,-23.50704241,9.47050762,-55.36063198,-2.635657132,-0.197379475,10.04645562,5.207812965,1.997535736,1.160036758
1.716598,-23.44346428,9.499043226,-55.35615538,-0.36542368,-0.090067782,11.03198361,6.796644448,2.400230006,1.560454503
1.724931,-23.40483427,9.516403437,-55.34099768,-2.82224074,-0.842106,10.0282886,3.569923341,0.654235602,2.252803983
1.733264,-23.35009289,9.543709515,-55.32423973,0.2297813,-0.124328661,8.983344316,5.486021996,1.690344155,2.820101857
1.741597,-23.31329966,9.543502809,-55.30653,-2.892379835,0.184159599,11.77763772,3.276595294,-1.398447663,1.691096485
1.74993,-23.26546621,9.568211794,-55.27264978,-0.386055529,-0.898254648,8.420018195,4.346988857,0.614114411,4.562097132
1.758263,-23.23079205,9.559096575,-55.25240325,-2.207862049,-0.241084009,11.17667914,2.961758107,-2.495127268,1.532951132
1.766596,-23.20179653,9.57034707,-55.21367645,0.223726571,-0.71741173,8.391195177,2.010186196,-1.076246172,4.424408108
1.774929,-23.165699,9.558283091,-55.1953373,-3.058577346,-0.059665032,11.8418479,3.158251196,-2.716216668,1.155557482
1.783262,-23.14756727,9.573063613,-55.14935305,-0.655231163,-0.628001008,11.60182023,0.587417633,-1.017154038,5.393747002
1.791595,-23.12024879,9.558314086,-55.13484765,-2.926682234,-0.083557697,9.453258754,2.166512758,-2.844121307,0.625618041
1.799928,-23.10730124,9.565970183,-55.1026974,-0.885761485,-0.6540755,12.14031434,0.23352176,-1.155073792,3.546799958
1.808261,-23.08194924,9.562009334,-55.09408758,-3.243226484,-0.024154432,8.353128195,2.052356593,-1.376601726,0.491044089
1.816594,-23.07141161,9.567912102,-55.06164168,-0.092975646,-0.528510217,11.39246619,-0.046144053,-1.35811159,3.505157411
1.824927,-23.04389191,9.550832748,-55.0587082,-2.467768119,0.030774378,8.842176676,2.410635907,-2.580276053,-0.713987135
1.83326,-23.02346993,9.549812318,-55.02208135,-0.378570259,-0.172057299,10.19461835,1.069042165,-2.312923968,3.643730641
1.841593,-22.98412085,9.536801339,-55.01820373,-1.876964212,-0.467801497,11.35931575,3.804485977,-2.158835351,-0.461655014
1.849926,-22.95748949,9.530129911,-54.97805788,-0.771544814,-0.448608454,9.176780463,1.747905953,-3.130800188,3.853537381
1.858259,-22.89939499,9.50798297,-54.97307208,-1.740731925,0.429615013,9.803944945,6.0214113,-3.232731997,-0.733927947
1.866592,-22.86117935,9.507171154,-54.9371891,-2.047809258,-1.36074461,12.35720801,3.226641178,-2.248139561,3.579464615
1.874925,-22.79608202,9.486944199,-54.93814278,-1.615717211,0.418659462,10.03432369,6.987509489,-2.744255185,-1.290650129
1.883258,-22.74790621,9.497310401,-54.91767883,-2.320322722,-0.693311656,12.83589673,4.712088108,-0.320501089,2.470778078
1.891591,-22.67730141,9.498440743,-54.9167881,-2.200199083,-0.272969037,7.57764709,7.623812318,-0.465561032,-0.100510278
1.899924,-22.63614083,9.510554791,-54.91810038,-1.117191292,-0.499313109,10.52984297,4.299372047,0.868255973,0.183461946
1.908257,-22.57143593,9.5199883,-54.92397688,-2.444678516,-0.662837118,11.46574712,7.056248783,0.766070128,-0.463127762
1.91659,-22.53834629,9.547587872,-54.91899683,-1.11803941,-0.7339321,9.334110497,3.215560109,2.294859528,1.605340295
1.924923,-22.48320961,9.563908816,-54.92619705,-1.231057733,-0.348794308,8.471412181,5.930794239,1.588329077,-0.300506413
1.933256,-22.43944979,9.591886759,-54.9203377,-1.549093008,-0.541141046,13.08862877,4.469572127,2.304932355,1.697564319
1.941589,-22.37669754,9.623233081,-54.9291668,-2.10869202,-0.062734626,8.893621803,6.878136992,3.322445034,0.22828044
1.949922,-22.33626271,9.653916834,-54.92910955,-1.065221746,-1.152073219,9.457165719,4.192246854,2.879056395,1.156274615
1.958255,-22.26771307,9.683131934,-54.9391327,-2.176255167,-0.363762811,9.424997926,7.599113344,3.148191215,-0.032485236
1.966588,-22.2416482,9.718186617,-54.94779778,-1.123580016,-1.121823519,8.714126111,2.637754202,3.744331599,0.423537836
1.974921,-22.19147682,9.72989893,-54.9500084,-0.889983751,-0.75659048,9.118075848,5.246183098,0.848096848,0.048551829
1.983254,-22.17523051,9.754132511,-54.94755935,-1.710930005,-0.639979081,13.46859574,1.243407995,2.051691592,1.141018212
1.991587,-22.14317417,9.76520896,-54.94607545,-1.716186013,-1.170373976,8.520268204,2.99843134,0.611024737,0.428750314
1.99992,-22.14169645,9.790564777,-54.960062,-1.982037857,-0.815542899,11.48259211,-0.202964008,2.919386029,-0.645654865
2.008253,-22.1261282,9.800667761,-54.96655083,-1.89676558,-0.475187562,11.40156806,1.177102089,0.868633269,-0.5190437
2.016586,-22.14864779,9.837330102,-54.98137665,-1.991840005,-1.636040896,7.883863539,-3.069120273,4.206702769,-0.210372822
2.024919,-22.15626192,9.829515935,-54.98564338,0.254791841,0.18424891,8.200536074,-1.621627599,-1.23157093,-1.046360687
2.033252,-22.18268347,9.847057104,-54.99615478,-1.933982978,-1.548926637,11.01381803,-3.647143662,1.891547203,-0.622016057
2.041585,-22.20027161,9.845969676,-54.99821473,-0.976582408,-0.244970227,12.22678685,-2.839735121,-0.579217851,-0.482972421
2.049918,-22.23219633,9.859662771,-55.01581958,-2.385789626,-1.057440512,8.391473002,-4.190261781,1.802938192,-1.648266584
2.058251,-22.25144196,9.847594262,-55.005188,-1.224433255,-0.153235406,11.51395798,-3.268732011,-2.366739393,0.417540878
2.066584,-22.26549864,9.862303971,-55.00790978,-1.841781095,-1.105799288,6.802907466,-2.371462405,1.25198269,0.003829345
2.074917,-22.29146528,9.829234121,-54.99975205,-0.331155457,0.055589243,10.4133544,-3.98659116,-4.59872198,-0.759330958
2.08325,-22.30048323,9.819953443,-54.9945221,-2.657759815,-1.037319001,10.41842437,-1.954052627,-1.780353308,-0.188191062
2.091583,-22.34389258,9.797776221,-54.99327088,-0.909562852,-1.470833376,12.42424393,-5.922636747,-3.083882333,-1.003697176
2.099916,-22.36508322,9.774756671,-54.99246215,-1.715559963,-0.56954598,7.678250314,-3.349423707,-3.11234641,-1.296762422
2.108249,-22.41718388,9.751872063,-55.00226403,-1.568378463,-0.685595892,13.02643538,-6.755655765,-2.656590938,-2.280816555
2.116582,-22.4436636,9.731466534,-54.99632073,-1.945695594,-0.409881666,9.416012644,-4.068533927,-3.056275249,-0.601137359
2.124915,-22.50177002,9.715574264,-55.0047512,-1.339761555,-1.141199986,7.161683471,-7.515611649,-1.949516297,-1.79717502
2.133248,-22.53436709,9.684522867,-55.00385858,-0.97805354,-0.870115295,10.63618129,-4.674037814,-4.004350246,-1.632833987
2.141581,-22.59621239,9.689242601,-55.0099411,-1.831233561,-0.746964766,10.13377702,-8.042073131,0.238071423,-0.637262983
2.149914,-22.6404748,9.667419434,-55.0093136,-1.263382524,-0.262102079,12.04306477,-6.042318523,-2.976319682,-1.199047193
2.158247,-22.68861056,9.682629345,-55.02119445,-3.590596736,-1.107334912,9.233637064,-6.314821482,1.684549242,-0.852022294
2.16658,-22.73013688,9.685062172,-55.0236969,-0.871791866,0.236880124,11.30996585,-5.591661513,-0.124136627,-0.455382643
2.174913,-22.76610041,9.69421458,-55.03033448,-1.710397732,-1.43796441,5.459505647,-4.99200058,0.762885333,-0.546505436
2.183246,-22.79639149,9.690891743,-55.02455328,-0.231317938,-0.034179476,12.44951272,-4.382612407,-1.165272235,0.263045453
2.191579,-22.81734896,9.698632717,-55.02206993,-2.708554268,-0.283747811,10.11818469,-3.403274238,0.191814658,0.369187657
2.199912,-22.85666847,9.691038132,-55.01703263,-1.197003946,-1.537527397,10.72420537,-5.43266201,-1.604447843,-0.014779432
2.208245,-22.86319685,9.68927431,-55.00976943,-2.571380042,-0.483384356,9.208508911,-1.789750315,-1.085849045,0.453474492
2.216578,-22.90559912,9.699041367,-55.01134683,-1.273667067,-0.972547471,11.42961812,-5.69662276,0.617767452,0.05836846
2.224911,-22.92465496,9.675534487,-55.00047493,-0.423522443,-0.486598464,8.499781729,-3.329735279,-3.652068675,-0.153726997
2.233244,-22.96168995,9.679283383,-55.00442695,-2.150458917,-0.570227185,9.428479343,-5.020214081,0.064294875,-0.489616085
2.241577,-22.97448826,9.661112546,-54.99500655,-0.991446763,-0.746790128,11.94772017,-2.502488431,-2.990071535,-0.05133413
2.24991,-23.00700569,9.660053016,-55.01427078,-2.261698797,-0.898874683,7.067867973,-4.22406596,0.264530927,-2.481734485
2.258243,-23.0268383,9.650567532,-55.00972178,-2.047248453,-0.379764449,13.40966773,-3.199589543,-1.805429309,-0.150582878
2.266576,-23.04102468,9.67209649,-55.02155303,-2.13462615,-0.735263474,7.060638191,-2.215375513,2.422342778,-0.653018989
2.274909,-23.06176138,9.654679537,-55.0208454,-0.636229694,-0.481669817,9.332998395,-3.159315109,-2.51764226,-0.871508487
2.283242,-23.05295038,9.656458377,-55.02092933,-2.273873523,-0.623481281,9.182080865,0.261482984,-0.318151475,-0.279528199
2.291575,-23.07823372,9.653968812,-55.0273304,-0.76851207,-1.407195389,12.9972887,-3.560168743,-0.541930675,-0.941365041
2.299908,-23.07059574,9.641674282,-55.02121925,-1.72535786,-0.485468866,9.082407625,-0.0056509,-2.155755043,-0.265011277
2.308241,-23.08817816,9.653995036,-55.03358268,-2.159671973,-0.840669871,9.716490209,-2.556656092,1.377472877,-0.941300757
2.316574,-23.08379126,9.642211199,-55.03354645,-1.76776886,-0.494010017,10.27541876,-0.216453009,-1.828226566,-0.84819305
2.324907,-23.0999732,9.653088093,-55.04442978,-0.836129844,-1.324091271,5.688545181,-2.47464888,1.148458928,-0.886527933
2.33324,-23.12086821,9.632189751,-55.05029298,-1.172897294,-0.934821278,14.25663209,-3.067202359,-2.567910493,-1.853692874
2.341573,-23.1410408,9.646320106,-55.05156515,-1.705458654,-1.115461588,7.885454298,-3.208432883,1.069788454,0.262974955
2.349906,-23.17309046,9.642222166,-55.0597687,-2.392759413,-0.632576879,11.41005373,-4.300070405,-0.60045886,-1.301718861
2.358239,-23.17147827,9.648283005,-55.0541668,-2.145005629,-0.759918585,9.745227218,-0.786130015,-0.14278269,0.604265686
2.366572,-23.21273518,9.660455465,-55.07943155,-1.742264629,-1.17075336,8.300176899,-5.046578407,1.987842798,-2.377779573
2.374905,-23.21629143,9.642295836,-55.0684681,-0.087841928,-0.329379305,9.24719374,-1.471480504,-3.062807321,0.072529942
2.383238,-23.23226309,9.645215749,-55.0830364,-2.79136562,-1.003956229,9.791804523,-2.279516488,0.477035822,-1.704396829
2.391571,-23.23182631,9.607174871,-55.06157875,-0.596233547,-0.224428614,11.40070319,-1.117196936,-5.756050344,0.353726186
2.399904,-23.22260189,9.599373102,-55.07809258,-2.301055804,-1.483994871,9.252651333,0.677298009,-0.60784912,-2.50435856
2.408237,-23.23708391,9.557564735,-55.07134245,-1.298997343,-0.855621122,13.57892299,-2.552459598,-5.491454842,-1.37500751
2.41657,-23.22506952,9.540979147,-55.07773973,-2.422513075,-0.27757873,6.157142878,0.767360851,-2.041658403,-1.855165906
2.424903,-23.22444725,9.513596775,-55.06884383,-0.962542892,-1.317656547,10.92732113,-0.772105973,-4.001724482,-0.463050923
2.433236,-23.1993022,9.457333088,-55.07640458,-1.443737775,0.330711277,9.956523776,2.401235938,-6.377889305,-3.786946446
2.441569,-23.19144774,9.44755459,-55.07588385,-1.509542078,-2.362564027,7.73266924,0.210680269,-1.654618861,-0.613694679
2.449902,-23.18242455,9.408304691,-55.0891304,-1.432123035,-0.26348313,15.17503131,0.645033732,-4.241941513,-3.553069055
2.458235,-23.15884733,9.392095566,-55.0809078,-3.007146656,-0.52518265,7.599983602,1.854797319,-2.723180889,-0.127161898
2.466568,-23.14765883,9.362508059,-55.09576415,-1.504760567,-1.028525144,9.214159607,1.019955757,-3.082503319,-3.276800514
2.474901,-23.09879065,9.350715875,-55.0840416,-2.127473295,-0.766032025,9.587753953,4.797711044,-2.394725323,0.447035681
2.483234,-23.09247542,9.337090491,-55.10985185,-0.254817605,-1.313423381,8.443071403,0.645110577,-0.839248417,-3.671062023
2.491567,-23.05535412,9.30822015,-55.09824753,-2.100200773,-0.742244736,13.09910881,3.425542236,-4.273588114,-0.33367037
2.4999,-23.04178476,9.317785263,-55.11946678,-2.581786882,-1.85907659,9.370955764,1.348352548,1.515767098,-2.153391913
2.508233,-23.02391911,9.307013512,-55.1230202,-2.671904297,-0.177645844,12.04582929,1.493213892,-1.572752864,-1.085118219
2.516566,-22.99698305,9.352365494,-55.15701485,-2.27277577,-1.732922018,6.824208259,3.112258673,6.066886306,-1.945750743
2.524899,-22.9995203,9.372272254,-55.18257333,-0.945999533,-0.952276379,12.22309017,-0.455936715,2.818800448,-1.974477202
2.533232,-22.97868443,9.383142471,-55.20302008,-0.914074747,-0.755260892,8.052404761,2.097822256,1.63018489,-2.083660953
2.541565,-22.98099947,9.413498402,-55.2258358,-3.384577423,-1.440700337,12.34080458,-0.474996783,3.86291051,-1.228955463
2.549898,-22.96177769,9.440751315,-55.23610115,-1.331112802,-0.693120236,9.565390253,1.71977549,2.972070693,-0.204728258
2.558231,-22.97235298,9.485932826,-55.28279113,-2.271104574,-1.926416122,6.58558363,-1.050522968,6.590128065,-3.148434788
2.566564,-22.96874142,9.491342543,-55.28700445,0.075960398,-0.419977289,11.50749451,-0.188767314,0.276387244,-0.508733924
2.574897,-22.97314263,9.53537798,-55.31593705,-2.92655392,-1.539013058,8.161717772,-0.716202885,5.647711457,-1.31434652
2.58323,-22.97403955,9.545131207,-55.31910895,-1.057775066,-0.612053535,12.83831155,-0.694927305,0.696960391,-0.131410558
2.591563,-22.95430756,9.592443228,-55.34251595,-2.709288925,-1.283683464,7.438569069,1.978380501,5.754273414,-0.617226482
2.599896,-22.97608519,9.614864826,-55.36491775,-0.73258327,-1.142229952,11.21829557,-2.758071125,2.985081675,-1.602097258
2.608229,-22.97516108,9.614500761,-55.37716483,-0.597926766,-1.811805725,8.270545603,-0.497300282,-0.015858175,-1.652694823
2.616562,-22.99839592,9.636695623,-55.39198305,-2.941009149,-1.044010662,11.7673862,-3.095720797,2.613417625,-0.802119546
2.624895,-22.98875046,9.650396824,-55.40262985,-2.050058633,-0.1017306,8.80688402,0.53359266,1.459094048,-0.783517219
2.633228,-22.98784876,9.690508128,-55.42806243,-1.000021637,-1.848948382,6.040520787,-0.040038232,5.096554519,-1.203244872
2.641561,-22.98474837,9.671065331,-55.44696045,-0.686079026,-0.515893258,12.18470568,0.019037753,-1.826388003,-3.162061558
2.649894,-22.98352575,9.691774369,-55.46251488,-2.610808268,-2.111135364,7.03374189,-0.267143697,2.500433206,-1.07609567
2.658227,-23.00077296,9.685935022,-55.47864913,-1.487579659,-0.782629978,16.22134447,-2.437790111,-0.455309272,-2.196699381
2.66656,-22.98870182,9.704419375,-55.49014855,-2.465442598,-0.972997546,5.317718029,0.879173748,2.067509173,-0.790721275
2.674893,-22.99017096,9.705613614,-55.50776673,-0.529599905,-0.898769327,10.87652934,-0.469934796,0.383981225,-1.996236473
2.683226,-22.97324324,9.693302632,-55.50512885,-1.328649104,-1.036894068,10.74161088,1.189989843,-1.995685578,-0.644012436
2.691559,-22.98701,9.68692422,-55.51965523,-2.472328335,-2.221084625,8.152997786,-2.045188099,-0.597891808,-2.034433365
2.699892,-22.98363876,9.681240082,-55.50710298,-2.325696648,-1.056843862,13.34886014,-0.592902243,-1.712250292,0.753641337
2.708225,-22.98447752,9.698093177,-55.51672363,-1.347476959,-0.871797958,4.182145833,-0.667273297,1.746471226,-0.481301101
2.716558,-22.98492289,9.664820671,-55.51115415,-0.422334053,-0.546499853,12.24540555,-0.802161545,-4.462435246,-1.172677651
2.724891,-22.96336985,9.661231042,-55.50945473,-2.967795015,-1.756969675,8.897169829,1.715545736,-1.016631605,-0.278048933
2.733224,-22.98013782,9.665893794,-55.51927568,-2.825710804,-1.422091365,13.06028986,-2.409394085,0.440804958,-1.061944015
2.741557,-22.96670008,9.679779053,-55.51508715,-1.512164578,-1.369202987,7.917550207,0.640394837,0.792022707,0.792959355
2.74989,-22.98037148,9.703070403,-55.5345993,-1.418869764,-0.923895977,9.162040414,-1.834421411,2.962419988,-1.28414115
2.758223,-22.96468163,9.692136526,-55.52651598,-1.121967316,-0.497319229,11.27684832,0.904784557,-2.129030169,0.112113521
2.766556,-22.96634769,9.727048159,-55.54151725,-2.947827507,-2.050706268,9.281114846,-0.57738971,4.032731175,-0.288409937
2.774889,-22.96145487,9.726923944,-55.53929328,-2.320123911,-0.619163547,12.08805746,-0.2103986,-0.675021768,0.045311637
2.783222,-22.95523215,9.794169427,-55.5618553,-1.82334999,-2.168616712,4.958095224,0.466893315,7.967912258,0.317981502
2.791555,-22.96181917,9.805273531,-55.55606273,-0.223039985,-0.221952963,12.65507937,-1.574910931,0.399795295,1.012985565
2.799888,-22.9520855,9.82548809,-55.56950568,-1.856577106,-1.200336821,8.355166078,0.649753064,2.338135243,-0.8740284
2.808221,-22.96417999,9.850607396,-55.57191085,-3.353847206,-2.111459911,13.13121009,-2.065141862,2.327557085,0.764773846
2.816554,-22.95535469,9.885660171,-55.58169745,-1.412428916,-0.420216871,7.70949328,0.454217494,3.82102251,0.17626441
2.824887,-22.97010136,9.931096315,-55.60424998,-1.512192846,-1.80060102,7.494118344,-1.98210372,5.494138064,-0.475694858
2.83322,-22.96176577,9.939869403,-55.59597015,-0.667598009,-0.497406743,14.03405106,0.092650101,0.076596394,0.986721248
2.841553,-22.969378,9.989238263,-55.60751913,-3.326205596,-1.447515607,7.293013364,-1.431477189,5.441696466,0.812397085
2.849886,-22.9612341,10.01241278,-55.6010685,-1.34795551,-0.671466008,12.67791688,0.180019975,1.750361978,1.506517373
2.858219,-22.9317255,10.05950904,-55.60909653,-2.177532375,-0.9532401,4.822724595,2.873382919,5.015900371,1.064607829
2.866552,-22.91922188,10.09010792,-55.61738015,-1.210985691,-1.211916488,10.35483933,1.090814904,3.238562583,0.329354212
2.874885,-22.87048674,10.12192822,-55.61878585,-1.379867733,-0.567619425,10.90624058,5.009522021,3.034537553,1.030986179
2.883218,-22.85292053,10.16683412,-55.63146018,-2.660320625,-1.786509961,9.830901145,1.767235637,5.026172636,0.481458075
2.891551,-22.79566193,10.19727349,-55.6215763,-1.24571231,-0.631671261,9.879839988,5.812578678,2.359716175,2.219797418
2.899884,-22.7617197,10.24561048,-55.62949373,-1.158749342,-1.613990471,7.040736674,3.582371816,5.189739884,1.113338769
2.908217,-22.70834923,10.23294735,-55.61114885,-0.097008795,-0.890325561,11.59659773,5.257837355,-2.785801232,1.1972958
2.91655,-22.65522194,10.24646807,-55.62312508,-3.15856579,-1.144458801,9.347600102,5.884624362,1.522488595,-1.003745199
2.924883,-22.59029103,10.2596097,-55.61508753,-2.103608884,-1.113986194,10.08605147,6.932355881,0.542550088,1.309220672
2.933216,-22.48781872,10.27275896,-55.61877253,-1.19638148,-0.47219828,7.81690228,11.57614374,1.118136645,-0.20034188
2.941549,-22.41512156,10.27064943,-55.60845185,-1.205854118,-1.369884677,8.950999616,7.857339444,-1.255441188,0.903222263
2.949882,-22.29381371,10.23894405,-55.59146693,-0.699845448,-0.378584251,10.13379967,13.40163255,-4.787980081,0.022873573
2.958215,-22.20851183,10.24326372,-55.58218195,-3.340714008,-1.977859438,11.78772545,9.349680544,-0.494491576,1.059673756
2.966548,-22.07627058,10.21947193,-55.55854988,-1.088261813,-0.747472678,10.02884196,14.61270285,-4.204311877,1.151795372
2.974881,-21.94264889,10.23623252,-55.55733875,-3.081699623,-0.575669317,8.4972457,15.24575281,1.260127723,0.665061131
2.983214,-21.81970882,10.2146163,-55.53611185,-0.465377115,-1.191280387,11.35366035,13.64676595,-3.857239603,1.085076839
2.991547,-21.67342854,10.21373892,-55.5294781,-1.925108314,-2.162426412,8.156525016,16.57720995,-0.930689812,0.406907931
2.99988,-21.55658531,10.20774698,-55.5074997,-1.961050291,-0.778394848,12.83466745,12.94763851,-2.153279303,1.940426477
3.008213,-21.41235161,10.20995927,-55.49692725,-2.267876521,-1.803995624,8.033313931,16.21288991,-0.753671648,0.962737374
3.016546,-21.29606772,10.21889758,-55.48585893,-1.748732507,-1.535996735,9.42441833,13.09128952,-0.00070691,1.370438755
3.024879,-21.16177988,10.18178868,-55.47439768,-0.138578743,0.136774574,9.086470606,15.07222295,-5.194133341,-0.56861034
3.033212,-21.02989864,10.18140841,-55.46755793,-3.318217725,-2.589291483,9.337172629,14.98963046,-0.850075781,0.436309785
3.041545,-20.91185904,10.16579008,-55.452116,-1.188267261,-1.514430762,13.66049922,13.10254502,-2.955742567,0.858281985
3.049878,-20.78915167,10.17500114,-55.4486408,-2.945161044,-1.380590141,5.819461703,13.87717318,0.379697084,0.384588376
3.058211,-20.69668674,10.16255498,-55.43982888,-0.482342403,-1.545146883,13.61192751,10.22657943,-2.312418938,0.289498612
3.066544,-20.59509039,10.15061045,-55.42271233,-1.612679795,-1.181805819,7.249833226,11.05610847,-2.570669412,1.03605447
3.074877,-20.51107788,10.14896464,-55.42398643,-2.400321726,-1.642791391,11.30818427,9.403550746,-0.681729081,-0.373574149
3.08321,-20.41025257,10.14084673,-55.40488815,-2.270257652,-0.942403347,11.04219651,10.94253564,-2.203039766,1.399837567
3.091543,-20.32072783,10.15349841,-55.40774918,-1.691794455,-1.997820884,3.251724722,10.05647373,0.985379755,0.018147753
3.099876,-20.22350359,10.12889862,-55.37866978,0.307380527,-0.376980908,14.46907747,10.38531566,-4.47235568,1.919380568
3.108209,-20.12267446,10.11540222,-55.37319373,-2.630627274,-1.410281033,8.10941875,11.1588211,-2.292132142,-0.202314019
3.116542,-20.03554058,10.10774899,-55.34752465,-2.959380061,-1.725956544,12.28857088,9.287387132,-2.413678646,2.264743999
3.124875,-19.91503382,10.10175729,-55.32936668,-1.107214436,-1.270684794,7.053280592,13.21972728,-1.954537155,1.479879081
3.133208,-19.83566904,10.07846904,-55.31669235,-1.324316986,-0.95555877,10.06691414,8.662377118,-3.65442276,0.23819013
3.141541,-19.71997452,10.04722452,-55.2938156,-1.39025712,-1.634348557,12.22648001,12.54319763,-4.993263842,1.018886797
3.149874,-19.62570334,10.04058814,-55.28671648,-2.767862875,-1.073659763,8.124391824,10.5186255,-1.536813258,0.225757495
3.158207,-19.49325943,9.98998928,-55.2640381,-0.861753077,0.039169431,7.211737872,14.6266768,-7.171427673,0.286117459
3.16654,-19.36325884,9.981491327,-55.24759483,-1.846412271,-2.459151983,10.29239285,14.58142686,-2.110030666,1.163638845
3.174873,-19.21425533,9.945555686,-55.22561648,-2.07190302,-0.104945014,13.20627856,16.66762638,-5.47749728,0.843794018
3.183206,-19.0608778,9.956786633,-55.21419145,-2.630653151,-1.452508561,7.795470893,17.42566156,0.323037863,1.358838857
3.191539,-18.89394093,9.929820299,-55.19169045,-1.139330952,-0.77305409,11.17850924,18.83765364,-4.473864556,1.29189609
3.199872,-18.70106983,9.944519999,-55.1594219,-1.707920864,-0.858645186,3.603827804,21.73242426,-0.066574217,3.81581527
3.208205,-18.50122404,9.922225951,-55.12400628,-0.532507628,-0.920636386,14.85285807,22.53193665,-4.42129326,2.959838569
3.216538,-18.26703596,9.939000128,-55.0817833,-4.080383301,-0.853334684,9.234049081,26.47066975,-0.166363715,4.993329048
3.224871,-18.00113154,9.971897604,-55.03901098,-1.557999112,0.518276491,7.32973835,30.29656029,1.627411246,5.871636272
3.233204,-17.6772399,10.0195694,-54.99046323,-2.120811313,-0.882028738,8.899114967,37.11747646,3.184340597,6.843492747
3.241537,-17.3191557,10.03862476,-54.93444635,-0.355941191,0.458442122,7.642347634,41.06951809,-0.35481763,6.82378757
3.24987,-16.92073298,10.07117057,-54.88007928,-3.093989641,-0.838051394,12.35107922,45.96101379,1.330499232,6.973927736
3.258203,-16.497468,10.09394813,-54.81676293,-1.308347285,-0.524896369,11.44028711,48.70287895,-0.072331429,7.737734318
3.266536,-16.05797935,10.11400628,-54.78005793,-2.675111175,-0.692621969,8.38586259,51.26432228,0.592923001,4.490124822
3.274869,-15.57290483,10.12872863,-54.72530938,-0.754002195,-0.572443769,10.79087949,56.27983284,-0.591373444,6.441700101
3.283202,-15.08772159,10.14049769,-54.68803023,-2.200214625,-0.747639418,8.407406987,56.7642088,-0.309985757,4.325452686
3.291535,-14.54622722,10.14093089,-54.63460925,-0.418069974,-0.753838971,9.312193035,63.06328011,-2.09659326,5.867137969
3.299868,-14.01176477,10.14396548,-54.605999,-3.269500494,-1.291752569,12.43971801,62.84405327,-0.981870353,3.020758152
3.308201,-13.42770005,10.15346527,-54.53484535,-1.322095409,-0.575890586,5.99636662,67.81280136,-1.405782461,8.151792765
3.316534,-12.85643911,10.14473033,-54.49759483,-1.288542748,-0.903799593,11.9004966,67.09220028,-2.522812128,3.718769848
3.324867,-12.24787259,10.11337566,-54.41310503,-1.4534771,-1.518514097,11.26149809,70.47735405,-6.362935305,8.660233021
3.3332,-11.66847658,10.09897971,-54.37138938,-2.543884069,-1.245573133,9.80213976,67.96570015,-3.212738931,4.12054348
3.341533,-11.05368948,10.0812223,-54.29023935,-2.373879559,-1.340393216,11.47977459,71.29537774,-4.496210515,8.699828744
3.349866,-10.44892121,10.06297922,-54.24144748,-0.999188394,-0.782179449,10.45702088,70.86781693,-3.732026577,4.945654035
3.358199,-9.824594736,10.05154705,-54.15913963,-2.315321207,-1.372634053,8.236964941,72.43598938,-3.576745073,9.047370792
3.366532,-9.203835964,10.03328586,-54.10235215,-1.239491135,-0.86431931,10.38874471,72.59902763,-3.777993181,5.924635649
3.374865,-8.563817501,10.03715706,-54.02663613,-2.933646679,-1.477181927,9.980513335,74.47779465,-1.43222636,8.615010739
3.383198,-7.931716681,10.03084326,-53.96112633,0.034930885,-1.228696764,8.59437847,73.78436851,-2.366521985,7.219518662
3.391531,-7.30678916,10.02868581,-53.89678763,-2.815868631,-1.693659365,10.50538087,72.90021706,-1.77342239,7.200435281
3.399864,-6.660660625,10.05984998,-53.82527923,-2.895527721,-1.041363269,8.09785056,75.33048439,2.177367211,8.49162662
3.408197,-6.02138412,10.08721423,-53.75865363,-1.031935483,-1.215626657,11.78370762,74.59231758,1.893657446,7.837537646
3.41653,-5.377980233,10.12427115,-53.69259453,-2.609847784,-2.11346972,13.36811757,75.12016487,3.144069679,7.854263306
3.424863,-4.742809057,10.17261434,-53.6181793,-1.918084983,-0.593301192,9.55532074,73.91854858,4.50619173,8.840216757
3.433196,-4.111249567,10.20861459,-53.55045318,-1.312345363,-1.384045102,6.194996654,73.66429138,3.185792983,7.956065893
3.441529,-3.458580613,10.25383163,-53.47459795,-1.576280922,-1.935544401,5.965434134,75.98477745,4.324355841,8.863073112
3.449862,-2.806333125,10.29035306,-53.406065,-1.242928393,-0.167134121,12.30643219,76.10171509,3.427387124,7.922603011
3.458195,-2.150478781,10.34769726,-53.33321573,-2.752796948,-1.378750175,13.82661057,76.43836784,6.006998717,8.436736941
3.466528,-1.485467106,10.37945747,-53.26036455,-0.204645936,-2.041861385,12.34050155,77.53263474,3.028354883,8.330597043
3.474861,-0.819281236,10.39975452,-53.19623185,-2.609787688,-0.023695112,8.196236134,77.84434319,1.781559229,7.133740664
3.483194,-0.13613228,10.43348598,-53.11405563,-0.885504099,-1.441634864,4.529059872,79.5234356,3.463097453,9.358190297
3.491527,0.564943373,10.41362023,-53.06028365,-0.667811304,-1.768178761,8.19761093,82.23175239,-2.86942336,5.895327449
3.49986,1.243909866,10.42720962,-52.99188998,-2.681174874,-0.825854849,14.16894627,79.3205471,1.252391771,7.642655253
3.508193,1.936681688,10.40945482,-52.94539073,-0.625580683,-1.174322203,12.82283068,81.40382767,-2.48844727,5.090651155
3.516526,2.618779659,10.37085581,-52.88519288,-1.717727436,-2.483994305,12.02670336,79.87833977,-4.853324965,6.880656242
3.524859,3.262879133,10.32981372,-52.84558295,0.055325717,-1.35713856,6.710757495,75.72169495,-5.191822172,4.446643889
3.533192,3.923323214,10.25472951,-52.80874253,-1.645882614,-1.57226193,7.819833159,77.7713089,-9.226836382,4.578316361
3.541525,4.56643939,10.18613792,-52.75979995,-1.725309536,-1.519595884,10.84485638,75.43021202,-8.292864084,5.914950073
3.549858,5.196503401,10.09954238,-52.73586845,-1.065835536,-1.426339477,11.0169481,74.39966202,-10.62381555,3.360156477
3.558191,5.803034187,10.00676465,-52.69538308,-2.070068791,-2.338827551,12.98121488,71.23180962,-11.13434959,5.405301392
3.566524,6.374093771,9.895098448,-52.66777038,-0.07047984,-1.155452669,6.288246065,67.2663002,-13.48897958,4.29825896
3.574857,6.936908007,9.788951399,-52.63983918,-1.682871059,-1.864298493,10.72790361,66.24037934,-12.78487742,4.350538075
3.58319,7.470796347,9.662091017,-52.62075423,-1.521006584,-2.059858412,9.875341892,63.00304413,-15.33044618,3.774598151
3.591523,7.984413624,9.563152909,-52.5980091,-2.346606724,-1.784647787,11.2952652,60.42845345,-11.90312016,3.986466229
3.599856,8.444115162,9.440658212,-52.56668853,-0.9849125,-2.28276968,14.40997362,53.87278271,-14.53355086,5.388137907
3.608189,8.888253212,9.353081345,-52.54805183,-3.112342149,-1.696311476,5.739353954,52.20172501,-10.55171764,3.466787428
3.616522,9.305010319,9.213917851,-52.51387788,0.92952095,-1.554512396,10.259233,48.65383148,-16.3642149,6.304692954
3.624855,9.676404238,9.143538834,-52.50938225,-3.865210474,-2.329028696,8.167075277,43.77406025,-8.736337246,1.591047704
3.633188,10.04327583,9.028681754,-52.47220995,0.793358722,-2.192050934,13.20625973,42.59411526,-13.34072244,6.406276882
3.641521,10.33604241,8.966087103,-52.46918295,-5.141749799,-1.572346568,8.120559096,34.39139414,-7.817893984,1.356109187
3.649854,10.63637281,8.861476183,-52.41851045,1.69647646,-1.676512607,10.84901464,34.35548496,-11.76532876,7.911225319
3.658187,10.88521886,8.806664228,-52.4169941,-5.326714575,-1.733425871,11.68090963,29.16356278,-6.914466858,1.089769509
3.66652,11.14082813,8.72116375,-52.34903905,2.500092298,-1.780615524,4.015270592,28.69674206,-9.04767254,9.576925038
3.674853,11.329144,8.696435332,-52.34426883,-5.225054205,-2.15490076,15.00234914,21.82012129,-3.286903739,0.831179514
3.683186,11.52616644,8.630307078,-52.2651024,1.892375021,-0.777145224,8.876245083,21.49991083,-6.430702866,10.46740508
3.691519,11.67942643,8.620799661,-52.26594545,-5.668005704,-1.719825134,13.1216017,17.6819191,-1.628633507,-0.138134241
3.699852,11.84634662,8.573841333,-52.18834115,1.359202445,-1.654341336,4.939743577,17.99400044,-4.166137934,9.722704052
3.708185,11.98353768,8.568315506,-52.17313768,-2.885428071,-0.805051979,12.7186079,15.43782258,-0.774079324,1.641434353
3.716518,12.09811306,8.517126441,-52.1048336,0.192690373,-1.434936464,7.782931745,11.90679741,-4.849676966,8.720968485
3.724851,12.22758961,8.529236913,-52.07970618,-3.156259865,-1.380246684,13.97582841,14.3233912,1.546331405,2.340819239
3.733184,12.33980346,8.445643902,-52.02582173,-0.821928591,-0.824195418,5.966221332,11.92036927,-8.978445293,7.874828935
3.741517,12.45839143,8.472794533,-52.0035858,-0.664953888,-0.142702956,7.762268049,13.07262516,3.244976995,1.590741307
3.74985,12.55448294,8.376862884,-51.96608353,-1.67303443,-2.797085435,13.86570957,10.2541635,-10.80771944,6.380123973
3.758183,12.66404986,8.40766263,-51.92471505,-1.403652422,0.188047469,7.236427249,11.68647039,4.17452396,3.671004683
3.766516,12.78265452,8.271781683,-51.90940668,-1.177953601,-0.505667042,9.340374171,13.31214261,-16.03591907,4.954253078
3.774849,12.89680028,8.270919204,-51.8609314,-1.106229604,-1.360012412,7.138426603,12.19113338,0.682296157,5.294665516
3.783182,13.01675415,8.13987732,-51.85962868,-1.282673955,-0.642110091,14.54879737,13.62322307,-15.81629317,3.36971137
3.791515,13.12940645,8.116060973,-51.80677223,-1.891298235,-1.061987892,9.162744998,12.0029521,-1.840688228,6.454905987
3.799848,13.25214625,7.970854759,-51.80994415,-0.793139175,-0.697166188,6.177553916,14.02868414,-17.57284856,3.306706831
3.808181,13.37055969,7.900555253,-51.76222228,-0.268866926,-1.28766717,12.36717957,12.78081941,-7.387767285,7.165363908
3.816514,13.49497795,7.770299077,-51.77913093,-3.55565628,-0.254586458,8.970355393,14.49696255,-16.19979352,1.287954822
3.824847,13.62399984,7.686031103,-51.7363739,1.494688858,-1.736305945,11.12725091,14.11272216,-9.123262705,7.049856663
3.83318,13.72074461,7.529659152,-51.77997783,-4.866241597,-0.724898265,8.957860351,11.63749695,-19.98291922,-0.996816069
3.841513,13.82905388,7.450866342,-51.7447624,2.300317645,-0.744167819,9.406044303,11.76837146,-8.665337443,6.061092451
3.849846,13.92989302,7.301525593,-51.81128503,-4.952588648,-1.338068992,10.79531539,12.40675807,-19.83200812,-3.7513026
3.858179,14.05811572,7.229428172,-51.7717781,0.387485698,-1.07325723,8.302990317,14.16070295,-7.737420217,6.361784519
3.866512,14.17306233,7.111868977,-51.82838253,-4.230255246,0.823276386,11.16433167,13.92121887,-15.85325063,-3.449048221
3.874845,14.28295779,7.035545469,-51.7868824,2.662394285,-2.461117297,11.95225096,11.912637,-8.145112396,6.793752223
3.883178,14.39729905,6.958620667,-51.82120708,-7.858120918,-1.003151685,7.978976965,13.55739832,-10.47699806,-2.052109778
3.891511,14.51850081,6.888864875,-51.77335743,4.572580934,0.07840062,8.088776031,13.17552161,-7.172244907,7.340417981
3.899844,14.61578774,6.824401379,-51.8168049,-7.325669408,-1.646318645,14.18853045,11.59483623,-9.313715754,-3.407369614
3.908177,14.72298598,6.772220135,-51.77508738,3.012003005,-1.420816581,8.415827871,11.64912844,-5.279235899,6.111261115
3.91651,14.80034161,6.746420503,-51.81200028,-5.551093817,-0.483434424,9.076621772,9.084999322,-4.637255788,-3.792780489
3.924843,14.85984087,6.691946506,-51.78427315,3.349786252,-2.301491439,15.33817911,6.091139317,-5.960503937,4.61468342
3.933176,14.90096855,6.71431756,-51.79958725,-7.823204757,-0.302428134,10.14346391,4.503008366,1.585179031,-2.918979198
3.941509,14.94930792,6.659585118,-51.78341865,4.355821133,-0.748004889,5.16744107,4.886233211,-6.35329795,3.281699657
3.949842,14.97142697,6.683730364,-51.7897167,-5.935150311,-1.62515688,12.48471013,2.089087546,2.058894664,-1.937720137
3.958175,14.99106765,6.650559068,-51.7762642,2.303216577,-0.854564071,9.348774789,1.52373007,-3.928154111,2.266850323
3.966508,15.00530935,6.685419321,-51.77096748,-4.108032108,-0.618271552,9.906388165,0.945584864,3.658395126,-0.902523965
3.974841,15.00205374,6.649574876,-51.7666454,-0.545296669,-1.284155608,10.99823189,-1.075756431,-4.530656308,1.268967668
3.983174,14.99980855,6.696652889,-51.74377443,-2.307919279,-0.611976631,7.236458838,-1.234807968,5.633607805,0.74448739
3.991507,15.00183535,6.646480441,-51.75156023,0.298114393,-0.898406074,8.259476185,-0.334483385,-6.562210485,0.389096206
3.99984,15.00657511,6.684272289,-51.72955133,-2.491882742,-0.278806702,10.42690194,-0.358829707,4.524178505,0.912827298
4.008173,15.00488949,6.661185742,-51.74122238,-1.836751331,-0.867016792,10.75359035,-0.705870405,-3.544914485,-0.944566608
4.016506,14.99196148,6.67266357,-51.72063445,0.859387368,-1.504489467,12.92265153,-2.502004534,1.426216647,1.607129976
4.024839,14.9667151,6.640751362,-51.73957445,-3.881083787,-0.23887232,6.822476745,-3.377919376,-4.788841845,-1.537616327
4.033172,14.94589019,6.63250351,-51.71749115,2.679288089,-1.011787906,8.621826053,-3.491582275,-0.773527145,2.531003475
4.041505,14.92080951,6.581382632,-51.75167658,-4.875350535,-1.218950629,13.2415781,-3.213434249,-7.480180293,-2.628549099
4.049838,14.89878249,6.555895567,-51.72825048,1.024197064,-0.308927067,9.780612705,-3.576804176,-2.76319146,3.071348757
4.058171,14.85247326,6.510165811,-51.76156808,-3.048281908,-0.799317021,8.654296757,-5.765889704,-6.828070821,-2.732632458
4.066504,14.81893301,6.441260338,-51.7460251,2.704509437,-1.620065629,11.80935121,-4.904284805,-8.027608544,3.617476493
4.074837,14.77359557,6.40380919,-51.78026388,-6.700485766,0.22354243,10.57010436,-5.600972593,-5.875381231,-3.082116628
4.08317,14.7368002,6.321128845,-51.7611618,3.516072691,-1.042632222,7.2730608,-5.336057007,-9.522979856,4.430785932
4.091503,14.70525146,6.26664424,-51.80130768,-4.897044584,-0.4236129,12.25203848,-3.928292409,-8.038151711,-3.233915849
4.099836,14.68208384,6.171659589,-51.79147908,2.01195924,-0.331070271,10.19313532,-3.529891104,-11.24183386,3.687902749
4.108169,14.63746548,6.132725954,-51.82403183,-5.05892998,-1.742567956,8.144495846,-5.570933581,-6.003850251,-2.896755841
4.116502,14.61161757,6.034115553,-51.8173542,3.212837756,-0.309220013,11.37877583,-3.864987239,-11.76499617,3.455418736
4.124835,14.56199599,6.010649443,-51.85837363,-6.720745512,-0.457508005,12.81219196,-6.056828737,-4.45152054,-4.329561442
4.133168,14.51680041,5.916066408,-51.8432274,1.606727183,-1.450378656,9.295022726,-6.255497158,-11.05161619,4.276959717
4.141501,14.46950817,5.916414023,-51.87018395,-3.965638668,-0.292099314,7.89714843,-5.971364319,-1.254166186,-3.409674823
4.149834,14.44071078,5.820662856,-51.86603165,2.455422401,-0.518200532,8.609481215,-4.188315958,-11.52115828,3.062973023
4.158167,14.40148592,5.825269938,-51.87500763,-5.652350903,-1.609348908,12.80302167,-5.191048384,-0.223999858,-1.478709787
4.1665,14.3624208,5.75545454,-51.86899188,1.16465658,0.319730602,11.52372015,-5.425784528,-8.452855469,2.47283721
4.174833,14.33241582,5.779036522,-51.87832833,-4.228598654,-0.638273954,8.371803642,-4.100489996,1.976102999,-2.079155684
4.183166,14.30417681,5.685703874,-51.87366105,1.964704335,-1.566888288,9.873003604,-4.114511371,-11.25163191,2.963147938
4.191499,14.23702979,5.720907092,-51.88560868,-4.430056334,-0.797886253,12.69670057,-8.509258032,3.246662327,-2.733404279
4.199832,14.19535446,5.654267669,-51.87372973,0.489841819,-0.608200319,6.535155952,-5.793412,-7.918913962,3.018240601
4.208165,14.13409162,5.681518316,-51.88323403,-2.217249334,-1.442736078,8.246457219,-7.853670836,2.398017466,-2.182694614
4.216498,14.07027984,5.601690591,-51.881546,-0.217169825,-0.553745225,13.72520947,-8.352202057,-9.779786528,2.16605258
4.224831,13.99701309,5.651338816,-51.88076783,-4.42623353,-0.675073534,12.39601684,-9.367780567,5.31096843,-1.662367612
4.233164,13.91872883,5.583666623,-51.87020493,-0.173193723,-1.174714104,7.322282553,-10.1692338,-8.110476016,2.815261126
4.241497,13.8214562,5.622326076,-51.86553003,-0.306424489,-0.721705102,8.865612745,-12.33615351,4.144470632,-0.843790919
4.24983,13.73351431,5.556080103,-51.86588863,-1.480963588,-0.692194134,10.78936624,-11.21364164,-8.266243219,1.490473211
4.258163,13.6315608,5.590925634,-51.85074808,-2.427297711,-0.88332662,11.23152256,-12.97639513,3.992344499,0.465023354
4.266496,13.5273807,5.543598116,-51.8510971,-2.384727709,-0.488938019,11.5000602,-13.1609075,-6.056557775,0.957479596
4.274829,13.42015672,5.589841068,-51.8305721,-0.771171671,-0.832773924,8.222074747,-13.6775198,5.481350989,0.817324743
4.283162,13.31124664,5.525457084,-51.83617783,-1.267538011,-1.048431054,6.740626931,-13.68253541,-8.212842449,0.770351641
4.291495,13.18011403,5.572266519,-51.81697655,-0.538971573,-0.595635161,13.57098222,-16.53821612,5.493813381,0.653973062
4.299828,13.06183315,5.544406951,-51.82028008,-3.643804133,-0.497380831,11.11529636,-14.8042202,-3.868064239,0.048817739
4.308161,12.94509625,5.609131336,-51.7855625,-1.351618111,-1.183544666,8.58282268,-14.96683097,8.008081616,2.010426879
4.316494,12.83040452,5.597533763,-51.79517745,-2.329624042,0.887592271,10.44671845,-14.33114243,-2.14542006,-1.150498495
4.324827,12.72526646,5.680610657,-51.76257705,-0.576537579,-0.459059961,9.563968539,-13.55735612,10.09123069,1.310165137
4.33316,12.63273764,5.675331593,-51.77122878,-1.966335431,-0.965895101,8.37246394,-11.66971588,-1.383386605,-1.222554803
4.341493,12.53936624,5.775301457,-51.74736978,-1.052352131,0.010909405,12.48726654,-12.04834008,11.83303976,-0.108242989
4.349826,12.46979237,5.80338192,-51.75725173,-3.800060257,0.449150596,11.46269572,-8.877741457,2.504313857,-2.233692855
4.358159,12.41343045,5.907553315,-51.7383194,-0.969585836,-1.134554744,6.855587065,-7.540050864,12.2007736,-0.759321518
4.366492,12.36772156,5.936249972,-51.75597383,-0.990654036,0.555492252,7.842264296,-5.941619396,2.373793483,-3.155318618
4.374825,12.32605147,6.032951594,-51.73778728,-0.503305972,-0.485635251,10.58315015,-5.7768085,11.30283129,-0.648684189
4.383158,12.30037355,6.060239076,-51.74949645,-1.865543947,-0.644476175,9.921792509,-3.598073602,2.356535316,-2.433691919
4.391491,12.27307773,6.170531392,-51.7414894,-3.175816834,-0.433807373,13.00050998,-3.913916275,12.6252544,-2.23502782
4.399824,12.25860357,6.222667575,-51.73641778,-1.492615149,0.407374006,10.5633806,-2.448234379,5.705741167,-1.102542564
4.408157,12.25678134,6.315793514,-51.73344613,-1.167497099,-1.189658009,5.738257885,-0.794483401,10.49238909,-2.350625038
4.41649,12.25524402,6.354352832,-51.7275448,0.613863904,0.588933557,10.67613459,-0.939859826,4.127910331,-0.644463942
4.424823,12.26795006,6.440379501,-51.74010468,-3.226818681,-0.716001704,13.75841642,1.15127958,9.274205087,-3.941432954
4.433156,12.29421663,6.482994795,-51.71703148,-1.118714818,-0.185725112,9.047726631,2.20128429,5.042806387,1.239293754
4.441489,12.31545615,6.561613083,-51.75271988,-2.553393364,-0.356440136,11.10770607,2.482339382,7.804668068,-6.47171998
4.449822,12.35403919,6.609749555,-51.71146965,-0.325171802,-0.448490351,7.018741489,3.443568341,6.165773093,3.203066945
4.458155,12.37641955,6.650496364,-51.7628231,-0.546897263,-0.691634754,8.200728179,2.81843707,2.952146277,-7.320075479
4.466488,12.40544606,6.684948802,-51.72315408,-1.535355993,-0.598727383,13.12038207,2.308822475,4.52688098,3.383329809
4.474821,12.43214393,6.716008425,-51.7824936,-2.414785087,-0.159058281,11.13731932,3.476011872,1.602074564,-8.011371792
4.483154,12.44871116,6.733484626,-51.74428748,-1.976349112,-1.436700925,9.664199352,0.854500532,2.51821556,3.652990224
4.491487,12.45442057,6.749719858,-51.8110466,0.813564003,0.154676847,8.894910931,1.033608077,-0.345395267,-8.490069866
4.49982,12.46736193,6.74359417,-51.78997613,-2.311270908,-1.672119111,8.517539858,0.655977547,-0.681793273,2.267877698
4.508153,12.45475149,6.742860436,-51.84407808,0.237142831,-0.032278028,13.41610456,-1.341577739,-2.015321791,-6.56441994
4.516486,12.45457005,6.750391722,-51.83420183,-5.141595185,-0.823302061,11.45743084,-0.741983474,0.638402641,0.613457769
4.524819,12.44140029,6.76107049,-51.86836435,1.048368733,-0.23835089,7.932123184,-1.673746161,-0.158206359,-4.523183018
4.533152,12.43459726,6.750341892,-51.86923405,-2.778182909,-0.788752809,9.961448192,-1.416416019,-1.777458191,-0.14470482
4.541485,12.42053604,6.754157782,-51.89138603,0.672501479,-0.404295921,8.254042387,-1.933234305,-0.657584606,-2.96477437
4.549818,12.3931799,6.73722291,-51.91743663,-3.48512955,-1.150839556,11.98064864,-3.528559595,-3.155321747,-2.928242207
4.558151,12.36363578,6.753770352,-51.92053223,-0.690374248,-0.537988641,10.39537799,-4.029570651,1.336887173,-1.06916704
4.566484,12.33117986,6.730905771,-51.9564247,-2.557257325,-0.23903808,7.74432993,-4.026888192,-4.106970877,-3.91828391
4.574817,12.28782916,6.73473227,-51.95980073,-0.497301934,-1.054254845,11.50533652,-5.690446138,-0.158833623,-0.772234007
4.58315,12.22884774,6.719287872,-51.99456975,-2.187987447,-0.584690537,12.39378762,-7.223800539,-3.208900198,-3.977554619
4.591483,12.17734623,6.708583355,-51.98747828,-1.299763218,-0.58286693,7.246228695,-6.782784462,-1.592430592,0.810213536
4.599816,12.10019422,6.702571392,-52.02103995,-1.189247172,-0.635444679,9.916378499,-9.436131598,-2.066108309,-4.081980884
4.608149,12.03572679,6.684909702,-52.02046588,-1.320364475,-0.784274966,10.40611625,-8.256522149,-2.575309694,0.213110462
4.616482,11.96103812,6.670645595,-52.04195408,-1.600805104,-0.245156415,8.828036069,-9.292268992,-2.735036865,-2.504701018
4.624815,11.87299442,6.656371474,-52.05735208,-2.373812944,-0.865957596,13.57161283,-10.87170768,-2.571150944,-1.713291556
4.633148,11.79176664,6.673702955,-52.06578255,-2.70793274,-0.407141075,9.312837125,-10.23514211,1.317974448,-1.741576016
4.641481,11.70013142,6.658927918,-52.078743,-0.280241374,-0.232468866,5.757816911,-11.33931351,-2.578854203,-1.452096671
4.649814,11.60178542,6.682469964,-52.10077665,-1.801680163,-0.774390057,11.80933118,-12.13576817,1.728446126,-3.427745789
4.658147,11.51216316,6.687235475,-52.1115818,-0.902362186,-0.348521322,12.27976156,-11.12135935,-0.221467257,-1.639781931
4.66648,11.42681432,6.704536677,-52.13622285,-3.249424398,0.278396884,11.01821375,-10.50799775,0.938515336,-3.624747932
4.674813,11.34311462,6.731984854,-52.1374569,-1.098277502,-0.353916343,10.55382764,-10.53315329,2.674103841,-1.073492531
4.683146,11.27900338,6.756016612,-52.16610718,-2.368838996,0.049508661,6.204511463,-7.907137631,1.65094018,-4.229195655
4.691479,11.21743751,6.765618205,-52.16181185,0.0790967,-0.537129451,6.13179946,-7.960084915,0.709283635,0.023606815
4.699812,11.16117239,6.782216668,-52.1936245,-1.513055518,0.095570356,13.450315,-6.948102056,0.690774351,-4.440160692
4.708145,11.12911844,6.807627559,-52.18638043,-2.679054395,-0.086311504,12.71341324,-4.428897023,2.647110134,-0.016553223
4.716478,11.09857774,6.841365337,-52.19672013,-1.716143936,-0.239291925,10.67055988,-4.131111823,3.202547789,-2.367984802
4.724811,11.07173562,6.86740315,-52.20621493,-1.234002516,0.098629971,9.359738468,-3.587001637,2.327658292,-2.004442118
4.733144,11.05820966,6.905728817,-52.21237375,-1.727775589,-0.393832192,7.905421734,-2.145707607,3.849124879,-1.955041796
4.741477,11.04915119,6.912694097,-52.22556875,-0.289569892,-0.30792851,8.509672283,-1.399449833,-0.009979904,-1.992393732
4.74981,11.0340674,6.951512218,-52.24077035,-2.532232344,-0.241417967,13.54781509,-2.208062455,3.699973345,-3.029840827
4.758143,11.03535294,6.972112775,-52.2407398,-1.219930783,-0.429436579,10.60627079,-0.320760437,1.900800169,-0.784387862
4.766476,11.04152632,6.988271594,-52.25818443,-1.763788566,-0.250235275,8.537291766,0.376042605,0.977083981,-2.77853635
4.774809,11.04419899,6.992172599,-52.25512885,-0.829112723,-0.089241121,9.098996639,-0.215009168,0.005990445,-0.011244684
4.783142,11.05452967,7.005241036,-52.27104568,-1.962099075,-0.43722752,10.192047,0.855864466,0.648533195,-2.513989091
4.791475,11.06853414,7.00709486,-52.25923538,-1.801725701,-0.907062397,9.16588962,1.04109063,-0.033282459,1.040898502
4.799808,11.06119537,7.035127878,-52.2716465,-0.799730465,0.025348425,12.60765743,-1.330441907,2.493251264,-2.421457674
4.808141,11.06916738,7.036420584,-52.2738495,-1.888138861,-0.612792432,11.28757119,0.510549158,-0.412408319,-0.556389295
4.816474,11.06674123,7.050934434,-52.27560425,-0.99513536,-0.458340079,7.376805425,-0.877149791,1.141555883,-0.872516953
4.824807,11.05475306,7.045029759,-52.2998829,-2.421570569,-0.397469334,10.55201614,-1.571852781,-1.770273436,-2.962135822
4.83314,11.04933334,7.067595482,-52.2942085,-2.094763935,-0.510134407,9.048228501,-1.324374493,2.276865482,-0.172492653
4.841473,11.0358634,7.057789922,-52.31019975,-0.026598215,-0.543751925,6.641952753,-1.880626067,-2.049715214,-1.909432322
4.849806,11.01293135,7.070713878,-52.31623653,-1.731372729,-0.524576574,12.98982644,-3.277347759,0.869718507,-1.31864968
4.858139,10.9821055,7.089552403,-52.31573868,-2.104817063,-0.890215996,11.7895782,-4.170728088,1.704025507,-0.645113692
4.866472,10.95161963,7.109920621,-52.32014655,-2.103731513,-0.271576181,7.870606542,-4.193172246,1.779546022,-1.326414063
4.874805,10.90591884,7.135322571,-52.32222365,-1.48538509,-0.082630076,8.5839473,-5.933095932,2.420986921,-1.084839702
4.883138,10.8603828,7.152266026,-52.32117653,-0.622498417,-0.817545295,11.47935796,-6.092160344,1.491946113,-0.613729879
4.891471,10.81270647,7.167396784,-52.32661058,-1.960880138,-0.489435241,9.792840004,-6.096838117,1.131774634,-1.281566679
4.899804,10.75183249,7.206326366,-52.32572173,-1.597269118,0.015175633,11.20411468,-7.917869687,4.080786556,-1.140918978
4.908137,10.70268655,7.229121089,-52.32843973,-1.870990485,-0.727231581,7.947939872,-6.317569062,2.099707656,-1.1194318
4.91647,10.65932894,7.249791265,-52.32059478,-1.209855877,-0.251574524,6.549450636,-5.920550883,2.082014486,0.088276256
4.924803,10.60841346,7.262941122,-52.3243389,-1.292421252,0.215266926,12.20410681,-6.527362407,0.93242532,-1.012322649
4.933136,10.56847382,7.290798783,-52.31324195,-2.198215813,-0.571302019,12.83633924,-5.546042497,3.005087674,0.309592888
4.941469,10.53283811,7.316156983,-52.29763033,-1.619795293,-0.212388046,6.47450912,-4.959630177,2.798297861,0.965560667
4.949802,10.49165892,7.342842579,-52.30101395,-0.748308472,0.518081151,8.339755297,-5.500964522,2.547553566,-1.343517892
4.958135,10.46936631,7.370900869,-52.28868675,-2.458182275,-0.687195501,11.05827546,-3.316460729,3.044751331,0.528015033
4.966468,10.4588418,7.39911747,-52.28321458,-0.785568487,0.238235216,11.13960767,-1.943928346,2.91581881,-0.340986271
4.974801,10.44487309,7.433323503,-52.28318213,-2.845169574,0.030784897,11.60605288,-2.111592859,3.485095322,-1.145535846
4.983134,10.45616841,7.477681518,-52.25844193,-1.169508561,-0.610787504,5.944923937,0.389838934,5.253582366,1.595626093
4.991467,10.47040463,7.491903425,-52.26015093,-0.239283525,0.407924825,5.866536498,1.271084026,1.095991537,-0.824451804
4.9998,10.49118304,7.521842241,-52.2442322,-1.755868733,-0.45410721,14.23088598,1.64257358,3.350745227,0.848272982
5.008133,10.52270079,7.553978801,-52.23311043,-2.146360278,-0.497960565,11.46405697,3.180058748,3.494108215,0.272215273
5.016466,10.55138517,7.568700195,-52.21718025,-1.149957568,0.112645701,8.109630227,2.60324195,1.55306153,1.156575568
5.024799,10.57559109,7.589777708,-52.20724105,-1.419972919,-0.443805438,8.916298271,2.301659882,2.166128576,0.398394197
5.033132,10.61171913,7.593758106,-52.1915779,-0.192728927,-0.592203908,10.70604944,3.496128679,0.284061879,1.378952056
5.041465,10.63076902,7.585966825,-52.19702913,-1.512023721,0.010099238,11.47425461,1.931883365,-1.572621104,-0.758123733
5.049798,10.66535497,7.591760039,-52.1840229,-2.211773187,-0.578695512,7.782607555,3.366328612,0.443789005,1.025366698
5.058131,10.69357181,7.574569583,-52.20310593,-0.877566419,0.029663522,8.204142213,3.23825758,-2.983242154,-2.128482312
5.066464,10.73000527,7.557472229,-52.18993378,-1.74568525,-0.583591364,12.76302695,3.584725261,-2.248388965,1.553279236
5.074797,10.75810957,7.528049589,-52.19914055,-0.508083262,-0.321428735,9.668306589,3.086480599,-4.215780243,-0.731920392
5.08313,10.77344895,7.488296151,-52.19799613,-1.710056856,-0.725879714,9.623500347,1.223726437,-5.180098236,0.705067083
5.091463,10.79880071,7.456825137,-52.20065688,-1.544150889,-0.536685325,9.232234836,2.666156717,-4.298795655,0.11022445
5.099796,10.80758333,7.403195739,-52.1996975,-1.038776632,-0.163088016,11.78721166,0.444493301,-6.818381488,1.005874328
5.108129,10.82265329,7.356477499,-52.21022608,-1.356063969,-0.346803203,10.54727197,1.529336363,-6.269981146,-0.419225067
5.116462,10.83899188,7.30103004,-52.21209908,-1.743689723,-0.508300968,8.105602742,1.404723322,-7.090975463,0.717246667
5.124795,10.83557558,7.24709034,-52.21713448,-1.149646998,-0.970190495,11.2626493,-0.770578638,-6.999832788,0.403581143
5.133128,10.84185577,7.186548948,-52.22855568,-1.772348091,0.108687117,10.02642441,0.348062325,-7.906580923,-0.30068551
5.141461,10.81763315,7.130979299,-52.23237038,-1.040582393,-0.988935754,9.575481176,-3.276381165,-7.160226345,0.576480374
5.149794,10.80275178,7.063989043,-52.25084498,-1.22216402,-0.803142689,7.812038183,-2.108531837,-8.822327377,-0.95103097
5.158127,10.77063155,6.993173719,-52.2518883,-1.747442305,-0.394748319,9.882197022,-4.250852406,-8.901795984,1.200408027
5.16646,10.71120477,6.944205523,-52.27415085,-1.555876143,-1.244073525,13.0948236,-7.41581428,-6.788668811,-1.800965744
5.174793,10.65714026,6.898379922,-52.27470398,-2.882001192,-0.587846915,10.79027104,-6.871813386,-5.931693867,0.72026281
5.183126,10.57415891,6.855534315,-52.28378295,-0.526372969,0.114769785,8.807157159,-10.4196254,-5.774297834,-0.42136373
5.191459,10.49177551,6.81644845,-52.2911873,-1.735932201,-0.610563852,7.101594806,-10.19210076,-5.3053267,-0.277716048
5.199792,10.41293311,6.782358647,-52.29531288,-1.36870186,-0.572059915,9.523739577,-9.991432905,-4.638428092,-0.091218684
5.208125,10.31406855,6.764036894,-52.2917118,-2.125562072,-0.174774781,14.38366962,-12.31709028,-2.623295069,0.544731557
5.216458,10.22794771,6.754800677,-52.29115868,-2.41419375,0.048224993,10.31853366,-10.92256486,-1.597002745,-0.051148445
5.224791,10.13417268,6.756711722,-52.2796955,-1.866278194,-0.429038186,6.010899246,-11.80894137,-0.058679022,1.069368733
5.233124,10.04348826,6.747675538,-52.27572253,-0.881657548,0.170606624,8.22820723,-11.53993154,-1.499562834,0.386730166
5.241457,9.958919286,6.745806098,-52.26753045,-1.44247365,-0.233985236,9.40237105,-10.65667534,-0.582198739,0.743735005
5.24979,9.864248037,6.754103541,-52.2666054,-1.398023978,-0.19267562,13.28384757,-11.96923637,0.471446276,-0.388952132
5.258123,9.779890776,6.768285036,-52.26401708,-2.36877957,-0.349057242,11.4066534,-10.54081291,1.200411335,-0.239489905
5.266456,9.697173834,6.774285793,-52.26014328,-2.167453587,0.116202325,6.943447352,-10.55180168,0.25893417,-0.028002713
5.274789,9.60061121,6.784000158,-52.26714328,-0.250568541,0.054823583,9.582524657,-11.86567163,0.437737823,-1.471618086
5.283122,9.525440454,6.778357148,-52.2715969,-1.516719833,-0.382433129,12.16223121,-9.520737646,-1.293759098,-0.840438262
5.291455,9.448371172,6.766166568,-52.28453255,-0.600023637,0.728964307,8.07489872,-9.450962304,-2.236814544,-1.561949819
5.299788,9.380429268,6.744840265,-52.30496028,-1.686829597,0.058250133,10.83210278,-8.454682947,-3.458457012,-2.352661282
5.308121,9.335150957,6.726845384,-52.32382585,-2.171689928,-0.366168171,9.992949245,-5.516547799,-3.059047576,-2.320653032
5.316454,9.287118673,6.69399631,-52.3332424,-1.335067272,0.631363936,9.796557904,-6.195651889,-4.610514582,-0.882624887
5.324787,9.237138987,6.67217195,-52.37079428,-1.341243543,-0.029014904,9.899055959,-5.859887302,-3.848388493,-4.292917192
5.33312,9.215327025,6.646463275,-52.376812,-2.264499098,-0.151024139,7.47182405,-3.108754784,-3.673427165,-0.495897956
5.341453,9.187107801,6.616617203,-52.40605543,-0.750588455,0.743615389,10.07013869,-3.346080363,-4.668108076,-3.325621068
5.349786,9.170173168,6.597223163,-52.4181061,-1.995127767,0.051811457,13.37437034,-2.450936526,-3.04491441,-1.337745086
5.358119,9.164185286,6.597571135,-52.43694685,-1.767997891,-0.208811243,7.554058433,-0.806345761,-0.876029462,-2.642092347
5.366452,9.176178217,6.591217518,-52.44269943,-1.606824562,0.563067123,6.995812774,0.933542824,-1.388381265,-0.864633873
5.374785,9.19327569,6.603451252,-52.46887018,-2.238590628,0.520820171,13.08583903,2.048252005,0.391849876,-3.712556333
5.383118,9.224493742,6.618512869,-52.45584108,-1.383311637,-0.066837177,11.76838136,3.005676709,1.514198333,0.943493992
5.391451,9.260356426,6.627838016,-52.4846554,-0.967079587,0.2706815,5.768142819,4.331854314,-0.014571309,-3.97043401
5.399784,9.311930656,6.647768498,-52.47532273,-1.628920645,0.009468285,8.070698739,5.487193525,2.0251735,0.419324219
5.408117,9.359207392,6.672445297,-52.49629783,-1.178797197,0.154770315,13.90665197,5.599986136,1.949483581,-3.333664119
5.41645,9.425272226,6.705456257,-52.49277115,-2.918021143,0.226311289,10.96161592,7.330022753,3.441493377,-0.648693324
5.424783,9.499161005,6.739065051,-52.5076084,-1.265983507,0.107151061,4.275787771,8.73060286,3.115571685,-2.849586934
5.433116,9.58002162,6.750130892,-52.4947319,-0.050165363,0.192180994,8.573286772,8.958838701,1.026743531,0.884408459
5.441449,9.657419443,6.774049521,-52.51535033,-1.297003255,0.268261576,13.12625837,9.219803333,1.835922778,-3.370126218
5.449782,9.748325347,6.799651981,-52.4973507,-2.535911635,-0.886871517,9.643455385,10.11776233,2.855334133,1.168925047
5.458115,9.830387114,6.814632774,-52.50785825,-1.340350702,0.735306367,8.826252223,9.640298247,0.975611016,-1.980012447
5.466448,9.916039469,6.840167046,-52.4995098,-2.050701201,-0.292839252,11.09663534,9.612501741,2.655956358,0.031127747
5.474781,10.00703931,6.866848588,-52.49679183,-0.488204597,0.099511565,8.355490685,10.54573727,2.625907362,-0.701349847
5.483114,10.08802462,6.865421653,-52.49831008,-1.387297593,-0.315191329,8.331960678,9.176450611,-0.742617429,-0.578254089
5.491447,10.16523885,6.888004541,-52.50048828,-1.853633464,-0.062396441,12.07364702,8.935779095,2.066489309,-1.025894955
5.49978,10.2447474,6.898486018,-52.4980183,-2.354932726,-0.274730727,10.63904142,8.961215138,0.775563777,-0.256142393
5.508113,10.30857778,6.893507958,-52.50258828,-0.172405601,-0.175284416,6.797459722,7.363832952,-1.236623258,-0.69035813
5.516446,10.36422729,6.886340976,-52.51233103,-1.301326931,-0.128069055,8.360495209,6.246815562,-1.574017078,-1.315387011
5.524779,10.41785383,6.875447989,-52.51204683,-0.779860895,-0.439790212,11.79314709,6.080326915,-1.829519257,0.016678015
5.533112,10.4595592,6.847837568,-52.53186608,-2.559136913,-0.293153837,11.13692975,4.727062225,-4.210647523,-2.06547121
5.541445,10.48226213,6.845581293,-52.53310395,-1.86513716,-0.196521534,9.731679441,2.395254508,-0.834463753,-0.325841913
5.549778,10.51230764,6.825602412,-52.5515766,-0.943208869,-0.221718166,8.410784483,3.305683583,-3.280901939,-2.056935258
5.558111,10.5343566,6.79981637,-52.5526638,-0.786153361,0.18238404,9.179152966,2.320969865,-3.618760169,0.155600103
5.566444,10.54041863,6.784302473,-52.576334,-1.797328293,-0.417062506,10.52847743,0.491069764,-2.872421805,-2.76781345
5.574777,10.56011343,6.765801072,-52.57203865,-1.588977859,-0.062330071,10.30483604,1.965549946,-2.633236103,0.675332159
5.58311,10.58003378,6.743110538,-52.59604455,-2.384795621,0.504857613,9.509251833,2.178493932,-3.733175814,-2.699679583
5.591443,10.59489322,6.73167932,-52.59219933,-1.022480097,-0.317607765,9.110541822,1.398405966,-1.813548558,0.434862435
5.599776,10.610991,6.698913694,-52.61662865,-0.835482456,0.035199016,8.183137059,1.711123973,-4.944677513,-2.558788534
5.608109,10.6340065,6.671506167,-52.61426355,-1.423068822,0.033653365,9.328137875,2.424256116,-3.763375044,0.441109091
5.616442,10.649961,6.656894207,-52.63988495,-2.392814189,-0.101616339,12.33671713,1.71460417,-2.825483799,-3.073589891
5.624775,10.66741681,6.636429668,-52.63399695,-1.818097778,-0.171876825,10.98062861,1.690943027,-2.833901309,0.880745381
5.633108,10.6876514,6.629337549,-52.65989685,-2.185881749,0.429269061,8.478182197,2.235626548,-1.949666023,-3.29626748
5.641441,10.71029162,6.617594123,-52.64836505,-0.539253048,-0.142084964,9.211006998,2.24374941,-1.682528526,1.329487711
5.649774,10.72093439,6.595188975,-52.67536163,-1.108886927,-0.212170661,10.19191956,1.068882175,-3.76630117,-2.967447221
5.658107,10.73551154,6.580150485,-52.66176415,-1.802996546,-0.373340771,9.077675581,1.248559505,-2.019067686,1.677498695
5.66644,10.74532318,6.569850922,-52.6814499,-1.942369215,-0.15065971,10.23077917,0.889166176,-2.170297474,-2.372771472
5.674773,10.74005628,6.529227972,-52.66911508,-1.219994679,-0.231402483,11.11370802,-1.114910856,-5.063493021,2.104686588
5.683106,10.72199583,6.506721616,-52.69099998,-1.415973567,-0.091996398,8.437534093,-2.442282677,-3.663053751,-2.361357465
5.691439,10.6959796,6.463798523,-52.6823673,-0.680492248,-0.878713146,8.920385479,-3.540681422,-5.417353452,1.713336349
5.699772,10.65466905,6.424247622,-52.70466613,-1.794424147,0.112939231,12.34458852,-5.220277488,-5.689972222,-2.073261127
5.708105,10.59390545,6.399679422,-52.6961861,-2.305209577,-0.483662443,9.902799725,-7.708258392,-3.253513873,1.301673831
5.716438,10.54177141,6.374274135,-52.71342468,-1.205429051,-0.111257278,7.855708361,-6.594401121,-3.901582956,-1.763921045
5.724771,10.47743845,6.340615511,-52.70779038,-2.162439436,-0.03267659,10.91648364,-8.088959695,-4.399363577,1.116498858
5.733104,10.39217901,6.331428528,-52.71964265,-1.090789434,-0.325974778,12.03714419,-10.64560044,-1.868026793,-1.475053307
5.741437,10.29874921,6.315919995,-52.7194767,-2.094898749,-0.439620562,8.651324511,-11.50849366,-2.367078692,0.134103324
5.74977,10.20128513,6.316342354,-52.72913363,-1.533214092,-0.217720134,6.362706542,-12.12460899,-0.688119978,-1.472380042
5.758103,10.08564663,6.327120662,-52.7391968,-2.152882427,-0.281007618,10.88511276,-14.04164577,0.519821726,-1.632830948
5.766436,9.962908269,6.31632483,-52.7406311,-0.500334308,-0.006012879,12.22407269,-15.26804328,-1.846918225,-0.295456735
5.774769,9.822690248,6.332741023,-52.75664523,-2.579135783,-0.195145895,9.066348553,-16.91215897,1.061659023,-2.479913548
5.783102,9.685370445,6.338370681,-52.74895098,-0.625793139,-0.80465696,7.548388601,-17.11826372,0.281577736,0.43133752
5.791435,9.529677153,6.353670716,-52.76582528,-2.656789929,-0.081212752,11.60390091,-18.737463,0.896415219,-2.697592884
5.799768,9.361698628,6.385823965,-52.75916863,-1.055027343,0.299016152,11.19222498,-20.78229928,3.394812763,-0.248448476
5.808101,9.184057474,6.406123877,-52.79158593,-1.773530379,-0.803854785,7.672571182,-21.18096113,1.215744555,-4.499075055
5.816434,8.993347645,6.42545712,-52.7919464,-1.376612089,-1.023938313,8.965299129,-23.40905762,1.740408067,-0.821961164
5.824767,8.76484251,6.457162142,-52.83021735,-1.63562198,-0.047206752,11.48878109,-27.19508553,2.488997623,-5.373207331
5.8331,8.507345438,6.483367682,-52.8445625,-1.5776117,-1.341230258,10.5834142,-31.22622728,2.317872703,-2.575808346
5.841433,8.220228672,6.523117542,-52.88435745,-1.418271266,-1.203835035,5.381542504,-34.1815486,3.430054218,-5.863069892
5.849766,7.894956112,6.546623707,-52.92048265,-1.239662964,-0.385065625,9.260162651,-39.07635403,1.64839989,-5.075854957
5.858099,7.518552304,6.587371111,-52.96530723,-2.741900742,-1.75711789,14.52913046,-44.808527,3.541555345,-6.367931127
5.866432,7.11496532,6.642789722,-52.99676893,-1.327198669,-0.691297102,9.685043097,-48.52409554,5.579302952,-4.965698004
5.874765,6.675394297,6.68774879,-53.0531273,-0.99378743,-0.54515557,6.862648487,-52.23538876,3.964366317,-7.721849442
5.883098,6.195235729,6.734898687,-53.07220268,-1.689797908,-1.174505055,11.20429444,-57.8717947,4.832622916,-3.292140246
5.891431,5.683862209,6.796337605,-53.1239586,-1.453049918,-0.257703276,9.840726735,-60.90395832,6.102788806,-7.291606248
5.899764,5.167862058,6.858676553,-53.15107345,-2.37329638,-0.855572298,6.976395488,-62.05604649,6.624360323,-4.292701885
5.908097,4.613096714,6.904906273,-53.18914415,0.019401789,-0.118818425,10.89768315,-66.28701401,4.542833388,-5.39355877
5.91643,4.034196854,6.957176924,-53.2409382,-2.414348945,-0.889273249,14.08423662,-69.25464249,5.260001898,-7.033533096
5.924763,3.443493068,7.029744506,-53.27439688,-2.247691572,-0.56472081,7.569122553,-70.62323571,7.851678102,-4.950805128
5.933096,2.839103401,7.083204746,-53.33566095,-0.71494827,0.502265573,5.020507694,-72.17304039,5.463877976,-8.059373737
5.941429,2.215212912,7.144162536,-53.38553428,-1.356097773,-0.716252688,12.58694601,-74.37974358,6.4781906,-6.603097558
5.949762,1.581492767,7.211302996,-53.43424418,-1.306242869,-0.311235428,15.37364722,-75.85384751,7.32087481,-6.424248934
5.958095,0.934866682,7.289069176,-53.49324608,-3.490969539,0.415824151,8.460823774,-76.95402718,8.603752257,-7.596815706
5.966428,0.301301345,7.377487898,-53.53935433,-1.319700763,-0.576581076,3.182846159,-75.84952927,10.02471101,-5.979625821
5.974761,-0.342152662,7.438982606,-53.5877037,-0.197480247,0.468488403,9.908019304,-76.72128678,6.801366837,-6.103693247
5.983094,-0.994463936,7.519454479,-53.64064595,-1.558497623,0.241500408,15.82317829,-77.9991684,9.197766543,-6.534160018
5.991427,-1.640417904,7.607940197,-53.67905998,-2.538979501,-0.429079296,9.858997106,-77.15394974,10.15118635,-4.654217601
5.99976,-2.277037293,7.695472121,-53.72647095,-1.398446839,0.680817912,5.368909598,-76.184021,10.15253449,-5.661745549
6.008093,-2.905471504,7.768439889,-53.77339745,-0.742902518,0.339822676,7.836209237,-74.91413498,8.43342519,-5.463438094
6.016426,-3.543150545,7.83719492,-53.80410768,-1.093550771,-0.276154368,13.84623075,-76.56278229,7.908144533,-3.495314062
6.024759,-4.188618243,7.910818696,-53.85989188,-1.886151105,0.660340769,12.80666542,-76.82422066,8.679888964,-6.261865616
6.033092,-4.808739424,7.988682032,-53.89404868,-2.249662102,-0.050742537,7.175451398,-74.37408256,9.116520881,-3.678417444
6.041425,-5.428112269,8.052535534,-53.93607333,-0.622725879,0.351525232,4.586319149,-73.89145279,7.49265194,-4.571949065
6.049758,-6.048520804,8.092797399,-53.9897919,-0.422466643,0.56740281,10.85502386,-74.09593392,4.920775801,-6.175778925
6.058091,-6.679511786,8.13515532,-54.02844045,-1.802327834,-0.473187909,15.50541186,-75.34205246,4.972878337,-4.195270896
6.066424,-7.309731007,8.177207112,-54.09055708,-1.630975321,0.52831237,9.687205077,-75.12682724,5.37680623,-7.044030309
6.074757,-7.929555774,8.197066188,-54.14205933,-0.682975084,0.266592205,4.31200701,-73.78602219,2.586361587,-5.928202987
6.08309,-8.556967974,8.182743549,-54.19041063,-0.466769315,-0.484468311,9.418161871,-75.00938797,-1.403400116,-6.273895383
6.091423,-9.206086636,8.182339907,-54.24587248,-1.470548883,0.331441104,15.3856597,-77.24261856,0.376601326,-6.720848799
6.099756,-9.848345995,8.151959539,-54.29826355,-1.907482296,-0.033110514,9.689620496,-76.72614479,-3.087731153,-7.062666058
6.108089,-10.49610639,8.115098476,-54.3462162,-0.807941344,-0.390093133,4.924519003,-77.21665955,-3.946684748,-6.567291141
6.116422,-11.14777279,8.042792797,-54.39803315,-0.275851259,0.337305829,10.2088294,-77.88256264,-7.897811174,-7.964805961
6.124755,-11.81954312,7.974677921,-54.4430447,-1.640797138,-0.151273042,15.26365948,-80.16596985,-7.556789875,-6.966422677
6.133088,-12.47763777,7.902274251,-54.4883537,-2.20108524,-0.125944488,7.934512376,-78.79079628,-7.895787836,-7.414590835
6.141421,-13.13168693,7.832819343,-54.5364666,-0.928677267,0.669770055,6.900628686,-78.01185227,-7.469372988,-7.549878478
6.149754,-13.78679562,7.728827834,-54.56764983,-0.900350645,0.307904661,11.63051438,-78.65926552,-11.81672227,-6.770863175
6.158087,-14.44685602,7.658687234,-54.61740303,-1.636628293,0.138776463,12.95843887,-78.73200607,-7.340014458,-7.883487702
6.16642,-15.08550382,7.571940661,-54.64786145,-1.750170022,0.536964959,8.642920613,-76.72807503,-9.679230928,-6.445507169
6.174753,-15.7164526,7.503964186,-54.68551253,-2.393032104,0.390071195,8.710713864,-75.46183777,-7.299777389,-6.626099944
6.183086,-16.33474875,7.432102203,-54.71497155,-1.509631291,0.925074004,9.518512369,-74.29288864,-7.862362385,-6.005360723
6.191419,-16.94267178,7.362781048,-54.7339268,-0.597087846,0.620047584,11.86976719,-72.97913552,-7.959056438,-4.627774358
6.199752,-17.53267908,7.29304862,-54.7595539,-1.151826099,0.326796636,9.720003842,-70.9960556,-7.636575222,-5.662824154
6.208085,-18.09635115,7.239942312,-54.7832203,-2.594228357,0.775651895,7.813508749,-67.62207794,-5.827053964,-4.754850507
6.216418,-18.64402294,7.185696244,-54.79525758,-1.578690633,0.609544434,12.65352678,-66.11282825,-6.283013701,-3.686149582
6.224751,-19.18293333,7.137939095,-54.82658768,-2.15599104,0.933259152,14.82539034,-64.55133343,-4.841265083,-5.511957407
6.233084,-19.68988323,7.092931747,-54.82982825,-1.095584426,0.782299832,7.412166596,-61.35578156,-5.508932114,-2.431000561
6.241417,-20.17296219,7.043185115,-54.8576832,-1.008886372,0.77058474,5.987758994,-57.93795776,-5.107252747,-5.351044357
6.24975,-20.6307373,6.980928779,-54.8700142,-1.093855903,0.762660526,8.704126478,-55.32140637,-7.033851029,-4.245055378
6.258083,-21.06331825,6.917515397,-54.88325883,-1.508773893,1.16564022,14.85999966,-52.0673027,-7.185641646,-4.324288845
6.266416,-21.47494078,6.865609408,-54.90097808,-1.914225697,1.154772466,13.66641116,-49.7266779,-5.583374143,-4.508016348
6.274749,-21.85266543,6.811688543,-54.91951943,-1.252648979,0.641311519,6.445889831,-45.43878365,-5.804423154,-4.656064987
6.283082,-22.18774319,6.753230572,-54.92636488,-1.96115233,1.241642714,8.422883629,-40.70991421,-6.743357539,-3.685961306
6.291415,-22.50842714,6.719219088,-54.95331385,-2.411424175,1.379661426,12.91050554,-38.47650051,-3.16645813,-4.73073411
6.299748,-22.79121304,6.681461454,-54.95934678,-1.697604917,0.719624699,12.69146275,-34.42445851,-4.44946298,-2.690089762
6.308081,-23.05208683,6.663221717,-54.99163438,-2.28467147,0.901108906,8.723741411,-31.25953388,-1.126914908,-4.638245821
6.316414,-23.27767325,6.64666307,-54.99962615,-1.552752137,0.704640291,5.260053396,-27.54205513,-1.991319239,-1.948517829
6.324747,-23.50134468,6.625687242,-55.020525,-0.699551266,0.585694421,12.34450459,-26.9370966,-1.919970431,-3.554274976
6.33308,-23.71295834,6.618655086,-55.0452347,-1.729228079,0.766578693,12.39203286,-25.63910675,-0.139223323,-3.319418073
6.341413,-23.89250326,6.61158669,-55.07109448,-1.75081563,0.34927269,8.562798977,-21.6059289,-0.12794593,-3.432946265
6.349746,-24.0558877,6.604270101,-55.08199883,-1.567401931,0.703251869,10.58635902,-20.04887342,-0.819044218,-1.843005657
6.358079,-24.21871901,6.589393258,-55.11699108,-1.150043257,0.489602067,12.6968503,-19.46220446,-0.525146157,-4.794112146
6.366412,-24.34690333,6.580475807,-55.1272316,-2.137627155,0.519797858,12.16269302,-15.84812403,-1.010945916,-1.855639666
6.374745,-24.46824408,6.565606356,-55.1476345,-1.498931721,0.667378284,6.910177589,-14.72312546,-1.220287815,-3.236906529
6.383078,-24.56961393,6.561755658,-55.16597365,-1.436915159,0.488145043,11.40396333,-12.52211309,-0.053959653,-2.48355335
6.391411,-24.6650219,6.55539,-55.17864608,-1.808141589,0.585676759,12.58691764,-11.69438851,-0.654712751,-1.975712627
6.399744,-24.73923111,6.561738968,-55.19624518,-2.02115798,0.260355814,7.616671324,-9.295799971,1.030028552,-1.914872304
6.408077,-24.80528116,6.578188896,-55.2215271,-1.736255161,0.677118253,11.33167863,-8.020089746,2.46828711,-2.208488345
6.41641,-24.87101507,6.590590477,-55.23447418,-1.416383438,0.07170528,11.69686747,-8.297305703,1.452836335,-1.055104807
6.424743,-24.91568709,6.618471861,-55.25914003,-1.963829778,0.109973397,10.15799141,-5.500513375,3.690345645,-1.588002622
6.433076,-24.96203089,6.645903587,-55.2774906,-1.425746262,0.564771173,9.719801666,-5.909271121,3.360754363,-0.876733616
6.441409,-24.99605465,6.688910365,-55.30114175,-1.636528313,0.208820996,12.70362759,-4.211425662,5.279456109,-0.67082724
6.449742,-25.01928997,6.722900272,-55.32279015,-1.683582872,0.417238158,8.98633933,-3.129807115,4.245438218,-0.936933637
6.458075,-25.03863955,6.778197646,-55.35607528,-1.793019995,-0.20673859,9.319389104,-2.327351272,7.096664429,-1.075797946
6.466408,-25.04864454,6.830307126,-55.37612153,-1.593150429,0.072491952,12.88930106,-1.536060214,6.133556068,0.179181228
6.474741,-25.05660248,6.883827091,-55.41174125,-1.605766326,0.111700006,7.647120595,-0.953614921,7.026442885,-1.448462814
6.483074,-25.05240679,6.934809327,-55.43990708,-1.560723722,0.38632644,11.42901635,0.290506996,6.418962598,-0.744705096
6.491407,-25.04080773,7.004936099,-55.46517945,-1.654797465,0.18119178,10.18426228,1.271147929,8.311623692,0.527083375
6.49974,-25.02169943,7.049883604,-55.48459815,-0.896398045,-0.013262846,9.502038718,1.934198096,5.321469188,-0.124379508
6.508073,-25.00691271,7.108759999,-55.51432993,-1.448349804,-0.062453197,12.90552521,1.725291699,7.3043769,-0.509220638
6.516406,-24.97481823,7.160552025,-55.53656005,-2.175356954,0.160862936,8.590997696,3.524365157,6.213956161,-0.09473107
6.524739,-24.95534516,7.217820168,-55.54826165,-0.776739277,-0.412860194,12.64922333,2.005040839,6.22538662,1.332122773
6.533072,-24.93831014,7.263081193,-55.57378005,-2.15966481,-0.216826007,9.739836455,1.777612273,5.662145257,-0.772627756
6.541405,-24.91194534,7.314569712,-55.57931138,-0.648041756,0.356971951,10.25290847,2.700060874,5.29292953,1.678312034
6.549738,-24.90391779,7.361689925,-55.59177018,-2.083494544,-0.774883672,10.45954847,0.534908441,5.216643214,0.733207479
6.558071,-24.87740135,7.396590114,-55.58643723,0.361580394,-0.080526557,8.309005141,2.528992802,2.93354708,2.022759468
6.566404,-24.87438917,7.428840041,-55.60188675,-2.364191652,0.172452743,12.55527592,-0.02605924,3.744749837,-0.337979794
6.574737,-24.8544035,7.464437604,-55.5952301,-0.894728696,-0.765026483,9.461591245,1.720837936,2.95841226,2.181337059
6.58307,-24.85256958,7.497982979,-55.60256385,-2.22077629,0.045751758,12.97427797,-0.302433714,3.480785653,0.592322782
6.591403,-24.84120703,7.529504061,-55.5922928,-1.048145212,-0.254472384,8.905315161,0.582855225,2.384198457,2.325282514
6.599736,-24.84197903,7.559504867,-55.59871483,-2.034171194,-0.398130749,11.15871191,-0.607861053,2.99210462,0.556075457
6.608069,-24.84333325,7.592014194,-55.57662965,-1.269563764,-0.740287893,9.466792823,-1.085813195,1.854976863,3.689900518
6.616402,-24.85541392,7.596521259,-55.5767746,-0.59206466,0.017124154,9.697423458,-2.093249739,-0.045007407,-0.090802506
6.624735,-24.86281681,7.603999734,-55.54892733,-1.590141952,-0.553717919,10.94445658,-1.92296958,-1.164029414,3.054942578
6.633068,-24.88244772,7.594810605,-55.5448513,-0.791498124,-0.060122259,10.67345655,-3.070189402,-1.749698639,-0.31336132
6.641401,-24.90152407,7.595260501,-55.50905038,-2.01005891,-1.096735746,11.4874003,-3.463047862,-2.32674601,3.550430775
6.649734,-24.92485333,7.565853357,-55.48748588,-0.64377522,0.20342175,10.94799554,-3.80326891,-4.833236427,0.555259012
6.658067,-24.94961071,7.561411858,-55.44859885,-2.287656695,-0.936576754,9.736253023,-4.202761233,-3.019540727,3.643019855
6.6664,-24.97308254,7.532848239,-55.4252205,-0.833105386,0.138047129,11.77437663,-3.870317399,-4.82745409,0.766755723
6.674733,-25.01263332,7.520884395,-55.38316155,-2.406540603,-0.79304884,9.125295758,-6.011350751,-4.002112329,3.623034507
6.683066,-25.03554583,7.488058209,-55.35674665,-0.607070268,-0.109098419,10.10337603,-3.865108133,-5.448919446,0.870045111
6.691399,-25.06901979,7.489417195,-55.32149315,-2.325910568,-0.484446682,9.047851443,-5.170480132,-2.212650582,3.563673377
6.699732,-25.08362961,7.466600776,-55.30543518,-0.536072359,0.252863582,11.10910726,-2.71270445,-3.837633654,0.25651049
6.708065,-25.10005093,7.479696989,-55.28277208,-3.033259928,-0.679447976,12.02937984,-2.935186476,-0.299705565,2.801614543
6.716398,-25.09497309,7.478870631,-55.26478195,-1.138298981,-0.036348134,8.701671124,-0.374928331,-1.550618648,1.594454184
6.724731,-25.10049677,7.504314661,-55.2653923,-2.315662384,-0.451556697,11.39627147,-1.293877537,2.214645222,0.907877323
6.733064,-25.08190346,7.510605216,-55.25367738,-1.833976675,0.050417484,11.10342646,1.340764389,-0.453788132,1.269649551
6.741397,-25.08359861,7.543788195,-55.26485633,-2.309238836,-0.902022556,9.855538309,-0.670884874,3.581337869,0.192260381
6.74973,-25.06222868,7.561136484,-55.25543405,-1.19531142,0.025236765,10.5708009,1.699040167,0.855768323,1.591508478
6.758063,-25.0559988,7.586871624,-55.26739313,-1.420787052,-0.816052279,7.792603253,0.285986364,2.813269317,-0.281858951
6.766396,-25.02384424,7.593879104,-55.25562288,-0.576595631,0.215452425,11.86666918,2.96436131,-0.387396202,1.339967109
6.774729,-25.01247311,7.620267868,-55.25427248,-2.420523629,-1.069409803,9.440865158,0.666395933,2.217411559,1.179029643
6.783062,-24.98853064,7.618810535,-55.24479293,-0.199709607,-0.378851194,9.806936501,2.042892158,-1.198806986,0.699473569
6.791395,-24.96432257,7.642358661,-55.25026893,-2.74415794,-0.689576779,11.10050797,2.262646169,2.263648272,0.245301147
6.799728,-24.95640898,7.659569383,-55.24363135,-1.233848872,-0.642477255,12.64609742,0.1940373,0.987047792,1.332199616
6.808061,-24.9368186,7.680907846,-55.25135993,-2.060917661,-1.259250194,8.108732582,1.701950699,2.135065793,-0.121834226
6.816394,-24.93747807,7.694818139,-55.2407074,-1.329056353,0.202567704,13.83600474,-0.884481966,0.422107458,1.617100306
6.824727,-24.92073536,7.715183973,-55.2405491,-1.749352902,-0.896007389,5.078748524,1.216221638,1.629934072,0.68653521
6.83306,-24.92088842,7.73244977,-55.23321345,-0.792303324,-0.735333487,11.97823048,-0.762449455,0.948556424,1.446919601
6.841393,-24.9089303,7.730940104,-55.235796,-1.804665454,-0.721217804,11.69896126,0.675668251,-0.623294352,-0.679360002
6.849726,-24.92798949,7.756213546,-55.23322675,-1.856692985,-1.025690399,8.913612781,-2.950254537,2.069480298,1.317894265
6.858059,-24.92534781,7.756145954,-55.23532675,-1.285009563,-0.576309061,12.2225616,-0.4422426,-0.483266831,-0.554977285
6.866392,-24.9399209,7.774915218,-55.2469902,-2.006187573,-0.610150635,9.649840593,-2.239260212,2.087355852,-0.608757556
6.874725,-24.94731331,7.779144407,-55.24701498,-1.951621972,-0.32228691,10.64540291,-1.618265763,-0.122708172,-0.065268284
6.883058,-24.94905472,7.806776881,-55.25416758,-1.88207452,-1.185326845,9.094233275,-0.838091387,2.824543356,0.29412188
6.891391,-24.96801329,7.801503897,-55.26684188,-1.460360907,-0.425470656,10.3298347,-2.730365727,-0.52698493,-1.854172975
6.899724,-24.9716754,7.826284051,-55.265728,-1.421596847,-1.176935598,6.706097722,-1.251825534,2.10039997,1.019126594
6.908057,-25.00989151,7.83430922,-55.28549955,-0.425928712,-0.617541038,14.64615059,-4.900548801,1.272945403,-1.929802716
6.91639,-25.01708222,7.824892998,-55.2778492,-1.99946516,-0.645795621,8.950694978,-1.799784184,-1.945899488,-0.005667016
6.924723,-25.04716444,7.842247248,-55.29484558,-2.138810292,-0.930827037,9.514331103,-4.011500418,2.148006916,-1.176843077
6.933056,-25.06165361,7.833722711,-55.29351238,-1.35375458,-0.703748506,12.56630468,-2.527987287,-1.534974068,-0.611197293
6.941389,-25.09903241,7.853583336,-55.3163147,-1.238697231,-1.205727864,5.786965489,-4.864870116,2.708865613,-1.705437377
6.949722,-25.13715219,7.830317259,-55.32062723,-0.965419851,-0.041417444,14.24019909,-5.195447564,-2.862023064,-1.899247512
6.958055,-25.1666112,7.839004993,-55.3268261,-1.661272303,-1.013222337,7.099063695,-4.270005875,0.654895782,-0.505948454
6.966388,-25.2106514,7.81910944,-55.33742525,-1.238001392,-0.845195751,10.4423058,-5.72672677,-2.184387683,-2.346421421
6.974721,-25.22423792,7.816413045,-55.34296415,-1.633984536,-0.567095045,11.53248894,-2.413069606,-0.59616184,-1.058505312
6.983054,-25.28038693,7.818867326,-55.361454,-2.335057614,-1.132138237,10.80168366,-7.061171233,0.652396918,-2.088185057
6.991387,-25.30248213,7.805289149,-55.35913468,-1.193603933,-0.228395965,11.65978462,-3.539580107,-2.190721629,-0.704583691
6.99972,-25.33053494,7.817525745,-55.37758828,-3.108772666,-0.766899295,8.366505149,-3.7678954,1.725528672,-1.650699765
7.008053,-25.3479085,7.806877971,-55.37665178,-0.727441028,-0.237195015,9.31568742,-2.828205705,-1.802707673,-0.633913986
7.016386,-25.34876108,7.820107818,-55.39534758,-1.533247352,-1.124903381,8.545449971,-0.597644091,1.846384525,-1.6786227
7.024719,-25.37437725,7.806196332,-55.39370155,-1.2346856,-0.783373811,12.93485904,-3.763859883,-2.193731308,-0.693284668
7.033052,-25.36936617,7.804164767,-55.40543938,-1.699056588,-0.068389455,9.395288467,-0.033826837,-0.15591788,-1.72107826
7.041385,-25.38216496,7.818769336,-55.4112549,-1.990371302,-1.172311336,11.10694039,-2.141014032,1.286631347,-0.077018753
7.049718,-25.37627936,7.808716893,-55.41991618,-1.819216252,-0.281764977,10.58639684,0.089659475,-1.183704168,-1.758945495
7.058051,-25.36703443,7.84215641,-55.43253328,-2.163771488,-1.39099428,8.603925348,0.511689186,3.672537356,0.109055825
7.066384,-25.38597488,7.842027902,-55.4530277,-1.386915222,-0.626893893,13.6704011,-2.609744907,0.474847078,-2.426042855
7.074717,-25.39336443,7.860523701,-55.46301843,-0.803834543,-0.663421579,6.204621375,-1.587410331,1.919585944,-0.398131706
7.08305,-25.40997314,7.86726594,-55.47643088,-1.694243625,-1.538738072,11.77860367,-2.39897212,0.86772871,-1.309150279
7.091383,-25.40650558,7.859734893,-55.46921158,-1.424112305,0.179017592,10.28346801,-0.560529143,-1.766438245,0.105876453
7.099716,-25.42314243,7.869537234,-55.48605155,-1.132181645,-1.727439046,9.910171331,-2.416040361,1.390705228,-1.609598469
7.108049,-25.43682098,7.850409985,-55.4815235,-2.090782404,-0.560952865,12.30406678,-2.491938591,-2.892945484,-0.704807654
7.116382,-25.43262482,7.859575391,-55.4862213,-1.480452776,-0.476885222,5.36258699,-0.195843309,0.701846362,-0.380371424
7.124715,-25.45183897,7.834136725,-55.48241233,-1.280564379,-1.451589868,12.42142057,-3.078950212,-3.550924897,-1.056737728
7.133048,-25.43352509,7.808578253,-55.47357753,-0.721134045,0.080641693,7.367938817,1.262830125,-3.741091608,-0.736274943
7.141381,-25.44270468,7.798382759,-55.47924615,-2.012673866,-1.358315751,11.1534729,-1.736584485,-1.416739463,-1.302858621
7.149714,-25.43309784,7.786525726,-55.47095678,-1.747437447,-0.70451712,12.97064567,0.270156659,-2.237423002,-0.032523722
7.158047,-25.41999769,7.790042997,-55.48713875,-2.838628199,-0.651046068,7.123142749,1.005124912,0.609122607,-1.791427598
7.16638,-25.41396904,7.7841115,-55.48241615,-1.126347393,-0.622721173,14.33852458,-0.01899311,-1.427469374,-0.039420262
7.174713,-25.38615847,7.784668088,-55.481617,-1.77449061,-1.150872529,5.702071071,2.448967665,-0.57215357,-0.152058929
7.183046,-25.37539721,7.780160904,-55.47605135,-0.567600191,-0.527509265,11.57755399,0.567445077,-1.324732303,0.15572178
7.191379,-25.34691096,7.745898843,-55.4715328,-1.60638395,-0.635206386,12.25414896,2.473647163,-4.545205712,-1.492406905
7.199712,-25.32733584,7.749442935,-55.47613718,-2.601867125,-1.883771323,7.279701621,1.730718702,0.072769791,-0.572961651
7.208045,-25.31398249,7.734543562,-55.48260308,-1.824447244,-0.27798117,14.53319394,0.921257641,-1.873735368,-1.661220968
7.216378,-25.28734494,7.738643527,-55.489851,-1.791936845,-1.119389683,5.807894081,2.540525496,0.280773638,-0.908933953
7.224711,-25.26993132,7.72704637,-55.5098152,-1.683035618,-0.720094796,11.76697207,1.697654069,-0.824980735,-2.921716958
7.233044,-25.22261048,7.724995017,-55.50711633,-1.010178574,0.288816385,9.071521044,4.849105358,-0.886557339,-0.158312041
7.241377,-25.18435669,7.725764155,-55.5362835,-1.944089743,-2.011517912,8.347704053,4.327330172,0.973389507,-3.289312959
7.24971,-25.13036585,7.723013759,-55.52519608,-1.743679107,-0.296583295,14.40860975,5.575601459,-1.382150501,0.744673096
7.258043,-25.08068132,7.730494976,-55.54724503,-1.932269357,-1.444975496,7.627804578,5.477774143,1.339166702,-2.249963969
7.266376,-25.0516386,7.735316276,-55.54600335,-1.412001252,-0.836990692,13.90255618,2.809626073,-0.078466177,0.142373532
7.274709,-25.00381565,7.72842598,-55.55901525,-1.632822666,-0.664545108,7.183370114,5.059128881,-0.688303233,-2.005149678
7.283042,-24.9780283,7.764968514,-55.55770303,-2.395582229,-1.991934061,8.569038615,2.450094585,3.373136042,1.765499756
7.291375,-24.94660235,7.752870321,-55.56017303,-0.330038458,-0.733525185,12.64897084,2.95393318,-1.789804817,-1.09486784
7.299708,-24.93567848,7.777495861,-55.55961608,-2.340214234,-1.65320465,8.061307222,0.591240615,2.132429928,0.985053081
7.308041,-24.93807173,7.768578887,-55.5650692,-1.362772823,-0.898005322,12.41949415,-0.953281939,-1.283577084,-1.219068006
7.316374,-24.92210388,7.785661578,-55.5607891,-2.015981257,-1.008604177,5.955939293,1.04926803,1.121613028,0.963562906
7.324707,-24.9300375,7.782908798,-55.56827545,-1.042469671,-1.083287165,10.34821105,-1.511256449,-0.521024227,-1.067886611
7.33304,-24.91269827,7.781908989,-55.56436158,-1.885840625,-0.732554212,10.98041528,1.208755255,-0.819268225,-0.001469489
7.341373,-24.92311526,7.806016922,-55.57730103,-1.438687116,-1.958048746,9.614592434,-1.778031439,2.687424601,-0.37634055
7.349706,-24.92081833,7.791260243,-55.5689316,-1.274005607,-0.025174775,12.89985848,-0.59915214,-2.545670867,-0.159787972
7.358039,-24.90494633,7.809240341,-55.56788445,-2.595884994,-1.076228887,5.853893272,1.044663893,1.308039188,0.794012562
7.366372,-24.90680981,7.818603516,-55.56806565,-1.278323397,-1.480302528,10.78422964,-0.840492856,0.491322278,0.247343808
7.374705,-24.88966513,7.837955237,-55.56819533,-0.923669864,-1.195301183,9.679988981,1.157257945,1.526043175,0.688209714
7.383038,-24.91062737,7.8630265,-55.5792961,-3.113453925,-1.407013387,11.57822573,-2.952383802,2.7491107,-0.150400464
7.391371,-24.8925848,7.883868695,-55.56215285,-0.920155704,-0.269313205,9.868608953,0.999410152,0.834278583,2.629362405
7.399704,-24.87851715,7.929160595,-55.57571985,-2.804611255,-0.975864276,7.394215301,1.226605021,5.079194068,0.542394213
7.408037,-24.84545136,7.934819579,-55.55862618,0.369456364,-0.620189883,9.754504621,2.938333735,-0.819587767,1.952582769
7.41637,-24.79656315,7.959203363,-55.5755539,-2.492844969,-1.076338098,8.851342917,5.358169258,2.976390719,-0.949865639
7.424703,-24.78590298,7.978193164,-55.5712757,-1.521738589,-2.249705672,13.19619513,0.522123963,1.26869011,1.278681994
7.433036,-24.74352694,7.9982934,-55.59367373,-2.042406797,-0.42138432,10.36977208,4.638476834,2.795934678,-1.80316262
7.441369,-24.71291161,8.040473342,-55.6062107,-2.155750543,-0.791557797,8.576493205,3.140341133,4.638592094,0.574104726
7.449702,-24.66004849,8.042070746,-55.62059023,-0.830549002,-0.851628564,10.05201304,5.874724031,0.363257822,-1.768064141
7.458035,-24.59425736,8.070678711,-55.62420655,-1.076121285,-1.501276493,8.60722518,7.121062517,2.726171493,0.783126525
7.466368,-24.56407356,8.061049938,-55.6381855,-1.340663225,-1.56100972,11.71053529,3.221643627,-0.901240587,-2.211254815
7.474701,-24.51034642,8.077078223,-55.63672255,-2.327290818,-1.271403141,11.39557123,5.542682469,1.1016531,0.699685261
7.483034,-24.47643519,8.088072538,-55.64443398,-1.883482218,-1.425604336,6.964730016,3.516946524,1.045948237,-0.560999783
7.491367,-24.43290472,8.076272369,-55.64266395,-0.875527188,-0.255214252,10.26102269,4.431201994,-1.950293601,-0.582358993
7.4997,-24.37808704,8.075668693,-55.6410637,-1.483442794,-1.693135351,9.91931832,5.789256334,-0.661952497,-0.215425309
7.508033,-24.35922861,8.067278147,-55.63629915,-1.808034999,-2.466776073,10.92179513,1.472668156,-1.728529453,-0.059434641
7.516366,-24.32511425,8.05614233,-55.62413023,-1.784565821,-0.344728801,11.5583055,3.094699919,-2.333165646,0.410244003
7.524699,-24.31042099,8.062561512,-55.62769125,-2.261622533,-2.20025678,7.57371983,1.04963309,0.296449572,-0.271152295
7.533032,-24.29322195,8.042906642,-55.62470243,-1.164428473,-0.561147455,11.05430603,1.341295958,-2.820284427,-0.91928538
7.541365,-24.26336002,8.03338325,-55.61941718,-0.824054979,-1.249354452,10.4210577,2.637120336,-1.882064342,-0.136866467
7.549698,-24.27098942,8.005288363,-55.62092973,-1.646304846,-2.353036881,10.27553332,-1.533630401,-3.537068606,-1.782181152
7.558031,-24.25540066,7.981404424,-55.6042862,-1.963132083,-0.435115769,12.17436957,0.748953789,-4.005244791,0.410205662
7.566364,-24.25360966,7.971146226,-55.6013565,-1.921878584,-1.590323836,6.495389222,-0.558857769,-1.790297627,-0.512066946
7.574697,-24.25026417,7.930146337,-55.5899582,-0.967123423,-1.096618373,10.10851836,-0.494502299,-5.626313924,-0.913506255
7.58303,-24.22122145,7.910166264,-55.57600975,-1.535978518,-0.770545844,9.90956509,2.458723657,-3.378945114,0.142837776
7.591363,-24.23480701,7.896540404,-55.57513045,-2.271191478,-2.598665327,11.89544702,-2.341708526,-2.121375323,-0.706847377
7.599696,-24.22178412,7.876090765,-55.55396653,-1.424467504,-0.453658567,11.91992772,0.427354247,-3.77955115,0.914770879
7.608029,-24.21456099,7.891124845,-55.56072808,-2.946072646,-0.986117996,6.851491427,0.194664955,1.396305502,-0.204606507
7.616362,-24.19946766,7.885714054,-55.5523796,-1.047077403,-0.812267296,11.57811248,1.023058117,-1.525183438,0.389166713
7.624695,-24.15787554,7.908240676,-55.55454255,-1.102638096,-1.728673786,8.98137188,4.151552677,1.99053192,0.616172928
7.633028,-24.15261793,7.911355615,-55.55149078,-2.125200726,-1.262971878,13.1258719,-0.035229355,-0.343926193,0.271850325
7.641361,-24.11518622,7.925257325,-55.54262733,-2.232660711,-0.666424133,8.489345431,3.448608726,0.51451087,1.385810595
7.649694,-24.09326649,7.955842137,-55.54188155,-1.458573282,-1.820494622,7.541239246,1.973304913,2.785974265,1.322479072
7.658027,-24.05645466,7.936948538,-55.53810503,-0.715508163,-0.192867614,10.99162617,3.575238356,-2.830360475,-0.6970018
7.66636,-24.03098393,7.968291521,-55.53731345,-2.333727882,-2.474755973,9.686672569,2.295599118,2.87947899,1.273600698
7.674693,-24.03604841,7.971206546,-55.54131698,-1.376494184,-1.388051898,15.51774216,-1.273540184,-0.065723539,-0.45198886
7.683026,-24.02237749,7.990429759,-55.53832625,-2.235512361,-0.784619939,3.779241905,0.778554451,1.44778514,0.880681623
7.691359,-24.03001833,8.007983804,-55.54521943,-1.147414983,-1.649106322,10.37228525,-1.457463242,1.669372558,0.007508174
7.699692,-24.01034975,8.012144208,-55.54390528,-1.425393462,-0.980019704,12.1768738,1.520304457,-0.113128663,-0.049336225
7.708025,-24.03468227,8.033970356,-55.56213953,-2.237465501,-1.624772862,8.073292974,-3.335207403,2.692886831,-1.075724438
7.716358,-24.02811766,8.033754945,-55.5550728,-1.277389884,-0.842733279,10.33071016,-0.086710259,-0.876067578,0.410148002
7.724691,-24.03356457,8.062548161,-55.56274223,-1.421591759,-1.065352745,7.079443127,-1.298676968,2.94950527,0.368201442
7.733024,-24.01978064,8.054407358,-55.55309868,-1.288855315,-1.327349782,11.4625271,0.837419003,-1.884411454,0.395800797
7.741357,-23.99667549,8.090019584,-55.57094573,-2.906508476,-1.187051776,8.620149018,2.186873853,4.192257645,-0.472637199
7.74969,-24.00235796,8.114836097,-55.5812836,-0.798524186,-1.172969042,12.86795235,-1.126181219,2.696592808,-0.153445304
7.758023,-23.96696997,8.131557226,-55.58266068,-1.359583184,-1.047942966,5.323505521,3.3783167,1.31916952,0.412571781
7.766356,-23.95541763,8.160491467,-55.59207533,-1.840299279,-0.923364192,13.31661344,0.962656901,3.10025692,0.175732866
7.774689,-23.90543843,8.193051458,-55.59493255,-2.273849011,-1.234277904,10.25981206,5.130734861,3.135611773,0.994043991
7.783022,-23.88608027,8.230205655,-55.61792948,-1.705580771,-1.825448185,6.086565197,2.094124347,4.659596683,-0.946683124
7.791355,-23.82462835,8.247750998,-55.60646248,-0.693532586,-0.252541997,10.27929568,6.335954011,0.800531388,1.871488333
7.799688,-23.78531838,8.292082787,-55.6120796,-2.204674572,-1.999405265,9.914340975,4.154866658,4.606567602,1.275252864
7.808021,-23.7234416,8.301819563,-55.59966853,-1.450353027,-0.473975025,12.05933748,6.401436389,-0.103161126,1.626673699
7.816354,-23.66595602,8.357047796,-55.62084963,-3.081624269,-1.967061937,8.546075761,6.519148007,6.572019339,-0.017571345
7.824687,-23.61062098,8.374490142,-55.61994933,-0.152549681,-0.680241696,12.18682098,5.908997267,1.29092896,0.813620299
7.83302,-23.55397129,8.4041785,-55.62927628,-1.825623617,-1.566205234,7.305403651,6.180290461,3.205222725,0.019700468
7.841353,-23.50388384,8.434133172,-55.6308937,-2.577187836,-1.387362208,14.30819821,5.34895438,2.805895926,1.103467778
7.849686,-23.42492437,8.483969569,-55.63017655,-2.132399992,-0.733287327,5.035269707,8.635045649,4.941091535,2.04989858
7.858019,-23.37346935,8.525774002,-55.6523819,-0.818455815,-1.329347268,9.040300177,5.926071704,5.071110725,-0.530029327
7.866352,-23.28546,8.555081606,-55.65003585,-1.511276364,-1.216132194,12.96187487,9.700815438,2.609078405,1.261594266
7.874685,-23.2428155,8.625747562,-55.67594718,-2.920131437,-2.464846909,9.277115732,4.851884484,8.422948718,0.371688232
7.883018,-23.16795301,8.656042576,-55.6708355,-0.302687168,0.279636294,8.749828688,8.144536971,2.586106747,1.655009583
7.891351,-23.10680294,8.726872921,-55.69225693,-2.155177862,-2.332436979,9.000112519,6.94777596,8.23439531,0.816031216
7.899684,-23.05553722,8.772420287,-55.69647218,-1.202406347,-1.339497909,13.99151075,5.557358176,4.697051167,1.435418665
7.908017,-22.99682331,8.839861989,-55.72034645,-2.497453168,-1.148855113,4.079284952,6.595664978,7.986055854,0.279076672
7.91635,-22.94634676,8.873855114,-55.72465898,0.083532553,-1.486581385,10.08248877,5.549944043,3.432001113,0.90667364
7.924683,-22.87187958,8.910531521,-55.73806383,-1.559516661,-1.127081484,8.058413237,8.290846825,4.0988605,-0.013729311
7.933016,-22.84554386,8.948903679,-55.75516893,-1.447922737,-2.32790494,11.56238127,2.859429673,4.501848698,-0.312740284
7.941349,-22.78607798,8.986745716,-55.76602553,-1.989504725,-1.224949567,10.34241754,6.443698362,4.11785388,0.299302383
7.949682,-22.75267649,9.050244569,-55.77198028,-0.843328298,-1.599501193,7.312058686,3.487392485,6.774773565,2.045959875
7.958015,-22.70996428,9.057216286,-55.76940728,-1.434721291,-1.112120152,12.39345381,4.260351837,0.074018985,0.427840963
7.966348,-22.66911888,9.124497177,-55.7864704,-3.115272492,-2.103114992,6.368577673,4.468087346,7.721395791,0.866312014
7.974681,-22.64657498,9.147188662,-55.79118155,-0.143584207,-1.168473591,11.65605307,2.104543179,2.14443636,0.439335503
7.983014,-22.60192394,9.164622544,-55.78936578,-1.327707257,-1.251315333,7.837129236,4.51421234,1.340845345,0.604819432
7.991347,-22.57909584,9.195076228,-55.78751183,-2.946521402,-1.536195129,13.70897365,2.013759472,2.716202498,1.475271162
7.99968,-22.5221405,9.218930721,-55.77994348,-1.407482833,-0.583341613,6.098513141,5.877050698,1.801480295,1.495638132
8.008013,-22.48234272,9.260133027,-55.79252625,-0.581851363,-1.988252517,7.791081921,4.334304869,4.552763701,0.414476874
8.016346,-22.41854811,9.251816033,-55.78409195,-1.707838237,-0.434225032,14.25188601,6.720097065,-1.810337245,0.180004073
8.024679,-22.37020541,9.298547983,-55.79823875,-2.384009481,-1.959621161,6.06919855,5.273347378,5.252654641,0.370369106
8.033012,-22.29977751,9.279458046,-55.7863655,0.159992867,-1.202430532,9.305138946,7.579160214,-3.16791582,0.163031502
8.041345,-22.20889092,9.287619591,-55.7942314,-2.094347328,-1.021716148,7.597342254,10.18589091,0.679824353,-0.720099583
8.049678,-22.14157725,9.292158603,-55.79390718,-1.904552139,-2.048789769,11.78145957,7.467419386,-0.03136754,0.006531656
8.058011,-22.02754784,9.302406072,-55.7876854,-1.042936623,-0.398876779,9.513350964,12.64094997,0.29974842,0.841354445
8.066344,-21.93534661,9.306470156,-55.78083038,-1.670726478,-1.455415923,9.05855237,10.31557763,-0.369877578,0.683746785
8.074677,-21.80706215,9.280469418,-55.7479248,-0.289182425,-1.229850963,11.47760421,13.94041586,-4.914992094,2.260386348
8.08301,-21.67985916,9.282397985,-55.73909568,-2.878874526,-1.43144517,7.623734534,14.33051276,-0.686457275,0.695026458
8.091343,-21.56596613,9.242576123,-55.71359443,-0.141556651,-1.978140965,10.57003689,12.47367883,-6.115206004,0.894439817
8.099676,-21.41369391,9.202211618,-55.68843458,-1.141897284,-1.15522483,7.839601398,17.00100327,-6.110902668,0.62067166
8.108009,-21.29395676,9.166349651,-55.6566105,-1.900080934,-1.506900966,13.52687693,13.05254698,-5.944359184,1.789343879
8.116342,-21.14952469,9.099398614,-55.6231861,-1.919286549,-1.073304457,9.701594173,15.92555714,-9.419992508,0.388667332
8.124675,-21.00837946,9.073838354,-55.59623908,-1.659534216,-2.507636324,6.082893999,15.64389419,-4.576282196,1.672715589
8.133008,-20.89235545,9.004228116,-55.56579398,-0.480890293,-1.186644996,16.08253932,12.6947298,-9.608167648,0.121933445
8.141341,-20.76490688,8.943207145,-55.53479765,-1.742175408,-1.533165768,8.500063061,13.83574987,-8.714006305,0.574594963
8.149674,-20.66157246,8.883136988,-55.507576,-2.810838106,-2.415446758,7.434515538,11.25574589,-8.393478181,0.191287234
8.158007,-20.53602743,8.808251262,-55.47247885,-0.531192407,-0.573274896,10.86051792,13.60246611,-10.45310611,0.566106558
8.16634,-20.44258499,8.741129041,-55.44464303,-1.398601264,-3.065384865,8.857959868,9.993538618,-9.209390998,-0.066952415
8.174673,-20.36699248,8.681211949,-55.4152603,-2.502423242,-1.402929783,14.48669386,7.773632229,-8.522971393,0.614706561
8.183006,-20.27925444,8.631711364,-55.39357375,-1.080713987,-0.957433939,5.153885365,9.34949696,-6.968144534,-0.058365133
8.191339,-20.22443056,8.577260137,-55.37204553,-1.951404125,-2.653861105,10.76308775,5.51628679,-7.585457803,0.045013839
8.199672,-20.14232302,8.52847147,-55.34537505,-2.041793823,-0.924218796,10.20408574,8.561558247,-7.088781833,0.540671986
8.208005,-20.07966519,8.510824561,-55.32993888,-0.756050349,-1.438578725,5.855980693,6.507927776,-3.184526504,0.82337603
8.216338,-20.00638628,8.424617887,-55.30486488,-0.698598028,-1.407654535,10.28935654,7.652007401,-11.25240433,-1.035045982
8.224671,-19.933712,8.417342067,-55.27755355,-3.034003019,-2.843862951,8.787923575,7.400712669,-2.499120354,2.52912122
8.233004,-19.88585663,8.377082825,-55.25992015,-0.806347753,-0.365572698,14.06707525,4.768155087,-5.77007532,0.047030944
8.241337,-19.78874874,8.357983947,-55.22613145,-1.873182207,-1.336691961,4.656612456,10.20292437,-4.079630137,2.74400574
8.24967,-19.727211,8.32632792,-55.21049308,-1.266339064,-1.863476634,11.46198511,6.503912091,-4.718670845,0.232923067
8.258003,-19.62976027,8.30128181,-55.18103028,-2.063107908,-0.871543527,11.37878191,10.2741034,-4.570114133,2.007481635
8.266336,-19.54688597,8.276027799,-55.16773223,-1.911490083,-1.684770116,5.721432178,9.100872398,-3.893780469,0.207462624
8.274669,-19.41334582,8.226995588,-55.13325883,-0.30461669,0.242023841,9.161908775,14.61615539,-7.47280228,1.699866682
