,time,Euler_X,Euler_Y,Euler_Z,Acc_X,Acc_Y,Acc_Z,Gyr_X,Gyr_Y,Gyr_Z
0,0.0,-5.593898773333334,21.49592908,-40.577351866666675,-2.7695487343333336,0.36063748599999995,7.90002664,2.0305533813333327,2.4135209906666666,-2.5784443216666664
1,0.0027776666666644,-5.525670051666666,21.530002593333336,-40.579305,-4.380553722333333,0.9886725743333332,9.631126403,6.876983962,4.3180366359999995,-0.20902053500000006
2,0.005555333333328833,-5.470174789333332,21.635361353333334,-40.60013326666666,-2.0645204190000004,0.36256979866666667,9.522722402000001,6.210508666,12.771556020333334,-1.5211819013333334
3,0.008333000000031133,-5.399315198333333,21.74189822,-40.6127319,-3.839272975666667,0.47922132999999995,10.249879044,7.656304122333332,13.098132054999999,-0.5904672146666665
4,0.011110666666695567,-5.268354574666668,21.874020259999998,-40.616302466666674,-3.415296634,-0.10807854900000002,8.421625296,14.494743186666668,15.783584593666665,0.6427600210000001
5,0.01388833333336,-5.126558462666667,22.03338623333333,-40.627049766666666,-2.4770037333333335,1.0809375243333335,8.372658887666665,16.090282440333333,19.396528245,0.1307705640000001
6,0.0166660000000244,-4.996081511333333,22.189466473333336,-40.621475233333335,-2.750707388,0.4241194976666667,10.239975930333332,14.022572996,18.555899936666666,1.8767474096666668
7,0.019443666666688834,-4.8481688499999995,22.371515913333337,-40.62615456666666,-2.716861208333333,-0.8934942286666666,9.303406397666668,16.558578173333334,22.0427955,0.9464555183333333
8,0.022221333333353233,-4.665083567,22.561330793333337,-40.617919900000004,-2.741741617666667,0.5685129760000001,9.116935093333334,20.206272123333335,22.57744344,2.397993882666667
9,0.024999000000017663,-4.491362253999999,22.71778233666667,-40.61190796666667,-2.711925785,0.8141533136666667,10.692561784333334,19.17137972333333,18.886626246666665,1.81607608
10,0.0277766666666821,-4.335374037333334,22.923314413333333,-40.610585533333335,-3.7765566506666666,-0.25449976366666666,8.736651738,17.26895491,24.52920532,1.6830144919999999
11,0.030554333333346503,-4.168155829,23.105638503333335,-40.6098582,-0.909261485,-0.6392733453333334,5.784778595,18.639121376666665,22.03324159,1.3717417046666665
12,0.03333200000001093,-3.980650742666667,23.271495183333332,-40.6033783,-3.515424490333333,0.07530804666666667,9.929971696666668,20.803620656666666,19.753840126333333,1.7978178263333333
13,0.036109666666675366,-3.818509181333333,23.41734123333333,-40.605234766666676,-0.717114846,0.12698592766666664,9.579562027333333,18.14950498,17.693802833333333,0.6364673426666667
14,0.03888733333333977,-3.6492997806666665,23.563667933333335,-40.59597266666666,-3.170907060333333,-0.6264367623333333,9.251622836000001,18.470219613333335,17.410695871333335,1.814509352
15,0.0416650000000042,-3.476372242,23.664911906666664,-40.5958252,-1.277353366,-0.481716839,9.879187584999999,19.360508603333333,12.353357155666666,0.450051248
16,0.04444266666666863,-3.3151548703333336,23.77372869,-40.597315466666664,-3.427355011333333,-0.32249581833333335,9.223906199333333,18.03107516,12.997988941333332,0.2569707233333333
17,0.04722033333333303,-3.1613773503333333,23.849478403333332,-40.597941066666664,-0.6736600199999999,-0.2174076833333333,9.715673131,17.0935599,9.303445018666666,0.15193965033333326
18,0.04999799999999747,-3.009229024333333,23.932790123333334,-40.598388666666665,-3.5373849173333327,-0.1989558936666667,7.656215349666667,16.874334336666667,9.940081676,0.12699967600000006
19,0.05277566666666186,-2.852156957,23.95042419666667,-40.60150656666667,-0.983791438,-0.4528105233333333,9.721015294,17.606288913333334,2.3591651913333336,-0.5333355466666667
20,0.0555533333333642,-2.701538245,23.99592653666667,-40.60346983333334,-2.449288805666667,-1.1481532453333332,10.872084934333335,16.762276966666665,5.412515928,-0.3231705029999999
21,0.0583310000000286,-2.5491605996666666,23.97939682,-40.59468079999999,-1.7479033073333332,-0.46219662466666667,6.966501394999999,16.46240997,-1.7897613840000002,0.5364134706666667
22,0.06110866666669303,-2.390587727333333,23.981804526666664,-40.59341940000001,-2.3661630946666663,0.080479443,11.849531806666668,17.599809963333332,0.24425296000000007,-0.21266221999999999
23,0.06388633333335747,-2.2350580693333333,23.965588890000003,-40.589274100000004,-2.811469763333333,-0.8149086833333333,7.337403933,17.084716483333334,-1.7218410173333332,0.046621998
24,0.06666400000002186,-2.0838090976666668,23.92840576333333,-40.58319093333333,-1.4721692803333335,-0.8612959583333333,8.467226662666667,16.486379943333333,-4.519205928,0.12807984133333336
25,0.0694416666666863,-1.9397714536666666,23.900475183333338,-40.58308916666667,-3.307376087,-0.434574952,11.126960118666666,15.904952683333335,-3.1015646456666666,-0.4703842006666667
26,0.07221933333335073,-1.798514684,23.84513982333333,-40.578714999999995,-1.6157113516666668,-1.0408356586666667,6.899372736666666,15.362888016666666,-6.685582002,-0.11805175766666663
27,0.07499700000001513,-1.6632401943333333,23.800945283333334,-40.58009846666666,-3.281259815,-0.8417185743333334,12.357742629999999,14.875637053,-5.063355207333333,-0.7371906636666666
28,0.07777466666667956,-1.5332734586666668,23.751274743333337,-40.572952266666675,-2.3701524436666666,-0.5359921356666667,8.166042964,13.862499236333335,-6.012038628333333,0.20343689099999995
29,0.08055233333334397,-1.411367456,23.686797459999998,-40.57654826666667,-2.5735329686666666,-1.0110019246666668,11.102188427666666,13.36946519,-7.4930332496666665,-1.0221828816666667
30,0.0833300000000084,-1.2878220873333335,23.656562803333333,-40.563385033333326,-3.212053815666667,-0.8806326590000001,9.480973245333333,12.804622015666666,-3.700236917333333,0.9466212393333334
31,0.08610766666667284,-1.1937099893333334,23.594426473333332,-40.55808003333333,-1.5851093726666665,-1.0899719596666666,8.600959142666667,9.619646232333332,-7.230734825999999,0.0010845659999999535
32,0.08888533333333726,-1.109620313,23.555671056666668,-40.551752766666674,-3.0870424113333335,-1.2957884866666667,10.321505703666666,8.415148814333334,-4.7032612170000005,0.20218588899999998
33,0.09166300000000166,-1.060687979,23.490854900000002,-40.550542199999995,-2.1242641609999997,-1.246395747,8.895210742666665,4.4220027926666665,-7.535120407333333,-0.4121928613333334
34,0.0944406666666661,-1.031704525,23.45455678,-40.54244486666667,-3.1882747806666667,-1.2487312356666667,10.039449374666667,1.7261347786666663,-4.40937988,0.41272211100000006
35,0.0972183333333305,-1.0182286703333334,23.378904343333335,-40.55631513333333,-1.7898851436666667,-1.1419340606666666,8.975066185333333,0.8829781213333329,-8.802448749,-2.0939853586666666
36,0.09999599999999494,-1.010708968,23.331553776666667,-40.550969433333336,-3.6720518273333336,-1.1710684546666668,10.766743976666667,-0.7300395966666665,-5.729306856666667,0.08006158266666667
37,0.10277366666669724,-1.02433002,23.256745023333337,-40.56235756666666,-1.3403246203333332,-0.8937005796666666,9.189110755,-2.493390082,-8.704701861333334,-1.8343896866666667
38,0.10555133333336165,-1.0592278439999998,23.196842826666668,-40.55471293333334,-3.613954862,-1.20358181,9.895516397,-5.935960453333333,-7.239010969666668,0.30158632
39,0.1083290000000261,-1.1072027683333334,23.121857323333334,-40.56483969999999,-1.35365508,-0.7852657833333333,8.052496592333334,-6.6929462740000005,-8.719899093333334,-1.719723185
40,0.1111066666666905,-1.1739427046666666,23.051151909999998,-40.551768,-3.7383019923333336,-1.5629096826666666,11.635667166666666,-10.013807776333332,-8.546221572999999,0.8418119699999999
41,0.11388433333335495,-1.2783653936666666,22.96845118,-40.559163399999996,-1.0361015536666667,-0.662577073,7.923679988,-13.557200749000001,-9.655537127999999,-1.4042669060000001
42,0.11666200000001936,-1.3870027263333335,22.867008843333334,-40.55426536666666,-3.7525499663333335,-1.0890990593333332,10.099195162666668,-14.667300226,-12.209314662333334,-0.1605715753333334
43,0.11943966666668376,-1.4989356596666668,22.79054006,-40.55677283333333,-1.7626932066666667,-1.02632384,11.932650564666666,-14.676453273333331,-8.921548951333333,-0.8541668853333334
44,0.12221733333334821,-1.6183076299999997,22.726223626666666,-40.55160016666667,-4.870706876,-0.2661849456666667,8.2412227,-15.948089599999998,-7.774115086666666,6.397600000007664e-05
45,0.12499500000001261,-1.7497130233333333,22.65285492,-40.56465656666666,-1.764840483666667,-0.587773174,12.191211383666667,-16.539130213333333,-8.501132566333334,-2.0465439853333334
46,0.12777266666667703,-1.8628011146666668,22.614480336666663,-40.55466713333334,-5.0935497283333335,-0.07709495233333336,9.773992857666666,-15.439329783333333,-4.675837675666666,0.5914328396666667
47,0.13055033333334146,-1.9933578570000001,22.586232503333335,-40.56582133333333,-1.637094517666667,-0.29807146366666665,8.084124247666667,-16.536571183333333,-3.09137861,-1.6674443086666664
48,0.13332800000000586,-2.1130103273333334,22.547010423333337,-40.573593166666676,-3.919352849333334,-0.5720454803333334,8.443259716333333,-15.407974243333333,-4.706147829666667,-1.4318660893333337
49,0.13610566666667032,-2.2258502646666662,22.536359786666665,-40.56658430000001,-1.6347266633333335,-0.6558159393333334,8.388721943,-15.259650546666668,-1.0437005366666663,0.39698250600000007
50,0.13888333333333472,-2.349865317666667,22.52507464,-40.57350159999999,-3.360600511,-0.9577774606666667,10.012013753333333,-15.957006453333335,-1.3605728943333333,-1.1995532913333333
51,0.14166099999999912,-2.458576282,22.53415108,-40.583887733333334,-2.4573672016666666,-0.388791884,8.690003077333335,-13.940673829,1.3972438873333335,-1.471717358
52,0.14443866666666358,-2.5555093286666666,22.52528445,-40.5844879,-3.5545928873333335,-0.194831396,10.880587894333333,-13.006067594666666,-1.0877262753333337,-0.47341933833333333
53,0.14721633333332798,-2.6626143456666664,22.575394309999997,-40.592620866666664,-2.5385619003333333,-0.7427972106666667,10.336410043999999,-13.833402953000002,6.294707774999999,-0.9964025813333333
54,0.1499940000000303,-2.7512302396666666,22.587316513333334,-40.613845833333336,-3.793771545333333,-0.05607762933333338,7.1318386396666655,-11.063868522,1.511043489333333,-2.6916336019999996
55,0.15277166666669473,-2.8329542476666667,22.625833509999996,-40.61935426666667,-2.3259302956666668,0.1682526573333333,9.920133591333334,-10.912894251333334,4.898010015666666,-0.7467745539999999
56,0.15554933333335913,-2.9026046593333334,22.649451573333334,-40.634638466666665,-2.679848989,-0.3212584253333333,9.907185235,-9.073127269333334,2.882669607666667,-1.9897013503333332
57,0.15832700000002356,-2.955182393333333,22.684628166666666,-40.6439667,-2.7571103373333337,0.2752983766666667,6.942389805999999,-7.227074305333335,4.518274208,-1.1865243016666667
58,0.16110466666668796,-3.0173470973333334,22.674894966666667,-40.6588135,-1.7529440916666665,-0.4642921736666666,9.486616133,-8.200235526333332,-1.1072481476666667,-2.1316042740000003
59,0.1638823333333524,-3.064135948666667,22.70024426666667,-40.65610756666667,-2.8728132643333333,-0.656513619,11.528022605333334,-7.077768445666667,3.272398313,0.08333178366666665
60,0.16666000000001682,-3.1205894950000004,22.687961579999996,-40.6793264,-2.121046384,-0.16826618599999998,6.690024534666667,-7.113945166666667,-1.3681248229999998,-3.0607349923333333
61,0.16943766666668125,-3.151602347666666,22.68554369333333,-40.676971433333335,-3.0523418186666667,-0.2504543163333333,11.285589853333335,-5.1709124693333335,-0.04736916233333336,-0.1220432520000001
62,0.17221533333334568,-3.1846373079999997,22.683546066666665,-40.69906106666667,-2.311917305,-0.5585793256666667,10.389566264666668,-4.3625317416666665,-0.1386624176666665,-2.8803681136666666
63,0.17499300000001008,-3.209000507666667,22.683423996666665,-40.69776916666666,-4.270485401,0.23628616333333333,8.617662112333333,-4.337958594333333,0.23295293233333333,-0.22309138399999995
64,0.17777066666667451,-3.234260639,22.672982533333336,-40.723429333333335,-1.1424740356666667,-0.473329047,11.660748480666667,-3.252816160666667,-1.1249815426666665,-3.319989581666667
65,0.18054833333333895,-3.240354061,22.67715899,-40.71866356666666,-4.784194390000001,-0.29346997533333335,7.275075594666667,-2.3426184853333334,0.7296388146666667,0.1709366833333333
66,0.18332600000000335,-3.248736938,22.64708646,-40.736180633333326,-0.15080424166666648,-0.28884337600000004,11.273170152,-1.576586246333333,-3.5270373796666665,-2.5368168753333333
67,0.18610366666666778,-3.2546357310000005,22.64802551,-40.73312379999999,-4.931902329000001,-0.4561809700000001,7.587045033666666,-2.2413010460000002,0.35316916299999984,-0.037042498333333285
68,0.1888813333333322,-3.261314709666667,22.616642,-40.75013223333334,0.28800423933333325,-0.6768106716666668,8.062825362666667,-1.3879629373333333,-3.6851289670000003,-2.486997207
69,0.1916589999999966,-3.2511965433333336,22.608438489999998,-40.74611413333333,-5.432197570666666,-0.42968861266666664,12.176696775333333,-0.37361764933333336,-0.7485247949999999,0.0035987296666666704
70,0.19443666666666104,-3.253325541666667,22.594048816666668,-40.763229333333335,-0.39870810499999987,-0.24917953733333334,5.519804318666668,-0.8120566603333333,-1.6493776636666668,-2.3730564913333336
71,0.19721433333336336,-3.239722967,22.59216308666667,-40.76472983333334,-5.072328806000001,-0.37372749800000005,12.344367346,0.27691555,0.04274177566666659,-0.5690501729999998
72,0.1999920000000278,-3.232428551,22.598784763333338,-40.77481079999999,-1.6944939306666666,-0.22880471533333333,10.710616112000002,-0.008721674333333299,0.8251112700000002,-1.4561225573333332
73,0.2027696666666922,-3.2186205386666664,22.615971246666664,-40.78152463333333,-4.418396055333333,-0.6525504043333333,6.7439712683333335,0.5453100503333334,2.360359986666667,-1.0158734323333334
74,0.20554733333335662,-3.205534617,22.634458543333334,-40.785486866666666,-1.3814321853333331,0.2046456263333333,11.969926834333334,0.40521713099999995,2.209394405333333,-0.6970060666666665
75,0.20832500000002105,-3.1876494883333333,22.66626739666667,-40.78785706666667,-4.613410432999999,-0.8347537216666666,7.236531893666668,0.828189373,4.084586620333334,-0.44415481900000015
76,0.21110266666668545,-3.1727384730000003,22.693085353333334,-40.7897695,-1.096802755,-0.07901617266666666,9.829912823666668,0.523674508,3.1939200956666665,-0.41629107800000015
77,0.21388033333334988,-3.1752978166666668,22.730986276666666,-40.800343833333336,-3.727245331,-0.7301266593333334,8.366741021666666,-1.227276156,4.864592193666667,-1.305416624
78,0.2166580000000143,-3.1555294993333334,22.754502616666667,-40.79590860000001,-1.299111987,-0.46263873566666663,7.542980034999999,0.800982803,2.761086464,0.25495547033333327
79,0.2194356666666787,-3.155651489666667,22.786406836666668,-40.805196099999996,-3.5390584073333335,-0.9908515663333333,11.355465572,-0.9875525536666667,4.1369168573333335,-1.2043386699999998
80,0.22221333333334314,-3.160720587,22.81981532,-40.80891926666667,-1.92694904,-0.324035704,8.059312979,-1.799865349,3.996174971333333,-0.581660787
81,0.22499100000000757,-3.1591752373333333,22.841104509999997,-40.80974326666668,-3.3142090636666666,-0.2865584543333333,10.477594059,-1.17509977,2.815567727,-0.3382360713333334
82,0.22776866666667198,-3.1615433693333332,22.879464463333335,-40.810877500000004,-2.3844815093333334,-0.02329917766666667,10.452724772333333,-1.5986742973333332,4.572700460666667,-0.26490656066666657
83,0.2305463333333364,-3.160651286333333,22.89896202,-40.810358699999995,-3.299966653,-0.7713085313333332,8.800076168333334,-1.3121022186666667,2.592083732333333,-0.20394053099999998
84,0.23332400000000084,-3.1767611503333337,22.925900143333337,-40.80918883333333,-2.1500107446666665,0.11982018733333333,9.339853205666666,-3.3515203000000002,3.19096152,-0.08920581166666681
85,0.23610166666666524,-3.1877396900000003,22.93492508,-40.81123350000001,-3.151892542666667,-0.42387777600000004,9.855103650666665,-2.622948924666667,1.3542714516666665,-0.5569174093333333
86,0.23887933333332967,-3.1954010326666666,22.943253836666667,-40.80383303333334,-1.8017687599999999,-0.8583802183333334,8.271969954,-2.644191483666667,0.9241617519999998,0.4630200196666667
87,0.2416569999999941,-3.228568474333333,22.93297640666667,-40.8118744,-2.7135616940000005,-0.36672148100000007,10.127612909,-5.005311727333333,-0.9185905456666665,-1.345622460333333
88,0.24443466666669642,-3.2519981066666666,22.91746775333333,-40.799107899999996,-1.86727047,-0.507758513,7.301125289333332,-4.793524662666667,-1.9672589103333333,0.8892195223333333
89,0.24721233333336082,-3.282196283333333,22.885438283333333,-40.80275473333334,-2.7215798299999996,-0.7631831563333334,11.454203606666667,-4.8497949443333335,-3.550128936666667,-1.0012988643333334
90,0.24999000000002525,-3.2965844470000003,22.856483460000003,-40.790222166666666,-2.5058221019999998,0.012249057333333322,6.973353861666666,-3.686861872666667,-3.578159410333333,0.7696693736666665
91,0.25276766666668965,-3.3352095286666668,22.80596923666667,-40.79214476666667,-2.12346375,-0.787345449,11.995347978333333,-5.936176141333334,-5.772748549666667,-0.934428672
92,0.2555453333333541,-3.3450922173333333,22.767361960000002,-40.781102533333325,-3.797120253333333,0.3790003806666667,7.522753715666667,-3.0844577550000003,-4.726023354666666,0.5322425316666667
93,0.2583230000000185,-3.3633464973333336,22.70008341666667,-40.78006489999999,-1.5427636503333335,-0.5573437063333334,10.555605250666666,-3.613088776666667,-7.8017803820000005,-0.7252201136666666
94,0.2611006666666829,-3.351364374333333,22.65420913666667,-40.76808166666667,-3.952546834666667,0.26488647833333334,7.981270630333333,-0.4936927953333334,-5.6035118100000005,0.591928025
95,0.26387833333334737,-3.375912269,22.556603749999997,-40.76727803333333,-0.9722755823333333,-0.8114722766666667,12.16336886,-4.359641370666666,-11.431053636666666,-0.9686235883333333
96,0.2666560000000118,-3.3501178423333333,22.48784574,-40.75042723333333,-4.700518210666666,0.8320972719999999,8.897386392,0.9288626710000002,-8.376177231666667,0.9727262256666668
97,0.2694336666666762,-3.329235951333333,22.36654981,-40.743392966666654,-1.20132039,-0.3593622506666667,9.499111335666667,0.8337825929999999,-14.309301693333333,-0.42853451766666667
98,0.27221133333334063,-3.2752311229999997,22.28533045333333,-40.72282406666667,-4.343116442333334,-0.027991260000000007,9.765617055333333,4.152615864,-9.890061020000001,1.3232912423333332
99,0.27498900000000503,-3.243681748666667,22.148806253333333,-40.71159359999999,-0.9775445459999998,-0.29244040433333335,10.800446826666665,1.913739502,-16.15819931,-0.048820575
100,0.27776666666666944,-3.169618209333333,22.053332013333332,-40.69663493333332,-5.162069956666667,0.2619707336666667,10.476861159666667,6.794477660999999,-11.562780699000001,0.6075654626666666
101,0.2805443333333339,-3.0923078853333337,21.906084696666667,-40.67798869999999,-0.8444299896666667,-0.44052118566666665,9.720980960666667,7.095841646333334,-17.483984631333332,0.7515730063333333
102,0.2833219999999983,-3.0081582866666667,21.787661233333335,-40.6689148,-4.537421703333334,-0.635796291,10.046919505333333,8.230662627,-14.282082879999999,-0.18645011999999994
103,0.2860996666666627,-2.9250237146666667,21.643987656666667,-40.649271666666664,-1.1097741526666667,-0.43632882833333336,11.148712794333333,7.731671810666666,-17.06129900666667,0.9219415983333334
104,0.28887733333332716,-2.844174782333333,21.501466113333333,-40.638860066666666,-4.824064413666666,-0.49996230999999997,10.821088789333333,7.789774576,-17.173830666666667,-0.14165095466666658
105,0.2916550000000295,-2.7348412673333335,21.377757393333336,-40.6181539,-2.28256309,-0.23408956333333333,8.857883613,10.872532845333334,-14.668558437666666,1.2103234926666664
106,0.2944326666666939,-2.649639686,21.247971216666667,-40.61084496666666,-4.134734789666666,-0.7264333566666666,13.205159823666667,8.446480532333334,-15.629437766666667,-0.3674531776666668
107,0.2972103333333583,-2.576282104,21.150553386666665,-40.582824699999996,-3.394753058666667,-1.5408250096666667,8.312905631,6.269945145666667,-11.551260231999999,2.2331559659999995
108,0.29998800000002274,-2.5152599016666666,21.06582705,-40.59078976666667,-3.209991613666667,-0.3400243916666666,11.012484550000002,6.238759359666666,-10.14244648,-1.7764712176666666
109,0.30276566666668714,-2.4498181343333334,20.99184863,-40.5667928,-3.772883097333333,-0.8385468026666666,10.316234906666667,5.486066819333334,-8.722904165000001,1.9355142910000003
110,0.3055433333333516,-2.4255847926666667,20.926267623333334,-40.558949766666665,-2.4660018679999998,-1.258213957,8.544439633333335,1.156312881,-7.923769314666667,0.13821011799999994
111,0.308321000000016,-2.4251443546666667,20.8791701,-40.54689026666667,-4.073868275,-1.196211775,10.595415432333334,-1.8110800583333333,-5.441131354666666,0.758399725
112,0.3110986666666804,-2.407978455,20.85524940333333,-40.54928593333333,-3.4542623360000007,-1.5004877646666668,9.850084463,0.7507410050000001,-2.88419326,-0.7816402516666666
113,0.3138763333333448,-2.4087902703333333,20.845532103333333,-40.50525919999999,-3.9470425446666666,0.5726027886666666,12.527175425333333,-3.3423039116666664,-1.1083492839999998,4.543748219666666
114,0.3166540000000092,-2.462263187,20.868557613333333,-40.5229594,-2.714392503333334,-1.6221831886666667,10.862438199000001,-7.064671754,2.811683933333333,-2.2345049980000002
115,0.31943166666667366,-2.4557902813333334,20.924782436666664,-40.48151146666667,-5.3784316379999995,-0.2962817353333334,6.987364530333333,-2.365572631333333,6.809512138,4.584090352
116,0.3222093333333381,-2.4650298753333337,20.95941543666667,-40.48392743333333,-0.5436896083333334,-0.07211252566666664,8.891246318,-2.4223508836666667,4.137596050666667,-0.4825764896666665
117,0.3249870000000025,-2.498397986,21.04310799,-40.47181193333333,-5.334876060333333,-0.11448986333333332,11.28691419,-5.912718453666667,10.245273272333334,1.423186824
118,0.3277646666666669,-2.5227478343333334,21.183235803333336,-40.46632893333334,-2.4292203186666668,-0.7554153600000001,11.292400520000001,-4.561067621,16.744851748666665,0.9548858803333333
119,0.33054233333333133,-2.5166521866666667,21.29494603666667,-40.457672099999996,-4.685412804333333,-0.6337967516666666,11.082950434333334,-1.0414189796666666,13.618611575333333,1.1860411963333333
120,0.33331999999999573,-2.5290509859999997,21.43779564,-40.472386666666665,-1.3429538556666667,-0.7908379609999999,5.3754239020000005,-2.2261706980000002,17.171333313333335,-1.2807037533333334
121,0.33609766666669816,-2.535393635333333,21.55563545,-40.46045430000001,-2.7741401393333334,0.45176459566666666,7.0695494016666665,-2.679151695,14.332667030000001,1.5703835486666666
122,0.3388753333333625,-2.535405636,21.718236286666667,-40.48677573333333,-1.5574634073333335,-0.9042500059999999,10.630431176,-0.20381194366666647,19.595473926666667,-2.4633989633333333
123,0.3416530000000269,-2.4840013979999997,21.878146489999995,-40.4774526,-4.599420150333333,-0.381484489,9.313914933666666,4.3625880079999995,19.391164143333334,1.4954704916666666
124,0.34443066666669137,-2.4401381013333334,22.000868479999998,-40.49261983333334,-1.1258699893333333,-0.0868515173333333,9.626140752,4.603472550666667,14.758206210666666,-1.4352473220000002
125,0.34720833333335577,-2.421692133,22.141260146666667,-40.507924366666664,-4.690722306666666,-0.6043966043333334,9.975792248333335,1.5135798056666667,17.170700868,-1.368697087
126,0.34998600000002017,-2.412167867,22.31719462,-40.5151062,0.317092933,-1.062659502,5.453702482,0.12476684666666664,21.09899679666667,-0.28728981833333345
127,0.3527636666666846,-2.391421715666667,22.41616439666667,-40.53910319999999,-3.119501034666667,-1.8845316169999997,8.026067256666666,2.162935098,12.243275682333334,-2.558516899666667
128,0.35554133333334903,-2.356978019,22.50294876,-40.547922766666666,-1.520964424,0.006172080666666663,8.675303299333333,3.179335117333333,10.418308097666667,-0.9389540256666667
129,0.35831900000001343,-2.344320138,22.593959173333335,-40.56099446666667,-2.768461306666667,-0.04598558566666666,11.577386854666665,0.6824146209999999,11.238213658,-1.4113829139999996
130,0.3610966666666779,-2.3423794113333334,22.64996401333333,-40.563761400000004,-1.9146934053333335,-1.7940504156666668,9.684351762666665,-0.9874334136666666,6.699063141000001,-0.4262336293333333
131,0.3638743333333423,-2.329869032,22.690175376666662,-40.575017300000006,-3.122472604,-0.8637673456666667,6.1644414266666665,0.5901226199999999,5.142161289,-1.461774985
132,0.36665200000000664,-2.331434885666667,22.686181386666664,-40.573816933333326,-0.6765558770000001,-0.6729557913333334,9.678020635333334,-1.6464192866666665,-0.5152142436666668,-0.14664141366666664
133,0.36942966666667115,-2.338460525,22.664827346666666,-40.590021766666666,-2.307404041333333,-0.7715990943333333,9.565467198999999,-1.5278085273333335,-2.214923779333333,-2.3170599940000005
134,0.3722073333333356,-2.350599607,22.626046499999998,-40.58320106666667,-2.613204558666667,-0.809083894,8.151682375666667,-3.125368595333333,-4.705711682333334,0.15694274499999997
135,0.37498499999999996,-2.3898080986666668,22.57244301,-40.601689666666665,-2.626475334333333,-1.035031896,11.459429425666665,-5.2696855860000005,-6.071035105666667,-2.7247956196666667
136,0.3777626666666644,-2.4192630446666663,22.508847556666666,-40.597076433333335,-3.292915543,-1.3816729786666666,8.334081014,-5.124431688666667,-7.666794459333333,-0.22793269166666677
137,0.3805403333333288,-2.486413638,22.41052373333333,-40.6137644,-1.783793767,-1.0691306393333333,10.135942617,-8.663363775999999,-11.444584847333331,-2.7502221663333333
138,0.38331800000003113,-2.5453864733333336,22.325560886666665,-40.607671100000005,-2.811488628333333,-1.152167936,6.657241503333332,-8.716047683333333,-10.240658283666667,-0.1694040099999999
139,0.38609566666669565,-2.627472003,22.214483893333334,-40.628667166666666,-2.3985442320000003,-1.0729556506666666,9.285978475333332,-10.267381110333334,-12.94246324,-3.324963411
140,0.38887333333336,-2.7098852793333332,22.128002803333334,-40.616139733333334,-4.291816870333332,-1.1860433466666667,10.747707685666668,-11.827568530999999,-10.460177104666666,0.4938340733333333
141,0.3916510000000244,-2.808725834,22.021973289999995,-40.639256766666655,-1.0941604773333333,-1.079555114,5.915629546000001,-12.180460691999999,-12.324771721333335,-3.5253993273333335
142,0.3944286666666888,-2.9105602106666666,21.902798333333333,-40.63273113333333,-4.491784413666667,-0.2209686413333333,12.82963975,-13.894318738666668,-14.347459793333334,-0.37981220966666657
143,0.39720633333335315,-3.0090534686666666,21.791337966666664,-40.63505046666666,-2.1160251696666665,-1.7061000763333334,9.740488212666667,-13.096920966666666,-13.079340298666665,-1.3100915749999997
144,0.39998400000001766,-3.109019041,21.695939383333336,-40.63454183333334,-4.066335280666667,-0.17439538733333335,8.161176363000001,-13.386807123000002,-11.474208989333334,-0.8891688186666667
145,0.40276166666668206,-3.202558756,21.602506636666664,-40.6405385,-2.7099123593333334,-0.2292424736666667,12.3138202,-12.349999643666665,-10.880055427666667,-1.6503640043333332
146,0.4055393333333465,-3.2804281713333334,21.52016258333333,-40.6298574,-4.556483109666667,-0.5774477299999999,9.257656416000001,-11.212035021333334,-9.956956545333332,0.24367698033333332
147,0.4083170000000109,-3.364475727,21.453570686666666,-40.633153300000004,-2.1434491873333332,-0.9019456906666666,8.955595970666666,-11.324668684666667,-7.6882992990000005,-1.1660286386666667
148,0.4110946666666753,-3.423808336333334,21.384761176666668,-40.636922199999994,-3.9693706033333336,0.17070938633333335,10.299100238666668,-8.361333371,-8.237988472333333,-1.3238552033333333
149,0.4138723333333398,-3.471617937,21.301324843333333,-40.630569466666664,-2.1740994060000003,-0.6231318463333334,8.547154744333334,-7.392815350333333,-9.767539979666667,-0.26065477233333334
150,0.4166500000000042,-3.5163833303333334,21.258890153333333,-40.6329651,-3.2105240026666664,-0.9268564703333334,8.49132967,-6.6624397103333335,-5.092487197333333,-0.963889306
151,0.4194276666666686,-3.540525675,21.192081453333333,-40.64264426666667,-2.244741122,-0.31804394700000005,9.401549815000001,-3.8319033289999997,-7.665744145666667,-1.9403980723333332
152,0.42220533333333304,-3.5332256159999997,21.13467025666667,-40.63515726666666,-4.6113528409999995,-1.1028953196666669,8.871887843000001,-0.8482372363333331,-6.953459579333333,0.012072886000000005
153,0.42498299999999745,-3.5356922943333338,21.126824696666667,-40.638956699999994,-2.470052759,0.13275839766666664,11.069370268666667,-1.4752093753333335,-0.6487190326666665,-0.8358222840000001
154,0.42776066666666185,-3.534473180666667,21.10708237,-40.657155366666665,-4.597784837,-1.1838025053333334,9.593181449,-0.4677329463333333,-2.2646997773333335,-2.5789393583333333
155,0.43053833333336416,-3.5076576866666667,21.094724653333333,-40.643778466666674,-3.2463436126666667,-1.1444197896666666,7.315591653333333,1.2829530236666666,-1.3091775573333333,1.049334208
156,0.4333160000000286,-3.5061590673333334,21.11399587,-40.66200256666667,-2.4257605869999996,-0.6708395283333334,10.660305342666666,-0.44323738399999996,2.407597383,-2.2891275883333333
157,0.436093666666693,-3.5106244883333333,21.132439296666668,-40.66263323333334,-4.052124261666666,-0.8422943649999999,8.369095007666667,-1.8662870326666667,2.476486444333333,-0.2974921563333333
158,0.4388713333333574,-3.521110773,21.156140643333334,-40.66460166666667,-3.122839808666667,-1.0697540096666667,9.190611839666666,-2.5866195363333335,2.828285775,-0.4334527253333332
159,0.4416490000000219,-3.5371229646666666,21.20605024,-40.66814166666666,-3.6899468106666666,-1.1999335436666667,11.483274459999999,-3.122593105,6.263253103,-0.37824960533333324
160,0.4444266666666863,-3.5592192810000003,21.266763053333335,-40.684005766666665,-2.8231022360000004,-0.9833636979999999,9.774457771,-3.3617022833333334,7.354288022666666,-1.7073043436666666
161,0.44720433333335063,-3.5979812143333336,21.322966256666664,-40.670664499999994,-3.0798562366666666,-1.0642291156666668,7.881521544333334,-6.596464316,6.903121966333333,1.5616701146666665
162,0.44998200000001515,-3.649577379,21.389803566666668,-40.70074973333333,-1.732035647,-1.1448507306666666,8.003331979,-6.270830949333334,8.187779107333334,-3.242032647
163,0.45275966666667955,-3.6643398603333335,21.469473519999998,-40.698252333333336,-4.799664974333333,-0.7409238193333333,9.889247577333332,-3.249148766,9.791046936333332,0.5099752446666668
164,0.45553733333334395,-3.722650051,21.56676801,-40.71828713333334,-1.8509680426666666,-0.2716783483333334,10.928482373666666,-7.511700153333333,11.769465129333332,-1.868174414
165,0.4583150000000084,-3.78665328,21.658334729999996,-40.72565716666667,-4.853844563333333,-1.613977055,10.879212696666668,-8.725256285333332,11.283986411333336,-0.475980898
166,0.4610926666666728,-3.832052866666667,21.731515883333334,-40.75033059999999,-0.980409667,-1.6466923953333332,6.4904173216666665,-5.740329901333333,8.918950080666667,-2.566085458
167,0.4638703333333372,-3.8923499583333334,21.791409806666667,-40.75649513333334,-3.183009783333333,-0.11628026266666669,7.513457854666666,-8.341558774333334,7.484672229333334,-0.571449384
168,0.4666480000000017,-3.9686540763333333,21.86177444666667,-40.780654899999995,-1.6299210093333334,-0.5779237746666667,9.988883972666665,-9.452858288666667,8.577781795333333,-2.5223964056666666
169,0.4694256666666661,-4.018123626666667,21.9299043,-40.79621886666666,-5.3053689,-1.120854497,8.337264854666667,-6.622189362666667,8.548042854333334,-1.5474669933333332
170,0.4722033333333306,-4.077329874,21.98956235,-40.8099111,-1.2246076166666666,-0.3566517086666667,10.391470272666668,-7.858336607000001,7.216371615666667,-1.404590731
171,0.47498099999999494,-4.151397307666667,22.03063901333333,-40.83272806666667,-4.142740249666667,-0.8160625893333333,11.206122396666666,-9.240592003,5.367592173999999,-2.575281024
172,0.47775866666669725,-4.2171840666666665,22.080547966666668,-40.84550986666667,-1.296260893,-1.2012853623333333,6.114416599333334,-8.676959197999999,6.035709142333334,-1.3713650700000002
173,0.48053633333336165,-4.288036108,22.09212049,-40.86815899999999,-2.6614250343333334,-0.6973246703333333,8.528773783333333,-8.871380489,1.8409335529999995,-2.787520686666667
174,0.48331400000002606,-4.346170981666667,22.121278126666667,-40.88100686666667,-2.409601198666667,-0.831367155,8.485917885,-7.746936002999999,3.5578475793333335,-1.5760525066666666
175,0.48609166666669057,-4.408586025333334,22.136124289999998,-40.899134333333336,-3.5648380520000003,-0.43985702333333326,9.626681962333334,-8.070632457666667,2.1974581079999997,-2.264225915
176,0.4888693333333549,-4.4736976623333335,22.139022190000002,-40.90700786666667,-1.9759381613333333,-1.2247501213333332,9.333832423,-8.795950572,0.3787623243333334,-1.2397206623333332
177,0.4916470000000193,-4.523124694666667,22.124325436666666,-40.922297199999996,-3.195050637,-0.8440987739999999,8.926644962333334,-6.647048424,-1.3632451693333334,-2.224028587333333
178,0.4944246666666838,-4.572343985333333,22.10109583666667,-40.92349243333333,-2.2778482836666667,-0.3752736673333333,11.320380527666666,-7.1908344023333335,-2.7995382249999996,-0.736823587
179,0.4972023333333481,-4.608923276,22.080775580000005,-40.93815613333333,-3.364673455333333,-0.6282552183333333,8.593922615666665,-5.125716408333333,-2.039990107,-2.1964933473333335
180,0.4999800000000126,-4.6231795946666665,22.050998050000004,-40.93172710000001,-3.054153998666667,0.012889791999999997,8.587032319666667,-3.3547264733333333,-3.6454141933333335,0.028807382000000104
181,0.502757666666677,-4.650128523333334,22.00760905333333,-40.945724500000004,-3.0622331300000005,-0.9312417106666667,11.270855903333333,-3.999590814,-4.8040785003333335,-2.3423368933333335
182,0.5055353333333414,-4.649716377333333,21.979736963333334,-40.93717953333333,-2.765397668,-0.14019117766666667,7.197514056999999,-1.696772398,-3.439393837666666,0.2783542473333333
183,0.5083130000000059,-4.666940848,21.90494601,-40.94823203333333,-2.360671003666667,-0.931339403,9.990907669,-2.961637914,-8.584108830666667,-2.3165859580000006
184,0.5110906666666702,-4.660400390666666,21.865793229999998,-40.94338480000001,-3.2361217339999997,-0.9221483766666667,8.532169818333335,-0.8090470833333333,-4.754390616666667,-0.2375677926666667
185,0.5138683333333347,-4.653506914666667,21.798448563333334,-40.94601946666668,-2.8784806730000003,-0.8315918693333333,10.942964236666667,-0.43924578033333334,-7.7695404686666665,-1.3110219376666665
186,0.5166459999999992,-4.6574457486666665,21.75562159333333,-40.94877626666666,-3.5501183666666667,-0.730539779,9.423215070333333,-1.7221388619999998,-5.124772628333334,-1.1065224806666667
187,0.5194236666666635,-4.637315909333334,21.709893543333333,-40.95167033333334,-3.396790742666667,-0.7802048526666666,9.912386894666668,1.1480129660000002,-5.181448459666667,-1.1318632166666667
188,0.522201333333328,-4.618524869333333,21.684696833333334,-40.9506429,-4.299203873,-0.5980190833333333,12.79214414,0.832428361,-3.0507883230000004,-0.5166262583333333
189,0.5249790000000303,-4.605606079,21.674814223333332,-40.9632619,-3.1287459529999997,-0.48218008900000003,6.977073669666666,0.7290067076666666,-0.8084154126666664,-1.8566650546666665
190,0.5277566666666947,-4.593883355333333,21.650915143333336,-40.960769633333335,-3.061603824666667,-0.930761593,10.512859345,-0.09243315466666664,-2.908312877,-0.34599294266666664
191,0.5305343333333591,-4.588223616333333,21.655541736666667,-40.97029626666667,-3.792398373333333,-0.865915656,10.747956912666666,-0.27416630599999986,0.8983296553333333,-1.372987052
192,0.5333120000000235,-4.5881838796666665,21.665034610000003,-40.978271466666676,-2.429695845,-1.5552128553333333,5.554256757,-1.0258290766666667,1.178028757,-1.1842615406666666
193,0.536089666666688,-4.593619346666667,21.657659533333334,-40.98960876666666,-3.264397859666667,-0.6482196476666666,11.253274283333333,-1.5212336876666666,-0.5202418963333333,-1.6886398496666668
194,0.5388673333333523,-4.589467366666667,21.69176229,-41.00198873333334,-3.2828699746666667,-1.3711574473333334,9.636792501666667,-0.34686807799999997,4.161285081666667,-1.4407197236666667
195,0.5416450000000168,-4.602699756333334,21.716306686666666,-41.00628663333333,-3.506688992333333,-0.7820801736666666,10.542387962333333,-2.759425799,3.231381019,-0.5906257233333333
196,0.5444226666666813,-4.619582017333333,21.754793799999998,-41.024149566666665,-2.543071886,-0.8328004480000001,9.507724282333333,-2.6192689433333336,4.734612504666667,-2.0020853676666666
197,0.5472003333333456,-4.622685750333333,21.782940546666666,-41.02813723333333,-3.8368873596666666,-1.0943493643333333,7.507606347333334,-1.566332062,3.6607273320000004,-0.5189229843333333
198,0.5499780000000101,-4.651707490333333,21.839342119999998,-41.03757223333333,-2.1681626040000004,-0.9831033946666667,9.840491453666667,-4.440902444333333,6.800136089666666,-0.8908845186666667
199,0.5527556666666745,-4.686330159333333,21.873544056666663,-41.05288186666667,-3.575908581666667,-0.7795481583333334,6.8330655096666675,-4.834776481,4.487528642,-1.723475178
200,0.5555333333333389,-4.720825990000001,21.926247916666668,-41.063278200000006,-3.618888457666666,-0.7722627506666667,12.376659076666668,-5.065846920333333,6.369496426333334,-1.0165863686666665
201,0.5583110000000033,-4.758561293333333,21.98774464666667,-41.070165,-3.0391821463333333,-1.5625603000000001,10.266941069666666,-5.585859060333333,7.6722110123333325,-0.514483253
202,0.5610886666666678,-4.797304948,22.02921804,-41.08979289999999,-2.087013046,-0.7987093526666666,7.057260354333334,-5.158374071,5.109037081666666,-2.148103674666667
203,0.5638663333333321,-4.842759132666667,22.06806246666667,-41.09654236666666,-3.3151794273333337,-0.7078638473333333,10.912708919666665,-6.519625504666667,4.9713264703333335,-0.714684069
204,0.5666439999999966,-4.883342107333333,22.12083435,-41.099009200000005,-2.0270650386666667,-1.4255490253333336,7.584165573,-6.149448792,6.298545518333333,-0.1480929006666667
205,0.569421666666661,-4.9357682863333325,22.153666816666668,-41.11601763333334,-3.550518751,-0.226416111,7.831328868666667,-6.891818205666667,4.3510434626666665,-1.9125937816666667
206,0.5721993333333634,-4.9918260576666675,22.197739283333334,-41.1206665,-3.027731975,-1.45705833,11.160193443333332,-7.892023881,5.281549056,-0.467216482
207,0.5749770000000277,-5.040133794,22.227384566666668,-41.12686156666667,-2.5658864976666664,-1.1971040466666667,6.812016805,-6.908091227333333,3.869927003666667,-0.750723382
208,0.5777546666666921,-5.111784299333333,22.231456756666663,-41.13811743333333,-2.32930394,-0.7671026786666667,10.384404181,-9.436576207333333,0.5576220353333334,-1.5908619166666667
209,0.5805323333333566,-5.160405636,22.244422913333334,-41.145161966666656,-2.858855724666667,-1.2302638293333334,7.1168742179999995,-6.908253192666667,1.8848152953333335,-1.015450663
210,0.583310000000021,-5.199606418333333,22.235694249999998,-41.149220766666666,-2.580695589333333,-0.35661267733333335,9.716000556666666,-5.883551836,-1.0356347263333336,-0.946783289
211,0.5860876666666854,-5.249916871333333,22.23826027,-41.15552773333332,-3.2028161286666665,-0.690804273,9.415033658,-7.130444526666667,0.6260500750000001,-1.042132338
212,0.5888653333333499,-5.291027386666667,22.21448771,-41.16310119999999,-2.1577070356666668,-0.943186641,6.888742129000001,-5.951856295333333,-2.7914486726666667,-1.5039997896666666
213,0.5916430000000142,-5.342615127333334,22.191928226666665,-41.16826373333333,-3.218382756,-0.947867801,11.150987944333332,-7.343456585999999,-2.384566065,-1.1918005943333332
214,0.5944206666666787,-5.377404848666667,22.14534378,-41.1743062,-2.024946257333333,-0.9598766666666666,7.145473957,-5.2933867176666665,-5.5287302333333335,-1.5915406246666668
215,0.5971983333333432,-5.421961466333333,22.10656992666667,-41.18414306666667,-3.3782112596666667,-0.8899652583333332,10.615730603666668,-6.261963446999999,-4.277603467,-1.8798287606666666
216,0.5999760000000075,-5.451989968333333,22.055786769999997,-41.1889699,-2.627557238,-0.9693654479999999,8.974372068333333,-4.799663782333334,-6.036319256,-1.5152397156666666
217,0.6027536666666721,-5.474790254999999,22.014538446666666,-41.1972046,-3.6006813443333336,-0.266305218,10.770230292,-3.739038112333333,-4.583120902666667,-1.7387966313333332
218,0.6055313333333362,-5.5006566050000005,21.965428669999998,-41.20714316666667,-3.1822933353333327,-0.8711962203333333,10.055707455333334,-4.05634737,-5.786811034,-2.05488501
219,0.6083090000000008,-5.506049633333333,21.930913926666666,-41.21699523333333,-3.4929239353333337,-0.5262398023333333,7.344896316,-1.5702678363333333,-3.7583509286666668,-1.84242331
220,0.6110866666666653,-5.520594120333333,21.87705739333333,-41.22308346666667,-2.2029547293333334,-1.1823701260000001,11.685198464666668,-2.855381439,-6.39680926,-1.6818862753333335
221,0.6138643333333297,-5.521826267333334,21.83520063,-41.23151143333334,-3.6621101696666667,-0.5831955026666666,7.599861782333332,-1.1442648566666667,-4.651532570333333,-1.7715703250000001
222,0.6166419999999941,-5.535761674,21.77032534,-41.24050903333333,-2.350426634333333,-1.3277706603333332,10.744712510666668,-2.618304412,-7.685850858333333,-2.1225961643333333
223,0.6194196666666962,-5.54332304,21.718986513333334,-41.24664816666666,-3.663135767,-0.8841682673333334,7.586422920333334,-1.99786369,-5.807430426,-1.6255049903333336
224,0.6221973333333608,-5.55617555,21.651044846666668,-41.25577799999999,-2.096386611333333,-1.5286248923333332,9.912298202333334,-2.5064981776666664,-8.049769243,-2.1847749153333336
225,0.6249750000000253,-5.568489074666666,21.606717426666663,-41.26161703333333,-4.256687800333333,-1.3001420396666665,8.374525864666667,-2.589023113333333,-4.975745042333333,-1.5137331086666668
226,0.6277526666666896,-5.578955968333333,21.537921906666668,-41.26828,-2.5661709703333333,-0.4340802556666667,9.550334930333333,-2.3330345253333333,-8.177754721000001,-1.9301949936666667
227,0.6305303333333542,-5.5992166203333325,21.496840793333334,-41.2749939,-3.934122046,-1.4102556706666665,11.804436682666667,-3.524083495333333,-4.575714170666667,-1.5789213973333334
228,0.6333080000000185,-5.599780400666667,21.442557649999998,-41.2695109,-3.0107860169999996,-1.1480479836666666,7.355355262666667,-1.7018909253333334,-6.573868273666666,-0.417840759
229,0.6360856666666829,-5.622860749333333,21.40517235,-41.274770100000005,-3.9959519703333335,-0.4182740946666666,13.406496046666666,-3.9077075223333337,-4.1535490353333335,-1.3628822563333334
230,0.6388633333333473,-5.647522449333334,21.36730702666667,-41.27590433333333,-3.760479291,-1.317819754,7.759318987333334,-4.299597024666667,-4.539602438666667,-0.9577247600000001
231,0.6416410000000118,-5.666285514666666,21.337059023333335,-41.263748166666666,-2.9705283243333334,-0.5475263573333334,11.614017806666666,-4.156404932333333,-3.491574922,0.6589774986666667
232,0.6444186666666761,-5.704010804666666,21.323487599999996,-41.26715086666667,-4.943886041666667,-0.9015499753333334,9.765702567,-5.747945626666667,-1.6186193229999999,-0.9126652279999999
233,0.6471963333333405,-5.739383538333333,21.311318713333335,-41.264821366666666,-2.2358824813333333,-1.1094800433333332,7.821864921666666,-5.712290048666667,-1.2277630170000002,-0.216034713
234,0.649974000000005,-5.779230435666666,21.308146796666666,-41.2568614,-3.756307164666667,-0.23676762466666668,11.880642253333335,-6.496367931333334,-0.5039903966666666,0.47426463199999996
235,0.6527516666666694,-5.818377653666666,21.315630593333335,-41.257532766666664,-1.9588576653333334,-1.4849005343333335,5.174488226666667,-6.045711040333333,1.1489691486666667,-0.3247158813333334
236,0.6555293333333339,-5.862316449666667,21.308720903333334,-41.250208533333335,-3.709909757,-1.1355260213333334,11.93696626,-6.958722272,-0.9461599983333331,0.35281052566666665
237,0.6583069999999983,-5.924095312333333,21.330129619999997,-41.24869280000001,-2.7748589513333335,-0.5110785373333333,7.077631950333333,-8.861911933666667,2.789842983333333,0.08483433733333333
238,0.6610846666666627,-5.970292727,21.33419227666667,-41.23905943333333,-3.399777243666667,-1.4008938473333334,9.598845798333334,-7.354846159666667,0.33895333600000005,0.7446571193333335
239,0.663862333333327,-6.022626241,21.365873973333336,-41.22628783333334,-3.0668790539999997,-0.6357988513333334,10.838209629333333,-8.204030831666666,3.875852783333333,1.4754655463333333
240,0.6666400000000294,-6.086258729333333,21.37708918,-41.230168666666664,-4.284509817666667,-0.9030685423333334,7.325122197666666,-8.865744590333334,1.35932223,-0.6749522290000001
241,0.6694176666666939,-6.139261881333333,21.429572426666667,-41.21538286666668,-2.7350233990000006,-0.47992159900000003,11.743410746666667,-8.38445282,6.3352924580000005,1.9739483993333333
242,0.6721953333333582,-6.181464354333333,21.44514656,-41.21304323333333,-4.544820706,-0.27997499200000003,9.64072021,-6.563028652,1.8042752643333333,0.07348304966666667
243,0.6749730000000227,-6.216774463666667,21.51319694333333,-41.20921323333334,-3.016755263,-0.4616395363333334,7.553757986333333,-5.772134384,8.319141307333332,0.965007802
244,0.6777506666666872,-6.266352494666667,21.5419,-41.20473733333333,-3.400223851,-0.399196565,12.922691663333334,-7.548865934666666,3.3443014619999993,0.4916268986666667
245,0.6805283333333515,-6.296121120666666,21.59770457,-41.195165,-3.8515659173333336,-0.9204791846666668,6.574207226333333,-5.345495472666666,6.783073107666667,1.4437975486666668
246,0.683306000000016,-6.337814808,21.643944423333334,-41.20847573333333,-2.064179877666666,0.042187467,8.545113086666667,-5.803929845666666,5.645945569666666,-1.2389094280000001
247,0.6860836666666804,-6.363753159999999,21.685436246666665,-41.19632973333333,-3.6347662606666664,-1.3769307140000002,8.509740192,-5.011028924333334,5.049176454333334,1.5530764956666667
248,0.6888613333333448,-6.372000853333333,21.72328186333333,-41.204986600000005,-2.243766248,-0.24599912766666668,8.337079684,-1.9907688299999997,4.581887404,-0.8442880366666667
249,0.6916390000000093,-6.3827896116666665,21.761477153333335,-41.19902036666667,-3.9666937193333336,-0.023430009333333317,8.724460918666667,-2.938076734333333,4.727923075333333,0.8223664563333334
250,0.6944166666666737,-6.380334059666667,21.80340894,-41.211563100000006,-1.9322502166666666,-0.8074148496666668,9.681141534333333,-0.5052875676666669,5.11904776,-1.1973588266666668
251,0.697194333333338,-6.341333230333333,21.84553782333333,-41.195134466666666,-4.843994617666667,-0.45908123266666667,10.458756444999999,2.532598734,5.068135739666666,2.0071315443333333
252,0.6999720000000025,-6.315874576333333,21.881240846666667,-41.200790399999995,-2.3705046573333335,-0.13138621333333333,9.376401583666667,1.9684372146666664,4.293236413333333,-0.5171471833333333
253,0.7027496666666669,-6.267209529666666,21.935560863333336,-41.19762166666666,-4.036447803333334,0.05848571133333336,9.842866261666666,4.280292542333333,6.683767121333333,0.7062270643333332
254,0.7055273333333313,-6.2121159236666665,21.976667406666667,-41.18851216666667,-3.229648987333333,-0.547543213,8.758769035333334,4.85647582,4.760094086333333,1.1673259736666668
255,0.7083049999999957,-6.154578685666666,22.005959193333336,-41.180908200000005,-2.732662722,-0.7273773500000001,10.102798781333332,5.142395456333333,3.6441971459999998,0.8658081690000001
256,0.7110826666666981,-6.085462411333334,22.057898839999996,-41.173477166666665,-3.256103277333333,-0.15771440166666667,7.1024190586666665,6.637660980333333,6.077281752333334,1.1278373399999995
257,0.7138603333333625,-6.016746203333334,22.04598617666667,-41.164800033333336,-1.9032326936666666,-0.9395811853333335,8.055692831666667,6.425681034666667,-1.2830683986666664,0.4433565536666668
258,0.7166380000000269,-5.943316459666666,22.079787570000004,-41.14826456666666,-3.697536329333333,-1.1622878113333333,12.062486650000002,6.740014553333334,3.8081193766666668,1.9020024936666668
259,0.7194156666666913,-5.881570498333333,22.06833267,-41.14701843333333,-1.5401504636666667,-0.843790591,4.386515776333333,5.936077436000001,-1.1341939766666669,-0.36254815266666673
260,0.7221933333333558,-5.810452302333334,22.05820147333333,-41.1254018,-4.019920349,-0.9157881733333332,11.551251729999999,6.215388934,-1.4946427346666666,1.9021605253333334
261,0.7249710000000201,-5.739171663666666,22.06172943333333,-41.12447103333333,-2.1002364559999998,-0.5510490186666667,9.533542315,7.089649676666667,0.6587213876666667,-0.21981678399999982
262,0.7277486666666846,-5.674108505333333,22.035557429999997,-41.1004893,-4.391172568000001,-1.042710533,7.873503606666667,5.365047137,-3.4306939443333335,1.9687528683333335
263,0.730526333333349,-5.619348684666666,22.033350626666664,-41.1049347,-1.9339288673333332,-0.5659661416666667,11.559648672666668,5.376888752,0.030297279333333666,-0.883225754
264,0.7333040000000134,-5.5500281650000005,22.001537326666664,-41.082901033333336,-5.030624787,-0.6205884716666668,8.113715171,5.926814238333333,-4.078008526666667,1.6788251003333334
265,0.7360816666666777,-5.490623633000001,21.980033239999997,-41.07989503333332,-1.1525353143333334,-0.8820546016666667,12.34928926,5.610170444,-2.3582342266666667,-0.2743796833333333
266,0.7388593333333423,-5.447940031666666,21.95874341,-41.06519573333333,-5.710394382333333,-0.7218921383333333,6.4284872213333335,3.0714030463333333,-2.7368425330000004,0.9921889106666667
267,0.7416370000000067,-5.405270894333333,21.90346209,-41.05737306666666,-0.5278265403333332,-1.0007917883333333,11.055645148333333,3.4024419686666665,-6.445025521666666,-0.11016676933333332
268,0.7444146666666711,-5.355528831333333,21.892244336666668,-41.050593033333335,-5.703008294,-1.0687043763333335,9.482997259666666,4.267903487,-1.4479772646666664,0.22670737900000001
269,0.7471923333333356,-5.322538693666666,21.835447309999996,-41.040445966666674,-0.9666150460000001,-0.683561772,7.887302875333333,2.15501531,-6.649737556333332,0.1468848743333334
270,0.7499699999999999,-5.294870217666666,21.805804570000003,-41.043869033333344,-4.56260852,-0.8561628359999999,10.118276117,2.0778993963333336,-3.544271906,-1.1061807673333333
271,0.7527476666666644,-5.254650752,21.748050050000003,-41.029841100000006,-1.9170428313333334,-1.5014568173333334,7.530603885333332,2.8319696186666667,-6.802731275666666,0.5632142823333334
272,0.7555253333333288,-5.213252544333333,21.704343160000004,-41.03148903333334,-4.014459928,-0.6682220733333333,10.103260040666667,3.6403590836666666,-5.243246546666668,-1.0573682783333334
273,0.7583030000000311,-5.184133052666667,21.661417006666667,-41.026967366666675,-3.432717164333333,-0.6512087383333333,7.606293996000001,1.932423214,-4.933131725333333,-0.3209678626666667
274,0.7610806666666955,-5.145617326,21.614253363333333,-41.02866616666666,-3.854367435,-1.2076424906666667,10.806668123666668,3.2837749523333333,-5.660631338999999,-1.0964088043333333
275,0.76385833333336,-5.079535166333334,21.594933193333333,-41.021428433333334,-3.3563055396666663,-0.37212319200000005,11.074124336666666,6.223294735,-2.1412101593333333,0.22459838300000004
276,0.7666360000000244,-5.045610428,21.567740123333333,-41.028437299999986,-4.8449672669999995,-1.2688661220000002,7.008052765666666,2.9823721646666663,-3.220170873666666,-1.4663510473333334
277,0.7694136666666888,-5.0070004463333335,21.550107956666665,-41.02986143333333,-2.8326288859999997,-0.521422878,12.871983369333334,3.306456288,-1.8574586706666665,-0.713962714
278,0.7721913333333533,-4.953286489000001,21.54779625,-41.0380859,-4.571159571333333,-0.8861171006666666,8.140882414,5.401620149666666,-0.23736254399999993,-1.3472277320000001
279,0.7749690000000177,-4.912179469666667,21.539336520000003,-41.03556823333333,-3.2944236300000003,-1.4815205733333334,10.262998422,3.4535675643333335,-0.7994891800000005,-0.16730781400000003
280,0.777746666666682,-4.876922766333333,21.553310396666664,-41.05296326666666,-3.426481171666666,-1.148186068,6.709344218333334,3.620542208333333,1.7967489563333334,-2.182832320333333
281,0.7805243333333465,-4.853526115333334,21.550057093333333,-41.05446370000001,-3.415595611,-1.1656364003333335,10.902799286333334,1.494923512,-0.13922230399999988,-0.563560009
282,0.7833020000000109,-4.834587256,21.589129763333332,-41.07170613333333,-3.3569069306666663,-1.633585691333333,8.749533016666666,1.6665479340000005,4.793102582333334,-1.9073343673333334
283,0.7860796666666753,-4.819419702,21.595731736666664,-41.08798216666667,-2.649087230333333,-1.0926630893333333,7.7290751140000005,1.1559536456666668,1.1783146660000001,-2.104645133
284,0.7888573333333397,-4.822034677,21.631875993333335,-41.100418100000006,-4.099004427666666,-1.705806206,12.228332836666667,-1.1292928753333333,4.395556171666667,-1.3989470253333334
285,0.7916350000000042,-4.824127674,21.667579016666668,-41.10690306666667,-2.4459726613333337,-1.4744452633333334,9.067050458333334,-1.3580969970000003,4.563398162333333,-0.7259585459999999
286,0.7944126666666685,-4.8453385036666665,21.68958219,-41.116037999999996,-3.905812224,-0.9653759993333333,8.465688228333333,-3.4953271546666667,2.6680603023333336,-1.166480859
287,0.797190333333333,-4.881976127666666,21.741165159999998,-41.12622580000001,-2.725128611,-1.7037269276666667,9.751620450333332,-5.325464466,6.498626232333334,-0.9730507533333334
288,0.7999679999999975,-4.911391893666667,21.795195896666666,-41.12702433333334,-3.666815211333333,-0.9134778183333333,9.146713735666667,-4.872485359666666,6.425267378666667,0.07226629066666666
289,0.8027456666666617,-4.961518764333333,21.817979176666665,-41.134974166666666,-2.3354611893333335,-0.833409493,10.220233915666666,-7.0372722943333335,3.0304889680000002,-1.0207615593333335
290,0.8055233333333641,-5.0186095239999995,21.88404337333333,-41.147598266666655,-3.1528181136666666,-1.7054662306666666,6.317426761,-7.682410398666668,7.984568357000001,-1.1192014466666667
291,0.8083010000000286,-5.086900710999999,21.8885746,-41.1435445,-1.5179009836666666,-1.2458770873333334,11.654382070666665,-9.767493883,0.7347613173333335,0.11578065166666662
292,0.811078666666693,-5.157662550666667,21.926165896666664,-41.148218799999995,-3.3470155399999997,-0.7674031656666666,8.707776148666667,-9.662919682,4.498445192999999,-0.510491719
293,0.8138563333333574,-5.222612539666667,21.91130002666667,-41.15081280000001,-2.117919512333333,-1.2103017966666665,8.166265169333332,-9.048297723,-1.516483028333333,-0.8268276056666667
294,0.8166340000000217,-5.2996273039999995,21.937262853333333,-41.142807,-3.134866436333333,-1.5332456429999999,13.17778524,-10.966385840000001,2.983546296666667,0.7843677896666666
295,0.8194116666666863,-5.377009550666667,21.922713596666668,-41.14153543333334,-3.9260848760000004,-0.7089453733333334,9.408320745666666,-10.713368417,-1.5199362536666665,-0.40063653400000004
296,0.8221893333333506,-5.454989910333334,21.916608806666662,-41.1405182,-2.2864504256666667,-0.414046188,10.803232512000001,-10.752916655,-0.786148548,-0.3623772486666667
297,0.8249670000000151,-5.53443559,21.906160356666664,-41.134134933333335,-3.505445718666667,-0.9821762243333333,9.773912113666666,-11.191254775666666,-1.0823390500000003,0.19315698733333334
298,0.8277446666666796,-5.620354493333333,21.88920275,-41.1324107,-2.390920122666667,-0.9498370290000001,7.796285151666666,-11.763809524666668,-2.0904251736666666,-0.4098576303333333
299,0.8305223333333439,-5.692369143333333,21.83046659,-41.120600399999994,-3.18884329,-0.7178868053333333,12.355858166666666,-10.526585576333334,-6.917437872,0.22056850800000002
300,0.8333000000000084,-5.779302437999999,21.810750326666668,-41.11406453333334,-1.7852526503333335,-0.8983611269999999,6.251991272000001,-12.110369684,-2.4683934436666664,0.08906498066666667
301,0.8360776666666728,-5.874465147333333,21.75496800666666,-41.09891253333333,-3.528984288,-1.5896865130000002,11.387472471999999,-13.473388353333334,-6.597587904666667,0.6639168413333333
302,0.8388553333333374,-5.946006934,21.71451378,-41.08000179999999,-2.8627110323333333,-0.582534894,10.495181878333334,-10.801705200666667,-5.094182452666667,1.2060164856666666
303,0.8416330000000016,-6.025754133666667,21.650637943333333,-41.07213336666667,-3.045914173,-0.003958831000000014,9.833712736666666,-11.302817026999998,-7.477164635,-0.24189227800000002
304,0.8444106666666661,-6.122647762333333,21.652231853333333,-41.04691056666667,-3.584100961666666,-1.1573270856666669,11.221295038666668,-14.128524780000001,-0.15360450700000014,2.4638210536666665
305,0.8471883333333304,-6.180106640000001,21.62950325,-41.03953046666666,-4.439546346666667,-0.05186037966666668,9.498356819333333,-8.607170105666667,-2.5621973669999996,0.21233354000000002
306,0.8499659999999949,-6.219864686,21.630451203333333,-41.033559200000006,-3.604254524,0.385273983,10.746706963333333,-6.428622216333333,0.0008755523333331775,0.3180007263333333
307,0.8527436666666973,-6.289809544666667,21.640160243333337,-41.01223753333334,-2.4949719903333336,0.01575748633333333,10.038440068999998,-10.719132898333333,1.1345731416666665,2.1723054246666664
308,0.8555213333333617,-6.347772598333333,21.689112346666665,-41.01394143333332,-4.124014854666666,-1.0035859200000001,7.724378267333333,-8.277394613666667,5.821113189333334,0.07874661666666667
309,0.858299000000026,-6.358905156333333,21.71828715,-41.006586733333336,-3.5652794836666666,-0.455370471,7.841544470666666,-3.0292508999999996,3.618980089666666,0.8790593293333333
310,0.8610766666666905,-6.369741598666667,21.77535248,-40.98338826666667,-2.498067975,0.4630509016666666,9.401945353666667,-3.7255951553333326,6.479442358,2.9499536356666667
311,0.8638543333333549,-6.431643645,21.848955786666668,-41.001759833333345,-3.345436493333333,-0.42730977133333337,9.219725928,-7.976004204333333,9.240981262666667,-1.383049528
312,0.8666320000000193,-6.449671586666667,21.934053419999998,-40.98642983333334,-2.828330278333334,-1.785965005666667,6.028331299333334,-4.235673109666666,9.911972364,2.4609604676666668
313,0.8694096666666837,-6.422456900333334,21.995724996666667,-40.993372599999994,-3.084732174666667,0.5394181766666667,8.479596616333334,2.2045020660000003,7.673944018666667,-0.2742857336666667
314,0.8721873333333482,-6.412687778333333,22.112230300000004,-41.00213113333333,-4.281645139,0.7714037896666667,10.205973148333333,0.180277764333333,13.957503,0.20698008933333342
315,0.8749650000000125,-6.423886776,22.22338422333333,-40.995356233333325,-3.335156440666667,-1.0582285923333334,9.082078934,-3.040158908,13.401254653333334,1.886932989
316,0.877742666666677,-6.393741925333333,22.346254353333332,-41.008229566666664,-2.6271854243333332,-0.9960216283333333,7.560900052,2.8295071013333337,14.769892693333333,-0.16176668799999994
317,0.8805203333333415,-6.339584350666667,22.42338117,-41.01755266666667,-2.1507217486666668,0.2150507073333333,9.503151099333333,5.541618903333333,9.541034540666667,-0.3495062489999999
318,0.8832980000000057,-6.299344380666668,22.511342366666668,-40.99949139999999,-2.5767172576666666,-0.6686802703333333,8.196887889000001,2.623517116,10.227953672333333,2.775072256666667
319,0.8860756666666703,-6.282162348333333,22.59257952333333,-41.02821349999999,-2.566802144,-0.24060590233333334,8.805798054333334,2.0069221656666665,10.269312063666666,-2.431418697
320,0.8888533333333347,-6.211734136,22.68582089666667,-41.020436600000004,-4.069992303666667,-0.9069444126666667,7.352405469,6.713282663333334,10.983567079666665,1.7141691246666666
321,0.8916309999999991,-6.140061537333334,22.741802216666667,-41.03131103333334,-2.071410626,-0.8738214970000001,8.597776573,7.715558368666666,7.033678731666668,-0.811591208
322,0.8944086666666635,-6.088147481333333,22.77638371666667,-41.0298411,-2.7323399383333338,-0.550235634,9.333410102333332,4.7840732133333335,4.068215846666667,0.24393288300000002
323,0.897186333333328,-6.011378765,22.79840088,-41.043146766666666,-1.5035245616666666,-0.763277332,6.1237959863333336,8.448630175333333,3.0082043019999998,-1.508426865
324,0.8999640000000303,-5.9113372166666664,22.787496570000002,-41.03319296666667,-3.114691575666667,-0.09902388366666666,9.946355503,10.137888272,-1.4633713553333338,0.5898957056666666
325,0.9027416666666946,-5.8293116886666665,22.77145195,-41.03878783333334,-2.6952106953333335,-0.9978802303333332,8.680743376333334,8.742528120666668,-1.621142704666667,-1.1257116496666668
326,0.9055193333333591,-5.731264909,22.735427220000002,-41.036224366666666,-3.206519842,-0.20626626299999998,8.079006672,10.248133341333334,-4.376300176333333,-0.512775815
327,0.9082970000000236,-5.654124895999999,22.679625826666665,-41.04170226666667,-2.0515690246666667,-1.6296705803333333,8.508345128,8.141860962,-6.376549752,-1.594110469
328,0.9110746666666879,-5.556078752,22.596013386666666,-41.04119366666666,-2.7662405569999997,-1.0246766806666667,9.538044136000002,10.337398847333333,-10.035181006666667,-1.3038800856666666
329,0.9138523333333524,-5.478258609666667,22.51256816,-41.04589843333333,-2.6596833466666667,-1.2226045926666667,9.409506481,8.215762614666668,-9.683437348333333,-1.8080704606666664
330,0.9166300000000168,-5.388570149666666,22.40014521666667,-41.0467275,-3.2255140146666665,-0.9274915953333335,10.417286874333334,9.383231479333332,-13.467878657999998,-1.7648641613333336
331,0.9194076666666814,-5.296805540666667,22.305306753333337,-41.04578146666666,-2.8398993213333337,-0.7151228586666667,9.636346023666666,9.621194520666666,-11.106816292333335,-1.2895317076666666
332,0.9221853333333456,-5.2137246133333335,22.187688193333333,-41.053466766666666,-3.8369627000000004,-1.113724013,9.962334632333333,8.886416752,-14.020487783333335,-2.5543970466666663
333,0.9249630000000101,-5.134112040333334,22.092044830000003,-41.05043536666667,-3.3639781076666666,-0.9808360336666668,8.316615423333333,8.086120605333333,-11.228078208333335,-1.0349093476666669
334,0.9277406666666744,-5.071266969333333,21.97616195666667,-41.05674236666667,-3.2015536626666665,-1.1895771026666668,10.960644724333335,6.377702713000001,-13.833210629999998,-2.3647275763333333
335,0.9305183333333389,-4.9903456366666665,21.876647949999995,-41.055364,-3.6783746083333337,-1.1550452709999999,7.0071341196666665,8.295406501333334,-11.67830054,-1.2455691993333333
336,0.9332960000000033,-4.931812127333333,21.771893816666665,-41.06396993333333,-2.61329482,-1.3352180323333334,10.820190113666667,5.985373656,-12.481431245333335,-2.4631760916666665
337,0.9360736666666677,-4.8794231413333335,21.680998483333337,-41.064631166666665,-3.8422684673333336,-1.134552757,7.204263051666666,4.9497766893333335,-10.633383909666666,-1.367557168
338,0.9388513333333321,-4.838899612333333,21.58032036,-41.07530213333334,-2.3552953773333334,-1.4511993529999998,11.390829722666668,3.929873844,-11.978312333666667,-2.6170069873333333
339,0.9416289999999966,-4.800724983333333,21.51367569,-41.0715688,-4.579483032333333,-1.2960585753333331,5.957183043000001,3.0313940843333333,-7.775053200333333,-0.6235827603333334
340,0.944406666666661,-4.780950069666667,21.417007446666663,-41.09124246666667,-1.9708676086666665,-1.3866220813333332,10.753818512666667,1.8684741656666664,-11.420501949,-3.5466075739999994
341,0.9471843333333633,-4.771656195333333,21.385951359999996,-41.09532163333333,-5.628364404,-1.4675513606666666,8.677915414333333,-0.10530877100000025,-3.444666861666667,-1.129285018
342,0.9499620000000277,-4.780163923666667,21.31419945,-41.1069641,-2.289945364,-1.273921013,8.391031583999998,-1.8795552253333332,-8.519077637333334,-2.394243916
343,0.9527396666666922,-4.785011291666667,21.30412674,-41.12016806666667,-5.2225416503333335,-1.3264833089999999,12.10330486,-1.406802237,-0.8515281666666663,-1.9281160236666663
344,0.9555173333333565,-4.808957735666667,21.270095193333333,-41.13205463333333,-3.840630928666666,-0.9272745649999999,8.734656493000001,-3.711929480333333,-4.0079660016666665,-2.043367077666667
345,0.958295000000021,-4.845060984333333,21.286655423333332,-41.14464313333334,-4.183933735,-1.1136506199999998,12.148439090000002,-5.198568066,2.329197644,-1.5880702333333334
346,0.9610726666666852,-4.878805002,21.27346802,-41.15506996666667,-3.2877808806666664,-0.8768340870000001,7.768061160999999,-4.947833379333334,-1.5317014056666665,-1.6675763923333333
347,0.9638503333333497,-4.932198047666667,21.293677013333333,-41.17207846666667,-4.878415822666667,-1.3319598633333334,11.071300504666667,-7.079297223666667,2.807953039666667,-2.0463170209999997
348,0.9666280000000143,-4.980144023666667,21.328875223333334,-41.17586263333333,-1.983074208,-1.1499198476666666,7.895597935999999,-6.9295090036666664,4.189447403,-0.425917747
349,0.9694056666666787,-5.057625293666667,21.332932793333335,-41.19368493333334,-3.7082481533333334,-0.9335573913333333,8.377170086000001,-9.939707755666666,0.8859026830000002,-2.3082228899999997
350,0.9721833333333431,-5.1167410213333335,21.366224926666664,-41.197850566666666,-2.900616184,-1.2026192146666668,9.325858909333334,-8.239254474666668,3.9662747780000003,-0.48369097733333327
351,0.9749610000000075,-5.186655680333334,21.389585496666665,-41.215596500000004,-2.462711573,-1.0990217326666667,8.036414147,-9.042158443333333,3.1931603746666664,-2.1141945519999994
352,0.977738666666672,-5.270666440333334,21.397925696666665,-41.2174072,-3.5775069243333335,-1.4772401256666665,8.500456491,-11.326266922333332,0.9648594073333333,-0.4768092633333332
353,0.9805163333333363,-5.3505198163333345,21.424675623333332,-41.24041746666666,-2.7153396606666664,-1.1497393349999998,9.272062142000001,-10.018279709666666,3.656043688333334,-2.6631805896666667
354,0.9832940000000008,-5.43263944,21.417785643333332,-41.23406473333333,-3.65228192,-1.1972832679999998,9.856712183666668,-11.454244293333332,-0.9388174233333336,0.24537595133333343
355,0.9860716666666653,-5.513859272,21.45129077,-41.25918579999999,-2.7697693903333334,-0.8754344980000001,8.531687418666666,-10.090216000666667,4.490738868666667,-2.791341305
356,0.9888493333333296,-5.5943886439999995,21.46584956,-41.24769083333334,-4.890538056666667,-0.39406849699999996,10.414883931666667,-11.48974387,1.5650812786666668,1.0584827263333336
357,0.991626999999994,-5.674595038,21.468109130000002,-41.269490600000005,-1.7527914070000001,-1.3213041026666668,10.133280915666667,-10.092385291333335,0.7258307533333331,-2.765650431333333
358,0.9944046666666964,-5.744371414,21.515684126666667,-41.260645533333324,-6.082375049333334,-0.40364076666666665,8.563070217333333,-10.088542938333333,5.532850265666667,1.1751039823333331
359,0.9971823333333608,-5.833583196,21.50343386333333,-41.276784266666674,-0.9249447186666667,-1.2215854523333334,9.769067924333333,-11.412343658666666,-1.066619714,-2.310446937666667
360,0.9999600000000254,-5.8910083769999995,21.535041806666666,-41.27137246666666,-6.331407229333333,0.08224960133333331,9.358999729666666,-8.468574523666666,3.658767263,0.6265881860000002
361,1.0027376666666896,-5.964691639000001,21.537611010000003,-41.286834733333336,-1.1714414106666668,-1.3892159063333331,8.946269990333333,-9.57775291,0.6945727416666667,-2.0540955863333337
362,1.005515333333354,-6.019623438333333,21.544301989999997,-41.279708866666674,-5.048348268000001,-0.8775587083333333,10.214067460333334,-8.247305233333334,0.6678653359999999,0.5151109296666667
363,1.0082930000000185,-6.091079076333334,21.562905630000003,-41.2923279,-2.4370469253333336,-0.8720516960000001,8.095254421333335,-9.439624150999999,2.5758956273333333,-1.53338329
364,1.0110706666666829,-6.139672120666667,21.556324643333337,-41.280263299999994,-4.340505759,-0.6953188973333333,12.339263596666667,-7.702926555,-0.9768716483333328,0.893715024
365,1.0138483333333472,-6.192224820666667,21.598922093333332,-41.30216473333332,-2.3394871946666664,-0.7449409066666667,6.525489648333333,-6.764062563666667,5.5583747243333335,-2.2578396203333333
366,1.0166260000000118,-6.2406280836666665,21.586669923333336,-41.284423833333335,-4.962484201,-0.6279441120000001,9.114376067,-7.945587753000001,-1.7242519066666666,1.4467007520000001
367,1.0194036666666761,-6.274569829333333,21.63567861,-41.30359393333334,-1.7600218656666666,-0.9960431256666666,11.747487702333332,-4.636757850333334,6.289447863666667,-1.858368511
368,1.0221813333333405,-6.3006208736666665,21.632267,-41.29349263333334,-5.555764197999999,-0.6069726696666666,5.8436751366666675,-4.939816097333334,-0.5783049763333334,0.6999686559999999
369,1.024959000000005,-6.323264757666667,21.67943128,-41.30408223333334,-1.6562102236666665,-0.6860338846666666,12.614242236666668,-3.6324824889999996,5.9631134669999994,-0.9063298306666666
370,1.0277366666666694,-6.333579381333333,21.693714779999997,-41.30023193333333,-5.541292667333333,-1.0986371436666669,8.236629327333334,-2.790329496,1.6059869923333334,0.227296474
371,1.0305143333333338,-6.338662147666667,21.731956483333335,-41.308100399999994,-2.171231269666667,-0.534851844,9.637484550666667,-1.6181322733333332,4.864651680000001,-0.7051213979999998
372,1.0332919999999983,-6.345930735,21.77294858666667,-41.31323750000001,-4.863676071333334,-0.628632337,11.27881495,-2.046112339,4.902295907333333,-0.4229851166666667
373,1.0360696666666627,-6.3434950510000006,21.80996704,-41.320541366666674,-2.8330459396666665,-0.9235323916666666,7.065392494,-0.7504673103333336,4.712515671999999,-0.6645441450000001
374,1.038847333333327,-6.335942745333334,21.84239705666667,-41.321172100000005,-4.282541116,-0.638047546,12.885436373333333,-0.47098604800000005,3.8234500886666667,-0.03577009833333319
375,1.0416250000000293,-6.325857321333333,21.903736113333334,-41.334610000000005,-3.1834552686666666,-0.9538268796666666,5.630904992333334,0.44844549899999997,7.688899198333334,-1.0251159666666667
376,1.0444026666666937,-6.313573678333334,21.918699903333334,-41.334284466666666,-2.842980941,-1.101647397,10.388431866333333,0.0392069219999999,1.7288197876666667,-0.16796531266666662
377,1.0471803333333582,-6.307839711333334,21.977085113333334,-41.33447266666667,-3.748398145,-1.1217141546666667,9.513505617333331,-0.6483945053333334,7.172102134,0.4060283103333333
378,1.0499580000000226,-6.291122595333333,22.000003179999997,-41.3544871,-2.367037177,-0.7714080613333333,6.676369826000001,1.4889340603333334,2.927600224666667,-2.3143442076666667
379,1.0527356666666872,-6.271704832666667,22.027610143333334,-41.33803813333333,-3.6470391749999997,-1.3407858413333333,11.58942636,0.2532138076666666,3.2976790716666664,1.8418896993333334
380,1.0555133333333515,-6.272161643,22.051319760000002,-41.36043803333334,-2.078678648,-1.464095553,5.486453851,-0.468825866,3.048542142,-2.571528474666667
381,1.0582910000000159,-6.264409383,22.064425786666664,-41.3476308,-4.482815027,-0.5712426923333334,11.85785198,-0.9689095713333332,1.61026446,1.2533555823333333
382,1.0610686666666804,-6.273066838333334,22.091539383333338,-41.36587526666667,-1.9765972293333334,-1.058532238,8.116189797666665,-1.633530736,3.403611064,-2.0661466913333335
383,1.0638463333333448,-6.261870384333332,22.09815025333333,-41.35345456666666,-4.865254958333334,-1.322918475,8.142716409,-0.566497276,0.8420081783333334,1.1174380380000002
384,1.0666240000000093,-6.273600419,22.12615013,-41.366521199999994,-2.5291407906666667,-0.15639774766666664,12.763562519999999,-2.208100736,3.4414815903333333,-1.4703467063333335
385,1.0694016666666737,-6.267760117999999,22.14901224666667,-41.35481263333333,-5.435729662333333,-1.4187189936666664,6.5469770433333325,-1.2004112003333334,2.791166266,1.239067197
386,1.072179333333338,-6.270390351666666,22.173753103333336,-41.368275966666666,-1.459606449,-0.1123837033333334,13.019187293,-1.1043107113333333,3.0595902206666667,-1.5569314656666666
387,1.0749570000000026,-6.2682550746666665,22.196619033333334,-41.348449699999996,-6.003589312,-0.8529872696666668,6.720424811333333,-2.029437224,2.6921029886666665,2.1289995513333335
388,1.077734666666667,-6.273711522666667,22.21771431,-41.366775499999996,-0.705762585,-1.5594076066666667,8.17145284,-1.213047524,2.684013228,-2.1353051263333334
389,1.0805123333333313,-6.273755391333334,22.232650753333335,-41.347315466666664,-5.422699133666666,-0.6344715753333333,11.249409675,-2.286595593,1.7514930513333333,1.9823454023333333
390,1.0832899999999956,-6.279042085333333,22.25110308666667,-41.350413,-1.2787368593333333,-1.1850640176666667,5.516630013666666,-1.8689725396666665,2.181551476333333,-0.483408928
391,1.086067666666698,-6.290025552,22.264671323333335,-41.35091146666667,-5.103470723,-1.0998599333333334,11.805440902666668,-2.695305188666667,1.8291042646666664,-0.23489097766666658
392,1.0888453333333625,-6.304241339666667,22.284365336666667,-41.35349526666666,-1.447522824,-0.8378377753333334,7.9442709303333325,-2.936855485333334,2.325823664666667,-0.40131100000000003
393,1.0916230000000269,-6.301188627999999,22.30704752666667,-41.35342406666666,-5.3462433816666675,-1.1763509613333332,7.493305047333333,-1.077014506,2.9094910820000006,-0.07134012366666671
394,1.0944006666666912,-6.314018408333332,22.33970514666667,-41.35881043333334,-2.3637506563333335,-0.5342235813333333,12.27565797,-2.6099495889999997,3.9020170173333333,-0.5233371309999999
395,1.0971783333333558,-6.3043780326666665,22.36730448666667,-41.365117433333346,-4.933788855666667,-0.543169183,5.687568982333333,0.007436672999999949,3.5706374643333336,-0.7128398416666668
396,1.0999560000000201,-6.285047531,22.419026056666667,-41.36169433333333,-2.7487441303333333,-0.9015050929999999,12.058053334666667,0.8343836863333333,6.071235913999999,0.6920794643333332
397,1.1027336666666845,-6.279668648666667,22.450052896666666,-41.37181089999999,-4.592387437666667,-0.47156260133333333,10.318041483333333,-0.3149226109999999,4.021272561,-1.079866171
398,1.105511333333349,-6.257137457333333,22.505357103333335,-41.36873370000001,-2.666700681,-0.8003693916666667,5.871093273333333,1.2398230433333333,6.503198643666667,0.6971298059999999
399,1.1082890000000134,-6.247081756666667,22.531602860000003,-41.38312276666667,-3.5106684366666663,-1.0994591513333332,10.680054663666667,0.4241503673333333,3.5010097429999996,-1.6226870216666665
400,1.1110666666666777,-6.222659429,22.576419196666667,-41.36842343333334,-3.1112192073333333,-0.8414281113333334,7.794662793666667,0.929054007,5.112081437666666,1.8362929823333338
401,1.1138443333333423,-6.220349153000001,22.595537186666665,-41.39470416666668,-2.8074898719999997,-1.2279692343333333,8.749239444666665,0.04781756066666665,2.793565353,-3.027508497333334
402,1.1166220000000067,-6.202282111,22.617575330000005,-41.37431333333333,-3.4645607473333335,-0.8945851773333332,10.704488912,-0.09075132033333329,2.326959768,2.1700809796666665
403,1.119399666666671,-6.183164120000001,22.64320755,-41.39173383333334,-2.196380933,-1.6502592566666667,8.615755716,1.6390335160000002,3.465008497000001,-1.9789347646666668
404,1.1221773333333356,-6.178491433333334,22.646914803333335,-41.37454223333333,-4.822715282666667,-0.6721415519999999,10.889349141666665,-1.540598134,0.1783816816666667,1.5812819796666666
405,1.124955,-6.166674613999999,22.667667390000002,-41.39623006666667,-1.707880815,-0.7748263206666667,7.407073497666666,0.9843464873333333,2.932983774666667,-2.50282677
406,1.1277326666666643,-6.138898055000001,22.666597366666668,-41.376714033333336,-5.172610759666667,-0.6215628336666666,12.112937608666664,1.0807883343333333,-0.41673501333333346,1.7560908000000002
407,1.1305103333333288,-6.132296244333333,22.675673803333336,-41.39663190000001,-2.2003260453333335,-1.1652517913333333,9.277709006666667,0.29913153266666664,1.514266332,-2.448097546666667
408,1.1332880000000312,-6.115296841,22.66757011333333,-41.383631400000006,-4.547631343333333,-0.6091079513333334,7.2259143193333335,0.07988647599999991,-1.1769958036666666,0.9437990786666665
409,1.1360656666666955,-6.1173515316666665,22.664473216666668,-41.40135193333334,-2.293713768666666,-0.9619878929999999,10.624365328666665,-0.8291797636666666,0.034745772666666674,-2.356915213333333
410,1.1388433333333599,-6.090228716666666,22.65262158666667,-41.38246156666667,-3.587804953333334,-1.2336853346666665,7.576365471,1.0001803436666667,-1.692921797333333,1.5375582526666667
411,1.1416210000000244,-6.103847503666667,22.638810476666666,-41.3995514,-2.7660820083333335,-1.2646088303333334,8.114951612,-2.2114990713333333,-1.2553280986666666,-2.4097616896666665
412,1.1443986666666888,-6.0993425053333326,22.61177063,-41.384658800000004,-3.392973661333334,-1.0186740556666667,8.594836910333333,-1.5181429783333333,-3.4585835933333335,0.9104964733333333
413,1.1471763333333533,-6.091196537000001,22.59962972,-41.38576253333334,-2.5696601473333334,-1.1014020443333334,10.535138447333333,-0.35211465733333336,-1.2423542936666667,-0.6358179249999999
414,1.1499540000000177,-6.097668489,22.571959176666667,-41.37382,-4.464927911666666,-1.09882016,9.059593043333335,-2.67983826,-3.502836624666667,0.5887987613333333
415,1.152731666666682,-6.098761717666666,22.562512716666664,-41.372736599999996,-2.7699346543333334,-0.6037265953333334,8.620991229,-1.5540452796666668,-0.947743873,-0.35601667533333337
416,1.1555093333333466,-6.108901818666666,22.54270426333333,-41.35642493333334,-4.475454171333333,-0.5246287583333333,12.102263453333334,-3.348279595333333,-2.6154522100000004,1.156013051666667
417,1.158287000000011,-6.119830131666667,22.541670479999997,-41.34574886666667,-2.8654019433333335,-0.9334320376666668,8.686511834333333,-3.1789356666666664,-0.059544603333333335,0.8031514486666668
418,1.1610646666666753,-6.144080321,22.523708346666666,-41.332794199999995,-4.115049839,-0.7097023823333334,8.179184594666667,-4.895132460999999,-2.356061617666666,0.7989464303333333
419,1.1638423333333396,-6.178973039,22.50195503333333,-41.31359353333334,-2.803611914333333,-0.8084675073333333,10.300290426666667,-6.444375833333333,-2.6314701240000002,1.469488859
420,1.1666200000000042,-6.204049110333333,22.50082969666667,-41.29355366666667,-3.192777753,-0.6413016416666667,9.355496566,-5.342498065666667,-0.4297683636666667,1.782182892
421,1.1693976666666686,-6.263345877333333,22.446401596666664,-41.27024333333333,-3.448381742,-1.04323708,9.475430487333334,-9.552464325666667,-6.583995738333335,1.4971054196666669
422,1.172175333333333,-6.320195198333334,22.441095353333335,-41.25731403333333,-2.2528061866666667,-0.7496702133333333,7.963815609666668,-8.81167364,-0.8452186833333332,0.9588603276666667
423,1.1749529999999975,-6.382185618,22.390350979999997,-41.22977703333333,-3.4957786006666667,-0.8324500716666666,11.136515618333334,-10.098848818333332,-6.189185379333334,2.0093898373333334
424,1.1777306666666616,-6.456350803333333,22.35987409,-41.21190390000001,-3.698076645666667,-0.6668323376666666,8.913222789333334,-11.085346538666668,-3.9208993116666666,1.180043638
425,1.1805083333333641,-6.5412057243333335,22.339589436666667,-41.193751033333335,-3.0732645986666665,-0.5400824396666667,7.897170861,-12.413147449,-2.4507413689999997,1.3908658823333333
426,1.1832860000000285,-6.629594326,22.311652503333335,-41.1820831,-3.899951299,-0.39031978466666667,10.660906948666666,-12.511651040333334,-3.5361697286666662,0.5455577376666667
427,1.186063666666693,-6.68333594,22.29990005333333,-41.15886433333333,-3.4635301826666662,-0.15275385966666666,9.627251309,-8.917733591333333,-1.5091786383333332,2.045497656
428,1.1888413333333574,-6.762682279,22.300981523333334,-41.15598550000001,-4.030419906,-0.27316566800000003,6.419542153666666,-11.026947021333333,0.03049333933333324,-0.008871078666666662
429,1.1916190000000217,-6.818994839999999,22.310356136666666,-41.14102173333333,-3.244691689666667,0.13954294233333328,11.785044670666666,-8.839205106666666,1.1101210909999997,1.4466111063333333
430,1.1943966666666863,-6.848796208666666,22.340961456666665,-41.127858499999995,-3.8999750616666673,0.09223925466666666,8.561953546333333,-5.56080842,3.412683328333333,1.5036667783333335
431,1.1971743333333507,-6.875570138333334,22.357255936666665,-41.12062583333333,-2.9234200320000006,-0.26152420066666676,7.865782738333333,-4.933273632333333,2.030652841,0.700754225
432,1.199952000000015,-6.875714143,22.427487693333333,-41.11131286666666,-4.523987213666667,0.6649273833333333,10.847905793666667,-1.8103454896666669,8.185380457333332,1.6546502410000004
433,1.2027296666666798,-6.850413004333333,22.451697033333335,-41.09856163333333,-2.716132849333333,-0.10392906266666668,8.635964552666666,1.065428496,2.9029041756666665,1.4003900486666667
434,1.2055073333333441,-6.810631434,22.52839724333333,-41.09495033333334,-3.977972825333333,0.10188905399999999,9.886714935999999,3.221529860999999,9.028554241,1.094312827
435,1.2082850000000083,-6.745742956666667,22.596246723333337,-41.08978783333333,-3.495098352333333,0.34279201433333323,9.090605576,6.165434043,8.206233901,1.189077119
436,1.2110626666666724,-6.645114580666667,22.656302133333337,-41.0833079,-3.404805104,-0.37807856000000006,8.676324843666666,10.379942247999999,7.008786201666666,1.1533622643333332
437,1.2138403333333374,-6.542283375999999,22.733976366666667,-41.074193333333334,-3.167827447,0.9062825526666667,10.906388282333333,10.532269258333333,9.333854993000001,1.7124486166666666
438,1.2166180000000015,-6.426476955666668,22.79918607,-41.070144633333335,-3.1322227320000002,-1.111317694,6.818381786333333,12.308873254,7.655443310666667,0.9691276946666667
439,1.219395666666666,-6.278246243999999,22.857605616666664,-41.05815123333333,-2.944965124,-0.04348713166666666,8.926572482,15.84937954,7.012602966666667,1.7249527773333335
440,1.2221733333333304,-6.141279061333333,22.896289826666663,-41.0533244,-2.697813232666667,-0.5084343716666667,8.304810524333334,14.809469381666666,4.4829360629999995,0.6878447133333333
441,1.2249509999999948,-5.985827605,22.95866712,-41.0481466,-2.408085535,-1.1120943826666667,9.187645115666667,17.050726253333334,7.570904094666667,1.021380663
442,1.2277286666666973,-5.831600030333334,22.960713066666667,-41.042114266666665,-2.915565490666667,-0.6083317893333333,6.405468940666666,16.78978856666667,0.09943405766666673,0.3291472210000001
443,1.2305063333333617,-5.674751917666666,22.99972216666667,-41.03570556666667,-2.823275551,-0.8717338643333333,12.408617654666665,17.186609266666665,4.781291087333334,0.8445484636666668
444,1.233284000000026,-5.5170612336666665,22.995386760000002,-41.03881326666667,-2.984920343,-0.6449974639999999,7.483339785666666,17.62493006,-0.5590397516666665,-0.7258991796666666
445,1.2360616666666904,-5.368275165666667,23.007068633333333,-41.0244751,-3.113114794,-1.1501053176666667,9.521899224333334,15.84375286,1.4323697286666668,1.3618325393333333
446,1.238839333333355,-5.2301785149999995,22.988563536666664,-41.0333862,-2.7322227656666667,-0.3796546063333334,10.354123434666667,15.548533436666666,-2.1870330166666667,-1.5389929613333333
447,1.2416170000000193,-5.0983614919999996,22.97716013666667,-41.02386473333333,-4.175975958666666,-1.1791585386666668,8.067673047333335,14.028292494333334,-1.2757592996666667,0.6018918753333334
448,1.2443946666666836,-4.967193762333333,22.938531876666662,-41.027964266666665,-2.3543525533333334,-0.615596801,12.624121026666666,14.500915050333333,-4.638985951666666,-1.2510079543333332
449,1.2471723333333482,-4.858267307333334,22.90554428333333,-41.018864966666676,-3.8399016893333333,-1.248078704,5.803297201666666,11.276089479333335,-3.848966082,0.3329339850000001
450,1.2499500000000126,-4.757772922666667,22.854375203333333,-41.025283800000004,-2.085059603,-0.6040781636666667,12.962479274333333,10.962249834666665,-6.112786928666666,-1.6238020210000002
451,1.252727666666677,-4.6719962756666655,22.80612055333333,-41.00885519999999,-3.878809889,-1.552200873333333,6.757564861000001,8.145918048333334,-5.736491839999999,0.9823789586666664
452,1.2555053333333415,-4.618392626666666,22.73834801,-41.01665246666666,-1.5255922873333336,-1.2638458049999999,9.926938852333334,5.432290394333333,-8.094531693333332,-1.9107371173333334
453,1.2582830000000058,-4.5749851863333335,22.674708050000003,-40.999710066666665,-3.9243567783333333,-1.4441029626666666,6.444576104666666,3.019452929333333,-7.572917857,0.8802289863333334
454,1.2610606666666702,-4.553525606666667,22.591791790000002,-41.0069224,-1.6489184003333335,-1.4548331796666665,10.620167254333333,1.5675749383333333,-9.918321292333333,-1.9659226736666664
455,1.2638383333333347,-4.538219610666666,22.53298314,-40.99249773333333,-4.468259424,-0.901383062,8.619880439,-0.2638054289999998,-6.968431431666666,0.6427595219999999
456,1.2666159999999989,-4.552441756,22.44296328,-40.98954773333333,-1.179975728,-1.0435943353333332,9.531574886333333,-3.169808864666667,-10.860805610333335,-0.9021971026666665
457,1.2693936666666639,-4.555536588333333,22.3985672,-40.97909036666667,-5.345930894333333,-0.7393237896666666,9.245806376,-2.301063361,-5.210567793666667,0.34326529499999986
458,1.272171333333328,-4.567208926,22.320156733333334,-40.961156200000005,-2.0840620696666665,-0.5796127416666667,9.456255913000001,-3.525356213333333,-9.604286292,0.8666496276666665
459,1.27494900000003,-4.588278293666666,22.288601556666666,-40.95169573333333,-4.161806662666666,-0.8346674119999999,9.517836889,-4.413525263333334,-3.66871961,0.36090477299999996
460,1.2777266666666947,-4.617814859,22.22688166333333,-40.9261983,-3.4453175066666666,-0.7377887913333333,10.347694394000001,-5.998846372,-7.676723957,1.867696603
461,1.280504333333359,-4.638792832666667,22.200056710000002,-40.9178772,-3.258362293333333,-0.5855535763333333,9.955079075999999,-4.355154276333333,-3.096355915,0.26855246266666644
462,1.2832820000000238,-4.656852404333334,22.15919431,-40.89334613333333,-3.992621421666667,-0.3198328426666666,7.862008095666667,-4.586266835333333,-5.171561002333333,1.9577342669999995
463,1.2860596666666881,-4.690429846333333,22.135682426666666,-40.88884993333334,-2.6056372920000004,-1.0744188426666665,10.220017910333334,-5.720128536333333,-2.664602120666667,-0.13779195166666666
464,1.2888373333333523,-4.699568589666666,22.107954023333335,-40.86158243333333,-4.563967208,-0.37501956,10.815794626666667,-3.650379061666667,-3.6265620389999995,2.3852059046666665
465,1.2916150000000164,-4.707617441666667,22.081359863333333,-40.85834760000001,-2.0001591243333334,-0.7247463913333333,7.187130132333333,-2.5978817939999996,-3.0211391053333334,-0.3171296123333332
466,1.2943926666666814,-4.704181988999999,22.06598345333333,-40.83069353333334,-4.099538843,-0.535860726,11.573172251333332,-2.1582000256666665,-2.1494188506666667,2.550862391666666
467,1.2971703333333455,-4.707809607333334,22.04277738333333,-40.82760616666666,-1.7787481150000002,-0.6604925396666667,6.652074336999999,-2.0477689106666666,-2.619665861333333,-0.30025434466666656
468,1.29994800000001,-4.686756134333334,22.022555033333333,-40.79482016666666,-4.536568641666666,-0.8611902096666667,11.819742840000002,-0.2515958146666666,-2.773343561666666,3.0824607213333337
469,1.3027256666666744,-4.664013862666667,22.007669446666664,-40.8034668,-0.9991968760000001,-0.4185640116666667,6.328067461666667,1.6794530849999998,-1.5199484823333334,-1.5062880516666668
470,1.3055033333333388,-4.625732263000001,21.966661453333334,-40.7740733,-4.791223207999999,-0.19906214366666666,11.231866520000002,1.9380114076666668,-5.227982363,2.499104579666666
471,1.3082810000000034,-4.585373560333333,21.942220053333333,-40.786972033333335,-0.805684507,-0.88653484,9.104524294333332,4.004133382333333,-2.623564084333333,-2.056771954
472,1.3110586666666677,-4.518270174666667,21.88351059,-40.76218666666666,-4.894094944,-0.24065668366666668,8.250941594333332,5.578159489666667,-7.306357067333333,1.8285748609999999
473,1.3138363333333323,-4.454897244666666,21.846407573333334,-40.77235413333332,-0.8834219473333335,-0.8396728136666667,11.803028740333334,6.645785530333334,-4.164295436000001,-1.8599947093333336
474,1.3166139999999966,-4.388257980333333,21.764596303333335,-40.7527364,-4.772591114,-0.560386747,5.811919053666667,5.722627421333333,-10.025113881333333,1.053547462
475,1.319391666666661,-4.305644512000001,21.712441126666665,-40.7654317,-1.091318478,-0.538547295,12.370774906666668,9.085690022333333,-5.948710023333334,-2.2623006503333336
476,1.3221693333333633,-4.215155840333334,21.61141777,-40.74694316666666,-5.314592996999999,-0.4858521273333334,7.826649506666667,8.628042856333334,-12.311573983333332,0.7884912489999999
477,1.3249470000000276,-4.134683291333333,21.540065126666665,-40.754399600000006,-1.2538490493333334,-1.0465298393333333,11.838694889000001,8.594349544333333,-8.298202675,-1.827605655
478,1.3277246666666922,-4.052372535333334,21.424700420000004,-40.74819946666667,-5.214995543333334,-0.3393183946666667,10.132158118333335,8.192373593333334,-13.922789258333333,-0.6891855000000001
479,1.3305023333333565,-3.9861776829999997,21.34238879,-40.754877766666674,-2.0901177326666667,-1.2854693533333335,11.759240153333332,6.855424522333333,-9.619584400333334,-1.8087493973333333
480,1.333280000000021,-3.921922365666667,21.22268168333333,-40.75464886666666,-5.137315909000001,-0.8413040636666667,10.592540743666666,6.301718313666666,-14.393061322,-1.3624812566666666
481,1.3360576666666855,-3.8879897593333332,21.132303240000002,-40.76327513333334,-1.9295733773333332,-0.6374258896666666,10.285992303666665,3.068671465,-10.571261407666666,-2.0775155030000003
482,1.3388353333333498,-3.8532617886666665,21.015459696666667,-40.773167900000004,-4.496193885666666,-1.4598932863333334,9.774437586333333,3.186894575666667,-13.975449882666666,-2.4565891423333333
483,1.3416130000000142,-3.8298853239999997,20.92119344,-40.77513629999999,-3.3411778213333334,-1.28332599,10.048326176666666,1.5212429366666669,-11.089115778333332,-1.347219313
484,1.3443906666666787,-3.8294320103333335,20.810613633333336,-40.784261066666666,-2.3041917883333336,-0.927208781,9.34594377,-0.9321356016666664,-13.235381602333334,-2.2908778986666665
485,1.347168333333343,-3.8560665449999996,20.734846753333333,-40.78570046666667,-3.37849164,-1.3432616393333332,9.237135572333335,-4.509143192,-8.880556742,-1.1238889296666668
486,1.3499460000000079,-3.873047193,20.670666373333333,-40.784128833333334,-5.260968208333334,-1.7642545303333332,12.319805783666666,-3.461375311,-7.767639319666666,-0.6973394549999999
487,1.352723666666672,-3.9031500816666664,20.614644369999997,-40.79405213333333,-2.0466983516666666,-0.731519431,8.686031180999999,-4.568316262333333,-6.454771517666667,-1.905118719
488,1.3555013333333363,-3.9712873299999996,20.58619245,-40.79323323333333,-4.676783164333333,-1.5256109436666667,11.023751416333333,-9.592118500333333,-3.4802930730000003,-0.4811892113333333
489,1.3582790000000007,-4.041943788666667,20.597206113333336,-40.79348756666666,-2.645838102,-1.3508971556666667,7.450735012999999,-9.876060328000001,1.4980156806666665,-0.2768685369999999
490,1.3610566666666655,-4.100693464333333,20.56925901,-40.80800879999999,-4.031700054666667,-0.503790617,7.328267415333333,-7.835691212333333,-3.2934872106666666,-2.2405757306666665
491,1.3638343333333296,-4.172742208,20.58231290333333,-40.7952779,-2.7699767746666666,-0.6457588073333334,11.923469544666666,-10.581613541333335,1.6398373446666668,1.1900802653333333
492,1.366611999999994,-4.269802649666667,20.664026896666666,-40.7949168,-5.225435097999999,-1.025532797,10.981579620666666,-13.06027031,9.718188526,0.38392766333333334
493,1.3693896666666963,-4.356833457666666,20.68812307,-40.80371093333334,-2.166343967,-1.3785306613333332,6.964774290666667,-11.44702021,3.1369886793333333,-1.1205887196666666
494,1.3721673333333608,-4.437987168666667,20.694520949999998,-40.789291366666674,-3.865958849666667,-0.5681822713333332,8.200238864333333,-11.740579923333334,0.5859768986666666,1.2834823923333334
495,1.3749450000000254,-4.551579475333333,20.758721666666663,-40.801996866666656,-0.8911617003333334,-0.1906963783333333,6.654440801,-14.462072373333333,7.975210507666667,-1.1933117906666666
496,1.3777226666666895,-4.638839880666667,20.818626403333333,-40.811670933333325,-5.704634984333333,-1.0704004566666667,8.522593973666666,-11.4722751,7.196238837,-0.9284519156666665
497,1.380500333333354,-4.7187317213333335,20.847441356666668,-40.80671693333334,-3.0886223316666666,-0.5367510320000001,10.643076577999999,-11.159918147333334,3.5740228893333335,0.45455018666666663
498,1.3832780000000184,-4.828382333,20.89011955333333,-40.82352193333333,-2.4767933286666666,-0.6501325173333333,8.919843195,-13.849328676666667,5.195750395666667,-1.8584456246666665
499,1.3860556666666828,-4.930563927000001,20.935376483333332,-40.83079023333334,-2.312783996,-1.4168149433333335,8.196047465666666,-13.302055359999999,5.657011588333333,-0.7270943720000002
500,1.3888333333333474,-5.007080872666666,20.9391702,-40.833114599999995,-3.549093961666667,-0.812235296,8.884337582999999,-10.481119154666667,0.4056309463333327,-0.6501406033333333
501,1.3916110000000117,-5.100115617,20.966757453333333,-40.845352166666665,-2.339748939,-0.241997647,8.205529848,-11.988607723333333,3.589429974333333,-1.439656664
502,1.394388666666676,-5.191512425666667,20.991374336666667,-40.85286456666666,-4.362718820666667,-0.7598127226666667,10.114620209333333,-12.049703916333334,2.952123006333333,-1.0066225926666668
503,1.3971663333333406,-5.259340286,21.004018783333333,-40.8470154,-3.2671833036666666,-0.611830195,9.251880485666666,-9.745693366,1.620656648,0.3944037756666667
504,1.399944000000005,-5.3441990216666655,20.98188336666667,-40.85233053333334,-2.7755879956666667,-0.5040279676666667,8.258110998,-11.346646945666668,-2.6715864933333333,-1.2211673856666667
505,1.4027216666666693,-5.416212876666667,20.981801986666667,-40.84373476666667,-3.101018707,-0.6669796803333333,8.443095685666668,-10.383072534666667,0.07736360999999999,0.5894859833333334
506,1.4054993333333339,-5.469324588666666,20.962444943333335,-40.83687336666667,-3.9276502129999997,-0.12233599033333332,9.536903064999999,-8.058525087000001,-2.4626895586666664,0.129731854
507,1.4082769999999982,-5.535359700666667,20.951637266666665,-40.83347063333333,-3.6148758329999997,-0.406669607,6.152729112333334,-9.452212333666667,-1.153613925,-0.09337243433333331
508,1.4110546666666626,-5.579564889,20.93483289,-40.829335533333335,-2.3213586410000002,-0.4081041066666667,9.316685280333333,-6.887309828333334,-2.119599382,-0.14706410966666664
509,1.4138323333333271,-5.612270672666667,20.913891473333333,-40.816497766666664,-4.273018519,-0.24599511433333335,7.744086584333334,-5.868076125333334,-2.4685165883333338,0.8017682993333333
510,1.4166100000000295,-5.651624362,20.8736159,-40.81733193333332,-1.5964482226666667,-1.2615337770000001,6.713595548,-6.0917402906666664,-4.870282570666666,-0.9598805906666668
511,1.4193876666666938,-5.682601293,20.854214353333333,-40.811375966666674,-3.768011331666667,-0.5415658153333334,11.322434743333334,-5.353978276333333,-2.209577918,0.06729292866666674
512,1.4221653333333582,-5.696232319,20.79920896,-40.803304033333326,-2.9454855126666666,-0.6172989110000001,7.8317387883333325,-3.3748122456666665,-6.726131917333333,-0.15648174300000003
513,1.4249430000000227,-5.699866136333333,20.773271563333335,-40.801340733333326,-3.598202308,-0.025973832000000002,9.664919059,-1.8976863223333333,-2.9492319226666672,-0.4455895423333333
514,1.427720666666687,-5.711664517666667,20.735290526666667,-40.79924516666666,-3.4520537059999996,-0.331131587,10.185643512,-2.888594547666667,-4.628018736666667,-0.6140671716666667
515,1.4304983333333519,-5.696971893,20.710991543333332,-40.80006406666667,-4.253589153333333,-0.38392913366666676,7.490900516666667,0.4131359259999998,-2.7236597936666667,-0.751658241
516,1.433276000000016,-5.678645292666666,20.675657273333332,-40.800140400000004,-3.2579702536666666,0.26714547466666666,11.416924475,0.814750284,-4.289266427333334,-0.8248467146666667
517,1.4360536666666803,-5.652757168000001,20.646875383333334,-40.80176286666667,-3.7621927263333337,-0.35771608866666665,8.026221752333333,1.7904309429999998,-3.2541011970000007,-0.8840327063333332
518,1.4388313333333447,-5.602744261666667,20.618250526666667,-40.80007426666668,-3.3627005420000002,-0.2887187153333333,9.318445206000002,4.543517430333333,-3.5081948586666667,-0.551205595
519,1.4416090000000095,-5.555196285333333,20.573756533333334,-40.79411826666668,-4.028177897333333,-0.18932669366666666,10.907024703,4.074175159333333,-5.216233492,-0.213755055
520,1.4443866666666736,-5.501028378666667,20.552205403333332,-40.79685976666667,-2.257871230333333,-0.914215704,8.334724267333334,5.2391398350000005,-2.6146842636666663,-0.9509413986666667
521,1.447164333333338,-5.443275133666667,20.512924193333333,-40.789250700000004,-5.076247294666666,-0.3242413166666666,9.295742354333333,5.222721656333333,-4.609046995666667,0.02305710333333333
522,1.4499420000000025,-5.378715673666666,20.481856663333335,-40.78713483333334,-2.3114315273333332,-0.5394107203333333,10.856101990333334,6.291318645,-3.8043206533333334,-0.494457235
523,1.4527196666666669,-5.3054083190000005,20.465922673333335,-40.789688100000006,-4.471951802666666,-0.8914316693333334,7.925593377000001,7.492984454333334,-1.7161626813333335,-0.8443263966666666
524,1.4554973333333312,-5.233949184,20.43733152,-40.78083290000001,-3.0281476179999998,-0.568775798,8.847274463,6.812234560666667,-3.581169289,0.27606173133333334
525,1.4582749999999958,-5.154941718,20.414495470000002,-40.784484866666666,-3.2711592913333334,-0.785269956,11.104119937333332,8.228966554000001,-2.532855471,-1.0255812306666667
526,1.461052666666698,-5.076589743333334,20.401515323333335,-40.777216599999996,-3.628369728666667,-0.6013652136666666,6.929392179000001,7.711891651333334,-1.6962515513333332,0.267382736
527,1.4638303333333624,-4.996925672,20.374423343333333,-40.770385733333335,-2.9061199423333335,-1.2731504439999999,10.451421103333333,7.877619583333334,-3.1500430106666673,0.10669173800000002
528,1.4666080000000268,-4.924000263000001,20.361315406666666,-40.768819166666674,-3.578402678333333,-0.6819559760000001,8.288369655666667,7.307387351999999,-1.6543812956666668,-0.3624243936666667
529,1.4693856666666913,-4.859558741,20.347126643333333,-40.767389933333334,-4.257362286666667,-0.7548423843333333,9.610582672,6.277989228666667,-1.5544259546666666,-0.36274030300000004
530,1.4721633333333557,-4.795949141333334,20.34286498666667,-40.769739799999996,-2.4434168733333332,-1.075706343,9.810468036666668,6.352736711333335,-0.562706401,-0.7000242869999999
531,1.47494100000002,-4.739126841333333,20.33665339,-40.7690277,-4.899505217666667,-0.799352626,8.174258391333334,5.381171306,-0.5915819803333333,-0.37338312433333326
532,1.4777186666666846,-4.688393593,20.351610183333335,-40.769805866666665,-3.2244092623333334,-0.5278197826666666,11.824870109999999,4.748738766,1.7213064706666668,-0.3324215463333334
533,1.480496333333349,-4.646269321333333,20.360702516666667,-40.77637226666667,-4.229007403,-0.8548320133333333,9.454541363666666,3.927874714,1.303367734,-1.0375772366666667
534,1.4832740000000133,-4.610823154333334,20.392390566666666,-40.767730699999994,-3.767923037333333,-0.3232578586666667,8.539082048666666,2.5188697973333336,3.635848242333333,0.8841865063333333
535,1.4860516666666779,-4.586570422,20.432059603333332,-40.77747086666667,-4.010099252,-0.7244210043333332,11.503565152333335,1.9254006543333333,4.986468633,-1.093313813
536,1.4888293333333422,-4.564208507666666,20.471261979999998,-40.773640933333326,-3.6830743153333336,-0.8361792960000001,7.183998108,1.147744179,4.577422231333332,0.4107797943333334
537,1.4916070000000066,-4.561358928666667,20.50965182,-40.7744446,-2.8311684130000003,-0.8497137203333334,7.885513942999999,-1.0260082083333335,4.749699434333333,-0.09844831633333329
538,1.4943846666666711,-4.560354709666666,20.557775496666668,-40.77797443333333,-3.782106479,-0.8577786536666666,10.922047613333334,-1.102628827,5.709438820666667,-0.3375059166666667
539,1.4971623333333355,-4.565973441,20.59828186,-40.77950033333334,-3.019351164333333,-0.683284628,7.407584031333333,-2.0135436949999996,5.0086547533333325,-0.15306639666666666
540,1.4999399999999998,-4.5814822516666664,20.64453760666667,-40.76987203333332,-3.4904958406666666,-0.8987890783333333,9.749385515999998,-3.6464594600000004,5.366890708666666,1.1367469033333333
541,1.5027176666666644,-4.5909829140000005,20.68997574,-40.77833046666667,-3.36833628,-0.8381694876666668,10.336583454333333,-2.1802710293333334,5.658633470333332,-0.8951108853333333
542,1.5054953333333287,-4.610135237333334,20.741449356666667,-40.773030566666655,-4.235774994000001,-0.32576779533333333,9.256534895333333,-3.907532771666667,6.0326646166666675,0.6969888756666668
543,1.508273000000031,-4.632582823333333,20.803704576666664,-40.77526856666666,-3.1343490283333337,-0.48376936966666667,9.480848629333332,-3.9952236016666665,7.615006129,-0.03579583266666664
544,1.5110506666666954,-4.635148684,20.85202853,-40.76749673333333,-3.9600927433333335,-0.10012667866666669,9.963516234333333,-2.0179878076666666,5.629974681333334,0.9259247680000001
545,1.51382833333336,-4.6457508406666665,20.913668949999998,-40.7680359,-3.1310158173333336,-0.2859052223333333,7.634119191333333,-2.6513212520000002,7.523989995,0.15785200900000002
546,1.5166060000000243,-4.661381721666667,20.954219816666665,-40.76118470000001,-2.7386138436666667,-1.0494171776666665,8.876368681333334,-3.553151369,4.709557135666667,0.7618655710000001
547,1.5193836666666887,-4.672000249333333,20.99713008,-40.761937466666666,-3.4483315546666673,-0.31074714633333334,9.858764648666666,-2.6223215263333337,5.2829241006666665,-0.0381908866666667
548,1.5221613333333535,-4.6829776763333335,21.02507464,-40.76416016666667,-2.8860914313333335,-0.9416810213333333,6.898161411,-2.6311966183333335,3.285866698,-0.3774001396666667
549,1.5249390000000176,-4.689730803,21.055571876666665,-40.7616577,-2.7121125856666666,-0.575835274,10.863762220666667,-2.2886068026666666,3.768942972,0.20268108466666668
550,1.527716666666682,-4.691121419333333,21.082573573333335,-40.76201376666666,-3.9444429876666667,-0.547590196,8.918325741666669,-1.575899144,3.1525665123333333,-0.19215373166666674
551,1.5304943333333465,-4.6858817733333336,21.095275246666667,-40.765996333333334,-2.939097325,-0.30444737800000005,7.863282840000001,-0.5584884486666667,1.7008790173333335,-0.6918147500000001
552,1.5332720000000108,-4.668091615000001,21.142587023333334,-40.765324933333325,-3.3795588016666667,-0.5554233789999999,12.185970623333333,0.6844939390000001,5.571680863666667,0.12300771499999996
553,1.5360496666666752,-4.643747965333334,21.155964533333332,-40.76192220000001,-4.443482399,-0.6871110396666666,6.621451378,1.4144907393333332,1.7146596116666668,0.14148024733333342
554,1.5388273333333398,-4.611289501333333,21.18470192,-40.7686157,-2.8978407386666665,0.11068681866666669,11.659324965333333,2.780190627,3.415265401333334,-0.8733429513333334
555,1.541605000000004,-4.585915883333333,21.216815313333335,-40.7684377,-4.2241046429999995,-0.4269840316666667,10.198230746666667,1.6658644676666665,3.9839100046666664,-0.03709363966666679
556,1.5443826666666685,-4.545643965333333,21.232378639999997,-40.771153766666664,-2.3761330446666666,-1.2596890929999998,6.625679652,3.549676339,1.8039125006666668,-0.5588428873333333
557,1.547160333333333,-4.515028635666667,21.246304193333334,-40.77078246666667,-4.433122635,0.08313987633333335,12.29229164,2.279560129,1.8045485813333333,-0.19790848066666675
558,1.5499379999999974,-4.485345045666667,21.261227290000004,-40.77729796666667,-1.615984658333333,-1.042726670666667,5.124726653,2.4750012753333333,1.7613887393333334,-0.9772813716666667
559,1.5527156666666617,-4.436007817333333,21.255340573333335,-40.770558666666666,-3.7312836646666665,-0.251865539,9.775943756,4.210233211333334,-0.6233607533333334,0.30777219933333333
560,1.555493333333364,-4.404840310333333,21.248744329999997,-40.77236429999999,-2.4127750000000003,-1.4767879050000001,9.194649062,2.4848366976666667,-0.8530136946666668,-0.6402022046666666
561,1.5582710000000286,-4.359704971333334,21.234539666666667,-40.77355956666667,-3.367103735666667,-0.36751256400000004,7.597939173333334,4.037926276333334,-1.5502630873333334,-0.6576797463333334
562,1.561048666666693,-4.316003322666666,21.210511523333334,-40.7634328,-3.1440434456666666,-0.9188931323333334,11.944115003333332,3.4560309850000004,-3.041229724666667,0.527286311
563,1.5638263333333573,-4.275714238333333,21.186446506666666,-40.76465353333333,-3.605832974,-0.72293517,6.883262475333335,3.4630489546666667,-2.7298201223333334,-0.7487848996666666
564,1.5666040000000219,-4.230614662333334,21.171500523333332,-40.7531026,-3.635487556333333,-0.5982515763333334,10.217985471,3.559243003666667,-1.965597868,0.7651314336666668
565,1.5693816666666862,-4.199863274999999,21.140771866666668,-40.760859166666656,-3.609757343666667,-1.0005801520000002,10.65990766,2.596233368,-3.4779991310000002,-1.5225571393333335
566,1.5721593333333506,-4.138497034666667,21.134017943333333,-40.74079893333334,-4.234848181333334,-0.146943132,7.295186678333334,5.1163539883333335,-1.053300242,1.7799801626666667
567,1.5749370000000151,-4.104181687333333,21.10430654,-40.75702416666667,-2.897159616333333,-0.8043960086666667,11.30229505,3.3912607826666665,-3.290848851,-2.455999586666667
568,1.5777146666666795,-4.055172920333334,21.099444706666663,-40.74817913333334,-4.6801519396666675,-0.7221561173333333,7.591962337666668,4.1154011090000004,-0.7365374813333334,0.5495233136666666
569,1.5804923333333438,-4.006019274333333,21.062675476666666,-40.75642396666666,-1.738297383,-0.7725703716666668,9.483246642666666,4.811723947333333,-4.203287521666667,-1.6361305313333332
570,1.5832700000000084,-3.9732189973333334,21.050373076666666,-40.755188,-5.054766496,-1.337027212,10.064857165666666,2.5149042406666666,-1.5670148533333335,-0.35607634
571,1.5860476666666727,-3.9319040776666667,21.012664793333332,-40.77156573333334,-1.5597125289999998,-0.7380562226666667,7.055368741333333,4.256419897,-4.253060629,-2.529077172333333
572,1.5888253333333375,-3.9002928733333335,20.982327143333332,-40.767923966666665,-5.049060662333333,-1.459384501,10.356989543666666,2.2639354866666666,-3.7446516356666666,-0.23641502866666664
573,1.5916030000000017,-3.880574862333333,20.956438066666667,-40.787206000000005,-2.0928323466666665,-1.2892373403333333,8.172318935333331,1.8165617786666666,-2.8194316526666667,-2.744121611
574,1.594380666666666,-3.865111907333333,20.92122077666667,-40.78837586666666,-5.296689351333334,-0.8225641549999999,10.225136122666667,0.5366526046666668,-4.292787631333334,-0.810545186
575,1.5971583333333303,-3.873316764666667,20.907238643333333,-40.81158446666666,-2.6267626286666665,-1.5865358013333335,11.30827077,-1.348047634,-1.368559837,-3.0801674326666664
576,1.599935999999995,-3.869700034333333,20.886574426666666,-40.8090617,-4.935979207333333,-0.9399834623333332,6.917455513999999,-1.0827390900000002,-2.5776671436666665,-0.29120393600000005
577,1.6027136666666975,-3.886711836,20.872821169999998,-40.826375333333324,-2.66695861,-0.7979913153333333,12.89680799,-2.642633795666667,-1.3933249316666665,-2.4039603076666665
578,1.6054913333333616,-3.911191225,20.867832186666668,-40.83278403333333,-5.481488863666667,-1.5163588323333332,7.553915978333333,-4.088672935333334,-0.6331155300000001,-1.1626389026666666
579,1.608269000000026,-3.9484621683333336,20.86856397,-40.8271993,-2.3807644843333335,-0.9167452456666667,10.594904900333335,-6.065494536,0.1664460896666666,0.2757928866666666
580,1.6110466666666905,-3.9929658573333335,20.876808166666667,-40.83081053333333,-5.124893347666666,-0.6464557646666665,9.903262454999998,-6.609002351666667,0.9260912336666666,-0.7415450809999999
581,1.6138243333333548,-4.056148052,20.89859072333333,-40.8348287,-3.1195460953333334,-1.5924774803333335,7.091981729,-8.768010734666667,2.766312856666666,-0.6076381206666666
582,1.6166020000000192,-4.137964964000001,20.90814526666667,-40.82992553333333,-3.552970091666667,-1.072013656,10.24606816,-11.45647208,1.024147113,0.20666857566666655
583,1.6193796666666838,-4.229101975666667,20.948990506666668,-40.826019300000006,-2.675084908666667,-0.951372857,7.020256678,-12.466921171000001,4.978162766666667,0.4514939390000001
584,1.622157333333348,-4.330578724666666,20.95922661,-40.835800166666665,-4.092688958,-0.9444295303333332,9.505818367000002,-13.1819005,1.2255519229999996,-1.422183911
585,1.6249350000000125,-4.438887834666667,21.00289599,-40.81865440000001,-2.7139597736666663,-0.8584418793333333,10.427524883333334,-15.0830129,5.204928954666667,1.9484840233333334
586,1.627712666666677,-4.565217097666667,21.009787243333335,-40.83215333333333,-2.737639308,-0.8743967563333334,5.872938156000001,-16.002420106666666,0.859759013,-1.8468764619999998
587,1.6304903333333414,-4.676748593666667,21.041692733333335,-40.8152364,-4.195329427666667,-0.6608586583333333,12.371501603333334,-15.439513843333332,3.7765728236666667,1.8232639629999998
588,1.6332680000000057,-4.810966809333334,21.061774573333334,-40.82858276666667,-2.726513167333333,0.06700905166666667,7.559482574333333,-16.95442454,2.447133581,-1.7295376859999998
589,1.6360456666666703,-4.9293395680000005,21.079896293333334,-40.8126475,-4.043312232,-0.7458177693333333,7.671221415666666,-16.242664973333333,2.1271006266666665,1.6153532663333332
590,1.6388233333333346,-5.047138214,21.099802656666668,-40.8170624,-3.1060544450000003,0.41367777200000005,12.543963749999998,-15.337868052666666,2.3193190893333333,-0.7277264446666666
591,1.641600999999999,-5.157429695,21.123170849999998,-40.80553183333333,-4.717593193,-0.6144269603333333,6.455566565333334,-15.104008040000002,2.8043963906666662,1.145391941
592,1.6443786666666635,-5.262365341333333,21.129348753333332,-40.801996833333334,-1.6793935296666664,0.47648819266666664,10.756966592,-14.133711814333333,0.597511848,0.07492148866666663
593,1.647156333333328,-5.3468807536666665,21.16351381666667,-40.78206886666667,-6.322494665666667,-0.7339562769999999,9.951192854666667,-12.391381261,3.9995324303333333,2.1934071779999997
594,1.6499340000000302,-5.425722122333333,21.15979449,-40.787028000000014,-0.638924564,0.9067520896666665,8.092945099,-10.620324214666667,-0.4933472869999999,-0.973989924
595,1.6527116666666946,-5.488317012666666,21.18658256666667,-40.758453366666664,-5.836524248,-0.6204797623333334,10.597473780666666,-10.183585046666666,3.0270561970000003,3.1087020636666662
596,1.6554893333333591,-5.533973058333333,21.189374923333336,-40.75488793333333,-1.7158694356666666,0.41595841466666666,8.810843467333333,-6.983453512333334,0.19499293966666661,0.040261228999999954
597,1.6582670000000235,-5.565225601333334,21.20495097,-40.74070736666667,-4.9312878053333336,0.11014848933333336,8.574327785333333,-5.811426164333334,1.8333133460000004,1.3676849206666668
598,1.6610446666666878,-5.579691251,21.21194076333333,-40.72193910000001,-2.282207827,0.141859206,9.553964297666667,-3.883574961666667,0.5409595913333335,1.8002710339999999
599,1.6638223333333524,-5.561932563666666,21.235876720000004,-40.71278383333333,-4.720055421333334,0.28376254466666667,10.044698555,0.276066143,2.8759536346666668,0.8935564856666667
600,1.6666000000000167,-5.548638661666668,21.237347923333335,-40.6934611,-2.7141065996666662,0.09419633966666667,6.878414471666667,-0.5579341250000002,-0.12020780399999993,1.800578435333333
601,1.6693776666666815,-5.5035473506666674,21.271503446666667,-40.690511066666666,-3.9159561400000005,0.7148484786666667,11.295340536666666,3.8137731959999996,4.158237020333334,0.31748404100000016
602,1.6721553333333457,-5.441353003333333,21.276305516666667,-40.6695048,-3.0319351156666667,-0.14700260766666665,9.257586320666666,5.242278892333334,0.26617034266666667,2.037023862333333
603,1.67493300000001,-5.3778370220000005,21.29131762333333,-40.673070266666656,-3.7415697573333335,-0.16193823533333337,6.152388890666667,6.294028707333333,1.939984004,-0.6474844613333332
604,1.6777106666666743,-5.2947705586666665,21.31014061,-40.65359493333333,-2.7309369543333335,0.35852413866666666,12.357947670000001,7.810063629999999,1.9561381636666664,2.0149183273333335
605,1.680488333333339,-5.197944164333333,21.307028453333334,-40.66137186666666,-3.948884169,-0.7446719606666666,6.369798104,10.485121804333334,-0.17979097366666652,-1.2872009276666672
606,1.6832660000000033,-5.082006295333334,21.32158788,-40.635864233333336,-2.7397319873333337,-0.21745671333333336,8.693871339,11.473786354,1.3917837763333332,2.6080970763333333
607,1.6860436666666676,-4.997592449333333,21.31917826666667,-40.651621500000005,-3.243647754,-0.5570281496666666,10.968944550000002,9.372185231333333,-0.018246253666666618,-2.1591220696666666
608,1.6888213333333322,-4.863457838666666,21.3150088,-40.62058513333334,-3.8622044326666667,-0.7914646266666666,7.275545280333333,13.407428423333334,-0.8916872343333334,3.04400452
609,1.6915989999999965,-4.750523726333333,21.308841703333332,-40.63567606666667,-2.2850019136666666,-0.11297407766666669,10.584276995333333,12.77819729,-0.4787597856666667,-2.1289402246666667
610,1.6943766666666609,-4.645284493666666,21.298509596666666,-40.6072642,-4.358168602,-0.8855419356666667,8.152718860666667,10.059761362333335,-1.5884845256666669,2.7025712333333334
611,1.6971543333333632,-4.533777237,21.287122729999997,-40.615147900000004,-2.586902201,-1.112587492,9.692872999666667,12.293502807333333,-1.1739217640000001,-1.3872885703333333
612,1.6999320000000278,-4.429515838666667,21.258485793333335,-40.59036253333334,-4.679521878333333,0.12758974233333334,11.042447725333334,10.090468884000002,-3.7343892256666664,2.1259817683333333
613,1.702709666666692,-4.331041018,21.24490293,-40.59853619999999,-2.053631216,-1.0868343613333333,8.924769560666666,10.747205257,-1.4414069256666666,-1.4253469703333332
614,1.7054873333333564,-4.231357574333334,21.217941919999998,-40.5688629,-4.887431303666666,-0.4314500293333334,9.880501112666666,9.297571817333333,-3.5687124283333334,2.674310028666667
615,1.708265000000021,-4.154435317,21.179054896666667,-40.572992966666675,-2.586836298333333,-0.6210654973333334,12.08645439,8.001217047333334,-4.507725715666666,-1.1864643293333332
616,1.7110426666666854,-4.065812985333333,21.178223293333332,-40.54906213333333,-5.188288688666666,-0.6857927840000001,8.588686624666666,8.193226417333333,-0.3882514633333332,2.264691621
617,1.7138203333333497,-4.010420799333334,21.132902150000003,-40.5474752,-1.5585154096666667,-0.17548250166666665,10.028956093666666,5.184675931666667,-5.325720951,-0.6063316566666667
618,1.7165980000000143,-3.9371759096666668,21.121730170000003,-40.52708436666668,-6.149972915666666,-0.4843466083333334,11.496121406999999,6.497584660666667,-1.5927743116666668,1.777628064
619,1.7193756666666786,-3.881113768,21.104410806666667,-40.52345783333334,-1.648934722,-0.6446918696666667,9.460528057,5.189034541333334,-1.9908836680000004,-0.12005831800000004
620,1.722153333333343,-3.836186488333334,21.092393236666666,-40.506703699999996,-4.438095092666667,-0.41261734566666664,9.346517245333333,3.249038043,-1.659909585666667,1.3522183103333332
621,1.7249310000000075,-3.793775558666667,21.0983785,-40.50581866666667,-3.210859537333333,-0.618400756,10.004229546333333,3.690537234,0.8200996716666668,-0.22659188500000008
622,1.7277086666666719,-3.756925503333333,21.078840893333332,-40.49602256666666,-3.3894788423333337,-0.8053389243333334,8.594409465666667,2.5724718766666665,-2.5065535703333333,0.5209849973333333
623,1.7304863333333362,-3.733370463,21.087607066666667,-40.490519199999994,-2.1234945456666665,-0.8066818716666666,8.778310936333332,1.2376371620000002,1.1176089446666668,0.31069211133333346
624,1.7332640000000008,-3.710575978,21.11291758333333,-40.4881083,-5.059434413666667,-0.2703069296666667,9.550441104666668,1.2008465133333335,2.919053514666667,0.0512497823333334
625,1.7360416666666654,-3.684402227333333,21.11440912666667,-40.47790526666666,-3.3072506983333336,-0.7270105583333333,10.576639809000001,1.349814772666667,0.2115306160000002,0.7841800053333333
626,1.7388193333333295,-3.6635252636666666,21.13179270666667,-40.4687449,-2.989635944333333,-0.5275328916666667,8.912652651666667,0.6868031419999999,1.9193175633333335,0.7462707953333333
627,1.741596999999994,-3.651270230666667,21.207002003333333,-40.457758566666676,-3.7232271036666664,-0.5779313346666667,8.014133771666668,-0.3530624953333333,9.037048339333333,1.4362668196666668
628,1.7443746666666964,-3.6273682120000004,21.24458758,-40.458882633333324,-3.6405572893333336,-0.634410719,7.123558442,1.4899461370000002,4.410566814,-0.2536278563333334
629,1.7471523333333607,-3.5909291106666665,21.276443483333335,-40.43413796666667,-2.2392816146666665,0.6844587923333334,9.62945938,1.9363934170000003,3.7484552066666663,2.6271280446666663
630,1.7499300000000255,-3.591842254,21.355604806666665,-40.44692989999999,-3.5523866020000003,-1.2243420876666666,8.711922009666667,-0.9966624976666667,9.470739997666668,-1.2577745120000001
631,1.7527076666666896,-3.5748025576666667,21.42876434,-40.428471900000005,-3.875388781,-1.4317989746666668,8.434529940666666,-0.12864343299999983,8.740200837666668,2.2263851960000003
632,1.755485333333354,-3.5396146773333332,21.446409226666663,-40.43352766666667,-2.477281789333333,0.388173605,10.642671904333334,2.9989446796666663,2.048985242666667,-0.8579744496666667
633,1.7582630000000183,-3.5237780413333333,21.500258763333335,-40.42196656666666,-3.3188629946666666,-0.23930718500000006,9.086247922,0.03513407733333348,6.477793375666667,1.3154706159999998
634,1.761040666666683,-3.510089159,21.552531560000002,-40.4243622,-2.5356752473333333,-0.9893177646666667,8.19183445,0.30532157399999993,6.175819158666666,-0.3033538959999997
635,1.7638183333333473,-3.448980252,21.561574296666663,-40.405049633333334,-3.6230085790000004,0.10837918533333331,8.247451464333334,5.1382327876666665,1.058264494,1.851555188333333
636,1.7665960000000116,-3.4108610946666666,21.59420204,-40.424662266666665,-2.6272725263333334,-0.02037549033333334,7.7728436783333335,4.0131875673333335,3.9407760176666664,-2.365077575
637,1.7693736666666762,-3.372899771,21.61446635,-40.402893033333335,-3.3406073253333335,-0.37921894066666667,9.412510234,2.2276401519999998,2.3868199986666663,2.1922969423333334
638,1.7721513333333405,-3.3433361053333335,21.618591306666662,-40.42284646666666,-2.393817902,-1.1222231586666667,8.662674823000001,3.031577149666667,0.5269574823333333,-2.599332571
639,1.7749290000000049,-3.3062397640000003,21.601922990000002,-40.417343166666676,-3.664373517,-0.7657374046666666,8.458077431,2.8314747563333333,-1.9291318259999999,0.11277105433333334
640,1.7777066666666694,-3.2809971173333334,21.59693718,-40.43028259999999,-1.8270822366666666,-0.7949610549999999,12.60363134,2.215913315666666,-0.612445116,-1.876157403
641,1.7804843333333338,-3.2431158226666668,21.55603536,-40.41822813333332,-4.602081855000001,-0.512939453,8.908408483666667,2.6282891233333334,-4.871677920333333,0.6737695533333333
642,1.7832619999999981,-3.2161149183333335,21.533320106666665,-40.43481956666667,-2.5259877889999998,-0.30839099200000003,8.773062229333332,2.6091170360000002,-2.715066154666667,-2.394486745
643,1.7860396666666627,-3.174408197333333,21.491220473333332,-40.42230223333333,-4.331147035,-0.6130580603333334,10.86916637,3.020102123333333,-5.019395948666666,0.7076528073333334
644,1.788817333333327,-3.139401038666667,21.449158986666664,-40.4250692,-2.270454069,-0.1251732113333333,6.284631888,2.9752259653333333,-5.119261820999999,-0.976051728
645,1.7915950000000294,-3.107535998,21.378670373333335,-40.4273885,-3.7843876679999995,-0.9014302243333333,9.271145740333333,2.445609032666667,-8.330091793666666,-1.145413478
646,1.7943726666666937,-3.0690081913333334,21.33762741,-40.426920599999995,-2.8433205286666663,-0.9070009686666666,8.902477901333333,3.2601672806666664,-5.017790655333333,-0.5972346463333335
647,1.7971503333333583,-3.0407693386666668,21.24611155,-40.425476066666675,-3.0774625936666666,-0.5771078703333333,7.172179857666667,1.8298513493333335,-10.874584518,-0.8599170050000001
648,1.7999280000000226,-3.0232958003333334,21.19531377,-40.4331004,-3.43115894,-1.77080969,10.394105909999999,1.1057835816666668,-6.140867869,-1.5515311159999996
