,time,Euler_X,Euler_Y,Euler_Z,Acc_X,Acc_Y,Acc_Z,Gyr_X,Gyr_Y,Gyr_Z
0,0.0,-3.2270900009999997,10.845747471,31.083034549999994,-1.7762513759999998,-1.1389524345000002,7.2592990395,-0.10590898950000005,1.2224075790000002,0.62026152
1,0.0083330000002206,-3.214736819,10.8118319515,31.0869789,-1.0094998255,-0.3441390435,7.0435614585,-0.352343142,-4.2022465765,-0.2149610595
2,0.0166659999999865,-3.212237835,10.7951631545,31.08390045,-2.565944195,-0.082852028,12.43223381,-1.412567675,-2.0062925965,-0.861778103
3,0.0249990000002071,-3.2022372485000004,10.783187388,31.081832850000005,-1.62398915,-0.32802169800000003,11.912660125,-0.5173307655,-1.5406003595,-0.629162427
4,0.033331999999973,-3.190038681,10.7689137435,31.079082500000005,-1.9625673075,-0.3644487415,8.779889106999999,-0.246677898,-1.7198293805,-0.8393336385000001
5,0.0416650000001936,-3.2001068595,10.7672786735,31.0779991,-1.6998885275,-1.0873596295,11.299471855,-3.0256305935,-0.3305197955,-0.12892282000000005
6,0.0499980000004143,-3.1923774480000002,10.741429330999999,31.066631300000005,-1.6421448585,-0.5788795949999999,8.189630984999999,-0.5892680884999999,-3.0498937965,-1.9206643700000001
7,0.0583310000001802,-3.191390395,10.717020987000001,31.081779499999996,-1.082424581,-0.313129967,7.7296507355,-1.9403551815000002,-3.131206155,1.1728118655
8,0.0666640000004008,-3.208445668,10.6950860005,31.0666809,-2.1862680909999996,-1.0128465895,11.0797867775,-3.5178202984999998,-2.563786328,-2.3205727935000002
9,0.0749970000001667,-3.230606437,10.695413588000001,31.062633499999997,-3.1251468659999997,-0.5149447469999999,8.348484516,-4.250323772,-0.028028487999999907,-1.053801775
10,0.0833300000003873,-3.2806705235000004,10.6632733345,31.0533905,0.36535126,-0.608956367,10.5371251105,-7.6161627775,-3.8298019764999998,-1.685877681
11,0.0916630000001532,-3.3223975895,10.6559553165,31.031322499999995,-2.8211306335,-1.2111656069999999,12.56314373,-6.247894287,-0.8343837260000001,-3.0145840645
12,0.0999960000003739,-3.3698652984999997,10.6595363605,31.01769255,-1.7817882595,-0.3605756275,7.583129406,-7.1980547905000005,0.4859659675000001,-2.005127132
13,0.1083290000001397,-3.441332698,10.641731738,30.990654,-2.2358636855,-0.6280824540000001,11.940731525,-9.7353641965,-2.0633997915,-3.4818909170000003
14,0.1166620000003604,-3.5105335715,10.641694068,30.984046949999993,-2.0188815300000003,-1.3104601205,8.618232013,-9.947512866,0.010092049999999964,-1.1746111515
15,0.1249950000001263,-3.6010280845000002,10.6246581075,30.95321275,-0.9106230289999999,-0.38400667899999996,5.942674875,-11.935990335,-1.934943914,-4.057845712000001
16,0.1333280000003469,-3.7257075310000003,10.6287155165,30.945209499999997,-2.515952766,-2.0124679805,12.247014045,-16.555969715,0.5179645715000001,-1.317545537
17,0.1416610000001128,-3.852071762,10.5979981445,30.938060749999998,0.03843235950000001,-0.21473200599999998,8.956489563,-16.784988405,-3.7489262070000002,-1.447928465
18,0.1499940000003334,-4.0089452265,10.578997613,30.895000449999998,-3.5428391694999997,-0.9201513825000001,11.46086025,-19.639017105,-1.9542455675,-5.5899631974999995
19,0.1583270000000993,-4.1821168664999995,10.593791485,30.889446250000006,-0.863077879,-1.730968058,12.949251175,-22.348620415,1.723511979,-1.1813162865
20,0.16666000000032,-4.3759696485,10.575242996,30.840827949999998,-3.5161080360000003,-0.6899442375,6.5653550625,-23.97656441,-1.823446512,-6.314347982499999
21,0.1749930000000858,-4.611007928499999,10.5755281445,30.832298300000005,0.2061454060000001,-2.1144791245,10.039475915499999,-29.72607422,0.004092454999999884,-1.4232432844999998
22,0.1833260000003065,-4.8668527605000005,10.5635719305,30.76817704999999,-2.779329121,-0.7528547194999999,7.9749031079999995,-31.078085899999998,-0.839417547,-8.0721657275
23,0.1916590000000724,-5.1618762015,10.560020922,30.766235350000002,-1.0704339145000001,-2.11277318,7.435126304500001,-37.077789305,-0.5104358195000003,-0.6937946079999999
24,0.199992000000293,-5.512275696,10.5267815585,30.69775769999999,-1.0918403865000001,-1.464927763,13.477152345,-42.360969545,-3.264821291,-8.811183451
25,0.2083250000000589,-5.880913973,10.508802412000001,30.666686999999996,-2.790487111,-2.26943624,8.7782828805,-45.21355629,-1.8602244259999998,-4.41827786
26,0.2166580000002795,-6.336491108,10.487089633,30.601551050000005,-1.1375404895,-1.5445840359999998,12.749744415,-55.052022935,-1.8138769865,-8.351773262
27,0.2249910000000454,-6.8141760824999995,10.4463896745,30.55317685,-2.79693836,-2.4725322725,8.76472783,-58.072242735,-4.359433651,-6.0655201675
28,0.2333240000002661,-7.355777740500001,10.401461124499999,30.499164600000007,0.4961117505000001,-1.4739717245000001,11.118156429999999,-65.61339569,-4.6134200100000005,-7.293889044
29,0.2416570000000319,-7.9490749835,10.3391108535,30.429645550000004,-4.3969795105000005,-2.6482920645,4.9793058335,-71.4006958,-6.39727259,-9.755166292
30,0.2499900000002526,-8.613307476,10.260459423,30.391403199999992,2.5079408885,-2.090703964,15.044496535,-80.65626526,-8.735494375999998,-6.103441477
31,0.2583230000000185,-9.300467968,10.1873445505,30.301456450000003,-5.1879716815000005,-1.75632149,7.103667736,-82.27467346,-7.109972358499999,-12.263563155
32,0.2666560000002391,-10.0478754035,10.119051933,30.282489749999996,1.7607886790000002,-1.4882790449999999,10.54853249,-91.08744430499999,-7.744212150499999,-3.988869071
33,0.274989000000005,-10.81463194,9.997427463,30.19247815,-4.342045903,-0.660620682,13.112641335,-91.81333923,-12.522628785,-13.445898055
34,0.2833220000002256,-11.589450355,9.924262998,30.17778395,1.8504949215,-1.4037450925000001,4.841975689,-94.464862825,-8.319146631499999,-3.7616466285000003
35,0.2916549999999915,-12.439974785,9.7818646415,30.079589850000005,-5.708620548000001,-1.6211065649999998,14.58738327,-101.808239,-14.401596545,-15.35247421
36,0.2999880000002122,-13.283086775,9.6989202475,30.06468965,0.9585114715000002,-1.050471589,8.8398988225,-102.6186409,-9.3474917425,-4.247635603
37,0.3083209999999781,-14.16477108,9.570961,29.97990035000001,-3.9299705025,-0.753341913,12.946108814999999,-105.8443756,-12.6524086015,-13.725899694999999
38,0.3166540000001987,-15.038190844999999,9.493519782,29.974971800000006,-1.0205239655,-1.1694252735,7.4548895360000005,-106.50361635,-8.863543911999999,-3.363811016
39,0.3249870000004193,-15.955590725,9.3323864955,29.907642349999996,-0.8369277715000001,-0.5319097045,11.504041195,-110.51542280000001,-16.641585828500002,-13.134213925000001
40,0.3333200000001852,-16.845796585,9.232881071,29.888195050000007,-1.8194094525,-1.286652565,7.686968327000001,-108.19496535,-10.818477152,-5.962428093
41,0.3416530000004059,-17.757593155000002,9.098133565,29.850307449999995,-0.866839468,0.08472618450000001,9.2275838865,-110.5002327,-14.24584532,-9.4421243675
42,0.3499860000001717,-18.676426890000002,8.982749225,29.810436249999995,-3.4888226985,-1.1799523535,13.697041989999999,-111.288517,-11.6812694065,-9.248170377000001
43,0.3583190000003924,-19.57480335,8.8536200545,29.785846700000008,-1.0994679925000002,-0.4590679409999999,9.269428968,-109.16641235,-13.828225615000001,-8.183210371
44,0.3666520000001583,-20.460607525,8.72957325,29.747322099999998,-1.6082706155,0.9590140655,14.209296705,-107.28245165,-12.447791336999998,-9.6581389895
45,0.3749850000003789,-21.30189133,8.625464916,29.73601914999999,-3.2646725175,0.1440613715,7.714286802,-102.617492665,-11.322747229500001,-6.128072857499999
46,0.3833180000001448,-22.145544055,8.51006341,29.701789850000004,-1.318414569,-0.395325959,10.044824124000002,-102.3897667,-11.395410774,-9.212098361
47,0.3916510000003654,-22.95718765,8.393358231,29.698589350000006,-2.3150870505000003,0.3480897435,11.968699935,-99.17518233999999,-12.903841971,-6.140561342
48,0.3999840000001313,-23.726998325,8.266953706999999,29.686618799999998,-0.40000625349999996,0.14252874250000003,5.3406825065,-93.98636627,-13.413867955,-7.638591289500001
49,0.408317000000352,-24.46254158,8.1493730545,29.709583300000006,-1.251377851,1.6342544555,14.70844698,-90.42451095999999,-14.1201188545,-3.5935630205
50,0.4166500000001178,-25.13142967,8.027955532,29.6881256,-3.0383619665,1.1791510585,10.5618095415,-81.75286484,-12.20050478,-8.777461767
51,0.4249830000003385,-25.743721965,7.9408550259999995,29.7365761,-1.4326720835,1.0796227455,8.838456631,-76.08327484,-12.0298905385,0.352677688
52,0.4333160000001044,-26.312130930000002,7.8212306499999995,29.70679475,-2.4905908104999996,1.6611800195000002,12.46210861,-69.586006165,-11.4045825,-9.79917717
53,0.441649000000325,-26.783276559999997,7.7293183800000005,29.7506676,-1.9384703785000001,1.204338789,5.4961764815,-59.14788437,-12.3091475965,-0.6983807385
54,0.4499820000000909,-27.2307148,7.6194324495,29.720836649999995,-2.245906174,1.233146712,15.756062985,-55.020456315000004,-10.189821244000001,-9.4344158165
55,0.4583150000003115,-27.591300009999998,7.538381576500001,29.751876799999998,-2.0548899174999997,0.8326098325,8.945395229,-45.695705415000006,-10.451651812,-1.6366376875
56,0.4666480000000774,-27.91721058,7.4219157695,29.702514650000005,-2.548600197,1.6492326259999999,10.267197605,-40.19832802,-9.693594216000001,-12.008945945
57,0.4749810000002981,-28.18536663,7.3621008395,29.722557050000006,-2.1942402125,-0.1834826615,13.999979974999999,-34.33721161,-7.5702564715000005,-1.6591122745
58,0.4833140000000639,-28.402790070000002,7.2596461770000005,29.680831950000005,-1.163892508,1.017524168,5.0483782295,-27.409276965,-8.542315483,-10.536756513499999
59,0.4916470000002846,-28.587976455,7.1839141845,29.691368100000005,-1.9514622685000003,0.819134768,14.367788314999999,-24.215224265,-8.7025055895,-3.6042451855
60,0.4999800000000505,-28.714963915,7.104533672500001,29.654911049999995,-1.8354102374999999,0.18413168199999996,7.2530715465,-16.69631195,-6.3487839715,-8.735033273500001
61,0.5083130000002711,-28.81530571,7.035955906,29.6659317,-1.7232574225,0.6798608190000001,13.065347195000001,-14.0211091,-7.9636476015,-3.165267289
62,0.516646000000037,-28.873064045,6.9669017790000005,29.64048005,-1.810353935,0.6873853505,11.641298295,-8.607025861499999,-5.870605230000001,-7.026704072999999
63,0.5249790000002577,-28.909874915,6.899867773,29.639717100000006,-2.9127088785,-0.0658924065,10.361279488,-6.230574131,-7.116955072,-4.3186757565
64,0.5333120000000235,-28.904878615,6.8651320935,29.620162949999994,-1.4668858645,0.3052853195,12.260038375,-1.1735290885,-2.5880430939999997,-4.444569826
65,0.5416450000002442,-28.887594225,6.808647871,29.624126399999994,-2.4970254305,0.5043127205,9.5967888825,0.1813549995,-6.287188648999999,-3.208260298
66,0.5499780000000101,-28.841778755,6.781636238,29.613933550000006,-1.8884707390000002,-0.6356919445,12.039542195,3.557638526,-2.3246650699999996,-3.015436053
67,0.5583110000002307,-28.793230055000002,6.7552559375,29.60673905000001,-3.149722099,0.3109267055,10.94330931,4.0441935065,-2.4875593185000007,-2.6447467805000002
68,0.5666439999999966,-28.73847389,6.745138168,29.59215545,-2.1032887695,-0.5838298575,11.70043278,4.704656243500001,-0.29065132149999995,-2.505712628
69,0.5749770000002172,-28.661824225,6.726683378000001,29.582866650000007,-2.10189873,-0.3556904125,10.9370365145,7.427833318999999,-1.540318608,-2.4093900919999998
70,0.5833099999999831,-28.585418699999998,6.742717266,29.5691681,-2.533405304,-0.994330138,9.880859375,7.265222311,2.4124577045,-0.9293358030000001
71,0.5916430000002038,-28.522850035,6.742759228000001,29.5370445,-1.9603154065,-0.497543618,10.052137850000001,6.067218542,1.6926593805000003,-3.7155376675000005
72,0.5999760000004244,-28.44460678,6.769812107,29.5189972,-2.4930619005,-0.854951173,11.549683571,7.5140707495,3.809298755,-0.7638547124999999
73,0.6083090000001903,-28.38709259,6.794029474,29.4782333,-1.4999623895,-1.3288182915,11.508206842,5.62218523,4.724067209499999,-3.2214900254999996
74,0.6166420000004109,-28.317990305000002,6.841463088999999,29.45522305,-1.9607761505,-0.4718571975,8.3210737705,6.4228994845,6.2553262704999995,-0.190160148
75,0.6249750000001768,-28.279442789999997,6.8602252005,29.415073400000004,-1.0389559265000001,-1.0423447195,14.741756915,3.3558371065,4.1043310150000005,-3.4640570879999997
76,0.6333080000003974,-28.218789100000002,6.9104325775,29.39014815,-2.7607916485,-1.1657927635,5.5022845270000005,5.4558711055,6.675834419499999,-0.2746165845
77,0.6416410000001633,-28.193379399999998,6.948642492499999,29.368286100000006,-1.2203589675,-0.7212958935,17.99698162,1.4650574925000002,5.122150185,-0.47454214850000004
78,0.649974000000384,-28.15207577,7.005710840500001,29.33681105,-2.906227946,-1.346608013,3.9812918900000005,3.225076437,7.7481238845,-0.54399515
79,0.6583070000001499,-28.16323376,7.0528268815,29.301788350000002,-2.1555113195,-2.051753998,15.350848674999998,-2.8140697479999996,6.8032956124999995,-1.4068619015000001
80,0.6666400000003705,-28.177622794999998,7.1264877315,29.262683849999995,-1.363096058,-0.696259335,6.335798263500001,-3.257253736,9.909060479499999,-0.3257618855
81,0.6749730000001364,-28.212099074999998,7.170865536,29.236877449999994,-1.776849508,-0.9306396695,15.40091467,-5.819490314,6.0010828975,-0.6334529225000001
82,0.683306000000357,-28.23724747,7.2486000065,29.198093400000005,-2.28303355,-1.1870492695000001,6.719779491500001,-4.406135559,10.307415575,0.05551230899999998
83,0.6916390000001229,-28.267661095,7.3239266875,29.1734772,-0.899488598,-0.4856640625,12.106897352499999,-5.520189166,9.2091629515,1.1543889675
84,0.6999720000003435,-28.3320055,7.391437292,29.133342749999997,-3.0042096375,-0.9401987195000001,12.807125095,-8.9746820935,9.298075195,-0.5876678675
85,0.7083050000001094,-28.390050889999998,7.468092918,29.105819699999998,-1.507962763,-1.3110165595,6.0406937595,-8.838258505999999,9.520711895000002,0.9037602245
86,0.7166380000003301,-28.47906971,7.528633833,29.080696100000004,-2.716741085,-0.8608964685,19.562031745,-12.21270418,7.733527185499999,0.5470880119999999
87,0.724971000000096,-28.54461098,7.604311466,29.051364900000003,-1.1503505705000001,-0.15875569750000001,-0.9376574455,-9.624071598,9.510326741,0.7436518965000001
88,0.7333040000003166,-28.629597665,7.657216549,29.022541049999994,-1.6911340949999998,-2.1646768155,18.787334440000002,-11.80902338,7.120080231999999,-0.30612860649999996
89,0.7416370000000825,-28.708873750000002,7.726673603,28.989631649999993,-0.9774897100000002,0.251539916,4.817229271,-11.023126605000002,9.0510730735,0.15585625149999996
90,0.7499700000003031,-28.794524195,7.7569921015,28.9739876,-1.7580308319999998,-1.3008413275,12.037923809999999,-12.281925205,4.015628811999999,-0.3611032965
91,0.758303000000069,-28.885326385,7.798079014,28.953803999999998,-2.176855624,-0.126673162,14.127442835,-12.470588685,5.3298983600000005,-0.05255430950000006
92,0.7666360000002896,-28.950972555,7.8536539075,28.94803619999999,-1.337114513,-1.5891984104999999,3.5852036475,-10.163810255000001,6.129371165,2.0220268965
93,0.7749690000000555,-29.060385705,7.872495889500001,28.923564899999995,-2.7997568250000002,-0.434935093,19.624256135000003,-14.644460200000001,3.2292346949999997,-1.7666915655
94,0.7833020000002762,-29.14025116,7.918434381499999,28.923149100000003,-1.8992455005000002,-1.0666849015,2.986639142,-11.89171934,4.797874929999999,2.071564555
95,0.791635000000042,-29.234909055,7.9401597975,28.903862000000004,-2.4487942455000002,-0.76150959,15.29773283,-13.126593115,3.2438842654999998,-1.1607734265
96,0.7999680000002627,-29.325217245,7.9934887885000006,28.900131199999997,-0.9508352280000001,-1.190692693,9.7887797355,-12.87634325,5.728471876,2.3458801510000002
97,0.8083010000000286,-29.393997194999997,8.0074453355,28.890556350000004,-0.8278416394999999,-0.5189182010000001,8.588180065,-10.393502237,1.8760333045,-0.7195489555
98,0.8166340000002492,-29.472078325,8.010948658,28.906078300000004,-2.750402629,-0.1699159815,14.80529022,-11.613664629999999,-0.6380596149999995,1.5432711540000001
99,0.8249670000000151,-29.524261475,8.0499651435,28.886096950000002,-1.0051962735,-0.8076570185,6.651708364499999,-8.2460944655,5.112085579,-0.31766784950000004
100,0.8333000000002357,-29.584464075,8.041471243,28.896926899999997,-2.4137995095,-1.280828923,14.64518118,-9.5326471325,-1.6114878655,0.260573648
101,0.8416330000000016,-29.641665455000002,8.075633287,28.877162949999992,-2.8371649235,0.656044304,8.260253906500001,-8.6568562985,4.5859470365,-0.45391622150000005
102,0.8499660000002223,-29.684902195,8.072316885,28.897575349999997,-1.3539410235,-2.2230149509999997,9.384674072,-7.87174201,-1.5970668799999999,1.369068295
103,0.8582989999999882,-29.73669529,8.0875008105,28.881648999999996,-2.1001000850000002,0.29244110749999996,15.287858960000001,-7.9807691575,2.36691761,-1.1151800455
104,0.8666320000002088,-29.778084755000002,8.10244894,28.874866500000003,-2.0427285435,-0.609198816,4.720029354,-7.176097631499999,1.9024920465000004,-0.335117477
105,0.8749649999999747,-29.801131245,8.1037540435,28.88160705,-1.8419490455000003,-2.049269438,14.17800665,-5.067187786,-0.4092962445,0.306314245
106,0.8832980000001953,-29.83388233,8.1331698895,28.87231825,-2.9107064009999997,-0.1872159915,8.9354310035,-5.9032363895,3.5086579344999995,0.4611522109999999
107,0.891631000000416,-29.8504734,8.151906252,28.878669699999996,0.536720678,-0.743371561,8.1782798745,-4.439318538,1.4309201214999998,1.225948587
108,0.8999640000001818,-29.874833105,8.144399643,28.892997750000006,-3.0657065515,-1.454631597,15.84100008,-5.2834808825,-1.7015159155,0.6441019775
109,0.9082970000004024,-29.883505820000003,8.165561676,28.902572599999992,-1.0322955994999998,0.07101701199999999,6.9430532455,-3.4140699505,1.492227629,1.7880399224999999
110,0.9166300000001684,-29.887869835,8.1629486085,28.900859850000003,-2.4316659565,-1.8658557535,10.726706026,-2.8271968364999998,-0.25258874900000006,-0.8060159385
111,0.924963000000389,-29.909092905,8.172929525499999,28.902156850000004,-2.173315823,-0.822816007,12.858341695,-4.655566931,0.8046398199999993,0.344127312
112,0.9332960000001548,-29.922030445,8.184430837499999,28.893417399999997,-3.2242498994999997,-0.754806578,7.910620451,-3.720365584,1.666673663,-0.7493125945000001
113,0.9416290000003756,-29.935560225,8.1911432745,28.8928795,-0.8849096595,-1.397514671,12.155015944999999,-3.890097976,0.5793748645000001,-0.1463405935
114,0.9499620000001414,-29.95309639,8.2085938455,28.869670899999996,-3.0220707654999996,-0.3209109845,12.62037277,-3.829489112,3.1142315855,-1.7366775275
115,0.958295000000362,-29.942731860000002,8.2202074525,28.865055100000006,-2.090009183,-0.477587953,7.710096359,-1.072749913,1.3415331859999995,-0.3411752205
116,0.966628000000128,-29.9420414,8.2348778245,28.858180999999995,-2.0876799075,-1.7897299530000002,13.46331215,-1.9764967265,1.8371363879999998,-0.21013274800000004
117,0.9749610000003486,-29.93747711,8.2657408715,28.856800050000004,-2.2742335794999997,-0.129151866,11.37371731,-1.673557192,3.1407469035,1.2410096524999998
118,0.9832940000001144,-29.91819477,8.286741972,28.852462749999994,-0.9078261255,-1.6799162625,7.406826972999999,0.07528671600000003,2.3890461915,0.2676047385
119,0.9916270000003352,-29.889600755,8.2877650265,28.867984749999998,-2.9339115025,-1.1982486025,14.502541545,0.9661240430000001,-0.9699668865,1.23185271
120,0.999960000000101,-29.868950845,8.346313238,28.8390274,-2.2315855695,-0.19197835049999998,7.237329006,0.7796974480000001,7.721719741499999,0.08044797199999998
121,1.0082930000003216,-29.82806301,8.3670392035,28.840808849999995,-1.2063792345,-1.600512922,12.821744915,2.470979691,1.8999300005000004,0.875782579
122,1.0166260000000875,-29.80126286,8.403523207,28.8119583,-4.196401595999999,-0.173317373,11.479484554999999,1.668979183,5.419085023999999,-1.163981736
123,1.0249590000003082,-29.742516515,8.4584422115,28.802131649999993,-1.0002733765,-0.9981277435,7.5595264435,4.782357335,6.152918337999999,1.6897711155000001
124,1.033292000000074,-29.671001429999997,8.4859814645,28.784557349999993,-1.551551967,-0.2550744045,12.421770095,6.707535982,3.821401,-0.6125004180000001
125,1.041625000000295,-29.60959053,8.5303406715,28.772945399999998,-2.9619846345000003,-0.8218127935,10.84765625,5.3256418705,5.14946151,0.9849763515
126,1.0499580000000606,-29.511077880000002,8.5549938675,28.760887150000002,-1.188428879,-1.1737562715,8.8956532475,9.687729356,3.1987671850000003,-0.3234501895
127,1.0582910000002812,-29.428855894999998,8.5933959485,28.756103500000002,-3.426395953,-1.25997594,12.729493139999999,7.7417380835,4.131828544499999,1.3406749070000001
128,1.066624000000047,-29.320118899999997,8.650895119,28.738712299999996,-0.7643589380000001,-0.7223039714999999,7.077177047999999,11.124225138,6.946428301,1.0924345254999999
129,1.0749570000002675,-29.21130562,8.6894021035,28.7394447,-2.455492653,-1.1479018029999999,11.68336725,10.661247728,3.8335294725,1.8068285585
130,1.0832900000000336,-29.078967095000003,8.745673893,28.724063900000004,-2.063374102,-0.540376499,11.303097725,14.11465168,6.67919111,1.3408286575
131,1.0916230000002545,-28.927841190000002,8.8254575715,28.6958275,-2.040326126,-0.1375059005,6.535948514999999,16.180006985,9.853553652,1.127295852
132,1.09995600000002,-28.768787385,8.884364367,28.67998505,-2.225502193,-1.8575285075,14.78380728,17.263447765,6.97593625,1.4014704230000001
133,1.1082890000002408,-28.602466585000002,8.9707887175,28.649650599999994,-2.5908504404999997,-0.6692128035,6.7646479605,18.190122605,10.6703042995,1.327061206
134,1.1166220000000069,-28.426362035,9.0350985545,28.6280632,-1.1046088635,-1.2294660805,11.987975120000002,19.270085335,7.934789537,0.880079925
135,1.1249550000002273,-28.266410825,9.113808396,28.6040802,-2.6934080720000004,-1.5046496390000001,12.270326615,17.382402895,9.497080565000001,1.5346135495
136,1.1332879999999932,-28.10147476,9.173808337499999,28.57388305,-1.2833817604999997,-1.3415330349999999,6.9473478795,18.111898425,7.975798963,-0.3291558625
137,1.1416210000002138,-27.928693770000002,9.216488359,28.564834600000005,-1.7509761899999998,-0.8435836175,13.01131487,18.545711515,4.8650414945,0.9463821499999999
138,1.1499539999999795,-27.761691095,9.2746670265,28.52445985,-3.1498029235000002,-0.9743642805,8.2716174125,18.760334965,8.306431116,-1.3639457675000002
139,1.1582870000002004,-27.56843376,9.3522090895,28.498546600000005,0.101889111,-1.8134450315,10.0724143975,21.19363308,9.5109826305,1.0027786495
140,1.166620000000421,-27.40692997,9.3699121485,28.488201150000002,-2.1625466495,-1.4511222395,12.402740955,17.54379797,2.3872036929999996,-0.5772488415
141,1.1749530000001869,-27.240231515,9.4346604335,28.4648056,-1.9892710375,-0.8326061065000001,9.653976443000001,18.071489335000003,8.0228550435,0.575571254
142,1.1832860000004075,-27.083139420000002,9.448431971,28.458702099999996,-1.7660767435,-2.6233047245,8.6404271125,16.787816999999997,1.7514829635000004,-0.480747346
143,1.1916190000001734,-26.932714465,9.4715766915,28.459217099999996,-1.654812306,-0.8739955275,12.487719535,15.702222825,2.2897151709999997,0.8177539409999999
144,1.199952000000394,-26.795697215,9.482108118,28.4482498,-1.998060107,-1.7184587119999999,6.985095978,14.57342577,1.6315440535,-1.061402768
145,1.20828500000016,-26.64025688,9.484816076,28.450679800000003,-0.6629078685,-1.98466146,10.801288129500001,16.151866915,0.012570857999999685,-0.17506688849999996
146,1.2166180000003806,-26.52724838,9.479012967,28.4646034,-1.9104566495,-1.652293861,10.95458174,11.2646942125,-1.447211025,0.7305629549999999
147,1.2249510000001465,-26.414891245,9.4784417145,28.45191955,-2.12523441,-2.2472523449999997,8.6898195765,11.3167929655,0.4552866819999999,-1.914049536
148,1.233284000000367,-26.31778526,9.460043432500001,28.46875385,-1.5667414064999998,-1.0429283975,9.987855913,9.1729335795,-2.912127974,0.2085191275
149,1.241617000000133,-26.23849678,9.4117126465,28.460346249999994,-2.878663719,-1.5482290985,11.94622564,7.3317673205,-4.9210262885,-3.94355464
150,1.2499500000003536,-26.157395365,9.4132695205,28.473548899999997,-1.436164051,-2.2944872380000003,8.9139795305,7.42707777,-0.5649410785,0.9218690695
151,1.2582830000001195,-26.087984085000002,9.3516192455,28.476909649999996,-0.508747518,-1.37267454,10.73940325,5.794273137999999,-6.9835927485,-3.4533365965
152,1.26661600000034,-26.044113160000002,9.3174738885,28.4995804,-3.2230577470000004,-1.6040318605000001,13.008547305,2.8618656995,-4.936766029,0.17528465400000004
153,1.274949000000106,-26.002301215,9.290113450500002,28.50466155,-2.2824083605,-2.3670210245,7.034631014,2.467163324,-3.369014874,-1.4527242185
154,1.2832820000003269,-25.967391015,9.240075112,28.533279400000005,-1.3244053869999999,-1.2088476419999998,10.1791310285,1.5446024535,-6.942401469,-0.15109205250000002
155,1.2916150000000926,-25.961565970000002,9.1748328225,28.544124599999996,-2.323770873,-2.1601802705,11.94396162,-1.8138214055000002,-7.7691276065,-2.706887126
156,1.2999480000003132,-25.931355475,9.113169429500001,28.576419849999994,-0.7574375870000001,-1.49776423,6.152068615,0.9609755280000001,-8.379672172,-0.3653678895
157,1.308281000000079,-25.92641163,9.045030834,28.603195200000002,-2.3967858814999996,-1.264542252,11.968884469999999,-2.3312735300000003,-8.9090800275,-1.2366682215
158,1.3166140000002995,-25.93836021,8.9867019635,28.632476800000006,-2.4686199725,-2.431391835,10.98987198,-3.9200410845,-7.8876873825,-0.38465544599999996
159,1.3249470000000656,-25.936870575,8.924880263999999,28.646045700000002,-2.429431081,-0.9214966595,7.863642454000001,-2.6144010725,-7.5315678125000005,-2.422454
160,1.3332800000002862,-25.966701505,8.8468875895,28.675304399999995,-2.114352271,-1.2710622544999999,14.259777069999998,-6.0346057415,-10.007746816,-1.4041980354999999
161,1.341613000000052,-25.983933450000002,8.801136732,28.685653700000003,-2.050082922,-2.3490155935,9.730072499,-4.6533002855,-5.6378730535,-1.8058422209999998
162,1.3499460000002728,-25.98996353,8.7298705575,28.713470449999996,-1.272345901,-0.945510879,8.523705959499999,-3.255287588,-9.18830061,-1.34742412
163,1.3582790000000386,-26.00419712,8.672275543,28.734314000000005,-2.997479677,-0.5568312705,12.76457834,-4.3962682485,-7.463836968000001,-1.2492641805
164,1.3666120000002593,-26.01474571,8.6277394295,28.7487297,-2.7609931230000004,-1.9758316274999999,5.7020108700000005,-3.536922932,-5.5936762390000005,-1.4003496765
165,1.3749450000000252,-26.02217197,8.568641901,28.780967750000002,-1.3812668325,-1.733312726,13.583553315,-3.9069906475,-8.2170472165,-0.23251962699999995
166,1.3832780000002458,-26.062010765,8.501124382,28.785652149999997,-2.5802093745,-1.5149546859999998,9.0052399635,-6.683678389,-7.614406110499999,-3.410612941
167,1.3916110000000117,-26.06067085,8.460702419,28.815998099999995,-0.31249782449999997,-1.235539317,6.847872257500001,-2.8532599215,-6.094071626,0.500463814
168,1.3999440000002323,-26.087101935,8.3882586955,28.835018149999996,-2.632986769,-1.3346012235,14.50030041,-5.374938488,-8.892934682,-2.185285449
169,1.4082769999999982,-26.093352315,8.364659071,28.860626250000003,-2.1880428345,-1.493638456,6.515366316,-3.5640038255,-4.0375338795,0.969895959
170,1.4166100000002189,-26.094571115,8.2907202245,28.8718834,-2.309466064,-0.7164258809999999,10.589413165,-2.381266296,-8.617535474499999,-3.2895470854999997
171,1.4249429999999847,-26.106983185,8.2574703695,28.893241850000003,-3.136146635,-1.4881920815,11.836646555,-4.046704292,-4.8632173519999995,0.134506941
172,1.4332760000002054,-26.087085725,8.2280192375,28.896682700000007,-0.9479811189999999,-1.936336398,5.6091897490000004,0.23684823500000007,-3.433263779999999,-1.791178167
173,1.4416089999999713,-26.080168725,8.1880178455,28.932945250000003,-1.01941514,-0.872037202,13.840742590000001,-1.995906949,-6.3776347645,1.3694268465
174,1.449942000000192,-26.057175639999997,8.1663734915,28.935619350000003,-3.491890743,-0.882891476,7.5752227305,0.772179544,-2.580896735,-1.284432173
175,1.4582750000004123,-26.02258873,8.15711689,28.9673691,-2.2133865354999998,-1.8678238985000002,11.290846345999999,1.2430142465,-2.8066420540000006,2.3419671060000002
176,1.4666080000001784,-25.989151955,8.1471734045,28.968849149999997,-3.9062347410000005,-0.30937127750000004,12.20262146,2.1619568465,-1.2399539935000004,-0.7538270055
177,1.474941000000399,-25.932738305,8.1656415465,28.986370050000005,-1.1400055285,-2.5545338395,4.737124443,4.0856242179999995,0.93196821,2.253771007
178,1.483274000000165,-25.884968755000003,8.1404390335,29.000160199999996,-2.1166718005,-1.1585544344999998,15.62269926,3.66377078,-3.5429818625,-0.21246378100000002
179,1.4916070000003856,-25.838867190000002,8.1736917495,28.998973850000006,-2.2313901785,-1.610950351,4.055815577500001,3.3163005114999997,3.5010175705,1.136016872
180,1.4999400000001517,-25.799900055000002,8.170424223,29.001789099999996,-1.9525152739999998,-2.0957069995,13.99086857,2.6231665019999997,-0.5817573070000002,-0.42183429000000006
181,1.508273000000372,-25.760742184999998,8.2054142955,29.009216349999996,-4.054266453,-0.370237231,12.40232086,2.4809824230000004,3.2433328615,2.2462407645000004
182,1.516606000000138,-25.709683419999998,8.2399845125,29.012279550000002,-1.5373333994999998,-2.1506551505,4.686759114,3.9903410079999997,3.4928174,1.512700409
183,1.5249390000003586,-25.66627598,8.26216197,29.020938899999997,-2.4423115845,-1.4899322984999999,17.05121422,2.927246213,1.7916455245000003,1.6714571715000002
184,1.5332720000001243,-25.627700805,8.305214643500001,28.996581999999997,-0.8760603069999999,-1.227517754,3.9828474525,3.13665545,5.7967453005,-0.806598723
185,1.5416050000003452,-25.55425453,8.340215206,28.9936104,-2.470151901,-1.970519006,12.43516159,6.5997896195,3.789274216,0.9576523305
186,1.549938000000111,-25.49678516,8.4140007495,28.9795456,-2.86997056,-0.401213534,8.8827114105,5.3962048295,8.596727847,1.9980136155000001
187,1.5582710000003317,-25.417057995,8.495231867,28.962417600000002,-1.8457003385,-1.750560358,8.585990428999999,7.503796100000001,9.527229786,1.720239937
188,1.5666040000000976,-25.346779820000002,8.558354616,28.94950865,-2.1402303875,-1.477535397,12.754439829999999,6.8847624065,7.3949546805,1.511790872
189,1.5749370000003182,-25.265548705,8.650081873,28.918708800000005,-1.972572386,-1.5794874429999999,3.1640846135,8.089745045999999,11.364488126000001,0.887046707
190,1.583270000000084,-25.172597885000002,8.7177603245,28.913330099999996,-1.0967336895000002,-1.4688345195,14.300320145,9.34600878,7.5224921705,2.401898444
191,1.5916030000003047,-25.073255539999998,8.8223021055,28.881782549999997,-2.7908324005000003,-1.3236191275,7.4273648265,10.475265978,12.7851181015,1.5861750245000001
192,1.5999360000000706,-24.955848695,8.9277076715,28.85078815,-1.0734072330000002,-1.5419120194999998,8.542553184500001,12.636176584000001,12.960761547499999,1.338805556
193,1.6082690000002913,-24.87696743,9.001980307,28.830799149999997,-3.3760541085,-2.596558034,12.81552124,7.8062095629999995,8.9181054855,1.236053556
194,1.6166020000000572,-24.778592109999998,9.089168070500001,28.799255349999996,-0.6820785995,-1.112289272,7.135924578000001,10.4623801725,10.973371506,0.468433231
195,1.6249350000002778,-24.681159975,9.137038944,28.790973700000002,-1.3834187385,-1.5712152435,12.015302179999999,9.711842536499999,5.469523430000001,1.037786424
196,1.6332680000000437,-24.56225681,9.204178335,28.776119249999994,-2.191336334,-1.9174494745000001,11.176912305,12.785413264999999,7.960312365,1.377790034
197,1.6416010000002643,-24.446495055,9.284710881999999,28.7617149,-3.1762684880000003,-1.1204850675,6.7699816225,11.999604699999999,9.356600523000001,1.9290211800000001
198,1.6499340000000302,-24.340231895000002,9.325910569000001,28.759868599999997,-0.049540817999999986,-2.8947541715,13.245076655,10.899767879999999,4.506082177,1.3326191010000001
199,1.6582670000002508,-24.246760365,9.3618965125,28.7551384,-2.8657699825,-1.388876617,9.851549149,9.2949605,4.0145658235,0.873445559
200,1.6666000000000167,-24.149160385000002,9.367036819500001,28.761787400000003,-0.24198117849999995,-2.0058407185,5.320001363499999,9.686024665,0.17030262950000008,0.409450008
201,1.6749330000002374,-24.068659779999997,9.3728818915,28.769729650000002,-2.91563046,-2.8740990159999997,13.613664624999998,7.448209762499999,0.10263001950000006,0.711627543
202,1.6832660000000033,-23.993172645,9.4073090535,28.7692299,-2.6925707455,-0.539005041,11.600763796999999,7.283472060999999,3.712085484,1.1907801625
203,1.691599000000224,-23.90081215,9.438363554,28.7735901,-2.874438882,-1.53044717,7.6908319,8.831406829,3.0545716259999995,1.4228455425000002
204,1.6999319999999898,-23.825847625,9.43788576,28.7992859,-0.361699462,-2.913753748,12.56831503,6.6453323365,-1.3795314875,2.3002355095
205,1.7082650000002104,-23.756783485,9.461581232499999,28.794383999999994,-2.4386977555,-1.3917479515000002,10.492465975,6.4055440425,2.68764472,0.23048323399999998
206,1.7165979999999763,-23.675003054999998,9.4494056705,28.805511449999997,-0.8259156645000001,-1.36946477,7.192851305,7.705723524,-1.9290277960000002,0.02474975600000001
207,1.724931000000197,-23.586556435,9.449432373,28.81277469999999,-3.757129312,-1.916851699,13.346399785,8.447576046,-0.4866192935,0.347886264
208,1.7332640000004176,-23.517000195,9.477460386499999,28.809505449999996,-2.557918012,-1.6283749345,8.1101503375,6.6139416695,3.156833157,0.5265070125
209,1.7415970000001837,-23.444811819999998,9.492609023,28.81902695000001,-0.4458634855,-2.5236738919999997,8.251822709999999,6.3624098305,1.0719752299999996,1.2251545190000002
210,1.749930000000404,-23.373945239999998,9.4718227385,28.847621900000007,-1.550608724,-1.7766312954999999,11.694322585,6.201514361,-3.7276339540000007,1.7355183955
211,1.75826300000017,-23.299750330000002,9.5178942665,28.84413145,-2.1328494410000003,-0.784954242,6.229847908,6.9847722055000006,5.094774127,1.3920058009999998
212,1.7665960000003906,-23.237957,9.523081779,28.858535749999994,-1.7867540714999999,-3.0967167614999997,10.91830158,5.187049985,-0.17910146999999998,1.2024092675
213,1.7749290000001563,-23.20611477,9.529624462,28.862545000000004,-2.608819097,-2.7804625035,11.22286415,1.8120535615,0.38637113600000017,0.377970103
214,1.7832620000003772,-23.158678055,9.549180029,28.869228350000007,-1.8487047255,-0.7823731525,9.0705506785,3.7234774230000003,1.7660060525000003,1.1368303135
215,1.791595000000143,-23.113983155,9.5642519015,28.876945500000005,-0.5425352455000001,-2.755387068,8.372062208,3.1958756150000003,1.154158257,1.1035381405
216,1.7999280000003637,-23.09548855,9.5770940765,28.876373299999997,-3.7172321085,-2.55133903,10.928215027,0.48944966450000005,1.3361349120000003,0.187086392
217,1.8082610000001296,-23.097043990000003,9.608843327999999,28.865631099999995,-1.8196787835000001,-1.064240515,7.8240561484999995,-2.023217678,3.8729748720000003,-0.21029293500000001
218,1.8165940000003504,-23.115852355,9.6161646855,28.873661050000003,-1.5900633335000003,-3.7533582445,10.814449312,-4.228321194499999,0.34743791850000005,0.7471288739999999
219,1.824927000000116,-23.1293869,9.638552665,28.8723259,-1.3966154455000002,-1.094245672,10.626600745000001,-3.464645505,2.3867287655,0.5781900400000001
220,1.8332600000003367,-23.128302575,9.654395581,28.862750999999996,-2.468485057,-1.04310739,4.169359326,-1.5666691065,2.11934066,-0.878568202
221,1.8415930000001024,-23.1447649,9.665423868000001,28.868072500000004,-1.645070076,-3.138363123,12.04911375,-4.0439754725,0.82272923,0.6671611665
222,1.8499260000003237,-23.17282677,9.680498125,28.8735237,-2.438076019,-1.2487471700000001,9.4979848855,-5.2519041295,1.3256965874999997,0.8499444199999999
223,1.8582590000000887,-23.19519901,9.674788473500001,28.89273835000001,0.12390661250000001,-0.9829069450000001,9.0475790525,-5.0782657865,-1.6709001064999998,1.3429799975
224,1.8665920000003096,-23.209842684999998,9.6717057235,28.902683249999995,-4.3038643595,-2.4874516724999998,16.04942751,-3.6844099015,-0.8881735800000001,0.5307654365
225,1.874925000000076,-23.210030555,9.7267088905,28.90346145,-2.5240887405,-0.6815100905,4.745521784,-1.9859741925,5.8951034545,2.2395807505
226,1.8832580000002963,-23.202672005,9.728212359,28.92281725,-1.0370962325000002,-2.551012397,9.8565039615,-1.408770204,-0.8109283449999998,1.5733673575
227,1.8915910000000624,-23.203974719999998,9.726828574999999,28.939659150000004,-1.1212881805000001,-1.7757191955,10.423043253,-2.2972706555,-1.0837445300000006,1.4818223115
228,1.8999240000002828,-23.180224420000002,9.718869208000001,28.951209999999996,-0.9998601675,-1.243180215,4.9739432335,0.7787818315,-1.4874372485,0.32838092
229,1.9082570000000487,-23.171560284999998,9.702755449000001,28.963916750000003,-2.462869823,-2.5053163769999998,11.99249935,-1.166292965,-2.5084212499999996,0.1750989035
230,1.9165900000002691,-23.172166825,9.6878981585,28.9693184,-2.903543711,-1.6837711335,12.651707645,-1.926407911,-1.9788341525000002,-0.534223251
231,1.9249230000000352,-23.147727965,9.691515447499999,28.974231749999994,-2.332954556,-1.2746628225,8.6055545805,0.8364905115000001,0.0398488050000001,0.1864140335
232,1.933256000000256,-23.13332558,9.648353575,28.995620749999993,0.016419410999999995,-2.3565106095,9.991075991999999,-0.4889698025,-5.856401086,-0.1386498625
233,1.9415890000000215,-23.10257339,9.6404843345,29.0083389,-2.8548594715,-2.0079707505,10.523698805,1.594255447,-1.6032466870000004,0.6798466145
234,1.9499220000002424,-23.06424999,9.6242432605,29.0083847,-1.4486340285000001,-0.717150867,7.4132678510000005,2.7607277630000002,-1.8776961565,-1.2855784295000001
235,1.9582550000000083,-23.000492095,9.590754508,29.037239049999997,-3.0056467055000002,-1.1336650845,11.765395165000001,5.130083084500001,-5.1720392405,1.1159867045
236,1.966588000000229,-22.959999085,9.568036080999999,29.04134369999999,-2.4069873690000003,-2.6376975775,9.5064458865,3.0685852770000004,-2.770148278,-1.052239269
237,1.9749209999999948,-22.893473625,9.541915890999999,29.082942950000003,0.26437915850000004,-1.667387843,7.330378294,5.181964755,-4.9452836510000004,2.8294510245
238,1.9832540000002157,-22.845900535,9.4815773955,29.101337450000003,-2.4253139495,-2.2682885529999997,11.8079319,3.6028212945,-7.6109779154999995,-1.215434074
239,1.9915869999999811,-22.794116969999997,9.486839773,29.132953649999997,-3.10296154,-1.434820235,9.0433809745,3.7531639334999998,-1.003571987,3.331899524
240,1.999920000000202,-22.72918606,9.473926543000001,29.1345253,-1.9696258009999998,-1.4790030125,8.3024950025,5.8647195105000005,-1.5645194049999995,-1.069016755
241,2.0082530000004226,-22.691539765,9.4421997045,29.159126300000004,-2.2204655485,-2.3450381755,13.340780735,2.174482167,-4.77414763,0.8324625645
242,2.0165860000001885,-22.642195700000002,9.4166069015,29.1511688,-2.2723147865,-2.1086403725,10.520864487,4.3325200079999995,-2.556473255,-2.487411201
243,2.024919000000409,-22.577953335,9.412379263,29.158981349999998,-1.0669078824999998,-1.5068178175,7.154079914,5.635491371,-0.9608608484999999,0.206412349
244,2.033252000000175,-22.512393955,9.385227205,29.160759000000006,-2.047483593,-1.8364101650000002,11.52279377,6.056370735,-3.188005179,-1.4885584710000002
245,2.041585000000396,-22.46631718,9.3821902255,29.164619449999996,-2.656888485,-1.80951035,7.166470766,3.6068685054999996,-0.6481232645000001,-0.0951376815
246,2.0499180000001616,-22.42070484,9.3608994475,29.16851425,-1.0723176525,-2.5654168129999997,7.631847143,3.547347009,-2.6122617704999995,-1.122492671
247,2.058251000000382,-22.37975216,9.337727549,29.195388800000003,-1.0524505975,-2.555000484,13.30702591,2.551344179,-3.9226413030000002,1.510151386
248,2.066584000000148,-22.329712864999998,9.329086302,29.188961000000006,-2.9108018875,0.05237126349999999,9.751676081500001,4.4302897455,-0.7570233350000004,-1.49241358
249,2.0749170000003687,-22.251898765,9.3445911415,29.191085800000003,-0.8460707665,-1.9209625719999999,7.7842159275,7.3508257865,1.5010147099999998,0.42709827399999994
250,2.0832500000001346,-22.193979265,9.3141403215,29.199169150000003,-2.2224419715,-3.594712377,9.410347936,5.0000522135,-3.8423916105,-0.9505698085
251,2.0915830000003552,-22.153237345,9.314159870000001,29.195716850000004,-1.699021876,-1.404347122,11.51174164,3.1294192075000002,0.025646328499999926,-0.7573680955000001
252,2.099916000000121,-22.09941292,9.277378558,29.202396399999998,-0.9658085105,-1.776879966,7.153990268499999,4.5085409875,-4.4828368425,-1.4235880075
253,2.1082490000003418,-22.039403915,9.255826475,29.198806799999993,-2.038772374,-2.309362352,12.4852767,5.4406297210000005,-2.367408663,-1.7534609735000002
254,2.116582000000108,-22.006641385,9.267336365999999,29.195381150000003,-3.7511736155,-1.0812053195,11.136897565,2.256767929,1.3425643445,-0.2868410495
255,2.1249150000003283,-21.959547045,9.264864443499999,29.186714149999993,-0.9343452865,-2.9361848835,8.273415803999999,3.9072595834999997,-0.0198321340000005,-1.543462694
256,2.133248000000094,-21.90643406,9.227027415,29.2094307,-1.0360875725,-1.1076993904999999,11.161165716500001,4.146624565,-5.299624204500001,0.3013899025
257,2.141581000000315,-21.84783745,9.19511342,29.21511075,-1.760967791,-1.230132222,7.8207287789999995,5.1960409285,-3.940475459999999,-1.076169506
258,2.1499140000000807,-21.77197933,9.172837732,29.229835549999997,-1.366526723,-2.931209564,7.631229875499999,6.950858831,-3.208856105,0.03543089349999999
259,2.1582470000003013,-21.720730785,9.113064289,29.242374399999996,-2.4905888435,-1.5836148859999999,12.678329945,4.0726252794999995,-7.3486349585,-1.6702530384999998
260,2.1665800000000672,-21.666739460000002,9.0700311655,29.258808099999996,-2.625685215,-0.9719228745,12.868979450000001,4.408325076,-5.5985934735,-0.5705890659999999
261,2.174913000000288,-21.58166027,9.028832199,29.270832050000003,-1.499969065,-2.768684268,8.031840085999999,8.097519159500001,-5.2545886054999995,-0.9448195695
262,2.1832460000000538,-21.498166085,8.983679056,29.294181800000004,-1.2198818925,-1.1528318375,12.959693430000002,7.8597159385,-6.1550829425,0.19960531600000003
263,2.1915790000002744,-21.429100990000002,8.98085356,29.286834750000004,-4.2878944279999995,-1.918785274,9.2160685045,6.609907627,-0.12354382850000001,-1.322117269
264,2.1999120000000403,-21.338189125,8.962039469,29.321002949999993,-1.1980130075000002,-2.238654554,8.122696399999999,8.393684149,-3.653712748000001,2.326285124
265,2.208245000000261,-21.25855255,8.9290945535,29.335418699999998,-1.6087948080000003,-1.16362077,13.168908595000001,7.555419445,-4.438161374500001,-0.13330271850000003
266,2.216578000000027,-21.14916515,8.919135808,29.344127649999997,-2.029261112,-1.7855948805000001,4.045437455,11.177707194,-1.5687054395,0.020152009999999998
267,2.2249110000002474,-21.041145325000002,8.91082835,29.3669205,-2.051311046,-2.299671054,11.83160496,10.6724734325,-2.0349100829999998,1.7210910915
268,2.2332440000000133,-20.96326256,8.9114701735,29.38486865,-2.2402645349999997,-1.2337899505,11.4658756245,7.271816969,-0.7890141009999998,1.6024136544999998
269,2.241577000000234,-20.862582205000002,8.895247936,29.40787125,-0.8562008445,-2.5334942935,6.508701563000001,9.7276349075,-2.9211435299999993,1.331530571
270,2.24991,-20.76180077,8.900777579,29.42982105,-3.13944494,-1.568841487,17.062633035,10.0438196655,-0.4171600350000002,2.40811038
271,2.2582430000002205,-20.64308357,8.958883049,29.4379196,-2.0529693365000004,-1.282711834,2.811942816,12.175166605000001,6.0560860635,2.8533369305000003
272,2.2665759999999864,-20.5352087,8.936873195,29.476348900000005,-0.2756071090000001,-2.361934304,13.762694835000001,10.439748764,-4.167474866,2.8546044825
273,2.274909000000207,-20.405232429999998,8.928675653500001,29.50219729999999,-1.128537163,-1.6755303145,5.1564192774999995,13.39606953,-2.123862267,2.237775326
274,2.283241999999973,-20.258956910000002,8.919757602499999,29.54032515,-1.9106599395,-1.089404136,7.423858882999999,14.94733334,-2.664643765,3.2597711085
275,2.291575000000193,-20.120779995,8.915738344000001,29.5600929,-2.9000775815,-0.71403116,14.726400375,14.531716825,-1.398484230000001,1.795456171
276,2.299908000000414,-19.91765022,8.913641214,29.59659574999999,-1.764889598,-1.3177970645,5.1644747255,21.752711295,-1.7934303299999996,3.2609190945
277,2.30824100000018,-19.729102134999998,8.9042804225,29.62497715,-1.1493406300000002,-1.2947872580000002,17.38099098,20.420356275,-2.335837360000001,2.563288689
278,2.3165740000004007,-19.495117190000002,8.9169008715,29.647670750000003,-1.8235920664999998,-1.179936964,2.50550586,25.818832395,0.4424929620000002,2.4591344595
279,2.3249070000001666,-19.27381039,8.9031991945,29.669670099999998,-2.97523278,-1.7731704715,17.78425503,24.322919845,-2.5373032095,1.470610082
280,2.3332400000003872,-19.01977825,8.9132773865,29.700149499999995,-2.182805538,-1.296527028,3.364856623,28.20873737,-0.12952327500000038,3.3897266385
281,2.341573000000153,-18.753075600000003,8.9226386565,29.723094949999997,-0.2015258070000001,-1.9606755375,11.379440306,29.69794941,0.047521114500000294,2.4741449355
282,2.3499060000003738,-18.491265294999998,8.928870442000001,29.7525482,-3.8802690505,-0.965497941,12.61436033,29.193787575,-0.49899911500000016,3.173581004
283,2.35823900000014,-18.21626282,8.958372116,29.770034800000005,-1.182242423,-2.618122697,4.8533757925,30.714021680000002,2.5851716999999983,2.480473399
284,2.3665720000003603,-17.946178435,8.9382252715,29.792465199999995,-2.309415102,-0.6683960554999999,17.589894295,30.38350582,-3.2307624849999996,1.5446558595
285,2.374905000000126,-17.61262989,8.963909387000001,29.804645550000004,-1.7771147489999999,-0.88223809,3.502697229,37.876901625,2.36382151,1.7824972865
286,2.383238000000347,-17.31269932,8.9711286995,29.8376541,-2.686692953,-3.103269577,15.232143879999999,33.661046979999995,-0.43320608100000024,3.551224947
287,2.3915710000001127,-16.969176295,8.967596293,29.880432149999997,1.7209044025,-0.7012882229999999,1.59825705,38.57090187,-2.034445405,4.2806311845
288,2.3999040000003333,-16.60626316,8.9379274865,29.930652650000006,-2.868324101,-0.37030273700000005,17.986203195,40.89774704,-5.217683913499999,4.2397767305
289,2.408237000000099,-16.18126488,8.9532890315,29.98910525000001,-1.579774022,-1.5372891425,-0.16071927550000004,48.06037712,-0.3188545705000001,6.7209973335
290,2.41657000000032,-15.7593894,8.9014370445,30.04198455000001,-1.982993841,-0.1172276735,16.023603440000002,47.866609575,-7.785769224499999,3.7575007675
291,2.4249030000000857,-15.262408735000001,8.878254174,30.104057350000005,-1.2770479765,-0.238830194,9.933414934,56.72056198,-4.779265581,6.004212618
292,2.4332360000003064,-14.738693235,8.8791413305,30.173355099999995,-2.6870690585,-1.0841693875,11.310364725500001,59.78942871,-2.101431191,7.3930859565
293,2.4415690000000723,-14.139263629999999,8.8510560985,30.255481699999997,-0.9450835584999999,-0.224558726,5.76488173,68.61016845500001,-5.8209872245,8.1838076115
294,2.449902000000293,-13.52330017,8.796793222,30.32162855,-1.3142879005,-0.922736734,10.259809971500001,70.93884659,-8.2847185135,5.528717041
295,2.458235000000059,-12.83648348,8.752987385,30.39513015,-2.125156343,-0.831944436,8.2887580395,79.300361635,-7.2350484150000005,6.9207232
296,2.4665680000002794,-12.125977514999999,8.7240810395,30.45541,-2.1415516135,-0.05055601900000001,10.041882039499999,82.388767245,-5.024389267,5.6849982735
297,2.4749010000000453,-11.38124418,8.665891409,30.513587949999994,-1.9286220665,-1.338620782,13.704499720000001,86.5117569,-8.3689434545,4.9073742625
298,2.483234000000266,-10.58368397,8.615733861999999,30.566944099999994,-1.553157434,-0.7641265095,8.055349826499999,92.999675755,-7.2109076985,4.5653884415
299,2.491567000000032,-9.732462405,8.577756882,30.63716125,-1.5012749435,-0.23241366399999996,11.98186684,99.084884665,-6.0893378259999995,6.9991886615
300,2.4999000000002525,-8.8175358775,8.5157876015,30.712863900000002,-2.6842052935,-0.4673489335,11.2822265605,106.67237095,-8.884530247,7.1008243559999995
301,2.5082330000000184,-7.873548746,8.4474360945,30.80244065000001,-0.781867981,-1.0549201965,10.2406172735,109.93735885000001,-9.789708436000002,8.9859163765
302,2.516566000000239,-6.871350288,8.378709316,30.87945934999999,-1.231929727,-0.1395390855,5.1586852075000005,117.1472206,-9.456442834499999,7.453243732500001
303,2.524899000000005,-5.829386473,8.260662079,30.981407149999995,-0.932518214,-0.9901757760000001,11.7295155545,121.480072,-15.546163084,10.035702707
304,2.533232000000225,-4.747746944,8.137759209,31.06183625,-1.4617592094999998,-0.0653010235,15.013043405000001,126.66311644999999,-15.676271915,7.608030319
305,2.5415649999999914,-3.605826497,7.9986650945,31.15126035,-1.2043354515,-0.46976956,8.7069978715,133.7530899,-17.55112362,9.010470865
306,2.549898000000212,-2.4188561435,7.823786735500001,31.23566055,-1.364709169,-0.8301423785,12.262727739999999,139.2882309,-21.59720278,8.2897324565
307,2.558230999999978,-1.1774809365,7.623724461,31.327720650000003,-0.6432949899999999,0.6858992275,15.79381132,145.71534724999998,-24.468626025,9.82427883
308,2.5665640000001986,0.1252483835,7.423974275999999,31.406509400000004,-1.7870299815,-0.49108093950000004,7.569030523,153.33446505,-24.179666519999998,8.571980476
309,2.574897000000419,1.4615092870000002,7.1937167644999995,31.499645200000003,-2.229292782,-1.284303665,8.3354136925,157.18547819999998,-27.599912645000003,11.0428233155
310,2.583230000000185,2.829193115,6.9667050835,31.587547300000004,0.18578016799999997,-0.3258227705,15.429867265,161.04804230000002,-26.968470574999998,10.913331985
311,2.5915630000004057,4.221127629,6.738152981,31.65856935,-3.8018026354999996,-0.8022433069999999,12.51120758,164.2651825,-26.98037052,9.7457809445
312,2.599896000000172,5.6235020165,6.5293836590000005,31.74898915,-1.3046400470000001,-2.5102101560000003,11.2374854065,165.30908205,-24.175774575,12.27084732
313,2.6082290000003923,7.0518491265000005,6.291298866,31.804603549999996,0.08231012400000001,-0.2678806785,8.636196613500001,168.8743286,-27.79807854,9.385817051
314,2.616562000000158,8.4686031345,6.0715370175,31.848583249999997,-3.5941298600000002,-1.249262139,11.92228794,167.7431488,-25.572007655,8.120024919
315,2.624895000000379,9.8736901275,5.867373228,31.884540549999997,-0.06441950800000007,-2.078030944,20.7912817,166.3750839,-23.632880685,7.8195962905
316,2.6332280000001447,11.241128925,5.6809589865,31.883361800000003,-3.9272781295,-2.50696522,8.7600526825,162.4083481,-22.17807293,3.3254404665
317,2.6415610000003653,12.594750405,5.481097936499999,31.887092550000006,1.4864755865000001,-2.2643585205,15.133558749999999,160.6259613,-23.50579262,5.028637886
318,2.649894000000131,13.922674180000001,5.3079783915,31.837535850000002,-5.123011947,-2.4840785265000003,6.1758327479999995,158.1979065,-21.750259395,-1.6022892445
319,2.658227000000352,15.200234415,5.174507140999999,31.8364639,0.6095440389999998,-2.5322042705000003,15.11970425,151.55511475,-15.66853094,3.5389422175
320,2.6665600000001177,16.37901783,5.085631847,31.769905099999995,-5.6212220195,-4.2209856509999995,10.1269736315,140.47519685,-12.608276130499998,-5.3741782905
321,2.6748930000003384,17.516909599999998,5.008661985,31.807304350000003,1.9098395705,-2.925846696,15.574489595000001,134.3896332,-7.6676154135,6.6062607765
322,2.683226000000104,18.54705143,4.986117363,31.774227100000004,-6.5270867345,-3.0405933855000002,10.7431902895,122.2289467,-3.9994769095,-3.5253657105
323,2.691559000000325,19.527828215,4.97804904,31.8355789,1.8416693805,-3.4856736660000003,10.7964515685,115.30743405000001,1.3549170495,6.911253929
324,2.6998920000000908,20.389864925,4.9831330775,31.842624699999995,-3.6096287965,-3.0633808375,14.372615815,101.62471775,0.6448632480000001,-0.00813904400000004
325,2.7082250000003114,21.157168390000002,5.018835783,31.9133644,-0.0400448145,-5.3800516125,11.92606449,89.63548660000001,6.8741598675,5.9744541645
326,2.7165580000000773,21.832953455000002,5.10280323,31.970504750000003,-3.7952829599999998,-2.530327201,13.05606651,78.774147035,11.669570925,2.080444634
327,2.724891000000298,22.40764618,5.1554117205,32.056022649999996,1.387737013,-3.8208087685,4.652754187499999,66.311878205,9.567511557,6.7345671655
328,2.733224000000064,22.914357185,5.2169981,32.1061859,-1.8572386504999998,-2.1884717345,13.132823226500001,58.514484405,8.901940346,2.113391608
329,2.7415570000002845,23.310084345,5.2484190465000005,32.207824699999996,0.8692852295000001,-2.9982053040000003,17.333559035,44.64133263,8.121072469,9.370499136
330,2.7498900000000503,23.653624530000002,5.2875745295000005,-147.716568,-2.6976379155,-3.4038295745,8.3767240065,38.71932602,7.666457414999999,5.725765347499999
331,2.758223000000271,23.95832634,5.3040070534999995,-147.61469649999998,1.67838043,-2.072588444,9.921492575,33.72187042,6.6066238,10.012089729
332,2.766556000000037,24.21018982,5.307616711,-147.5262718,-2.7479169370000003,-2.9113929269999996,0.4032435420000001,27.53424072,4.468778970000001,8.852753879
333,2.774889000000257,24.388736725,5.277660131499999,-147.44607545,2.376334071,-1.0816335344999999,13.911762954,18.8181171405,0.5542902945000003,9.889526845999999
334,2.7832220000000234,24.48392582,5.2234055994999995,-147.36714175,-2.307409227,-2.335483253,12.041653873000001,8.8179209255,-2.2517352849999996,10.74394369
335,2.791555000000244,24.51977539,5.1421904565,-147.34682085,2.4074202775,-2.4782053235,19.450389865,2.396032572,-7.983598709000001,5.8573868275
336,2.79988800000001,24.566929815,5.0578353405,-147.2869797,-2.093363881,-1.2971721295,8.0197234175,3.3003562674999998,-6.4471364625000005,10.1883659365
337,2.8082210000002306,24.616683005,4.942721605,-147.308979,0.828001797,-0.6619708835,8.2948895695,4.5151572825,-13.792071581999998,2.9420455690000002
338,2.8165539999999964,24.66904831,4.817686677,-147.2905121,-1.4744127395,-1.009595156,6.8885478970000005,4.39452672,-12.87779665,7.812772274
339,2.824887000000217,24.72148991,4.6380900144999995,-147.35368725,1.063429475,-0.5327253345,6.556752682,5.2196776865,-22.881459239999998,1.7314273715
340,2.833219999999983,24.761675835,4.467926502,-147.38252635,-1.2838872074999998,0.12110608849999999,12.105671406,3.43710497,-20.191746715,4.8244429825
341,2.841553000000204,24.849486355,4.223728538,-147.47719575,0.7582491929999999,0.6902326645,10.78968668,9.667180539,-31.49598503,1.6609692275
342,2.849886000000424,24.966088295,4.0254799125,-147.53396985,-1.11125499,-0.17877000600000004,15.015267375,12.802638535,-24.650959014999998,3.277196467
343,2.85821900000019,25.133897779999998,3.774013281,-147.6521454,-0.604286775,-0.8223825545,7.669005157000001,19.3829093,-33.462482449999996,-0.3926283195
344,2.8665520000004108,25.331029895,3.5518597365,-147.7158699,-0.4680124520000001,0.9592131675,8.446579933,22.495061874999998,-27.584964754999998,3.8463404179999996
345,2.8748850000001767,25.578177455000002,3.305137515,32.132061050000004,-2.5650935169999998,0.6066588465,5.5887748,29.0369606,-34.695718765,-4.0739581585
346,2.8832180000003973,25.83411884,3.0646423105,32.074035650000006,1.9829711915000001,0.040545881000000006,19.365949635,29.41022873,-29.232234,5.6998747585
347,2.891551000000163,26.141038895,2.8326216935,31.90400315,-4.1318324805,0.667662337,10.791258335,36.173913955,-34.10422802,-6.501444577999999
348,2.899884000000384,26.454231264999997,2.5864546895,31.853370650000002,2.4984877705,-1.519550234,11.273493290000001,36.255218505,-29.382455825,7.009642005
349,2.9082170000001497,26.80551243,2.331972301,31.680019350000002,-4.70168972,-0.35243517199999996,6.226842165,41.28954506,-36.772924425,-5.224530816000001
350,2.9165500000003703,27.14231491,2.1156750325,31.622367849999996,2.6312589049999997,-0.7136346695,15.58269024,39.06185722,-26.46627617,5.0175900605
351,2.924883000000136,27.460497855,1.8797475695,31.46177674999999,-5.0908329485,-1.524062291,11.83643961,37.08436966,-34.154303555,-4.4497796
352,2.933216000000357,27.762083054999998,1.6992073954999998,31.4056473,1.6849993615,-1.2426994889999998,6.2954509255,34.854974745,-22.494526388,3.4359546300000003
353,2.9415490000001228,28.056613925,1.4984984395,31.273311600000007,-5.3662636280000005,-1.468611777,16.0041852,33.97742653,-28.880459785,-3.0145926475
354,2.9498820000003434,28.315984729999997,1.3756620885,31.229187000000003,2.146008536,-0.6373025179999999,11.453758715,29.636630059999998,-15.66631603,1.7718162540000002
355,2.9582150000001093,28.547581675,1.226213798,31.142787950000006,-4.634931207,-1.432343036,11.690605165000001,26.343901635,-20.86855936,-0.9903105495000002
356,2.96654800000033,28.758280755,1.1185566335000001,31.097171799999998,1.918314099,-1.745560169,10.3688600085,23.709863665,-14.1391131865,0.9523000119999999
357,2.974881000000096,28.935443875,1.0340806245,31.05180740000001,-5.043421507,-1.5897869465,10.881464481,19.675953865,-11.649755475,-0.23812937749999996
358,2.9832140000003164,29.067051884999998,0.9612699895,31.023731200000007,2.160099387,-1.9760619400000001,11.462382314500001,14.190569875,-9.464242935,0.8030768185
359,2.9915470000000823,29.152789115,0.933903411,31.0000038,-5.584597587499999,-0.07340395449999998,14.06964016,8.6918644905,-4.395287484000001,-1.2996214035000002
360,2.999880000000303,29.237805365,0.899774093,31.0014648,2.016955078,-1.9893461465,9.360690594,8.513973236,-3.6679331064999996,1.73125342
361,3.008213000000069,29.28903675,0.9157368505,31.01783375,-4.635255098,-0.221306786,11.531861305,4.4526445865,2.4802072905,0.38975900399999996
362,3.016546000000289,29.307961464999998,0.917184915,31.028499600000004,1.474737555,-2.3942688105,14.847352505,0.5823396445,0.6281250715000002,0.6421616675
363,3.0248790000000554,29.319803235000002,0.960356243,31.090770699999993,-3.571915746,-0.5857467649999999,4.7658662795,-0.34108561299999995,8.018716217,3.556357622
364,3.033212000000276,29.315320014999998,1.0067505835000001,31.100456200000004,0.02921295199999996,-0.782564476,9.5296702395,-2.183120478,5.316355944,-2.0752524435
365,3.041545000000042,29.29738331,1.046565659,31.18095015,-0.7956323624999999,-0.5545782225,18.14869118,-4.0616436005,8.743166742500001,5.8115963935
366,3.0498780000002625,29.27838135,1.1341837795,31.18551635,-2.347908169,-0.7335604950000001,6.4188869,-3.8582726715,9.271604987,-5.201893091
367,3.0582110000000284,29.25825119,1.1651727255000002,31.269428250000004,2.1183865965,0.0409779915,12.899295330000001,-4.293663621,8.023788213,6.634664535500001
368,3.066544000000249,29.2627697,1.236658841,31.246891050000002,-4.276397407,0.7115941044999999,9.664923191,-1.0859092399999999,6.0284323095,-6.865838528
369,3.074877000000015,29.268921855000002,1.2897916585,31.339477549999998,2.829296857,-1.2492100895,13.263271805,-1.087644845,10.865375277999998,6.147935867
370,3.083210000000236,29.305780415,1.3535031675,31.308525100000004,-4.1151459215,0.39723068500000003,11.427400587000001,2.8031389115,4.703356207000001,-7.288530588
371,3.091543000000001,29.381372455,1.408071607,31.387618999999994,3.3773840965,0.950278573,3.9042743745,7.291606187499999,10.245954154000001,4.6336289645
372,3.099876000000222,29.484357835,1.4378488365,31.340560950000004,-4.2070595475,-0.5506037475000001,17.37059164,10.7511668225,0.17901039050000023,-6.94898963
373,3.108208999999988,29.603295324999998,1.4918697775,31.388248449999992,2.484741956,0.4509238895,5.479964137,12.57249403,8.357837916,1.3782320020000003
374,3.1165420000002086,29.743868825,1.4898460805,31.347148899999993,-3.8516294955,1.46798563,14.296468735,15.388907435,-2.8108355979999997,-4.611268163
375,3.1248749999999745,29.930976870000002,1.521140099,31.366027800000005,2.444743216,-0.3443794250000001,12.507852074999999,20.66666031,4.269053459999999,-0.10157370549999989
376,3.133208000000195,30.129108430000002,1.5291765925,31.335281350000002,-3.925221801,-0.506128147,11.62003708,22.34299946,-1.152887345,-4.1762309075
377,3.141541000000416,30.357744215,1.5038224165,31.34227755,4.495165825,0.6704490185,10.511786462,25.744437214999998,-2.3388178349999995,1.9570184944999998
378,3.1498740000001817,30.61148548,1.536467254,31.289897949999997,-7.9028060425,-0.1892204845,6.30429554,29.00928211,0.013428449499999884,-7.857543468499999
379,3.1582070000004023,30.837018970000003,1.4953400195,31.308502200000007,6.568080902,-1.4537993375,15.26738262,25.381313325,-3.2314427495,4.0985617635
380,3.166540000000168,31.045659065000002,1.5084761379999998,31.24796295,-7.7085671425,0.317010492,15.565280439999999,23.61437893,-2.5786956545,-7.5177702905
381,3.174873000000389,31.270777705,1.506172597,31.281059299999995,3.6831759215,-0.8280344454999999,13.12289143,25.293497085,1.701433301,3.2144987284999997
382,3.1832060000001547,31.497675895,1.5137372615,31.238017999999997,-5.0371792315,-1.1106634735,9.5743708625,25.72345829,-2.106426239,-5.3094756605
383,3.1915390000003754,31.69361973,1.4983629585,31.26420209999999,4.006120205,-0.6423304455,6.6795966625,21.866513249999997,-0.05721545199999989,3.2378587725
384,3.1998720000001413,31.862525939999998,1.4969405235000002,31.21294404999999,-4.9337611195,-1.3171322345,15.684566975,18.817862984999998,-3.568076968,-5.5827651025
385,3.208205000000362,32.015668864999995,1.4579835235,31.242271450000004,3.5789723395,-0.7599084975,14.924442769999999,16.62534332,-2.2338438025,5.1819345949999995
386,3.216538000000128,32.13938904,1.4794487055,31.187717449999994,-6.8235332965,-0.9459674155,10.170209883,13.448411465,-1.4404091835,-7.3437311645
387,3.2248710000003484,32.23778248,1.4576032755000001,31.22538759999999,4.5462880135,-1.4742779135,10.692289828,10.099592206499999,0.07614457599999991,4.889003277
388,3.2332040000001143,32.315634724999995,1.4724222125,31.18745425000001,-5.566165447,-0.5369960515000001,12.35306883,7.8437006475,-1.0798963455000001,-5.1681648495
389,3.241537000000335,32.384518625,1.4893373545,31.227264399999996,2.512603104,-1.350889981,12.798889160000002,6.5289599895,4.140573427,2.6256833075
390,3.249870000000101,32.40102005,1.533327043,31.21803285,-5.4315006735,-1.0749275090000001,12.665035725,0.4421787264999999,3.6690087614999998,-4.251546859499999
391,3.258203000000321,32.38687706,1.5449677405,31.252441400000002,3.767912984,-0.99213583,12.924220085,-3.4373790025,3.2627608765,2.4481957555
392,3.266536000000088,32.367346765,1.626496673,31.261798850000005,-6.844230175,-1.697070934,9.098770379000001,-3.9710520505,8.7130031585,-4.663084626
393,3.274869000000308,32.311065674999995,1.658483356,31.318557749999997,4.7365859745000005,-0.015609115499999993,10.427256582,-8.500610114499999,6.763632058999999,3.327507198
394,3.283202000000074,32.22879982,1.7522625925,31.353591950000002,-6.2695431710000005,-0.08646613349999999,15.981589320000001,-11.62053967,11.5266385075,-2.9094570280000003
395,3.2915350000002945,32.18139362,1.835345209,31.426368699999998,1.400592625,-2.2801765205,10.504767894,-7.5589606755,12.964179991999998,1.761049211
396,3.2998680000000604,32.086902615,1.953795731,31.499954200000005,-3.3414241075,0.755076662,7.848408461,-13.14642143,16.5938315405,-0.520827234
397,3.308201000000281,31.9691658,2.0151267055,31.542057049999997,2.6297228075000003,-1.802137092,13.706813335,-15.917272089999999,8.776663064,0.07068250899999999
398,3.316534000000047,31.88079071,2.1559124585,31.61946865,-4.2924269435,-0.38921898599999993,14.735696315,-12.5085568435,19.01980114,-1.5602982045
399,3.324867000000268,31.75648022,2.2070497275000003,31.641593949999994,2.367093146,0.2797204405,9.224878311,-16.565582274999997,6.4829199315,-1.349454358
400,3.333200000000033,31.622706415,2.3108422755,31.690433499999997,-2.6369884015,-1.2030367255,11.67732859,-17.869555475,13.53593159,-1.898124397
401,3.341533000000254,31.529102325,2.341045439,31.672431950000004,1.5114105340000001,0.21930643900000002,10.244138718999999,-12.70960569,1.8183418515,-4.090478659
402,3.34986600000002,31.409772875,2.4068292380000003,31.701549550000003,-0.8821219205,-0.444367379,10.4650588015,-15.99006939,8.423660757,-1.5408311485000001
403,3.3581990000002406,31.31650734,2.397380531,31.64948655,-0.966739893,0.115448626,13.54806185,-12.563599109999998,-4.3659101735000005,-5.022485017499999
404,3.3665320000000065,31.238310815,2.479824781,31.67807384999999,-1.4819980859999997,0.248585537,11.290685655,-11.038897989999999,10.119500636,-2.5868267114999997
405,3.374865000000227,31.154941555,2.4445468185,31.60469055,0.5216346980000002,-0.9312850835,8.082510948,-11.179852965,-8.333598616,-5.730615854
406,3.383197999999993,31.0858593,2.4692415595,31.608482349999996,0.374696374,0.43800741449999997,15.59920788,-9.875710489500001,2.5076272489999996,-1.6790899965000001
407,3.3915310000002137,31.030069349999998,2.4384444954999998,31.52030179999999,-3.317685783,0.13235586850000003,9.890313623,-7.789270639,-8.772345544,-7.546652317
408,3.39986399999998,30.984375,2.4546173810000003,31.525508849999994,0.665205747,-1.5363615455000001,10.221474645499999,-7.042641163,1.7100453380000002,-1.0535908935
409,3.4081970000002,30.932947159999998,2.3932559490000003,31.427925100000003,-1.8365980385,0.9883190095,12.628388404999999,-7.275334835,-12.496669765,-6.5905892845
410,3.416530000000421,30.865271565,2.4098092915000002,31.428615599999993,0.612977028,-1.334486723,8.198399783,-9.5860326305,1.4831538795,-1.608471513
411,3.4248630000001867,30.823069574999998,2.336836457,31.3343811,-2.315191865,-1.7913374755,12.24708605,-6.2283529044999995,-13.490937709999999,-5.538382470499999
412,3.433196000000408,30.7285347,2.331098139,31.322719550000002,1.727586448,0.386780709,10.279533865000001,-12.742712495,-1.5815320015,-1.5267175435
413,3.4415290000001733,30.65825653,2.263380587,31.239067049999996,-5.057137727500001,-0.307541147,15.14233589,-9.6768813135,-12.2737433925,-4.76832211
414,3.449862000000394,30.58764458,2.260029733,31.242267599999998,2.350592345,-1.0955737235,7.179831028000001,-9.9357502485,-0.41770982749999996,-0.13674771750000003
415,3.45819500000016,30.503681185,2.1993935705,31.16160585,-5.6958024505000004,0.4321546295,11.030731677999999,-11.3266565825,-11.3517849445,-4.9474292994999995
416,3.4665280000003804,30.391454699999997,2.195309639,31.16889955,3.6891516445,-1.6149368284999999,15.685129165,-14.956731315,-0.23209714849999996,0.3656494619999999
417,3.4748610000001463,30.30875492,2.1348310115,31.09318919999999,-6.054024577,-0.49397967049999997,8.8967151635,-11.2063722625,-11.024589062,-4.495556742
418,3.483194000000367,30.19645119,2.130620241,31.101112399999998,3.5791599155,-0.7074024975,8.276445387999999,-14.94849777,-0.2235805984999999,0.39271092399999996
419,3.491527000000133,30.086176870000003,2.109822452,31.046112049999998,-7.0408046245,-0.3631867615,16.64586782,-14.65294838,-5.643170475,-4.719962835
420,3.499860000000353,29.97269917,2.1030243635000003,31.073642750000005,5.1569590565,-0.8836756944999999,7.301358461,-15.139220235,0.6857130525000006,2.5510694385
421,3.50819300000012,29.8636179,2.0896658895,31.0138855,-7.0536186695000005,-0.6738838475,12.367210865,-14.527900215,-5.148406983000001,-5.657201469
422,3.51652600000034,29.735510825,2.114406526,31.04915235,3.957447529,-0.4565380214999999,8.980407476,-16.90141296,4.594746349,1.7339309455000003
423,3.524859000000106,29.62268639,2.1014796495,30.9941521,-5.8354903455,-1.309776738,14.38916206,-14.992203714999999,-4.804672003,-5.2181673025
424,3.5331920000003265,29.455444335,2.1403774025,31.0205269,2.561694175,-1.3476684054999999,8.161070108,-21.589538575,5.3827182045,-0.22240865200000015
425,3.5415250000000924,29.321397785000002,2.1479430795,30.991203300000002,-5.9668823485,0.7510646285,16.975774285,-17.58595896,-1.1079890730000002,-3.820530981
426,3.549858000000313,29.187298775000002,2.194915533,31.025981899999998,4.2418872115,-1.762682095,4.9226026535,-17.7436018,6.725570083,0.35363662250000005
427,3.558191000000079,29.011603355,2.2034655215,30.992317200000002,-6.2282307150000005,-0.459581837,13.628408910000001,-22.473508834999997,-1.2437219625000004,-4.475346178000001
428,3.5665240000003,28.847239495,2.230962813,31.016449,3.310532689,-1.043448359,13.380557540000002,-21.367707250000002,4.02796817,0.4046795365
429,3.574857000000065,28.67039299,2.242505014,30.990612000000006,-5.2377688885,-0.32870163799999996,9.798696518,-22.662688255,-0.4589817525000002,-3.8205576540000004
430,3.583190000000286,28.46502781,2.2657435535,31.020061449999993,1.5040250419999999,-2.2653802035000004,14.87076616,-26.243317605,3.9005442859999997,1.1677532194999998
431,3.591523000000052,28.28547573,2.2598437665,31.0007782,-3.503598094,0.6822353005,9.593769073,-23.07342625,-1.9041570425,-2.0512667894999996
432,3.5998560000002726,28.092658995,2.288968563,31.03672795,0.11437428000000005,-1.5442288965,9.0486087795,-24.79181385,4.870434105499999,1.5666764975
433,3.6081890000000394,27.872662545,2.3031949995,31.049804700000003,-3.20679903,-0.661610499,12.95266676,-28.056614875,2.058373749,0.18635678300000036
434,3.616522000000259,27.661737445,2.3435788155,31.07945635,-1.18469481,-0.846308678,8.613841772,-26.895471569999998,5.6917111875,0.2247014045000002
435,3.624855000000025,27.422089575,2.358680129,31.10250475000001,-0.6542029380000001,-0.7050158980000001,11.894231320500001,-30.503780365,2.7017345130000003,1.277383685
436,3.6331880000002457,27.182174685,2.4321233035,31.125736250000003,-2.4667738675,-1.42906934,16.89291573,-30.405301095000002,8.8464592705,-2.1678559185
437,3.641521000000012,26.95985031,2.485229194,31.192943549999995,-1.273596674,1.0737840535,7.0653316975,-28.609048845,9.165741207,3.8771269175
438,3.649854000000232,26.722880359999998,2.5507038235,31.2068443,-1.8839991464999999,-0.9318131655,12.30901575,-29.971814155000004,7.5005705355,-2.721636534
439,3.658186999999998,26.479439735,2.5972507595,31.295295749999994,0.25874674349999993,-1.1743327975,12.93495226,-31.31630516,9.5679135305,6.652126193
440,3.6665200000002183,26.247105599999998,2.678997159,31.297096250000003,-2.281447947,-0.18267473549999996,8.952797651500001,-29.362688065,8.630493641000001,-4.79856205
441,3.6748529999999846,26.019587514999998,2.7234930994999997,31.412357299999996,1.021978155,-0.6062390805,13.716344355,-29.569038390000003,10.7258565415,9.740374086500001
442,3.683186000000205,25.8072834,2.8163380030000003,31.41186524999999,-3.1515967844999997,-0.23779518900000002,12.59960985,-26.987936975,9.717855929999999,-5.548534155
443,3.691518999999971,25.606079100000002,2.8875815869999997,31.536071750000005,-1.0661166905,-0.8284403385000001,7.946540117,-26.417613985000003,14.025229932999999,9.302227974000001
444,3.699852000000192,25.386968615,2.965005517,31.534893050000008,-1.1775764305,-0.5376626255,10.49488163,-27.83314705,8.041025879,-4.7253881695
445,3.708185000000413,25.186468125,3.0411646365,31.656044,-2.996299982,-0.9793803095,12.783976075,-26.35064411,14.343862054999999,8.8440966595
446,3.7165180000001774,24.99243069,3.1496616599999996,31.673942550000007,-0.9475413109999999,1.383911677,8.876207352,-24.954912185,12.405156135,-4.1931622625
447,3.724851000000399,24.811523440000002,3.2377215625,31.7898407,-2.4023164735,-1.445526272,12.023522849999999,-24.019337655,15.332173824999998,7.8145427715
448,3.733184000000165,24.64713669,3.3607271909999996,31.840572400000006,-0.4636141060000001,0.472166568,11.93424749,-21.664793015,15.62828064,-1.2806677814999998
449,3.7415170000003855,24.507700919999998,3.489876032,31.944045999999993,-3.4410159585,-0.43376319099999994,10.212665081499999,-18.971593855000002,19.15483761,4.4475372335
450,3.7498500000001513,24.381087305,3.616100669,32.0261917,0.7116043569999999,-0.0680393725,12.742637635000001,-17.40912151,17.547491075,2.098595381
451,3.758183000000372,24.273231510000002,3.7704291344999996,32.11460494999999,-3.868492365,-0.36616092899999997,12.58600998,-15.14650059,21.13381767,1.656595469
452,3.766516000000138,24.183111189999998,3.927657008,32.22232815000001,-0.29358768450000006,-0.9178259375,9.318474293000001,-13.23493433,22.19196987,3.3606470004999998
453,3.7748490000003594,24.103212355,4.0861899855,-147.6977692,-2.1104788185,-0.037597208999999965,9.3919057845,-11.809858795,21.16566849,0.6250317095000002
454,3.783182000000125,24.02281666,4.2628391985,-147.5560379,-1.4962838885,-0.43926341849999995,13.05474424,-12.435771939999999,25.968075749999997,6.184690118
455,3.791515000000345,23.95538616,4.460436821,-147.4818344,-2.8303174374999998,-0.43043270749999996,10.244452955,-10.3144865015,25.153834340000003,-1.8907604404999998
456,3.799848000000111,23.899137500000002,4.6495890615,-147.3210106,-0.4124258755,-0.88123098,10.906265735,-9.823578834500001,28.26178265,7.740026474
457,3.808181000000332,23.8403101,4.863036871,-147.2458496,-2.287738562,0.71872741,12.1767087,-9.395295144,26.919784545,-2.4927535059999997
458,3.8165140000000974,23.8081913,5.077135086,-147.09339905000002,-2.1629458665000003,-0.654487863,9.2211489665,-6.936334371499999,30.59075451,5.621222019499999
459,3.824847000000318,23.774620055,5.312318802,-146.9961319,-0.996190425,0.24396589299999996,13.703113555,-6.712261915500001,30.368443489999997,-1.0511386695
460,3.833180000000084,23.763677594999997,5.5430343155,-146.85314945,-2.8132413625,-0.8269585964999999,11.70084524,-4.4103593825,31.944855689999997,3.7620369195
461,3.8415130000003046,23.745801925000002,5.8046581745,-146.755249,-0.48113891499999994,0.131319396,11.75573254,-4.947150946,33.291954995,-2.252325535
462,3.8498460000000714,23.747131345,6.058483839000001,-146.62667844999999,-3.4390205145,-0.79014226,12.817302705,-2.9060019255,33.78774643,1.0778548865000002
463,3.858179000000291,23.742453575,6.327953577000001,-146.51639175,0.2561980635,-1.0166276395,9.4883399,-3.595063925,34.749282835,-1.323117539
464,3.866512000000057,23.73909378,6.5763728615,-146.40143965,-2.695733547,-0.18842515349999997,12.77061081,-3.4664156439999996,32.52717209,-0.1150400265
465,3.8748450000002777,23.74310875,6.8657073975,-146.28558735000001,-1.454664201,-0.465835687,8.2670207025,-2.715253234,37.202352524999995,-1.7154644129999999
466,3.883178000000044,23.73645115,7.121843815,-146.16852955000002,-1.6576555965,-0.6770095825,14.029281615,-4.0518625974999996,33.466835025,-0.23717556899999997
467,3.891511000000264,23.743673325,7.405053854,-146.05620190000002,-1.2761761544999999,-0.5301535574999999,8.421536446000001,-2.4033994675,36.35134506,-1.834596455
468,3.89984400000003,23.72062874,7.6627907755,-145.94069675,-1.370186955,-0.38444387950000003,14.863485335,-6.1499979494999995,33.56014633,-0.471392259
469,3.9081770000002503,23.719268794999998,7.9602077005,-145.8420753,-2.1052299740000002,-0.856385276,10.404528616,-3.3155108689999997,37.25164318,-4.041470766
470,3.9165100000000166,23.699877739999998,8.2176458835,-145.7153168,-0.2206682205,-1.1924191715,13.869122985,-6.0160083774999995,34.060356139999996,0.7505164144999998
471,3.924843000000237,23.702685355,8.500155449,-145.62016675,-1.3935915085000001,-0.49945975800000003,7.6106164455,-2.886825785,35.433885575000005,-3.6987524035
472,3.933176000000003,23.669648170000002,8.746783018,-145.51174925,-1.5559868905,-0.9781941475,10.157143592499999,-7.438060999,31.9988842,-0.739004254
473,3.941509000000224,23.65737915,9.015657425,-145.4172058,0.253875375,-0.17982482899999996,9.232550142000001,-4.8271096945,33.890107155,-3.0810193085
474,3.9498419999999896,23.60971546,9.244813918999998,-145.32330705,-2.0425373615,0.27347669,15.48438549,-9.030210972499999,29.391437529999997,-1.4432243104999998
475,3.9581750000002094,23.587149619999998,9.487757204,-145.2226944,0.46974268599999996,-1.2649022045,10.885327815,-6.249271631,31.327023509999997,-1.1846874354999999
476,3.966507999999976,23.53593826,9.6836729065,-145.17225645,-2.1816003915,-0.014055203999999998,14.36057806,-8.694890260000001,23.669923304999998,-4.531885266
477,3.974841000000197,23.49698544,9.8781676275,-145.08947375,0.296733782,-1.108421564,6.473500489999999,-7.9272975925,25.16469383,-0.7487437724999999
478,3.9831740000004174,23.42286587,10.0258135805,-145.06209945,-2.025974691,-0.5624661445000001,15.931726935,-11.027899264999999,17.2595314975,-4.700310707
479,3.9915070000001833,23.373546599999997,10.1716647135,-145.01033405,0.3362062575,0.7420812395,6.4236280919999995,-8.561241149,18.3583216685,-1.747967482
480,3.999840000000404,23.280159949999998,10.281797410500001,-145.01041795,-2.3802871105000003,-1.5361776649999999,16.659490585,-12.73720789,11.8577032095,-5.890366793
481,4.00817300000017,23.22627926,10.3679647455,-144.9761276,1.4966347519999998,0.21948227249999996,4.243186951,-8.7928495405,10.9637725345,-0.7406421750000001
482,4.016506000000391,23.134321210000003,10.4178209325,-145.0063324,-2.9969485995000005,-0.2565480765,15.686261179999999,-11.903558255,3.828349173,-6.2864322665
483,4.024839000000156,23.074070929999998,10.4617099735,-144.98459245,0.8606797159999999,-1.2559789510000001,7.8370661735,-9.3023929595,5.722060204,-0.066840345
484,4.033172000000377,22.97547531,10.477100848,-145.03606795000002,-2.089250326,0.0014371870000000064,14.967498305,-12.225606442,-0.946740508,-6.989594221
485,4.041505000000143,22.895903585,10.469890595999999,-145.04656599999998,-0.30050855899999995,-0.0038335469999999927,5.47437191,-10.932637215,-1.4025975759999998,-1.1368686410000002
486,4.049838000000364,22.78170586,10.4530496585,-145.089077,-1.701771706,-1.5404524805,15.84527302,-14.32646084,-4.037860751,-4.407909393500001
487,4.058171000000129,22.66387367,10.412585737499999,-145.12759785,0.093746424,-0.6206328569999999,11.0714745535,-14.915198799999999,-6.356980800500001,-2.6563375595
488,4.06650400000035,22.524829865,10.3683085445,-145.1764717,-2.352244377,-0.138112232,10.82279205,-17.19368887,-7.2994189259999995,-3.7475562095
489,4.074837000000116,22.38088989,10.315958024,-145.22907635,0.5676671415,-0.498159379,7.973504782,-17.761165615000003,-8.3050537105,-3.6829249854999997
490,4.083170000000337,22.229670525,10.250751021,-145.2815094,-2.966591835,-0.0585696265,17.15126419,-18.600122454999998,-9.777040483,-3.2321782115
491,4.091503000000103,22.09841728,10.1874089255,-145.32852555,-0.4485884605,0.6543677005,7.921837568499999,-16.33671236,-9.2542598255,-2.6483206150000003
492,4.099836000000323,21.948880195,10.127327443999999,-145.38069915,-2.91320318,-1.2323263285000001,10.1088862395,-18.446867945,-9.2126128695,-3.520678163
493,4.108169000000089,21.82952595,10.073359011,-145.4282303,-0.7497967185,0.7008046210000001,11.466738700499999,-14.90390253,-8.214717866,-3.1598111985
494,4.11650200000031,21.699500085,10.003754141,-145.4604111,-1.6701005100000001,1.1038885415,12.50825119,-16.51213169,-9.368883612000001,-0.9483801869999999
495,4.124835000000076,21.583845134999997,9.9350190185,-145.52015305,-0.9143616259999999,-0.6845465900000001,11.46366024,-14.25344992,-10.393958565,-3.8702801465
496,4.133168000000296,21.5085144,9.8660349855,-145.55854795,-2.3374676699999997,0.568187803,5.732392311,-9.813097002,-9.5535221125,-1.6962005495
497,4.141501000000062,21.409282685,9.7999625205,-145.6112442,-0.4285939635,-0.3025940655,13.905844215,-12.446778299,-9.7708463665,-3.2208238245
498,4.149834000000283,21.330884935,9.7365202885,-145.6478615,-2.3658946755,-0.0735678525,11.647915365,-10.242046354,-8.868559122499999,-1.795251071
499,4.158167000000049,21.252845765,9.6762347215,-145.72699735,-1.723470837,0.8800023815,7.844311476,-9.3789863585,-10.254545214,-6.432427168
500,4.166500000000269,21.19139957,9.624211787499998,-145.75247955,-1.3642499445,-0.134051979,14.721203800000001,-8.461227656,-7.0921080135,-1.017730355
501,4.174833000000035,21.134104725,9.563656806000001,-145.8337517,-1.3353551325000002,0.235731117,9.450278281,-6.858276486499999,-10.374611617500001,-6.7239425184999995
502,4.183166000000256,21.10181999,9.4962620725,-145.8682518,-1.53145355,0.465866268,7.6802973745,-4.7760493754999995,-9.2097842695,-1.410249531
503,4.191499000000022,21.07650757,9.4453015335,-145.92852785,-0.9258632695,0.571703807,14.41885233,-3.485406041,-8.399983642,-4.798135519000001
504,4.199832000000242,21.06510258,9.3650479305,-145.9573288,-2.185448945,0.12278294549999999,10.7581162435,-2.350496471,-10.425827028,-0.3351687065
505,4.208165000000008,21.072515485,9.311334609,-146.0164299,-2.3562984465,0.6906429455,8.0684666635,0.386313915,-8.659712078,-4.546975136
506,4.216498000000229,21.08339405,9.258674147,-146.0408783,-1.445693076,0.3742640615,13.146889685000001,0.22308713199999997,-7.1282689569999995,-0.979949474
507,4.224830999999995,21.103939060000002,9.196389198,-146.10967255,-1.5845407245,0.0037057994999999955,8.264644623,2.15860793,-10.0429260745,-5.3002197745
508,4.233164000000215,21.12914467,9.139477730500001,-146.15509035,-1.560228616,-0.030805520499999996,8.127405882,2.3267397880000003,-8.4841849805,-3.0727416869999997
509,4.241496999999981,21.159977910000002,9.084959507,-146.21178055000001,-0.3842890259999999,0.619167879,13.03656197,3.1180086135000002,-8.66271043,-4.2513747215
510,4.249830000000202,21.19760704,9.0178208355,-146.2619133,-2.638768852,-0.13436707850000001,11.50580168,3.9230127935000003,-9.855962037000001,-3.230800748
511,4.258163000000423,21.24413395,8.964176655,-146.3187103,-1.3814822025,0.396988988,8.337035418,4.978178263,-8.5742132675,-4.280536294
512,4.266496000000188,21.28365898,8.918598175,-146.35480884999998,-1.80326426,-0.1884622875,12.74512672,3.8382486105,-6.8297218085,-2.520024538
513,4.274829000000409,21.326348305,8.865872144499999,-146.3963776,-1.373370886,-0.0583889635,10.972876074999999,4.251201272,-7.8239393255000005,-2.673364252
514,4.283162000000175,21.3728323,8.835459471,-146.4377403,-2.8118932245,0.240141608,7.32710433,4.787250042,-5.390874624,-3.8385495545
515,4.291495000000396,21.41427231,8.799907923,-146.45706554999998,0.39050912849999997,-0.31718314449999996,11.986790655,3.6528589725,-4.9460449815,-0.9154847859999999
516,4.299828000000161,21.459095005000002,8.771747589,-146.50013735,-3.19658196,0.4630634635,12.471399785,4.616242528,-5.207674860999999,-4.1096441745
517,4.308161000000382,21.518093110000002,8.7528984545,-146.5149536,-1.5398738385000001,0.3523694575,7.288367987,5.713902235,-2.878854513,-1.1725108325
518,4.316494000000148,21.555400845,8.7314748765,-146.55296705,-1.959599435,0.00033685550000001063,12.66166115,3.575049311,-4.2483002245,-3.79946208
519,4.324827000000369,21.595175745,8.7157809735,-146.5633812,-1.5673630090000001,-0.20792359100000002,14.649683955,3.3259313109999997,-2.3366841075,-0.8275446705
520,4.333160000000135,21.644060135,8.726411581,-146.59736255,-2.9101781845,0.44944125399999996,5.507822513500001,4.914040029,-0.500604644,-4.798135638
521,4.341493000000355,21.68502235,8.7004060745,-146.5855484,1.1600586775,-0.7054577545,7.946897506999999,3.0366707295,-2.5152481135,2.11115092
522,4.349826000000121,21.714580535,8.717834473,-146.6233177,-3.203890085,0.3767577265,14.980865475000002,2.656874895,0.044152513000000004,-5.592983245999999
523,4.358159000000342,21.7553854,8.729734659,-146.6053848,-0.864148557,0.0972289145,7.959411144,2.9433387520000003,1.9983459715,1.094688438
524,4.366492000000108,21.787130355000002,8.7425704,-146.6236,-2.2351673845000004,-0.0782797485,8.9679803845,2.550883174,0.36988854400000004,-3.2591679095
525,4.374825000000328,21.80786896,8.771801233,-146.61423875,-2.2733911275,0.6727230255000001,14.913765435,0.6876201630000001,3.555666029,-0.61472258
526,4.383158000000094,21.824920655,8.818925381,-146.62075425,-2.9648246765,0.22109204550000003,10.98510027,0.5867772099999999,4.7113802435,-3.4961127039999997
527,4.391491000000315,21.849246025,8.8525521755,-146.5922165,-0.565079391,-0.872186661,6.9279754165,0.7728903890000001,4.8840008975,1.265887588
528,4.399824000000081,21.856517789999998,8.907152176,-146.61019894999998,-2.304648936,0.819106981,9.684045788999999,-0.3872550724999999,5.0230031015000005,-5.1014852525
529,4.408157000000301,21.84637642,8.939707756,-146.58263015,0.11750037999999999,-0.5777675955,11.949556825,-3.36153543,4.736789912,1.254015267
530,4.416490000000067,21.84029484,8.9861254695,-146.58750915000002,-1.8204385790000002,-0.06377941349999999,10.7023797,-2.23199235,4.681353405,-3.3228644135
531,4.424823000000288,21.828460695,9.0231585505,-146.57751465,-1.495998494,0.9172829684999999,8.16669178,-3.237325549,4.4582278135,-0.8893516064999999
532,4.433156000000054,21.810100554999998,9.0522055625,-146.57624055,-1.376970172,0.1458606275,13.066419125,-3.8427500275,3.0343525035,-1.8047406075
533,4.441489000000274,21.781887055,9.0908384325,-146.56892395,-1.7673981785000001,-0.2126731275,11.68997574,-5.1283478735,4.5182042715,-1.2941208629999998
534,4.44982200000004,21.75942516,9.123365400499999,-146.57139965,-1.4152717890000002,0.501890451,5.7924311159999995,-4.252366662,3.2501456735,-2.402211964
535,4.458155000000261,21.73052311,9.1311130545,-146.5861206,-0.3422108290000001,0.25437602400000003,10.551604272,-4.7975020409999996,0.10968005700000005,-2.3311325904999998
536,4.466488000000027,21.691254615,9.15952873,-146.59274290000002,-2.381974757,0.014162257499999997,13.221131325,-6.197134018,2.6122040155,-2.6661219595
537,4.474821000000247,21.672171589999998,9.186077594,-146.61014175,-1.3064134715,0.5295041650000001,9.580769539,-3.5666414499999997,2.090223886,-3.4629678129999997
538,4.483154000000013,21.646948815000002,9.200682165,-146.6187172,-1.8014311195,0.7678650469999999,9.671830656000001,-4.467699051,0.988850433,-2.2755559685
539,4.491487000000234,21.619953155,9.230250358500001,-146.65472795,-1.554182053,0.48764265300000004,12.393215655,-4.1920965315,1.610892415,-5.614147425
540,4.49982,21.613611220000003,9.271450045,-146.65124129999998,-1.19016394,0.4078272565,11.384409425,-2.3992728295,4.4990826845,-2.130751848
541,4.50815300000022,21.608734135,9.28911352,-146.68263245,-1.008267939,0.5923801360000001,6.08264184,-1.6403487324999997,0.4698098265,-4.5965578555
542,4.516485999999986,21.612060545,9.333006381,-146.6892166,-2.248865366,0.784781795,11.854850290000002,-1.0467382670000003,4.371472955,-3.3353896145
543,4.524819000000207,21.59783268,9.364653587500001,-146.7074776,-1.4377768635,0.12502639,13.4522233,-3.0257456305000003,2.6142337325,-3.7245148419999996
544,4.533151999999973,21.60315609,9.4147739405,-146.70858385,-2.3845498565,1.14307332,10.977618695,-0.896876037,5.300008490000001,-3.0400253535
545,4.541485000000193,21.61024475,9.4572095855,-146.74123,-1.3970283270000001,0.608201906,5.216987133,-0.16537833199999996,3.18844074,-5.813246965499999
546,4.549818000000414,21.630125045,9.4686632135,-146.74596405,-0.11587026,-0.198092944,9.9426028725,0.9110858445000001,0.8239716885,-1.724049151
547,4.55815100000018,21.633334159999997,9.499163628,-146.7758827,-1.936011255,1.445661366,13.510891915,-0.692833036,1.9706373810000002,-4.9825575355
548,4.566484000000401,21.66140556,9.520041942,-146.77536775000002,-0.9524188634999999,0.13553923,10.836477760000001,1.8008983435,2.1088264100000003,-1.5656509105
549,4.5748170000001664,21.689704895,9.529949664,-146.79993439999998,-1.9253878,0.55975768,8.239209652,2.2032338975,-0.10379528999999987,-3.491489172
550,4.583150000000387,21.71974564,9.549523355000002,-146.8203087,-1.8100749255,0.643295437,10.744156361,2.4499951005000002,1.05038853,-3.795491695
551,4.591483000000153,21.737916945000002,9.562342168499999,-146.8273163,-0.6035372615000001,0.08414405600000002,12.179180625,0.651133023,0.9950553775,-1.6868510245
552,4.599816000000374,21.750972745,9.57417059,-146.84098815000002,-1.3169410525,-0.3147587855,9.812792779999999,0.2668811084999998,0.466428995,-2.7335385084999997
553,4.60814900000014,21.782852175000002,9.5897240655,-146.85111615,-1.6945913435,1.4426808955000001,7.488892794,2.3809583185,1.1660879849999999,-2.172970772
554,4.61648200000036,21.795905115,9.583708764499999,-146.8712654,-1.4748367075000002,-0.027128770999999996,11.817943575000001,0.370324254,-1.7777303755,-2.5582729575
555,4.624815000000126,21.80684376,9.603168486000001,-146.87460325,-2.1135534045,1.049159333,13.777525425,-0.281161055,1.8956711295,-1.5927699805
556,4.633148000000347,21.807460785,9.620195867500001,-146.88960649999999,-1.1852384805,-0.06045721499999998,9.716103552,-1.2125010489999999,0.9885556099999999,-3.0808479785
557,4.6414810000001125,21.822354315,9.6176095025,-146.8842621,-1.051581472,-0.078715384,6.621618509499999,0.039055317499999964,-0.17881941749999997,0.3178278285
558,4.649814000000333,21.817755695000002,9.6304864885,-146.91143035,-1.5949905515,0.8362743255,8.592405082,-1.6083242595,-0.005974531000000116,-4.2110574245
559,4.658147000000099,21.809938430000003,9.625957011,-146.9002304,-0.604760006,0.15348154299999994,13.9210639,-2.795076609,-0.12536245599999996,1.0626450105
560,4.66648000000032,21.77492523,9.64386606,-146.9218483,-2.4069157839999997,-0.142983118,12.10815239,-5.4047129155,0.79105711,-3.8068074579999998
561,4.674813000000086,21.772754669999998,9.667037488,-146.91041565,-2.138525367,0.834551096,7.904975891,-2.092971146,2.9838727375,-0.1518669130000001
562,4.683146000000306,21.727148055,9.6689310095,-146.91640089999999,-0.8703851389999999,-0.08804935199999997,8.504529238,-6.976633549,-0.3087027069999999,-1.3933568744999998
563,4.691479000000072,21.68332577,9.700480936,-146.9261856,-1.9173728825,0.4362915455,12.728824615,-6.681365013000001,2.9835395814999996,-2.8483865259999996
564,4.699812000000293,21.616121295,9.716383454999999,-146.9173546,-0.1307631435,0.3326214405,11.392862319999999,-9.8773880005,1.904770255,-0.36655890950000003
565,4.708145000000059,21.56277275,9.738245966000001,-146.93027495,-2.1616802215,-0.35376368399999997,7.635147333,-7.766479969000001,1.7570537329999998,-2.7819879055
566,4.716478000000279,21.49945736,9.770967485,-146.92095185,-1.7810608745,0.9135612394999999,8.4486255645,-9.396544454,3.8091314435,-1.0704188945
567,4.724811000000045,21.419635775,9.796949861,-146.92036055,-1.400561273,0.33798813800000005,13.596648695,-11.225311281,2.8143515585000003,-1.4444764855
568,4.733144000000266,21.30617142,9.8468098655,-146.91907120000002,-2.692062557,-0.43167935300000004,12.330456255,-15.268736839999999,5.3854964975,-2.662587285
569,4.741477000000032,21.226818085,9.899529933,-146.91712189999998,-0.808181539,0.9791949990000001,6.3747057915,-11.177792544999999,5.874133110000001,-2.458601832
570,4.749810000000252,21.115450860000003,9.926723004500001,-146.9175415,-0.9298963845,-0.013233273999999962,7.800043583,-14.966124535,2.777973056,-1.8796944620000002
571,4.758143000000018,21.007394795000003,9.987863539,-146.92749785,-1.5279974345,0.353936091,13.49668789,-14.412505625,6.3060207365,-4.09393692
572,4.766476000000239,20.876935005,10.0401062955,-146.91666415,-1.1640604135,0.41051618549999996,12.959166530000001,-17.500252725,6.0665800595,-1.6860319970000002
573,4.774809000000005,20.759263035,10.095467090500001,-146.9261246,-2.250564158,0.2463122645,8.780418872999999,-15.553903105,5.6917027235,-3.8012177945000003
574,4.783142000000225,20.632999419999997,10.159847258500001,-146.9236031,-1.6635060309999998,0.215650335,6.558697223999999,-16.79620171,7.100799322,-3.1019936799999996
575,4.791474999999991,20.489700315,10.203508852999999,-146.93434145,-0.41122316550000004,0.371230602,12.07320833,-18.615693095,4.34218359,-3.3951228855
576,4.799808000000212,20.317478180000002,10.255473138500001,-146.93599705,-1.386733115,-0.0745934825,12.182986735,-22.250291824999998,5.5401061775,-2.986173153
577,4.808140999999978,20.174313545,10.3132514965,-146.95925905000001,-1.533053637,0.4809873385,6.800016641499999,-18.31629944,5.439671754999999,-5.357257843
578,4.816474000000198,19.992251394999997,10.351109029,-146.96212385,-1.1331233385,0.45337994400000003,10.494145393,-23.40440464,3.9169245360000007,-2.503459692
579,4.824807000000419,19.79070377,10.420164586,-146.98498535,-2.297559917,-0.6035087405,12.53348303,-25.344639775,6.750449419000001,-5.735420942499999
580,4.833140000000185,19.560278895,10.487533569,-146.9971466,-1.4044588805,-0.4580269305,9.354825974,-28.962516785,6.905943155499999,-4.735121727
581,4.841473000000406,19.314610485,10.5285716065,-147.02769855,-1.230573475,0.507447034,6.388602971999999,-30.46744347,3.3131779619999997,-5.429075718
582,4.849806000000172,19.010837555000002,10.592091559,-147.060688,-1.5154303015,-1.1158952415,12.281814575,-37.31159592,5.701973557500001,-6.831114769
583,4.858139000000392,18.703639985000002,10.657243726499999,-147.09225085,-0.956398748,-0.25660333799999996,12.487670425,-37.83608818,6.0696146485,-6.4069163795
584,4.866472000000158,18.345889094999997,10.710787296,-147.13131715,-1.468200922,0.1151733445,6.9931058880000005,-43.650411605,4.3945587875,-7.0985560415
585,4.874805000000379,17.967257500000002,10.777474879,-147.1724777,-2.2852065565000004,-0.3206735405,12.119679925,-46.186006545,5.9667139055,-7.4592700005
586,4.8831380000001445,17.54751015,10.844642638,-147.2121315,-1.6521402594999999,-0.07278456550000001,10.652276514,-51.050086975,6.034279585,-7.5856604574999995
587,4.891471000000365,17.108936309999997,10.897065163499999,-147.24744794999998,-1.191260904,-0.544196263,8.0860147475,-53.488721845,4.634895563500001,-6.2380044465
588,4.899804000000131,16.623417855,10.959082125,-147.30361935000002,-0.954875052,-0.016116980500000003,10.0957074155,-58.5884037,4.9811589675,-9.1404423715
589,4.908137000000352,16.12472534,11.018244745,-147.3501282,-1.0194702445000001,-0.018266946000000006,12.996260165,-60.441501615,5.1468896865,-7.6117298605000006
590,4.916470000000118,15.594291689999999,11.059819695,-147.4076195,-1.0776883065,-0.28159274700000003,6.1157197955000004,-63.909368515,2.7271962690000002,-8.59664917
591,4.924803000000338,15.019614695000001,11.10691166,-147.47223665,-2.2689522505,-0.6170585605000001,11.999355314999999,-69.13314438,3.3204835655,-9.190791607
592,4.933136000000104,14.384859559999999,11.15158367,32.4577942,-0.9306447505,-1.1753951905000002,12.459329605,-76.14310074,2.8859583140000002,-9.999394892000002
593,4.941469000000325,13.712181095,11.180522445,32.377609250000006,-1.576669693,-0.438464172,9.401014327999999,-80.53348923,0.9480010565000001,-10.363041399
594,4.949802000000091,12.961529735,11.2260952,32.292736049999995,-1.8839135765000001,-1.2027429935,10.367116927000001,-89.68052292,2.815922111,-11.675437930000001
595,4.958135000000311,12.16668797,11.26642227,32.20679474999999,-1.668874651,-1.1362127065,10.592221258,-95.028453825,2.400905758,-11.304165365
596,4.966468000000077,11.31205273,11.26989365,32.109146149999994,-0.3000260295,-0.4160943925,7.189338445500001,-101.85888295000001,-2.131162286,-12.0376873
597,4.974801000000298,10.3943624475,11.292376515,32.004402150000004,-1.9838631749999998,-1.1104232225000001,12.435513975500001,-109.3467903,0.2062890529999999,-12.92478085
598,4.983134000000064,9.441500661500001,11.324634075,31.9116783,-1.571673602,-1.119417846,9.9904613515,-113.74693295,1.7591681780000001,-12.098889830000001
599,4.991467000000284,8.4297590255,11.320752145,31.817359899999992,-1.2739447955,0.1405155135,8.2631282805,-120.8687096,-2.321083933,-11.275615214
600,4.99980000000005,7.3762094975,11.333560465,31.713684100000002,-1.460982599,-0.053420097,14.854413984999999,-125.58274455,-0.324809551,-12.93884087
601,5.008133000000271,6.312818050500001,11.34461069,31.61775585000001,-2.2365624905,-0.906012982,9.248753071,-127.01843260000001,-0.15515449650000002,-11.720410345
602,5.016466000000037,5.207592964,11.342202664999999,31.527942650000007,-0.313242406,0.452390373,9.475042341,-132.1160736,-1.499403864,-11.106990815
603,5.024799000000257,4.0375540255,11.33199167,31.414974200000003,-2.900055051,-0.24619251499999995,14.097341535,-139.42717745,-2.426381767,-13.505421635000001
604,5.033132000000023,2.8791065215,11.314130785,31.3113594,-0.34461224049999994,-0.08987572799999999,10.3197441095,-138.17892455,-2.995055206,-12.538424495000001
605,5.041465000000244,1.6995201115,11.271149635,31.205535899999994,-1.416007787,0.759561777,6.4602754115,-140.75558475,-5.7869791985,-12.588894365
606,5.04979800000001,0.4784429145,11.246471405000001,31.090827949999998,-1.6027857065000002,-0.392043561,12.395409585,-145.48200225,-3.3445506094999997,-13.903629304999999
607,5.05813100000023,-0.7773291914999999,11.191491124999999,30.973960899999994,-1.338825345,0.08188727500000004,14.1033988,-149.63364415,-6.682131529,-14.122792725
608,5.066463999999996,-2.0436513425,11.12172794,30.856712299999998,-1.4980168345,0.023862749000000016,7.671738863,-150.89422605,-8.1581707005,-14.465356825
609,5.074797000000217,-3.327671289,11.0519571305,30.733936300000003,-1.1684437095,-0.057507306499999994,8.5717616085,-152.92760470000002,-7.812388179,-15.157628535
610,5.083129999999983,-4.6545472145,10.9783010505,30.623977699999998,-1.334578544,0.518126369,14.996567724999998,-158.3518143,-8.037450550500001,-13.9914732
611,5.091463000000204,-5.9833574295,10.8886508965,30.511169449999997,-1.758496344,0.41237231350000003,12.44765902,-158.58662415,-9.6138002885,-14.622458455
612,5.099796000000424,-7.2940263745,10.8028821945,30.404651649999998,-1.8157318235000002,0.6636735500000001,6.7692644600000005,-156.5199356,-8.882469177499999,-14.0222044
613,5.10812900000019,-8.6044538025,10.6832628265,30.320869450000004,-0.028201405000000006,1.3986299039999999,9.441799642500001,-157.07206724999998,-12.9889564495,-12.090466975
614,5.116462000000411,-9.9168272,10.581154348,30.208778349999996,-2.527195215,2.025852263,15.606551645,-156.67070769999998,-10.0937132845,-15.34914112
615,5.1247950000001765,-11.202483655,10.458094594999999,30.14072035000001,-0.26529461149999994,0.9266597925,14.302301885,-154.4654083,-13.17080784,-10.933496474999998
616,5.133128000000397,-12.448703290000001,10.333076475999999,30.051376349999998,-2.4357364180000003,2.157284975,8.3911254405,-149.3218231,-12.6578750615,-13.798480035
617,5.141461000000163,-13.6500721,10.191251753,29.9920044,0.207522124,0.9285285475,7.185915469999999,-144.5504074,-15.113528725000002,-10.987289905
618,5.149794000000384,-14.8107996,10.031083109,29.936996450000002,-1.7368964555000002,2.1570683715000003,9.401371479,-139.85425565,-17.184113505,-11.376287938499999
619,5.15812700000015,-15.93753004,9.876326562500001,29.878479000000006,-1.443948984,2.882392049,13.764535904999999,-135.6276779,-16.185439111,-11.876480579999999
620,5.16646000000037,-17.031786914999998,9.7293534255,29.850318900000005,-1.6335779430000001,1.5116820335,12.929694655,-132.45625305,-16.11940765,-8.529405117
621,5.174793000000136,-18.07630348,9.584388735000001,29.794891349999993,-1.926847875,2.7733671665,14.641112805,-125.9047737,-14.72820282,-11.850068570000001
622,5.183126000000357,-19.054079055,9.43106699,29.791122449999996,-1.1514261625000002,2.8255709409999996,9.392982242999999,-118.97139355,-17.461179729999998,-6.5523471835
623,5.191459000000123,-19.97408867,9.2848191265,29.74222565,-2.8211525675,1.9511737825000002,10.771441938999999,-111.14170835,-14.734798430000001,-11.67763996
624,5.199792000000343,-20.83455944,9.133991718999999,29.751491549999997,-0.43381631349999994,2.095864713,7.3758974075,-105.1032715,-17.48276186,-5.5607910154999995
625,5.208125000000109,-21.660123825,8.988566636,29.70757675000001,-2.6056394575,2.8043944835,11.16948271,-99.98037337,-14.513274670000001,-11.582170965
626,5.21645800000033,-22.430063245,8.8436665545,29.717658999999998,0.027516633000000013,1.113151513,11.95182037,-94.223121645,-16.72248125,-5.6079490185
627,5.224791000000096,-23.128427504999998,8.700813532000002,29.683025349999994,-3.776321411,4.200797439,12.511554239999999,-84.93769455,-14.355593204999998,-10.841540336
628,5.233124000000316,-23.766140935000003,8.576127767500001,29.688442249999994,0.549112633,1.948246062,10.4220938675,-78.23660278,-14.1440706255,-5.5059759615
629,5.241457000000082,-24.31817913,8.454161644,29.6666832,-3.6620109085,2.8725024465,10.087228777,-67.663360595,-12.458752394000001,-8.763602974000001
630,5.249790000000303,-24.8118391,8.335722208,29.666561100000003,0.8696153090000001,2.6609478595000002,12.676195145000001,-60.834651945000005,-13.100409506999998,-6.0160604714999995
631,5.258123000000069,-25.22167778,8.23516798,29.64562990000001,-4.681946635,3.4846010205,9.426316501999999,-50.62347031,-10.034682991,-7.7681899085
632,5.266456000000289,-25.570690155,8.1271502975,29.645477300000003,0.8257146925000001,1.8076877595,10.614683627,-43.49009323,-11.855545043,-5.759857654999999
633,5.274789000000055,-25.85537529,8.0529625415,29.629341149999995,-4.139568925,3.011542201,8.144112349,-35.660282135,-7.345185041500001,-5.953806162
634,5.283122000000276,-26.08325958,7.970419167999999,29.621822350000002,1.3634204865,1.378185354,12.90344429,-28.904010775,-8.6673264515,-5.4009202125
635,5.291455000000042,-26.270225525,7.917491674,29.608951549999993,-4.960545838000001,3.386700153,13.743024349999999,-23.946750639999998,-5.1868175270000005,-4.4781344085
636,5.299788000000262,-26.378953935,7.8498094080000005,29.586822499999997,0.5775222775000002,1.729505509,9.273401737499999,-14.380719665,-6.2442081,-6.286516309
637,5.308121000000028,-26.458241465,7.8205306530000005,29.5827484,-4.335573524000001,1.9114968774999999,12.296912670000001,-11.1639904965,-3.089583636,-2.2981420755
638,5.316454000000249,-26.47604752,7.776543617,29.542377450000004,1.2161555290000001,1.456886351,7.170220375,-3.1587346789999997,-2.7309204339999997,-6.92657745
639,5.324787000000015,-26.483265875,7.775955677000001,29.547668449999996,-3.5319521425,1.3304068144999999,14.327000139999999,-2.7222682235,-0.502788544,0.18523573849999986
640,5.3331200000002354,-26.444118500000002,7.7472567560000005,29.479984299999998,0.12253761299999999,1.5723165275,7.684618473,4.157331705,0.322656095,-8.900383711
641,5.341453000000001,-26.404518125000003,7.771988629999999,29.4852409,-4.2557016459999994,0.967860892,15.318096635,2.8517098425,2.231621288,1.474810004
642,5.349786000000222,-26.340026854999998,7.767509222,29.394538899999993,-0.120783329,1.4360679985,9.333164692,7.6382694245,4.1603234985,-10.081047533
643,5.358118999999988,-26.267389299999998,7.8151526449999995,29.398387900000003,-3.5033908635,0.117419571,12.80859137,6.801477194,4.783234717499999,2.4978556335
644,5.3664520000002085,-26.172023775,7.828015326999999,29.288372049999992,-1.1804373265,2.014569163,9.758761408,11.654200074999999,7.004544138499999,-11.224316121
645,5.374784999999974,-26.068085670000002,7.894833803,29.301521300000005,-2.7502144575,-0.1312414165,10.529851915,10.43301344,6.386328695,4.4776507615
646,5.383118000000195,-25.96861839,7.930528164,29.183044450000004,-1.2832216025,1.2388145924999998,11.42590427,12.234259604999998,9.834385993,-10.922784329999999
647,5.391451000000416,-25.869429585,8.019516945,29.205303200000003,-1.557646036,-0.673863405,12.94777155,9.770321846000002,8.33574593,6.6185534
648,5.3997840000001815,-25.77865887,8.0637459755,29.087787600000006,-2.2946143155,1.623810947,10.768809795500001,11.1277556415,10.684963227,-10.512110232
649,5.408117000000402,-25.67580032,8.1812183855,29.096946700000004,-1.348611832,-1.4114275575,8.837069035,10.515428066,12.134389399,6.709907771499999
650,5.416450000000168,-25.585015294999998,8.251552343,29.010490400000002,-2.018023908,1.225583637,10.177615164999999,10.56112337,11.86555338,-5.907797336500001
651,5.424783000000389,-25.50963211,8.3952748775,28.980751050000002,-1.716599256,-0.356077729,9.281062128,7.9349083905,16.99238682,3.8982508774999998
652,5.433116000000155,-25.446086885,8.482584238000001,28.913799250000004,-1.3911326375000002,0.6699089109999999,13.975032805000001,6.9761269095,12.719005585000001,-3.0518916844999997
653,5.441449000000375,-25.40655899,8.6402037145,28.8577156,-2.679861426,-0.8408163785,11.411736965,4.1360858675,19.850822450000003,1.7730623479999998
654,5.449782000000141,-25.357517245,8.7709019185,28.796375250000004,-0.5110901299999999,0.940297723,11.036413669,5.17241168,17.12399149,-0.20744371449999988
655,5.458115000000362,-25.350488665,8.932872297,28.72159955,-3.4709583525000003,-0.977682024,10.079774382,0.57550776,21.257967944999997,-0.033228278000000167
656,5.466448000000128,-25.329124450000002,9.0848593715,28.655017850000007,-1.0079498365,0.13995233149999997,8.7606904505,1.9963422414999998,19.720765115,0.2703901529999999
657,5.474781000000348,-25.35503006,9.237380027,28.594997399999997,-1.9706579445,-0.29659748799999996,10.846999645,-3.6149382589999997,19.484127995,1.0591298345
658,5.483114000000114,-25.395226475,9.390056135,28.535022750000003,-1.0189819334999999,0.011940404500000001,13.84938383,-5.4604958295,19.43361759,1.097180128
659,5.491447000000335,-25.46103859,9.5460906025,28.46427535,-1.8285098375,-0.39498212950000006,11.079300405000001,-8.133419034500001,20.404564855,0.15246212449999996
660,5.499780000000101,-25.52307129,9.692622187,28.42816545,-1.5064587145,-0.651621461,8.2032558915,-8.549650669,17.586778165000002,3.261192251
661,5.508113000000321,-25.616882320000002,9.8544926655,28.35453415,-2.6797902285,0.380544016,8.8440577985,-11.433712957000001,21.176527975,0.16757464399999988
662,5.516446000000087,-25.74361706,10.011915207000001,28.327884649999994,-0.4211686845,-0.69602976,16.17118454,-16.41350937,18.269786834999998,4.9528485535
663,5.524779000000308,-25.870256425,10.158823966,28.2612381,-2.7223273514999997,0.35095907000000004,10.7296953205,-15.532198905,19.182561874999998,0.200245887
664,5.533112000000074,-25.991666795,10.306043146,28.23588945000001,-1.1106230765,-0.04349201899999999,7.1835796835,-15.79307842,17.08279371,4.626854896499999
665,5.541445000000294,-26.13281536,10.439918993,28.192916899999993,-0.9157615155,0.012641668500000008,12.54434633,-17.695732115,16.540889264999997,2.1681692005
666,5.54977800000006,-26.283670425,10.578176497000001,28.182476,-1.5842844809999999,-0.6504710915,14.907495975,-19.635000225,15.30659008,5.839997768
667,5.558111000000281,-26.417990685,10.7002086635,28.124164599999993,-1.5035505889999998,1.5344880225000002,5.981084108499999,-16.55944443,16.059390545,-0.04202649000000003
668,5.566444000000047,-26.55565357,10.790113927,28.138267499999998,-0.58089298,-1.258310318,10.381426812,-18.609771725,8.778218745,5.945322037
669,5.574777000000267,-26.70293999,10.873032571,28.095768,-1.86024785,1.231259733,12.372261524999999,-18.4340992,11.0132937415,-0.36062295
670,5.583110000000033,-26.845832825000002,10.957777974999999,28.101112349999994,-1.0162103770000002,-0.248353943,9.789720534,-19.062902450000003,8.662597179999999,4.767617941
671,5.591443000000254,-26.987322804999998,11.0083317745,28.085868849999997,-0.7096564175,0.19441987549999998,10.2228674885,-18.349056245,6.0911957635,0.8127911685
672,5.59977600000002,-27.112631800000003,11.0764150615,28.100406650000004,-1.452333987,0.786247849,12.823663235,-17.12865448,6.3682129385,4.892755747
673,5.6081090000002405,-27.222914695,11.1256351445,28.090625749999994,-1.380789757,1.0516916515,8.8285827635,-14.757713795,5.6554000375,1.3064094785
674,5.616442000000006,-27.32036686,11.1681208635,28.11931229999999,-0.853745077,-0.8280580639999999,12.452230455,-14.109679700000001,2.870024085,4.9643592835
675,5.624775000000227,-27.421889305,11.193809986,28.123908999999998,-1.7509598585000001,1.0912132855,13.17915106,-14.03331327,2.3517142535,1.558607519
676,5.633107999999993,-27.48768234,11.23031378,28.143558500000005,-2.409500137,0.10863743749999999,8.169857502,-10.158402441,2.7055103755000003,3.6631948945
677,5.6414410000002135,-27.565163615,11.256005285499999,28.169540399999995,-0.7537620365,0.526594162,12.806619165,-11.586204525,1.188019991,3.8428275585
678,5.649773999999979,-27.610177040000004,11.290740015,28.190578449999997,-2.845188677,0.8689050899999999,12.293614865,-7.7276370525,2.4470241065,3.6590454580000005
679,5.6581070000002,-27.656679155,11.305493355,28.211845350000004,-0.7523728015,0.13443592199999999,9.447858335,-7.8053245545,0.2739896774999999,2.7160696985
680,5.666440000000421,-27.66763973,11.322193625,28.237228400000006,-2.4088231625,0.913553618,12.762440685,-3.6508481505,0.29327642900000006,3.1766261460000003
681,5.674773000000187,-27.67645073,11.320369245,28.269680000000008,-0.6747517585,-0.048865676000000025,9.676875591,-3.6197656395,-2.096871078,2.8894008995
682,5.683106000000407,-27.668487550000002,11.322985175,28.294940949999997,-1.9938010575,0.297794536,10.5342121125,-1.375119336,-1.205546647,2.4003227650000003
683,5.691439000000173,-27.660588265,11.328073504999999,28.326000199999996,-0.9229257104999999,0.456524603,12.893059730000001,-1.546869345,-1.2817428115,3.1523951290000003
684,5.699772000000394,-27.625788685,11.31246948,28.36087035,-1.7287555785,-0.3564073445,8.351093769,1.5855211615,-3.678729236,2.3890781405
685,5.70810500000016,-27.593827249999997,11.310285570000001,28.4029236,-0.7738486529999999,0.941892207,13.029269695,1.093023449,-2.6526678205,3.9118443725
686,5.71643800000038,-27.538383484999997,11.301881315,28.424491849999995,-2.6673101785,0.07362738249999999,8.3926472665,4.3526144030000005,-2.182851672,1.3855444585
687,5.724771000000146,-27.480957035000003,11.295298577,28.483543400000002,0.16260826550000007,0.11031509950000001,14.369949815,3.777804971,-4.0387567305,5.472212076
688,5.733104000000367,-27.3948679,11.27826357,28.503276849999992,-3.1381497384999997,1.106143713,8.2970831395,8.062605858,-2.995297432,0.708329558
689,5.741437000000133,-27.31809902,11.2700247785,28.553745250000006,-0.6885056795,-0.567777738,11.374815940000001,6.2780237195,-3.7331404555,4.47163105
690,5.749770000000353,-27.2291317,11.257101061,28.561924000000005,-3.0730034115000002,0.7032298445,12.580379485,8.7231845855,-1.9265430570000002,-0.23734796049999995
691,5.758103000000119,-27.142452239999997,11.242743968,28.616249099999997,-0.11736762500000009,-0.5273152959999999,9.93145895,7.3355591295,-4.5819517375,4.524665475
692,5.76643600000034,-27.049651145,11.2181253425,28.616600050000002,-3.461218238,1.1378807499999999,14.022446155,9.380771636999999,-2.7667663095000004,-1.657746762
693,5.774769000000106,-26.9467144,11.215681554,28.662540449999995,-1.0760184529999999,-1.11564602,7.1516957285,9.472560885,-2.8349646925,4.281080484
694,5.783102000000326,-26.8534832,11.1990137095,28.6718025,-2.330690384,0.600595493,14.166578295,9.258649586,-2.3819129765000002,-0.28131461150000003
695,5.791435000000092,-26.76141262,11.19807434,28.728191400000007,-1.1945192809999998,-0.7788600325,8.7905874255,7.907768011,-3.2151758669999997,5.461275816
696,5.799768000000313,-26.67538929,11.1733188625,28.72755435,-2.266749203,0.300050337,12.953422545,8.6060252185,-2.738379605,-1.733725101
697,5.808101000000079,-26.585211755,11.189330579,28.774742099999997,-1.956054151,-0.6294140665,9.155925274,7.920703411,-0.8847990635,5.4173598290000005
698,5.816434000000299,-26.510755539999998,11.169442178499999,28.775367700000004,-1.01725173,-0.19237528,11.856360915,7.199790715999999,-2.280454755,-1.3394708035
699,5.824767000000065,-26.43129158,11.184386254,28.818969699999997,-1.9718971845,-0.159642622,11.280289175,6.7048721315,-0.7963659765,4.9779219625
700,5.833100000000286,-26.36587715,11.162470819500001,28.817802449999995,-1.7715566159999998,-0.131971814,10.1222701065,6.148070097,-2.410588443,-1.6324977280000001
701,5.841433000000052,-26.283466339999997,11.1933259975,28.859592450000008,-1.7712234260000002,-0.818308711,11.714328765000001,7.1122927664999995,1.031619668,5.6308164595
702,5.8497660000002725,-26.22202015,11.1761245705,28.869811999999996,-1.275460094,0.5071372985,9.254356384000001,5.3910541535,-2.51377511,-0.15206539600000002
703,5.858099000000038,-26.148622515,11.1978507055,28.90477755,-1.763104439,-1.1742238105,12.971741680000001,6.1841220855,0.4182355405,4.4192368985
704,5.866432000000259,-26.088882445,11.192961216499999,28.914360050000006,-2.340506613,0.672805995,7.7496397495,5.166839838,-1.1539661585,0.4099750965000001
705,5.874765000000025,-26.033200264999998,11.2234277745,28.95607375,-1.1133974795,-1.427567184,14.360639095,3.9395079610000003,1.0222641375000001,5.6283566955
706,5.8830980000002455,-25.975708009999998,11.21323395,28.97795105,-2.004070997,0.418882176,8.534745693000001,4.5767381195,-2.3610689044999997,1.4099994745
707,5.891431000000011,-25.931168555,11.239484789,29.01719285,-1.1926672754999998,-0.8153319955,11.805042265,2.6729480025,0.7052175475,5.159770012
708,5.899764000000232,-25.884303095,11.2449913025,29.0279465,-2.090206504,-0.13604140650000002,9.413019655500001,3.540771365,-0.08841383449999984,1.03614074
709,5.908096999999998,-25.855044364999998,11.274239538,29.059658049999996,-1.2161045375,-0.5179551840000001,13.36031866,1.0599620939999999,1.42196846,4.5632278920000005
710,5.916430000000219,-25.805460930000002,11.275377275,29.0714531,-1.6775271595,-0.0902911985,7.495164633,3.828611016,-0.6127889154999999,0.9094527065000001
711,5.9247629999999845,-25.781887055,11.312914845,29.091728249999996,-1.64042145,-0.6781685355,13.462042335,0.6283494234999999,2.910091102,3.7677516935
712,5.933096000000205,-25.750292775,11.330052850000001,29.094150550000002,-1.8424631955,-0.1389604585,7.364293575,1.8935195505,1.5876280964999998,0.7793834504999999
713,5.941428999999971,-25.732785225,11.37006569,29.099826800000002,-2.0295417305,-0.5889435935,15.85115719,0.23418458550000004,3.9334245325,2.328884825
714,5.949762000000192,-25.69618607,11.398851395000001,29.113582649999998,-2.0936679545,0.06982421899999997,6.2295358180000004,2.234496295,2.263305826,2.6083487869999997
715,5.958095000000412,-25.678968425,11.434004305,29.112205499999995,-1.22077626,-0.73037014,14.879692555,0.338562563,3.7627183195000002,1.3162514715
716,5.966428000000178,-25.644047735,11.45674753,29.119197800000002,-2.5079826114999997,0.0736275835,6.895740986,2.2115588185,1.9771629275,1.538954556
717,5.974761000000399,-25.62229347,11.48156118,29.123981500000006,-1.009395212,-0.31680423,14.26386118,0.768388692,2.338611841,1.4442392585000001
718,5.983094000000165,-25.5804348,11.50307369,29.134567250000003,-1.7183813749999999,-0.6927961410000001,7.5171923640000005,2.959597111,1.658086419,1.8722341065
719,5.991427000000385,-25.55004692,11.518635750000001,29.149749749999998,-0.4339815975000001,-0.42889039199999995,11.868466375,1.5092100205,0.8017831445000001,2.045745075
720,5.999760000000151,-25.511764525,11.520453454999998,29.156295750000005,-2.0001561345,0.3642999925,9.168505192,2.6728710535,-0.2633464335,0.452398658
721,6.008093000000372,-25.473983765,11.53129768,29.175758350000002,-1.31230855,-1.580145061,11.90112305,2.2402336744999998,0.0866081715,2.1945893765
722,6.016426000000138,-25.432079315,11.52484417,29.192390449999998,-1.6701290604999999,0.4116568265,9.8222298635,2.915412426,-1.6786351204999996,1.1658576135
723,6.024759000000358,-25.378058430000003,11.51722336,29.21340945,-0.7620203945,-0.8392504085,9.421720507,4.076031804,-1.9853272450000006,1.334271133
724,6.033092000000124,-25.34675312,11.506057264999999,29.229225149999998,-2.8929825425,-0.728495091,12.034852505,1.7019507885,-2.1498880380000003,0.8829740584999999
725,6.041425000000345,-25.300639150000002,11.48983097,29.24593735,-0.17268115250000005,-0.5301616044999999,8.250335217,3.2069027720000003,-2.6988520650000005,0.410653839
726,6.049758000000111,-25.273348804999998,11.44995737,29.271068549999995,-2.44786912,-0.22181320750000003,16.238790985,1.0101038365,-5.7338063725,0.4249017985
727,6.058091000000331,-25.216386795,11.42377853,29.300617249999995,-0.8594189285,-1.2269961535,3.647955775,4.2539224625,-4.4271070980000005,1.3262026905
728,6.066424000000097,-25.188700675,11.396478649999999,29.326450299999998,-2.1037821169999997,-0.0862604585,16.950174335,0.9906306565,-4.391554831,1.075528979
729,6.074757000000318,-25.146265980000003,11.369988915,29.3392792,-1.500488758,-0.102722943,6.258120537,2.9623122215000004,-3.628436506,-0.40222036800000005
730,6.083090000000084,-25.120886804999998,11.344027520000001,29.353710200000002,-3.0815823374999995,-1.2693878564999999,14.982515809999999,0.9364884200000001,-3.6786332135,-0.09580996649999995
731,6.0914230000003045,-25.082650185,11.337012770000001,29.369674700000004,-1.1840916875,0.09201225650000006,7.404330492,2.4419844745,-1.6733973625,0.9860583844999999
732,6.09975600000007,-25.071404455,11.30875301,29.379516600000002,-2.2355041505,-1.4394279715,11.209836005,-0.7222893829999999,-3.6705778835,-0.8374702334999999
733,6.108089000000291,-25.05766106,11.285400866,29.39074325,-1.6638339759999998,-0.524280265,10.39626741,-0.30699288849999995,-3.217103956,-0.2711458725
734,6.116422000000057,-25.044409755,11.279757499999999,29.398216249999997,-2.0201032755,-0.461413503,10.520544527,-0.489500925,-1.0965509399999993,0.008587211499999997
735,6.1247550000002775,-25.0465498,11.253011228999998,29.402301799999996,-1.1985298245,-1.083847344,12.62771988,-1.9754542110000002,-3.236086369999999,-1.1313554940000001
736,6.133088000000043,-25.02006626,11.250052929999999,29.401348100000007,-1.664669678,-0.6291335,3.9235811235,1.2943452,-0.3887405399999997,-0.7384328695
737,6.141421000000264,-25.031184195,11.2399272925,29.414646150000003,-1.3993691209999999,-0.6835540685,17.063797,-3.3160701990000003,-1.8903760900000002,0.65308623
738,6.14975400000003,-25.027410510000003,11.24009609,29.403705600000002,-1.6795507075,-0.2503991305,5.229117036,-1.152153827,0.44360733000000074,-1.596637785
739,6.1580870000002506,-25.027365685,11.222064495,29.41721725,-1.957136139,-0.873863846,16.30427933,-2.0958589315,-2.743924737,0.143791914
740,6.166420000000016,-25.017413140000002,11.2283277515,29.40947345,-2.227662161,-0.39432603149999995,6.2588932515,-0.377150416,0.917623341,-0.7820664795
741,6.174753000000237,-25.011377335,11.2113270755,29.426315350000003,-0.22950923450000005,-1.059890341,10.1507096285,-1.553759694,-2.801064253,0.46859321
742,6.183086000000003,-25.023916245,11.187792301999998,29.425495150000003,-2.269312739,-0.2994608135,12.782271385,-3.1558787225,-2.6773476625,-1.4564511475000002
743,6.191419000000224,-25.01799202,11.186069011,29.447021499999998,-1.1779307725,-0.97893405,8.802336692499999,-1.7276806235000002,-1.3625168800000003,1.6715084315
744,6.1997519999999895,-25.026500705,11.163521768999999,29.449123399999998,-2.028481796,-0.018978520999999998,14.097121715,-2.6842957734999997,-2.7192015650000005,-1.037402272
745,6.20808500000021,-25.01380444,11.170330525,29.462100999999997,-1.7594951390000002,-0.8760623335,6.028421164,-0.7017341255000001,-0.0073823949999995975,1.20429188
746,6.216417999999976,-25.034633635,11.148263931999999,29.461524949999998,-2.7059514224999996,-0.746631283,15.75845146,-4.170362681,-2.4957108509999997,-1.4541266560000001
747,6.224751000000197,-25.045677185,11.1605696695,29.474987,-1.111179709,-0.56945337,4.7099137305,-3.4790927765,0.5554759505,1.6281178595
748,6.233084000000417,-25.058666225,11.1358818995,29.478168500000002,-2.7634990965,-1.0660461485,17.770671845,-3.407103181,-2.9481088819999997,-1.3153549729999998
749,6.241417000000183,-25.056455615,11.1511716835,29.488277450000005,-1.276574932,0.1035364485,4.6545568705,-1.649717122,1.0403928760000003,1.578656703
750,6.249750000000404,-25.05527306,11.147209647,29.494506799999996,-1.146034159,-1.2203413250000001,9.602188586,-1.906102717,-0.8693413699999999,-0.00062114000000002
751,6.25808300000017,-25.07413864,11.1406760225,29.498088800000005,-1.9381224515,-0.8490439505,15.359940049999999,-3.9589501025000002,-1.014420509999999,-0.149747275
752,6.26641600000039,-25.06510639,11.145372391,29.4960556,-1.6264574229999997,-0.4419555065,4.355985403,-0.806374788,0.5120468149999997,-0.535939649
753,6.274749000000156,-25.07794857,11.1378169045,29.51127625,-1.4862689975,-0.44383587300000005,17.16937256,-3.553463459,-1.7007923149999993,0.984905988
754,6.283082000000377,-25.065933225,11.132324697,29.499809300000003,-2.100705981,-0.974350378,3.2684617045,-0.155600086,-0.16099214549999985,-1.912281692
755,6.291415000000143,-25.07280731,11.1095519065,29.522365599999993,-1.2296683784999998,-1.1451048255,13.239456655000001,-3.1325440405,-3.711464286,0.8593832109999999
756,6.299748000000363,-25.092910765,11.0916852975,29.510616300000002,-1.466401458,-0.324193124,9.9355788205,-3.8795189855,-1.514794111,-2.4047794935
757,6.308081000000129,-25.09961891,11.068514347499999,29.532363900000007,-1.334683418,-0.892394662,10.472878935,-3.2007550594999996,-3.705018044,0.6282596175
758,6.31641400000035,-25.111221315,11.0410895345,29.531955699999997,-2.3730836215,-0.626083776,12.052536485000001,-3.007137716,-3.156937599999999,-1.4807082415
759,6.324747000000116,-25.09974098,11.042247773,29.538204200000003,-1.3824011685,-0.5388769805,6.085664749,-0.7102635505,-0.2857971149999994,0.16789495200000001
760,6.333080000000336,-25.12292862,11.013507842500001,29.542377450000004,-1.9446730615,-0.79574167,16.49064541,-4.5518049005000005,-3.5098504999999998,-1.1581288724999999
761,6.341413000000102,-25.11533165,11.0310354255,29.533370999999995,-2.388604522,-0.5496355294999999,4.370635152,-0.7301145795,2.25857997,-0.5384944975
