,time,Euler_X,Euler_Y,Euler_Z,Acc_X,Acc_Y,Acc_Z,Gyr_X,Gyr_Y,Gyr_Z
0,0.0,-1.9130645395,4.5654906035,12.296104450000001,-0.7352930010000001,-0.09640133349999999,10.4672751445,-0.7447466405,5.12831521,3.8157650235
1,0.0041665000001103,-1.9036490919999998,4.6889111995,12.309257500000001,-0.515075117,0.010283656000000002,13.50521088,-0.388728052,14.31333828,1.9748833179999998
2,0.00833299999999325,-1.916251779,4.8108601570000005,12.337554950000012,-1.465619624,0.4168711305,9.05467677,-3.103952885,14.16065979,3.5623582605
3,0.01249950000010355,-1.939072311,4.926121473,12.356925950000004,-0.387982439,-0.390535921,4.7250754834999995,-4.303153515,13.31995535,2.355498195
4,0.0166659999999865,-1.904686272,5.010127306,12.373596200000009,-0.27116069200000004,-0.976600677,5.653217316,2.6445292235,9.6563887595,2.0188629035
5,0.0208325000000968,-1.8457442525,5.1072411535,12.398216250000004,-2.9692963365000002,0.09949658800000002,15.413303854999999,5.436148167,11.1211643205,3.065575838
6,0.02499899999997975,-1.8328831195,5.2551150325,12.409255949999988,1.121932298,0.098578125,12.112286090000001,0.11340057849999996,17.34178734,1.5706266759999998
7,0.0291655000000901,-1.8343393209999999,5.354798794000001,12.404182450000008,-1.704531789,-0.8864386975,9.445853232000001,-1.4722037315,11.558450225000001,-0.7731785775
8,0.03333199999997305,-1.8425486685,5.4342956545,12.420402499999994,0.042527828499999996,-1.6584870215,7.7866585255,-2.477594733,9.120660305000001,1.9307565095
9,0.03749850000008335,-1.796230197,5.517753124,12.408813499999994,-1.5920721295,-0.30668887199999995,7.791809082,4.3590373995,9.6417689325,-1.752647936
10,0.0416649999999663,-1.7635145185,5.572021484,12.409065249999998,-0.5003213285,-0.8735522330000001,10.430310248,2.6138429045,6.155510664,-0.08369451350000001
11,0.0458315000000766,-1.7660608889999998,5.64965415,12.397521949999998,0.1209069605,-0.4516560545,8.484706878499999,-1.53284581,8.9307370185,-1.4445533755
12,0.04999799999995955,-1.7876864074999999,5.691863059999999,12.398201,-2.0817400815,-0.7880655525,12.041632175,-3.9139573575,4.708434105,-0.067685602
13,0.05416450000006985,-1.7994930745,5.813650131,12.404647799999992,-2.311376095,-1.8938049074999999,7.191622496,-2.8531191345,14.15974474,0.8668115734999999
14,0.0583309999999528,-1.8048039075,5.8234505655,12.392745950000005,0.651636362,0.242999714,11.940891743,-1.8047278525000001,0.8696801665,-1.6924093365
15,0.06249750000006315,-1.8375841975,5.926511764500001,12.399070749999993,-2.554809809,-0.8615127355000001,12.92617559,-5.3657729624999995,11.91365528,0.815915972
16,0.0666639999999461,-1.898351848,6.0168652535,12.398880050000002,-0.231358234,-0.3615189045,9.623837946,-8.6037974355,10.4867515575,0.027400806500000013
17,0.0708305000000564,-1.966511488,6.0985941885,12.387565599999988,-0.7328840640000001,-0.45062395,5.5892517565,-9.3773989675,9.4266808055,-1.4662870765
18,0.07499699999993935,-1.9986944795000001,6.1493086815,12.389862100000002,-1.5624470115,-1.0410114825,4.8360779285,-5.2032501700000005,5.7213876245,0.182629477
19,0.07916350000004965,-2.028626263,6.1816637515,12.389495850000003,0.004368289999999997,-0.5526493785,13.380719185,-4.9282171725,3.457678318,-0.3256977945
20,0.0833299999999326,-2.063970864,6.2926540375,12.383941650000011,-3.024770975,0.154604779,11.3425309665,-5.480858326,12.9826169,-0.4877591725
21,0.0874965000000429,-2.144354403,6.37448144,12.388862649999993,0.2671411335,-0.36443653,10.154431104,-11.052512645,9.366672516,0.5135206729999999
22,0.09166299999992585,-2.2020086645,6.44755435,12.3713226,-1.161878824,-1.514815688,7.623385668,-7.9952664375,8.490312814500001,-2.0648660655
23,0.0958295000000362,-2.2268793579999997,6.5254900455,12.381332400000005,-2.698074579,0.30545960800000005,10.740622518999999,-4.448027611,8.881262779499998,1.0744532645
24,0.0999960000001465,-2.2535988094999997,6.677616596,12.370567350000002,0.051092520500000016,0.716219604,10.031237605,-4.3698927165,17.940139770000002,-0.881065935
25,0.10416250000002945,-2.2694454195000002,6.828513383500001,12.366836550000002,-3.448871851,-0.10224190349999998,6.894739151,-3.1901257035,17.68914509,-0.131497122
26,0.10832900000013974,-2.2457115649999997,6.949043274,12.388992299999998,0.758468896,-0.011028699500000003,5.5004473925,1.2198269965000001,13.996709825,2.8930641415
27,0.1124955000000227,-2.159167886,7.106957674,12.393478400000006,-1.648500919,0.8865384460000001,9.1328830715,8.9759864805,18.491409304999998,0.8454365135
28,0.11666200000013305,-2.056008339,7.257570267,12.414131150000003,-1.3993162515000002,1.3248408435,12.243507385000001,10.758789063,17.6188097,2.8146978615
29,0.12082850000001595,-1.9145858285,7.4951756,12.428306599999999,-3.345497966,0.1629876645,7.9732367995,15.400918959999998,28.00918007,2.279003024
30,0.1249950000001263,-1.694998324,7.696462630999999,12.467407200000011,0.5042565165,1.0813878175,9.969051837999999,24.420062065,23.64452553,5.097225666
31,0.12916150000000926,-1.436694205,7.919080257500001,12.487548849999996,-3.0120226145,1.9669724705,11.49253225,29.312726025,26.210466385,2.71684134
32,0.13332800000011955,-1.1080709695,8.187725305499999,12.541168249999998,-0.779259354,0.8891810179999999,6.1599678995,37.227272035,31.735951425,6.7741606235
33,0.1374945000000025,-0.708859861,8.434439658999999,12.593376149999997,-1.1887538435,1.4537268280000002,10.65278864,45.63267707999999,29.070301055,6.261108875
34,0.1416610000001128,-0.261198979,8.675335883999999,12.659034750000004,0.471975237,1.9018378855,7.794427872,51.240558625,28.48928833,7.721152782000001
35,0.14582749999999575,0.29849019649999997,8.970333099,12.718727099999995,-3.626672983,1.7716074585,10.224515436499999,64.68816756999999,34.973510739999995,6.664075374499999
36,0.1499940000001061,0.891934574,9.215306282,12.820693950000006,0.171337665,0.68143107,7.7367668155,67.97443007999999,29.16959763,11.461978435
37,0.15416049999998904,1.564776838,9.523821832,12.888412500000001,-0.844018221,1.9298874735,8.450923443,78.031780245,36.755281445,6.8255460265
38,0.15832700000009936,2.284949422,9.7553906455,12.984382600000004,-1.9305016400000001,1.7994185685000001,11.990792275,83.191043855,27.801535604999998,10.1042575835
39,0.1624934999999823,3.0589848755,10.060783863,13.073051449999994,-1.8343102335,-0.169408977,8.745593308,89.64805602999999,36.66960526,8.429816246
40,0.1666600000000926,3.8696602579999997,10.336061479,13.182464600000003,-0.31224899700000003,1.6237155795,9.312315942000001,93.65317917,33.40209389,10.588422300000001
41,0.17082649999997554,4.705906629499999,10.592010022,13.262557999999999,-0.5325503055,0.598646432,8.9531981935,97.19721221500001,30.912841795,6.793476105
42,0.17499300000008586,5.63197875,10.86660433,13.386146550000007,-2.152973652,1.0485827325,10.633816715,107.06760405,33.77726936,11.229355815
43,0.1791594999999688,6.540663480999999,11.13861895,13.511894250000012,-1.42998445,0.24930229799999998,7.7024440765,104.7557831,33.6112957,10.941788675000002
44,0.18332600000007915,7.505948782,11.423527715,13.631980900000002,0.151044341,0.2564277275,8.946202278000001,111.7092438,35.3090744,9.5258784295
45,0.1874924999999621,8.490230083499998,11.71071386,13.753631550000009,-2.8836369509999997,1.1869081855,14.960663794999999,113.78777314999999,35.70670509,9.039531231000002
46,0.1916590000000724,9.469839096000001,11.972369675,13.884277350000005,-1.987087011,-0.279509932,11.032440186999999,113.03617095,33.056013105,9.936728952500001
47,0.19582549999995535,10.487160205,12.290368560000001,14.025024450000004,-0.5619116049999999,0.2346131205,11.632169725,117.1356239,40.036172865,9.325181961
48,0.19999200000006565,11.455047605,12.560481545,14.143219000000002,-1.4679741265000001,-0.4327530115,10.26563215,111.79058455,34.104828835,7.111006737
49,0.2041584999999486,12.453931335,12.85052681,14.27468110000001,-0.580410868,-1.438910902,10.0342664725,115.01935575,36.84044266,7.5210897925
50,0.2083250000000589,13.4421854,13.135875225,14.41405485,-1.9723278284999999,-0.1771300845,13.48482895,113.5247536,36.669992449999995,7.889643669
51,0.21249149999994185,14.370124815,13.3933177,14.536590599999997,-0.974153668,-0.7474071085,10.1881237025,106.6277542,33.039691925,6.152414798500001
52,0.2166580000000522,15.29807329,13.677956585,14.669815049999997,-2.3508192305,-2.4991905689999996,8.932325363,106.304615,36.643749235,5.958462476999999
53,0.22082449999993514,16.19226551,13.94452667,14.796279900000002,0.7613347914999999,-0.0395236275,13.924726965000001,102.35296245,34.40476608,5.1920332909999996
54,0.22499100000004546,17.01131058,14.23725462,14.917388950000003,-3.161261797,-1.9458056094999998,8.9355401995,93.44143676499999,37.33692932,3.153287768
55,0.2291574999999284,17.80473804,14.436178205,15.029830899999993,1.11179173,-2.4186756615,8.1179699885,90.57058716,26.31773758,5.0242397785
56,0.2333240000000387,18.596737859999998,14.764104365,15.159637450000005,-3.2066652775,-1.069916427,14.68549633,89.80938720500001,41.73808098,1.715201497
57,0.23749050000014904,19.280651095000003,14.98424721,15.266815199999996,0.942695409,-2.017656386,14.43816948,77.49840545500001,28.663723945,2.875746489
58,0.24165700000003196,19.916789055000002,15.244488715000001,15.364158599999996,-4.064137458499999,-1.633816898,12.18048048,71.99489975,32.84926605,-0.1602307185
59,0.2458235000001423,20.55720806,15.53619051,15.49609375,1.2950929704999998,-2.1389570235,11.784667492499999,71.410743715,37.78020668,1.911056876
60,0.24999000000002525,21.088427545000002,15.738682745,15.562339749999992,-2.14687264,-1.5901371835,13.13426352,60.30475235,25.080348965,-1.793246329
61,0.25415650000013557,21.576301575000002,15.992090705,15.683189400000003,-1.9518820049999999,-2.4644207954999997,11.4791884425,53.407966615,33.079198840000004,1.646975398
62,0.2583230000000185,22.02556896,16.25025225,15.77391815,1.234933436,-2.5997699499999998,12.1550536155,49.56423187,32.293599130000004,-2.116120279
63,0.26248950000012883,22.363087655,16.415849205,15.838890050000003,-0.7273118645000001,-2.5232998135,11.009998320000001,37.171804429999995,20.926384925,-0.8588531315000001
64,0.2666560000000118,22.650894165,16.586552140000002,15.891082749999995,-1.407790124,-2.1500269175,9.445862769,31.461343765,20.870651244999998,-2.6005202535
65,0.2708225000001221,22.940303805,16.787252430000002,15.974243149999992,-0.579703018,-1.3349426389999999,13.322139265,30.763154985,25.620194435000002,-0.7934724985
66,0.27498900000000503,23.138764385,16.959838865000002,16.017730699999987,-1.4523100255,-2.082000494,12.61091852,20.989816665,20.660238265,-3.8219925165
67,0.27915550000011535,23.275995254999998,17.062370299999998,16.06562805,-1.0809296965,-2.888972163,12.53717947,13.735509395000001,13.208176609999999,-0.061442164
68,0.2833219999999983,23.38341236,17.248444555,16.11328125,0.07291455549999998,-1.439239204,14.014785765,9.892932892000001,22.314906120000003,-4.137142897
69,0.2874885000001086,23.408645625,17.36175823,16.142990150000003,-0.9806487855,-2.0603997705,10.94718933,0.959688753,13.58943081,-2.5344650745
70,0.29165499999999156,23.403799055,17.47058582,16.155899050000002,0.0643754975,-2.256788373,10.742879390999999,-2.3550883535000002,12.220821855,-4.140541315
71,0.2958215000001019,23.368717195,17.614246365,16.200668300000004,-3.308674097,-1.031909436,14.414255615,-6.785155058000001,17.63534832,-2.3874585625
72,0.2999879999999848,23.280017855,17.760370255,16.21867370000001,-0.10444241750000002,-1.9554276465,8.169433593499999,-12.620798109999999,16.563471319999998,-5.3691108225
73,0.30415450000009514,23.17086411,17.841262819999997,16.230323800000008,-0.7174134255,-1.493939042,9.0131034855,-14.461242675000001,9.236040592999998,-2.847400665
74,0.3083209999999781,23.024602889999997,17.95213318,16.246185300000008,-1.8400616049999998,-0.9324086604999999,13.507091525,-19.43247223,12.598296165,-3.8561545610000003
75,0.3124875000000884,22.88014221,18.09628868,16.277793900000006,0.7152793555,-1.537357688,10.4810547845,-19.418433185,17.140058995,-3.662530661
76,0.31665399999997135,22.689787860000003,18.180067065000003,16.284217850000005,-1.465632558,-0.5632158665,13.653812405,-24.38491249,9.201886177,-3.524168253
77,0.32082050000008167,22.51182842,18.333844185,16.337814300000005,-3.847305536,-0.29655627900000003,12.385355947,-24.218196865,19.21334934,-1.6760240794999999
78,0.3249869999999646,22.356837275,18.540826795,16.410140999999996,-0.42023731799999997,-0.800494075,9.691296099999999,-22.66869831,25.746726035000002,-2.185447216
79,0.32915350000007493,22.109253879999997,18.617170334999997,16.4131546,-1.3445930480000001,-1.8625914455,12.504093645000001,-30.649455070000002,8.449605226500001,-3.3615509269999997
80,0.33331999999995787,21.921637535,18.846193315,16.49619290000001,-1.7641045455,-0.41880098,12.119721413,-27.019327165,28.663944245,-1.862580061
81,0.3374865000000682,21.636579515,18.98407555,16.52567289999999,1.0229591725,-2.3000479934999998,8.047250392,-36.168064115,16.46043444,-3.2431509490000003
82,0.34165299999995113,21.352758405000003,19.09747982,16.55467225000001,-0.8133743105,-0.858134806,14.78286314,-36.488622665,13.51749325,-2.2289663555
83,0.34581950000006145,21.061689375,19.301133155000002,16.603706349999996,-1.8980632425,-0.06251474499999998,8.6449100975,-37.62744522,24.672982215,-3.85934186
84,0.3499859999999444,20.7593441,19.409218789999997,16.630546550000005,0.617026523,-1.278942406,10.3087325095,-38.66657448,12.847760675,-2.1026115415
85,0.3541525000000547,20.426714895,19.52383804,16.657234200000005,-2.9291939735000003,-0.147508815,14.326731205000002,-41.7068615,13.835475921499999,-2.1939909455
86,0.35831899999993766,20.12690353,19.71960163,16.716316250000006,0.46727958300000005,0.5067608805,10.159169196,-39.680940629999995,23.997125625000002,-2.192864418
87,0.362485500000048,19.74107361,19.720865250000003,16.67862699999999,0.6406116635,-1.1625437735,11.779104707999998,-45.489826199999996,-1.39494103,-4.2329137325
88,0.3666519999999309,19.464964865,19.878890035,16.741477950000004,-3.314873576,1.6841512325,10.869139194999999,-36.98892784,19.893473625,0.0161241855
89,0.37081850000004124,19.142380715,19.89922142,16.718277,1.8676866295,-0.3745941665,7.091462074,-38.48227501,1.3640818,-3.4619090555
90,0.3749849999999242,18.870224,19.905214309999998,16.735008249999993,-3.2920709845,1.195393801,14.019272326,-34.634502409999996,0.9454281330000003,1.25137192
91,0.3791515000000345,18.61831856,20.007371900000003,16.743553200000008,1.0561841505,0.5917567315000001,8.659749032,-31.282342909999997,11.8623623835,-3.2080197335
92,0.3833180000001448,18.34161663,19.91204834,16.690971349999998,-1.2345781625,0.35687206650000003,12.916635515,-32.351408004999996,-13.078981395,-2.3041501044999997
93,0.38748450000002777,18.153470040000002,20.010627745,16.6969299,-2.7314430475,1.5813390015,10.489914180500001,-23.493435859999998,11.41324282,-3.2375324965
94,0.3916510000001381,17.9444952,19.923511505,16.634780899999996,0.910893679,-0.295573503,7.2457188375,-23.84733009,-12.46317863,-3.7380161285
95,0.395817500000021,17.79034138,19.943431855,16.607292200000003,-2.830132246,1.718621314,13.767140865999998,-18.02624798,1.3077348469999999,-3.8501598835
96,0.39998400000013135,17.634272575,19.911999705,16.543083199999998,1.5791620014999999,-0.04809966300000001,8.502338886,-17.43189526,-6.150358080499999,-6.0713374615
97,0.4041505000000143,17.493618965,19.83775997,16.458282499999996,-3.1813462975,1.85367018,13.8572750105,-14.05233145,-11.376195191,-6.598088264499999
98,0.4083170000001246,17.42281723,19.875011445,16.424057000000005,-0.7130781115,0.39627794950000006,8.04283762,-8.4246120455,2.7520254855,-5.342873335
99,0.41248350000000755,17.312786105,19.714194295,16.314201350000005,-0.5020242484999999,0.5176294335,11.13636446,-9.3676939025,-22.104827880000002,-6.242819786
100,0.41665000000011787,17.29898548,19.794299125,16.301696800000002,-1.8970051405,0.6784678104999999,7.8719542024999996,-2.4690328834999997,8.404478313,-4.5229487420000005
101,0.4208165000000008,17.20507336,19.58049774,16.17028805000001,1.8293530345,0.26174797149999995,13.77914238,-6.593686104,-28.87749767,-6.745219946
102,0.42498300000011113,17.220425605000003,19.648735045000002,16.1695938,-5.7199378015,1.2644355595,10.96129203,0.565760881,7.4478712080000005,-2.8059567215000003
103,0.4291494999999941,17.179540635,19.456561084999997,16.064498900000004,2.6595894099999997,0.1152752785,10.3234305375,-1.3169117419999998,-25.503489495,-4.7141554355
104,0.4333160000001044,17.21096611,19.497001644999997,16.064811699999993,-5.9390900134999995,1.0460966675,10.075848816999999,2.465351224,4.2969360945,-1.7030587195
105,0.43748249999998734,17.23262596,19.425751685,16.000350949999998,2.4192398785,0.694409579,8.448361039,4.552188158,-10.274383066999999,-4.618733883
106,0.44164900000009766,17.28322792,19.383236885000002,15.95358275000001,-4.6435620785000005,0.8909218165,11.128611803,6.6411306855,-6.7921018605,-3.8440952299999998
107,0.4458154999999806,17.37513447,19.399047850000002,15.934585600000005,0.6462869044999999,1.2114114465,8.335596321,11.17373085,1.235464513,-2.8060591219999997
108,0.4499820000000909,17.4650259,19.305641174999998,15.854644800000003,-2.2239099145,0.6408225,10.452458857,12.66586542,-13.754021645,-5.583924055000001
109,0.4541484999999738,17.640086175,19.411076545,15.873481749999996,-2.7396737335,1.6908851265,10.458080290000002,19.66438484,12.786177160000001,-1.9695115685000002
110,0.4583150000000842,17.77340126,19.30189419,15.786170949999999,0.39762996149999996,0.557736188,10.8850574495,18.155431749999998,-15.83968496,-5.743470192
111,0.4624814999999672,17.966144565,19.39589405,15.800407400000012,-4.154923439,1.1746570470000002,8.5870541315,21.985466005,11.326762195,-2.115224779
112,0.4666480000000774,18.15425682,19.36258221,15.736267100000006,0.2931231035,-0.055996422,10.746582986,23.80794239,-6.403804779,-5.9782881735
113,0.4708144999999604,18.343589785,19.390785219999998,15.737434400000012,-3.1117585895,0.20893009099999998,10.147417546,22.105748175,3.3573747870000004,-1.11917603
114,0.4749810000000707,18.548927305,19.447156905,15.706672699999999,0.310173966,-0.3919847235,9.0460348145,24.545163155,4.962094426,-5.7626681325
115,0.4791474999999536,18.722286224999998,19.400008200000002,15.657371550000008,-1.7003806830000001,0.3364699485,10.64312887,22.20395756,-7.0348565579999995,-3.6678127050000002
116,0.483314000000064,18.958595275,19.53010845,15.653587299999998,-3.4854636195,1.177066982,10.807968615,27.2003479,14.284552099999999,-5.758078575
117,0.4874804999999469,19.127444265,19.457036975,15.601554899999996,0.877007693,-0.247971296,12.3433346765,21.773199079999998,-10.101171016999999,-2.901057005
118,0.4916470000000572,19.346743585,19.594293595,15.61717985,-4.5250298975,0.8402144014999999,11.505667925500001,24.392286300000002,15.782541275,-4.0647515055
119,0.4958134999999402,19.513362885,19.568825725000004,15.561561550000008,1.4236913325,-0.162369536,9.929191947500001,21.651766775,-4.859989226,-5.116016865000001
120,0.4999800000000505,19.71535492,19.633314135,15.5593109,-4.52515316,0.58884947,10.3908081045,23.03455353,6.855416298,-3.1407740115
121,0.5041464999999334,19.894031525,19.662422185,15.53983310000001,0.241484046,-0.20558035349999998,11.194578409,21.652683255,2.655204982,-3.461342931
122,0.5083130000000438,20.037868500000002,19.66055012,15.511093149999994,-1.6895637510000001,-0.42727951350000004,10.448219777,17.116196635,-1.668927655,-3.281856656
123,0.5124794999999267,20.182533265,19.75634193,15.517570500000005,-2.969323754,0.07088860850000003,11.194367883,16.53911018,11.170351029999999,-3.4671374559999997
124,0.516646000000037,20.281504635,19.724716185,15.490150450000002,0.96010533,-0.6851650775,10.0039765825,11.66509485,-4.984415293,-1.9099000095
125,0.5208125000001474,20.375881194999998,19.78199387,15.472320600000003,-3.6668618915,0.4145885075,9.1983329065,11.510066035,5.8770205975,-4.4688265325
126,0.5249790000000303,20.47232056,19.82297707,15.483070350000006,0.7543432265,-0.2883287145,11.0950071835,9.800262926999999,4.6781072969999995,-0.9016082885000001
127,0.5291455000001406,20.506635665,19.81395912,15.428878799999993,-2.1014900805,-0.270333044,12.437104225999999,5.7807164195,-3.023901403,-5.5448608395
128,0.5333120000000235,20.562754634999997,19.866000175,15.46043395000001,-1.9471340475,-0.2078673055,11.439628605,4.1275552515000005,6.7438321115,0.8278905455000001
129,0.5374785000001338,20.564849855,19.8382349,15.40747069999999,0.6700218170000001,0.14908393499999997,8.415202379,1.8471835849999998,-5.0927631855,-4.6288769245
130,0.5416450000000168,20.58176136,19.8550148,15.394065850000004,-3.5760564805,0.349171117,11.7250232715,1.2738598735,1.0027331744999999,-2.4301375155000002
131,0.5458115000001272,20.588430404999997,19.90828419,15.373596200000009,-0.023914232499999993,-0.18649055599999997,10.8848271355,1.053487927,5.292682409499999,-4.620321274
132,0.54997800000001,20.581991195,19.830837250000002,15.348808300000002,-1.880255282,0.2956313865,13.018410685,-1.0632661509999999,-10.0338974,0.34404399900000004
133,0.5541445000001204,20.571887015,19.912800785,15.330841050000004,-1.487644196,0.358335622,9.059154270499999,-1.0612555145,8.6182117465,-5.566134453
134,0.5583110000000034,20.585273745000002,19.886665344999997,15.32914735,-2.3706496955,0.19676383949999998,10.094211103,0.3628384285,-3.3546004295,0.6131471395
135,0.5624775000001137,20.556384085,19.863596915,15.287765499999992,0.210145837,0.041229101,12.131315234999999,-2.3667490485,-4.1181864735,-3.6070033315
136,0.5666439999999966,20.56127548,19.91993427,15.316955549999989,-4.319472789500001,0.2246735955,10.277893068000001,-1.911443174,7.1343526839999996,0.401471153
137,0.5708105000001069,20.52012825,19.876417160000003,15.267776499999997,1.8187578915,-0.10143505,13.468465802999999,-3.5388503074999997,-6.732062340000001,-3.577271938
138,0.5749769999999897,20.50320053,19.90842342,15.296951300000003,-5.0955660345,0.39460921649999997,9.607851506500001,-4.520016193,4.4009995459999995,1.4326170679999999
139,0.5791435000001002,20.47777176,19.92269993,15.285476700000004,0.836089015,0.31026039,10.82585907,-3.2033547165,1.249513686,-2.026316583
140,0.5833099999999831,20.435813905,19.90267181,15.278671250000002,-2.403971791,0.0998719225,11.4662308675,-6.0669751165,-2.8717398645,-0.1888985905
141,0.5874765000000934,20.418686864999998,19.9591465,15.298149100000003,-2.1993448735,1.2713382245,9.820420028000001,-3.4688334464999997,7.2139036655,-0.51903411
142,0.5916429999999764,20.395565035,19.963133815,15.301414449999996,-2.1903088095,-0.0276250985,13.143888950000001,-4.2208607195,0.2249952555,-0.134385072
143,0.5958095000000867,20.34897804,19.96627617,15.306243899999998,0.652960315,0.0032403170000000203,9.3251299855,-6.427680969,0.6283107295,0.16536550200000003
144,0.5999759999999696,20.32901573,20.031760215,15.313331599999998,-5.1456296445,0.9298636615,10.6000919345,-3.9861257075,7.295267581999999,-2.288734317
145,0.60414250000008,20.28476715,20.015610695,15.324905400000006,1.6699702145,0.07175058849999999,10.6593477725,-6.4558513165,-1.2943964599999997,1.6739161015000001
146,0.6083089999999629,20.227840425,20.0512619,15.308235199999999,-3.1297911405,0.0625534865,10.2367539405,-7.442575693,3.014168441,-3.546176076
147,0.6124755000000732,20.182400700000002,20.078744890000003,15.330177300000003,-0.999192253,1.2416718605,11.78728962,-7.030646801,4.014186621,0.9614944160000001
148,0.6166419999999562,20.11487007,20.091050145,15.307029749999998,-1.696974218,-0.7874954045,9.9840259535,-8.4623994825,0.1366392375,-3.268741846
149,0.6208085000000665,20.043554309999998,20.070986745,15.311271649999995,-1.339623332,0.8896420300000001,10.9406704885,-9.4078979485,-2.0359220505,1.0622544585
150,0.6249749999999494,19.971540455,20.127667425,15.302131649999993,-1.7965788545,0.7758284209999999,10.134725569499999,-9.583573342000001,5.6869695185,-3.6085788015
151,0.6291415000000598,19.876861575,20.102734570000003,15.277023350000007,-0.904579714,-0.06104934199999999,9.522965431500001,-11.02516174,-3.7267433404999997,-1.858684361
152,0.6333079999999427,19.785261155,20.108265875,15.257926949999998,-2.5081779955,0.402594581,12.638968940000002,-11.509616375,-0.456375331,-2.5575305225
153,0.637474500000053,19.67407894,20.136036875000002,15.242546099999998,-0.15273433949999998,-0.0563839655,9.962754251500002,-13.432867525,2.590835214,-2.983335018
154,0.641640999999936,19.55506802,20.102180484999998,15.203025799999992,-2.3619975445,0.7361999455,11.32111502,-13.952416894999999,-5.6715373995,-3.1360604765
155,0.6458075000000463,19.432286259999998,20.12130928,15.191139249999992,-1.196690977,-0.030970139499999997,9.909360409,-14.97680712,1.749190211,-2.2545080185
156,0.6499739999999292,19.312003134999998,20.10700989,15.173416150000008,-1.6163219805,0.1003734745,8.1998376845,-15.013651845,-2.6312419179999997,-1.6240260599999998
157,0.6541405000000395,19.170031545,20.05090618,15.122619600000007,-0.2269086395,0.254487345,12.18181038,-15.69408178,-8.2226388455,-3.411413431
158,0.6583070000001497,19.04290867,20.081241605000002,15.128593449999997,-3.4736881255,0.318706855,9.8073763835,-16.80906391,3.3100386855,-0.8617527185
159,0.6624735000000328,18.887283325,20.00627327,15.0871353,1.002539277,0.4302517545,12.383041385,-17.741648675,-10.015982152500001,-1.7252922655
160,0.6666400000001431,18.72325325,19.967050555,15.058906550000003,-2.6218880415,0.010072067500000004,10.783682825,-19.83079052,-5.832440138,-1.803627014
161,0.670806500000026,18.56499958,19.965909955,15.04177095,-2.2195637230000003,0.727500528,8.1641242505,-19.068559649999997,-0.7406997980000001,-2.0157639385
162,0.6749730000001364,18.372682570000002,19.871794700000002,14.988906850000006,-0.4927607625,-0.0206921175,12.2299718845,-22.230441095,-12.952920915,-2.3885800835
163,0.6791395000000193,18.160820010000002,19.837046625,14.95116424999999,-1.2060534955,0.429807708,9.427280905,-24.682131769999998,-5.2959890365,-2.9664884805
164,0.6833060000001296,17.952461239999998,19.804769515,14.896301250000008,-3.049479127,0.4265763925,11.144729615,-24.077924725000003,-5.9532699585,-4.996142626
165,0.6874725000000126,17.71390152,19.679390904999998,14.843071000000009,0.7757566275000001,-0.142399423,12.5362191205,-27.28992176,-16.17952108,-1.3499034045
166,0.6916390000001229,17.469981195000003,19.63455963,14.781570399999993,-3.111883044,0.5420135855,8.555894376,-28.09016037,-7.577548027,-5.3014140130000005
167,0.6958055000000058,17.250019075,19.526124955,14.744384749999995,-0.5964838245,1.506704032,9.9329266565,-25.73590183,-13.697137355,-0.36826250699999996
168,0.6999720000001162,16.99729347,19.42032528,14.6639938,-1.0321578384999999,-0.4182163925,10.2022624025,-28.422150610000003,-15.16195631,-5.2602529525
169,0.7041384999999991,16.768795965000002,19.308607105,14.628402699999995,-2.000575006,0.6886036695,9.2338354605,-26.843618395,-14.02872944,-0.19839518550000002
170,0.7083050000001094,16.534887310000002,19.206591605,14.548942550000007,-0.4339725565,1.8259080055,12.910188675,-26.24108696,-14.6588974,-5.425624132
171,0.7124714999999924,16.29208851,19.06112385,14.51486204999999,-1.4283044935,-0.2896022795,9.830165385499999,-28.65773201,-17.874590875000003,0.9859824775
172,0.7166380000001027,16.062720300000002,18.949136735000003,14.44977569999999,-2.014117718,0.634461865,10.542453764,-26.288585660000003,-15.312939645,-3.652548194
173,0.7208044999999856,15.826253415,18.821713445,14.408729550000004,-1.322379738,1.679006755,12.079034803999999,-27.665787700000003,-16.03162336,-0.5276089165
174,0.724971000000096,15.5804162,18.69136238,14.347038249999997,-1.3118006585,-0.004869393999999999,9.4059057215,-28.430212975,-17.306312560000002,-2.8220125435
175,0.7291374999999789,15.372001650000001,18.5947752,14.321884150000002,-3.9819815160000003,1.179677933,11.171725751,-24.93256092,-11.989487175,0.09289648549999999
176,0.7333040000000892,15.13451433,18.45637703,14.247749349999992,0.156021893,1.24111712,13.116475104,-26.99036503,-18.593626020000002,-4.0812922715
177,0.7374704999999722,14.9023304,18.34933758,14.224647500000003,-3.9343514445,-0.006419494499999984,9.759101868,-27.888965605000003,-13.152190685,0.5449945035
178,0.7416370000000825,14.69644308,18.288289069999998,14.195487999999997,-1.1610440055,1.0211791694999999,8.2833116055,-24.924777985,-8.282521248,-1.6536559464999998
179,0.7458034999999654,14.45572853,18.118364335000003,14.13040925,-1.019442052,0.47442452599999996,11.695157527,-27.368998525000002,-21.68168545,-2.2949802875
180,0.7499700000000759,14.232727050000001,18.076255795,14.114578250000008,-1.9401612879999999,1.0864378215000001,10.505050422,-27.48113823,-5.693939209,-0.8070474860000001
181,0.7541364999999587,14.003989695000001,17.95501709,14.060066199999994,-0.4071374685,0.5666326435,8.6968560205,-26.37364769,-15.71622133,-2.74064219
182,0.758303000000069,13.80874348,17.82936859,14.017631550000004,-2.204359293,0.9770283405,11.139591692,-23.166007999999998,-16.14962435,-1.381190777
183,0.762469499999952,13.62883568,17.74568081,13.996490500000007,-1.914192736,2.4539073704999996,11.94147301,-21.775009155,-10.426400659,-0.223196164
184,0.7666360000000622,13.40784216,17.5882082,13.9338379,-0.385415509,0.438501075,9.640869138500001,-25.55073452,-20.39869499,-2.856156349
185,0.7708024999999452,13.251946925,17.55600071,13.921249399999994,-3.9182244535,0.3152288345,6.9587514395,-19.217827800000002,-4.197393179,-0.7675051985
186,0.7749690000000555,13.116787434999999,17.396297455000003,13.883964550000002,1.23534143,1.6274710895,10.7557322965,-16.194698335,-19.98405838,-0.09713566300000001
187,0.7791354999999385,12.96474838,17.32526207,13.846092200000001,-4.157195568000001,1.3353106380000002,12.6974182145,-17.865385055,-9.3973798745,-2.557902455
188,0.7833020000000488,12.834226130000001,17.252114300000002,13.846015949999995,-0.13810952,1.1026220320000002,11.242451668000001,-16.980771065,-8.9094531525,1.6346241240000001
189,0.7874684999999318,12.681468965,17.137604709999998,13.78473665,-3.1865081785,1.4615902305000001,7.5189242365,-17.150749205,-15.07659769,-4.0765072105
190,0.791635000000042,12.626461984999999,17.14458656,13.799186700000007,-3.5629736185,0.5826113075,8.9861884115,-8.420423984500001,0.8300550280000001,1.123594165
191,0.795801499999925,12.51434803,16.994795795,13.744865399999995,-0.070142537,0.3375706335,9.780471801000001,-12.558114525,-19.038043975,-2.4357610945
192,0.7999680000000353,12.42591286,17.049065589999998,13.747863749999993,-3.671960115,1.655002713,11.715518473500001,-12.024092675,6.0823185445,-1.376470804
193,0.8041345000001456,12.276667119999999,16.930060385,13.710853549999996,2.030480385,-0.4859976095,9.00757885,-17.6491766,-15.005645275,-1.3685820695
194,0.8083010000000286,12.183907510000001,16.938037875,13.6975403,-5.006487846,1.3125982285,8.3741378765,-11.96857071,0.2618477345000001,-2.0016371015
195,0.8124675000001389,12.093523505,16.863876345,13.670364400000011,0.6999071535,-0.16508485400000003,7.775728703,-10.943287375,-9.5116684415,-1.4527500275
196,0.8166340000000218,12.01000118,16.835992814999997,13.65666195,-4.044488549,0.99300921,13.82557154,-10.8482575405,-3.9514704345,-1.1426382959999999
197,0.8208005000001322,11.89843702,16.834447859999997,13.635841349999993,0.4108090475,1.679997623,9.908151388,-13.72102213,-0.8382709025,-2.576625943
198,0.8249670000000151,11.80400753,16.80368233,13.62236025,-3.0228209495,1.8073220255,11.473621843,-12.16838884,-4.2811123129999995,-1.0631318095000002
199,0.8291335000001254,11.729287625,16.8270607,13.607032799999999,-2.17121011,-0.10039130600000001,7.5887081625,-9.500299931,2.2201458515,-2.5726488830000003
200,0.8333000000000084,11.715140819999998,16.818639755,13.616935749999996,-2.9067912105,1.763535857,10.226685523,-3.3462308645,-1.1089363285,1.013068676
201,0.8374665000001187,11.66313839,16.84403229,13.60746005,-0.18225283899999997,0.5569022075,8.3590741175,-6.9918165205000005,2.586372197,-1.9611029625
202,0.8416330000000016,11.628783225,16.849534034999998,13.595924399999987,-1.8238651155,0.6315795479999999,9.447724342,-5.0281060935,0.0284446035,-1.737778485
203,0.845799500000112,11.574337960000001,16.849837305,13.6007843,-0.170821037,1.004886001,11.389424323,-7.7895383835,-0.034412741500000066,0.25845401549999997
204,0.8499659999999949,11.512332915,16.87380409,13.584297199999995,-3.542711854,1.2340818345,12.67030144,-8.170838594500001,2.0880210995,-2.7357156275000003
205,0.8541325000001052,11.45417595,16.895145415,13.581611599999988,-0.9793702660000001,-1.0493398605,6.5427043435000005,-7.978648186,2.2621786,-1.0903531615
206,0.8582989999999882,11.421930315000001,16.95415974,13.567657450000013,-3.5203220845,1.797006965,9.6696369665,-4.6901400085,6.273215294,-3.2820229530000002
207,0.8624655000000985,11.398302075,17.004865645000002,13.557914749999995,-0.9353759589999999,0.864339113,8.037499664,-3.5970329045,5.5469419955,-2.580877662
208,0.8666319999999814,11.39342165,17.05307579,13.548416099999997,-3.711712003,2.066315651,10.7292766575,-1.5591834895,5.105519295000001,-2.5185580255
209,0.8707985000000918,11.36849499,17.135908129999997,13.523559550000002,-0.474677354,0.8459644915,8.8462946435,-3.2285850045,8.9790325145,-5.0393707755
210,0.8749649999999747,11.37023401,17.18673325,13.515548699999997,-2.4497008325,1.095420003,6.970666885,-0.812252987,5.4484167095,-2.4098770619999996
211,0.879131500000085,11.395549295,17.30188751,13.497642549999995,-0.4998711345,-0.088953309,6.112171173,2.550563455,12.933410165,-5.0199427605
212,0.883297999999968,11.47069502,17.385638235000002,13.497245799999988,-4.2964931725,1.956895232,12.029350283,7.7320799825,9.4905357355,-2.3421145675000004
213,0.8874645000000781,11.54700422,17.507843975,13.49562075,-0.7837283165000001,0.912827015,11.7603063585,8.083573102999999,14.119042395000001,-3.3914409875000002
214,0.8916309999999612,11.629291055,17.610678675,13.492996199999993,-3.4963560105,1.7493165135000002,10.551933291000001,8.665937422,11.67701912,-3.0806372165
215,0.8957975000000715,11.697333335,17.71542549,13.517807000000005,0.981629491,-0.2361444385,6.4000041485,6.1184542175,12.66582489,-0.050011791499999986
216,0.8999639999999545,11.740673545,17.798469545000003,13.504615799999996,-1.613722563,-0.226958439,6.968674421,4.3798292875,9.0999309995,-3.80838871
217,0.9041305000000648,11.81678438,17.911047935,13.520828199999997,-0.8267982305,-0.0658319815,9.769327642499999,7.3940758705,13.382069585,-1.230584979
218,0.9082969999999478,11.87484026,17.92716694,13.514999399999994,-3.037601233,1.7846906185,11.5847249,5.880247116,1.4061255750000001,-1.3522907494999998
219,0.912463500000058,11.93562603,18.067553519999997,13.539596550000013,-2.7248571515,1.3757071945,11.575786115,5.2329638005,16.8380847,-1.016731739
220,0.916629999999941,11.93592644,18.061159134999997,13.529205349999998,-0.226132616,-0.850972414,5.694232941,-0.8832813205000001,-1.3465147615,-1.3084008095000002
221,0.9207965000000512,11.977071765,18.191310885,13.56011199999999,-1.7006867825,-0.360733509,6.9477024080000005,2.6304670569999997,15.78189373,-0.07367295000000001
222,0.9249629999999343,11.962947844999999,18.118519785,13.526512150000002,1.315611258,1.0687981545,10.493468761499999,-1.7525711955,-9.6906280535,-2.248705983
223,0.9291295000000444,11.963332654999999,18.20015526,13.545921300000003,-4.315894127,0.880304277,11.784654138499999,-1.827300608,9.8143072145,-0.14518790499999998
224,0.9332959999999275,11.949547765,18.15925312,13.530540450000004,0.9293753505,-0.3403375745,9.723437547,-2.3962500095,-5.5161024335,-1.0153739155000001
225,0.937462500000038,11.947732445,18.127593994999998,13.530624400000008,-4.566284895,1.4424858095,13.9822244635,-1.3690296855,-3.9449189899999997,0.5195335145
226,0.9416290000001482,11.935373785,18.147847175000003,13.55000305,-1.0935067385000001,1.1082473099999999,11.341136216,-3.5292447805,2.4831278324999997,1.338843405
227,0.9457955000000312,11.868068695,18.017078400000003,13.509445200000002,-1.057312384,0.22489452900000004,8.493405341999999,-7.727432728,-16.542971135,-1.5724582075
228,0.9499620000001414,11.854533195,18.04777622,13.51538085,-3.2593832015000004,0.4177208245,8.524618147,-3.1508326535,3.3942835330000003,-0.40350106399999996
229,0.9541285000000244,11.80334139,17.876582145,13.492408800000007,2.137974143,0.549311727,10.6522384895,-6.4734110835,-20.884049415,1.3521502315
230,0.9582950000001346,11.738332750000001,17.839157104999998,13.469818100000012,-3.932608962,0.8381652829999999,9.716511010000001,-8.270088196,-5.2718520165000005,-1.9123014805
231,0.9624615000000176,11.701128005000001,17.763642315,13.45083615,-0.216972329,0.152034752,9.022975921,-4.9520063400000005,-9.5538089285,-0.576659709
232,0.966628000000128,11.63321543,17.57874012,13.414146400000007,-0.6693110015,1.0203632715,12.168477535000001,-8.1194221975,-22.927952765,0.07348090400000001
233,0.9707945000000108,11.57770395,17.570807455,13.401855450000014,-4.1979641915000006,1.576211989,10.9707121835,-7.393203497,-1.4542482495,-1.4789659975
234,0.9749610000001212,11.530650614999999,17.417749405,13.366180400000005,-0.412076831,0.0275979675,9.1285498135,-5.674232721,-19.163795475,-0.63559179
235,0.9791275000000041,11.49499035,17.30606556,13.355545000000006,-4.0483909845,1.060710847,13.385066035,-5.0716068745000005,-13.617503645,1.1958520115
236,0.9832940000001145,11.44505835,17.260569574999998,13.351486199999997,-1.6521166565,2.207810402,10.3028206815,-7.1656405925,-5.7936012745,0.314997498
237,0.9874604999999974,11.377156255,17.106413845,13.324890150000002,-1.8340121505,-0.11347867550000001,6.873856306,-8.3856101035,-18.98200512,0.3831826895
238,0.9916270000001078,11.362921235,17.113170625,13.350891099999998,-4.110486745499999,0.29387429,9.9978373025,-3.9374843834999997,1.0312419835000002,2.4522047045
239,0.9957934999999906,11.2978158,16.95825672,13.32614894999999,0.4821666035,1.3889092205,11.671572208499999,-8.13418746,-19.03637791,0.5738614795
240,0.999960000000101,11.236612319999999,16.919090269999998,13.349113450000004,-4.414583683,0.9237469134999999,9.1522884375,-9.4492917065,-4.443385422,3.2024266719999996
241,1.004126499999984,11.176112175,16.864160535,13.34619905000001,1.351562202,-0.5199092215,8.0839543365,-8.364906549499999,-6.7854431865,0.649449028
242,1.0082930000000943,11.13453007,16.738812449999998,13.342994699999991,-3.7721716164999997,1.915020943,8.447442532,-6.17761755,-15.178411964999999,2.2462024685
243,1.0124594999999772,11.126812455,16.722433090000003,13.366424550000005,-2.1003037095,1.586500585,11.931485655,-2.9384588005,-1.6650406420000001,2.7211476565
244,1.0166260000000875,11.052598,16.556698325,13.34915925,-1.0758220255,-0.1523720885,12.55804968,-9.6164584175,-20.248405455,1.5716133115000002
245,1.0207924999999705,11.016477585,16.572111605,13.398582450000006,-3.8957089185,1.6677908895,9.903830054,-7.2223441600000005,2.6463092565,4.9328284265
246,1.0249590000000808,10.949910164999999,16.43340397,13.387924150000003,1.6355686784999999,-0.04872152199999996,5.7436977605,-8.9435586925,-16.924239155,1.6504409315
247,1.0291254999999637,10.940517425,16.40415716,13.4103317,-5.8436520094999995,1.0050931425,10.326923490999999,-3.0751553775,-3.2149132045,2.9121209385
248,1.033292000000074,10.921241285,16.309215545,13.434883099999993,1.0814338925,1.614268482,12.264421462,-4.464831114,-11.0011887535,4.617120504
249,1.037458499999957,10.867011545,16.219807625,13.436119050000002,-5.2408754825,2.1098954085,14.677513601,-7.7393808365000005,-10.7692117675,1.88130188
250,1.0416250000000673,10.839450840000001,16.20295143,13.491249100000005,-0.831162654,-0.3728447965,9.342756989,-6.47525382,-1.1413896085,6.2997319695
251,1.0457914999999502,10.770262240000001,16.063499455,13.476120000000009,-3.2449700835,1.7174794675,8.788664578,-8.9966442565,-17.028054715,1.136465609
252,1.0499580000000606,10.759601595,16.079720975,13.531356799999998,-1.7474329769999999,-0.45165000899999996,6.582283735500001,-4.4291116,2.7512765824999996,5.577436447
253,1.0541244999999435,10.660007,15.901308059999998,13.522605899999988,-0.7098345255,0.558997691,12.463575365,-12.867330554999999,-21.49162197,2.6959381105
254,1.058291000000054,10.570482729999998,15.925094130000002,13.54951475,-1.5903551285000002,1.4415382745,11.795199870000001,-12.941120625,3.0263863805,2.2126220465
255,1.0624574999999365,10.445042135,15.745980265,13.54400634999999,-1.0257691445000001,0.268390246,9.5400118845,-16.080639365,-21.516278264999997,2.999006033
256,1.066624000000047,10.354372025,15.71859646,13.543273900000003,-3.9087815280000004,0.6846791655,9.97738266,-12.166045664999999,-3.5983778235,0.20039297849999999
257,1.07079049999993,10.24932957,15.581475735000001,13.528953549999997,-1.4106297495,1.3386221525000002,8.563033104,-13.353191375000002,-16.75528717,1.020215303
258,1.0749570000000404,10.136138915,15.49109459,13.5208054,-1.623240113,0.453879133,14.0581522,-14.632347585,-11.19076729,0.685750902
259,1.0791235000001507,9.9845309265,15.38889313,13.475090000000009,-2.4722026584999997,2.0221064685,9.576739788000001,-17.946793555,-13.270132545,-3.3624652624999998
260,1.0832900000000336,9.8416366575,15.295020104999999,13.46646115,-3.5241193775,-0.21982417999999998,9.7481951715,-18.181220055,-11.619695665,0.646669954
261,1.087456500000144,9.711589813500002,15.22525072,13.434196499999999,-2.496612668,1.12595886,9.412670612,-15.808483599999999,-9.159473896,-2.5579023359999997
262,1.0916230000000269,9.5367770195,15.127164839999999,13.38669585000001,-2.0921328069999996,-0.2321309295,8.011221647,-20.792453764999998,-12.874680995,-3.7617982625
263,1.0957895000001372,9.32897377,15.011010644999999,13.341201749999996,-0.007590286500000001,-0.6934883745,11.326391699,-24.7424345,-14.890245440000001,-3.215152502
264,1.0999560000000201,9.036560535500001,14.924605845,13.273536700000008,-2.2329398395,0.049345255000000005,10.776926516,-34.299535750000004,-11.838350295,-6.393999338
265,1.1041225000001305,8.721696377,14.817611695,13.2150879,-1.887051344,-0.0795215665,10.391441344499999,-37.20204353,-14.007587435,-5.0089347360000005
266,1.1082890000000134,8.421959877,14.72678709,13.144409199999998,-4.473484039500001,-0.4142429235,13.24330664,-35.114427565,-12.35056591,-6.789772748500001
267,1.1124555000001237,8.0658540725,14.62693453,13.077232350000003,-0.9629928394999999,0.1345876415,11.063941005,-41.91496849,-13.25632954,-6.2947280405
268,1.1166220000000067,7.617728472,14.422511100000001,12.984962499999995,1.072742313,-0.375936858,9.5322985675,-52.314029695,-26.113777159999998,-7.5813362600000005
269,1.120788500000117,7.137788057,14.274861815000001,12.891159049999999,-1.4952111245,-0.409535572,10.343511106,-56.027114865,-19.24885273,-8.8310480115
270,1.124955,6.646839857,14.116364955,12.800704999999994,-5.1173570155,0.2863411310000001,10.4678463945,-57.55923462,-20.49623394,-8.468042850500002
271,1.1291215000001102,6.1306157115,13.902982235,12.71876524999999,-0.4450578245,-0.3391726315,9.290265084,-60.79594803,-26.78806114,-6.925834417
272,1.1332879999999932,5.538067341,13.6760993,12.599929800000012,-1.582196832,0.210211657,10.752498625000001,-69.022197725,-28.842953685,-11.31955147
273,1.1374545000001035,4.8657536505,13.47483587,12.524879499999997,-1.7851926685000001,-0.85588336,10.297125341000001,-79.79027939,-25.127078060000002,-6.8169631955
274,1.1416209999999865,4.1691997050000005,13.30174446,12.405212399999996,-3.881049991,-1.026685685,10.769738196,-81.57828140500001,-22.157209395000002,-12.59573889
275,1.1457875000000965,3.463888168,13.110960485,12.308464049999998,-2.530831933,0.40669730299999995,10.3218019015,-83.21336364999999,-23.88011837,-10.0455985055
276,1.1499539999999797,2.6626284125,12.86811304,12.19290925,-0.098096613,-0.4649757295,13.988827225000001,-94.355117795,-30.17123127,-12.241534235
277,1.15412050000009,1.7528241274999998,12.6867156,12.069183350000003,-3.3672258855,0.19288174800000002,13.871643065,-107.1236801,-22.593772885,-13.91784191
278,1.158286999999973,0.827627659,12.48478365,11.943458550000003,-1.6674156784999998,-0.7049390155,5.4712450505,-109.05425265,-24.90828991,-14.483564855000001
279,1.1624535000000833,-0.1342426875,12.232195855,11.823242149999999,-1.4146854875,-1.2905852795000001,6.829689741,-113.5061264,-30.684285165,-14.51292324
280,1.1666199999999662,-1.1280978620000002,11.947661400000001,11.665115400000005,-1.988430679,1.1521643995,14.711904525,-116.60938265,-34.287658695000005,-19.22965622
281,1.1707865000000766,-2.212096214,11.72037935,11.552490249999991,-3.792304397,-0.2488861385,14.04219961,-128.46862794999998,-27.154834745,-14.682802200000001
282,1.1749529999999595,-3.3768891095,11.419601440000001,11.393219000000002,2.5083367819999998,0.24239802349999998,9.424597024,-137.2675629,-35.486732485,-20.77088165
283,1.17911950000007,-4.5578505995,11.11953592,11.272125250000002,-4.4811804295,-1.042341173,12.4645609845,-140.0323639,-35.194896695,-17.42115498
284,1.1832859999999525,-5.7392630575000005,10.861854555,11.145065299999999,-2.8840084074999996,1.0004437865,12.45199585,-140.18940735,-29.80395508,-17.984187130000002
285,1.187452500000063,-6.9518737795,10.551246165,11.01514435,-0.7004984169999999,0.7219562085,8.9524517075,-143.7776413,-35.592613220000004,-20.09802818
286,1.191618999999946,-8.1844444275,10.133465291499999,10.927848800000007,0.6038323195,3.0433911085,12.852323055,-147.3547058,-48.68884468,-17.12173271
287,1.1957855000000563,-9.439983845,9.818778514,10.805740349999994,-4.72243762,1.45411247,12.9386754045,-149.30836485,-35.330639839999996,-20.754833225
288,1.1999519999999393,-10.685023305,9.465520859,10.74058534999999,-0.4063170605,0.856964439,8.475593567,-149.42153935,-40.74132347,-15.302823069999999
289,1.2041185000000496,-11.874431135,9.066077709,10.640663149999995,-0.9779848755,1.8367740515,8.883613108,-142.0004959,-44.91472435,-21.62819481
290,1.2082849999999326,-13.04231548,8.6314554215,10.6218109,-1.2233050765,0.3070145845,14.725493435,-141.12407685,-50.793985365,-13.733558175
291,1.2124515000000429,-14.20214605,8.245923519,10.540656999999996,-2.3605058195,2.4181091785,13.431035995,-139.00750735,-42.96707916,-20.62512207
292,1.216617999999926,-15.29936886,7.845193148,10.5368347,-2.7400267124999997,4.0692374705,13.00720692,-132.92407225,-46.73818588,-12.98530197
293,1.2207845000000361,-16.376874925,7.4982132915,10.495925900000003,-3.9406956435,2.062259197,7.575200081,-129.9248505,-39.026563644999996,-16.322221755
294,1.2249510000001465,-17.402985575000002,7.106253147,10.538848849999994,1.7496981025,0.04778859,3.1942573265000003,-125.10652925,-46.840581895,-9.087767123999999
295,1.2291175000000294,-18.37197113,6.7390081885,10.534645099999992,-2.260967612,3.8220448495,12.442107199999999,-117.51860045,-42.132827755,-14.1395874
296,1.2332840000001397,-19.306653025,6.3683481215,10.605499249999994,-1.454067528,0.187238753,14.445855145,-114.45322795,-45.174596785,-6.6674869065
297,1.2374505000000227,-20.196169855,6.0845327375,10.615341149999992,-2.4869366885,2.4483139515,15.876178265,-108.19395449999999,-32.857160570000005,-10.3860883735
298,1.241617000000133,-21.00891876,5.768429279499999,10.673744200000002,-4.2130010129999995,5.5512518884999995,14.986049655,-99.5722618,-38.310941695,-7.1251192095
299,1.245783500000016,-21.713407515,5.551576614,10.6821518,-1.9463649985,2.5628665684999996,2.686308086,-85.97542572,-25.04827213,-8.46000576
300,1.2499500000001262,-22.31484413,5.2888741495,10.73323825,0.3825193795,2.475371361,0.543198109,-74.063682555,-31.863122939999997,-6.473368644500001
301,1.2541165000000092,-22.864329339999998,5.0354509355,10.793968199999995,0.29332041000000003,2.5731778145,12.48284674,-67.89510727000001,-31.172190665,-5.2670938970000005
302,1.2582830000001195,-23.382112505000002,4.833071232,10.823959349999996,-5.317765236,0.8768175245000001,15.933800219999998,-63.760929104999995,-24.093486785,-6.5352039335
303,1.2624495000000024,-23.843712805000003,4.738221406999999,10.834548950000013,-1.9952174425,2.730473161,15.944941045,-56.851119995000005,-11.45178652,-3.2115222215
304,1.2666160000001125,-24.216573715,4.652350187,10.834671049999997,-3.360488653,2.0724043845,6.591197490499999,-46.05508232,-9.7695765495,-4.493046522
305,1.2707824999999957,-24.566119190000002,4.5913929935,10.858993500000011,-0.8045898975,1.6185143590000002,2.890561521,-43.536260604999995,-8.392161131,-0.190896809
306,1.274949000000106,-24.92333412,4.4716513155,10.867103549999996,-0.08559101800000002,0.30893526949999994,11.4124136,-44.255895615,-13.805841444999999,-5.440883875
307,1.279115499999989,-25.205704689999997,4.427348852,10.872421250000002,-2.8029227260000003,1.882187307,16.479069709999997,-35.293323515,-5.617322922,-1.4950147870000001
308,1.2832820000000993,-25.46191788,4.4551599025,10.807754549999999,-3.3528929945,1.9513789415,8.650099037,-31.458241465,5.9777021405,-5.868930817
309,1.2874484999999822,-25.672805785,4.4427416325,10.81298065,0.2377960825,0.833841011,6.7806117535,-26.723511695,-2.171217471,0.1170699165
310,1.2916150000000926,-25.84926796,4.378757715000001,10.77318575000001,-1.7506554725,0.9520427885,9.008450985,-22.119298935000003,-5.1943519115,-7.9321563245
311,1.2957814999999755,-26.05752373,4.324280262,10.809455849999992,3.102439642,-0.14509525899999998,14.09386539,-26.69049549,-8.3214030265,1.2106830474999999
312,1.299948000000086,-26.21026802,4.271668911,10.760574349999999,-4.576925993,1.633931339,18.273090840000002,-19.204563139999998,-3.4422985015,-8.327498435999999
313,1.3041144999999685,-26.358749385000003,4.2943017480000005,10.771484349999994,-1.8628848195,1.9047751425,10.627082349999998,-19.297462465000002,1.295145631,2.5717208385
314,1.308281000000079,-26.49089527,4.158884048,10.761054999999999,2.450163484,0.1898277845,3.3306544425,-17.072676655000002,-14.34484911,-8.6713700295
315,1.312447499999962,-26.556114195,4.0103138685,10.847244249999989,-2.4513601065,1.2787896695,5.454228401,-9.948651316,-21.118385315,1.4664669634999998
316,1.3166140000000723,-26.62843704,3.8746863605,10.853637700000007,2.029885709,-0.3653665185,13.242563245,-10.040899753000001,-15.24522781,-6.9108645915
317,1.3207804999999553,-26.700027464999998,3.737980962,10.930137650000006,-5.168465376,1.4826207755,19.45818424,-10.587532045,-19.336524965000002,1.0229432585
318,1.3249470000000656,-26.860357285,3.5903106925,10.95925905,2.6777709725,-1.433871448,10.870604991499999,-20.772453310000003,-17.74140358,-5.1830306055
319,1.3291134999999485,-27.01548004,3.386113882,11.050964350000001,-2.9750282765,-0.1237161905,7.448402643,-20.676356315,-27.38108063,-1.123121291
320,1.3332800000000589,-27.11636448,3.1880960465,11.109954849999994,0.631344393,-0.5591937955,7.8797082905,-13.82280874,-24.727193835,-4.822254419
321,1.337446499999942,-27.203607560000002,3.0237652065,11.194694499999997,-4.6515469555,0.5774074945000001,9.2788848875,-12.410705565,-22.73705292,0.20141127700000003
322,1.341613000000052,-27.311156269999998,2.827392697,11.260475150000005,2.9799834489999997,0.6065612585,12.786242005,-14.616707805,-24.90941143,-4.102339983
323,1.345779499999935,-27.456449505000002,2.6701449155,11.344589249999999,-5.208783865,0.5828320235,15.306180000000001,-19.31338978,-21.957676884999998,0.448089385
324,1.3499460000000454,-27.640680314999997,2.4835813045,11.411476149999999,3.4979465010000004,-0.5674678235,11.826230044999999,-23.779447555,-23.908670425,-3.5497009755
325,1.3541124999999283,-27.798974039999997,2.3924252985,11.451835650000007,-7.562658787,-0.2638533535,9.370004416,-20.599335670000002,-12.496166705,-0.635886505
326,1.3582790000000386,-27.92268276,2.2386693955,11.531303399999999,2.3359831570000003,-0.2277730255,9.314327717000001,-16.54068375,-21.115172385,-0.508916691
327,1.362445500000149,-28.025754929999998,2.181917906,11.546699500000003,-7.3043453695,0.32565953599999997,10.0324497215,-13.78265095,-7.222639084,-1.86852026
328,1.366612000000032,-28.163811685,2.0489804745,11.63594055,5.677717447,0.2747048885,11.8674368855,-18.324871065,-19.65412235,2.0132674575
329,1.3707785000001422,-28.306360245,1.99058795,11.62085725,-6.1707110405000005,0.2659418285,15.5061326,-18.442383765000002,-5.8452985285,-4.8291561605
330,1.3749450000000252,-28.482520105,1.9269804955,11.709403999999992,3.1544724705,0.9470455795,14.966212275,-22.814816475,-12.112095355000001,5.4047088625
331,1.3791115000001355,-28.66523457,1.9063119890000002,11.6522827,-5.848024130000001,0.261618212,12.75456858,-23.10374546,0.588429719,-7.163012027500001
332,1.3832780000000184,-28.826136589999997,1.8896071315,11.735671999999994,-0.5222390445,0.968595266,8.617385864500001,-20.95139122,-6.9168202875,7.497289896
333,1.3874445000001285,-28.96429539,1.848944664,11.694801349999992,-1.5405311579999998,-0.5988754070000001,3.6420340540000002,-17.82915306,-2.408558846,-6.639878273000001
334,1.3916110000000117,-29.123272895,1.7761006355,11.81450654999999,0.4723840655,-1.0351984205,6.6927804945,-20.843751905,-14.959197045,7.9989719390000005
335,1.395777500000122,-29.266923905,1.645968795,11.827064500000006,1.4974803925,0.611457048,11.944051265999999,-18.693341255,-14.862257005,-6.313207626500001
336,1.399944000000005,-29.41621113,1.5406153800000002,11.958587649999998,-4.238955735999999,0.8619845509999999,14.855421070000002,-19.666878699999998,-19.09888363,7.2582085135
337,1.4041105000001153,-29.5788908,1.4270209075,11.977661150000003,3.293314576,0.1384454705,11.586750985,-20.99798584,-13.46906185,-4.7686822415000005
338,1.4082769999999982,-29.70844269,1.3091331125,12.10599520000001,-7.147978544,2.4682711365000003,15.291089060000001,-17.22491884,-20.257813455,6.084178686
339,1.4124435000001085,-29.84022617,1.200435281,12.15349574999999,2.2960476275,-0.260702565,7.5274045465,-17.362311365,-14.61435032,-1.618500173
340,1.4166099999999915,-29.973483084999998,1.071806729,12.261894249999997,-6.037581444000001,0.21442405900000003,6.572936773,-17.56064415,-20.21150112,3.2752302885
341,1.420776500000102,-30.052556035000002,0.901410729,12.3420639,2.447463155,0.599588886,10.9956059455,-11.076907635000001,-22.98291111,-1.9926220775
342,1.4249429999999845,-30.127413750000002,0.7749114035,12.438873299999997,-6.5834348205,0.378513396,11.272506235,-10.464085575,-19.303728104999998,2.1383286115
343,1.429109500000095,-30.17359257,0.6058563885,12.530487050000005,3.7642327545,-0.48523545250000005,8.5809981825,-7.102318764,-23.522102355,-0.7927609685
344,1.433275999999978,-30.246658325,0.5152112245,12.584220899999991,-5.505991697,1.820166737,14.466611865,-10.140061855999999,-12.99056816,-0.21547332400000002
345,1.4374425000000883,-30.30703926,0.3575764675,12.676582300000007,2.3435516355,0.21143871550000004,12.22765827,-8.765310288,-22.400427815,-0.04267977199999998
346,1.4416089999999713,-30.33786869,0.330696538,12.69075015,-8.721531391,2.1571377515,9.335430143,-5.019711256000001,-3.9894424675,-0.468964577
347,1.4457755000000816,-30.347218515,0.195187267,12.760223400000001,3.7893861534999997,-0.37630216749999995,8.9317483885,-2.6010878085,-18.717350959999997,-1.1138609050000001
348,1.4499419999999645,-30.33160019,0.1974291765,12.73701475,-7.2000796795,-0.5975974355,7.6223790650000005,0.571684107,1.2905284615000001,-2.5654319525
349,1.4541085000000749,-30.275782585,0.07131830450000001,12.797126800000001,3.3318701985,1.369988918,11.298655035,5.2393682004999995,-17.185916900000002,-1.493425667
350,1.458274999999958,-30.21763134,0.08643686950000001,12.734756450000006,-7.476519346,1.6206933860000001,18.804431915000002,5.679662228,4.98851347,-5.8590259555
351,1.462441500000068,-30.14223957,0.0063015555,12.77351379999999,3.0483980180000003,0.2822585555,11.8330078105,7.591305256,-11.12106228,-0.9218052624999999
352,1.466607999999951,-30.06674099,0.04081823350000001,12.699493400000009,-5.6239318845,1.320229113,12.24475527,7.7540576455,7.6913154125,-5.916364193
353,1.4707745000000614,-29.985961914999997,0.004544049499999994,12.715820350000001,0.7458211855,-0.512919262,7.237524748,8.235297679999999,-5.237842798,-0.5600169155
354,1.4749409999999443,-29.884803769999998,0.045477654500000006,12.654708849999992,-2.9753066305000004,-1.085731849,9.318362712999999,10.831671239999999,7.568648576499999,-4.204218268
355,1.4791075000000546,-29.766041755,0.007158972499999999,12.660621649999996,-0.473996799,-0.6776796134999999,9.1037344935,12.788819790000002,-4.8391194340000006,-1.7357235549999999
356,1.4832739999999376,-29.64543915,0.054729889999999996,12.636772149999999,-0.674598187,0.5332552195,13.902539255,13.16623211,6.030322313,0.03115338050000005
357,1.487440500000048,-29.540643690000003,0.0322009215,12.611160299999995,-2.7791736125,0.9133976619999999,15.58591032,11.110457419,-1.3194278475,-4.083063245
358,1.4916069999999308,-29.494838715,0.118503824,12.612182599999997,0.007938742499999984,0.3369236475,13.859128474999999,4.188184142,8.6030666825,4.894137859500001
359,1.4957735000000412,-29.453697205,0.086763395,12.564064000000002,-3.741617799,0.0027517754999999977,11.388875485500002,3.4697687624999998,-0.9755823315000001,-6.9531004425
360,1.499939999999924,-29.420146945,0.178504117,12.57811735,-2.082553983,-0.3078309325,8.32111454,2.7134956125,8.4064016345,6.5739331245
361,1.5041065000000344,-29.360205649999997,0.15362336199999999,12.506896949999998,-2.8145940305,-1.692860603,8.5551843645,5.734477043,1.07710433,-8.94205904
362,1.5082730000001445,-29.286074635,0.250735484,12.497001649999987,-3.5372315645,-0.45832864949999996,11.061511991,7.5943779945,10.387560369500001,4.3576607705
363,1.5124395000000277,-29.21719551,0.258809548,12.414512599999995,-0.0349891945,0.5591314695,13.247130875,6.8243889805,5.162127495,-8.185683489
364,1.516606000000138,-29.16083908,0.3845564645,12.3467026,-4.200742364,0.837135896,14.31714964,5.5019259455,16.787329194999998,-0.06200569899999997
365,1.520772500000021,-29.139455795,0.476009831,12.258750899999995,-0.35381208350000004,1.1670525545000001,13.958090785,1.1521989255,14.182604314999999,-3.8624733685
366,1.5249390000001313,-29.151637075,0.632723704,12.144401549999998,-3.657351017,-0.9176936965,10.083984853,-2.6367114785,22.752870559999998,-3.1304001809999997
367,1.5291055000000142,-29.15007877,0.7908138929999999,12.053688050000005,-2.2369849685,0.1047662385,7.8408379555,-1.066590011,21.512582780000002,-0.5782415569999999
368,1.5332720000001245,-29.133971215,0.95913738,11.919944749999999,-0.9840147195,-1.5822720525,7.2277650829999995,0.7575541735,24.88411617,-4.112585306
369,1.5374385000000075,-29.08372402,1.1290274265,11.812149050000002,-2.468148947,-0.4606438425,9.837892056000001,4.763007641,23.502071385,-1.2817113995
370,1.541605000000118,-29.02430725,1.30983603,11.6994476,0.4054938855,0.30976350649999995,13.902047635,6.1102793215,25.182751655,-1.5952554939999999
371,1.5457715000000005,-28.99205303,1.5168494584999999,11.559242249999997,-2.504129529,1.792382002,15.030142305,2.7777380050000002,29.279281615000002,-2.561181903
372,1.549938000000111,-29.021100045,1.736935854,11.446380600000012,-1.433060229,-0.7910612525,11.935491085,-4.409211874,29.309378625,0.657095298
373,1.554104499999994,-29.05892086,1.9372622965000001,11.294364950000002,-1.5838298800000001,-2.129401803,8.898887157499999,-5.4717166420000005,29.226938250000003,-4.098754405999999
374,1.5582710000001043,-29.035539625,2.163462281,11.175529499999996,-3.5510323044999996,-0.48687924400000004,7.8654587265,2.0081831814999997,30.295349119999997,0.41432983450000005
375,1.5624374999999873,-28.984226229999997,2.3829060795,11.043853749999997,-0.36789843450000004,0.2578451335,13.91284275,5.26575315,30.047367095,-0.8751623335000001
376,1.5666040000000976,-28.99688244,2.6075674295,10.89257049999999,-3.906396031,0.9312851875,16.366292,-2.036941977,32.016901015,-3.102322221
377,1.5707704999999805,-29.04357529,2.849292159,10.76880645,-1.080402285,-0.79454723,8.628197192999998,-6.4228260514999995,31.915556905,1.262488365
378,1.5749370000000908,-29.052452090000003,3.0712571145,10.62303924999999,-1.3521466850000001,-1.6391164065,6.4931936265,-1.4730888604999999,31.41586399,-2.6455430985
379,1.579103499999974,-29.065107345,3.279538751,10.497451749999996,-1.5884917375,0.12382266649999998,13.898624895000001,-2.2113298180000003,28.497867585,-0.8304396869999999
380,1.583270000000084,-29.14396191,3.4800409080000003,10.395340000000004,-0.697620168,-0.537425593,9.605529784,-10.0498676285,26.619483945,0.7021250725000001
381,1.587436499999967,-29.217116355,3.6792645454999997,10.272140499999992,-0.05645357100000001,-1.464997828,8.467909336,-9.389942169,27.411684035,-1.0463935435
382,1.5916030000000774,-29.270632745,3.855289698,10.159019450000002,-3.4859398605,0.508795049,14.641922475000001,-6.841193914,24.69376087,-1.800694466
383,1.5957694999999603,-29.361344335,4.032665014,10.086685200000005,-1.9838365915,0.19120504700000002,15.411230565,-11.828493120000001,22.138587,3.0551522975
384,1.5999360000000706,-29.44688034,4.2168483734999995,9.957733149999996,-1.8582823275,-0.97333771,10.682984829999999,-10.460206985,26.480309485,-2.904233456
385,1.6041024999999536,-29.496083255000002,4.405093193,9.868011449999997,-3.718580365,1.7774011490000001,13.74116421,-6.6401872635,24.27954388,1.9615778329999998
386,1.608269000000064,-29.58238125,4.5192418100000005,9.803108249999994,-0.7849124075,-1.1220644714999999,11.828401087,-11.0585660915,15.39426422,-0.314786263
387,1.6124354999999468,-29.65236378,4.6827065945,9.726005549999996,0.21894863250000002,-0.5712962895,7.9100015175,-9.1991505625,20.958662984999997,1.8295999170000001
388,1.6166020000000572,-29.71551323,4.733818054,9.680046099999998,-1.1933221225000001,0.6706700175,11.39029646,-8.4361641405,7.699037552,-2.0418644545
389,1.62076849999994,-29.8066473,4.816726923,9.670173649999995,-1.8599263430000001,-2.273711443,11.583687784999999,-12.384203435,8.5584216115,4.0898511410000005
390,1.6249350000000504,-29.883298875,4.878263235,9.621955900000003,-0.144742059,0.3346035105,10.796427729000001,-10.0200853355,8.9239878655,-1.630448759
391,1.6291014999999334,-29.978423120000002,4.906053543500001,9.62093354999999,-3.7854694125,0.357313797,13.47394562,-12.950315,2.297763616,1.7210847734999999
392,1.633268000000044,-30.07436848,4.9474756715,9.594573999999994,-1.0051132440000001,-1.5459827185,9.5625629425,-12.549759864999999,5.5288715360000005,-0.5563924755
393,1.6374344999999266,-30.154938700000002,4.990105629,9.585319499999997,-2.8949861525,0.408525571,8.66333127,-11.119561675,4.323554635,1.7750408055000002
394,1.641601000000037,-30.254292489999997,4.959427357,9.580986049999993,0.17052384450000002,0.0263817085,10.803061483499999,-13.186029909999998,-3.272269845,-2.6134718655
395,1.6457675000001473,-30.316298484999997,5.0032165055,9.570037850000006,-2.8575071095,-0.557805486,7.790678739500001,-8.8690452575,4.54297924,1.6686907415
396,1.6499340000000302,-30.391389845,4.9820878505,9.58895115,-1.0137335655,0.34611417349999996,11.253923415,-10.518626688,-3.6813932655,0.36738497049999996
397,1.6541005000001405,-30.451596260000002,4.98615551,9.595527649999994,-0.38526096200000004,-0.503181238,9.549873589,-8.83524704,-0.6428212225,1.0856850745
398,1.6582670000000235,-30.488620755,5.010922670499999,9.573364249999997,-4.2760465145,0.6205511065,12.983260155,-5.5226852895,3.552835345,-1.0761949419999999
399,1.662433500000134,-30.51972771,5.000570774,9.619003300000003,-1.2037568095,-0.209662311,11.043425559,-5.747411727999999,-4.482273817,4.1931658985
400,1.6666000000000165,-30.53174877,5.049764871500001,9.570823700000005,-2.557410836,-0.079431221,10.655153275,-2.2460483905,7.6589388844999995,-2.2721620795
401,1.670766500000127,-30.53312969,5.0324640275,9.603622399999992,-2.6650601625,0.6999444065,12.738782885,-1.898783207,-4.138811946,2.0102563499999997
402,1.67493300000001,-30.517205235,5.066979885,9.5746994,-2.3712041375000004,-0.4133220315,11.752032281,0.757348895,4.6797852515,-0.732054919
403,1.6790995000001203,-30.49770355,5.0927445890000005,9.59595490000001,-2.6036330464999997,0.134277597,10.646438123,0.570896506,0.7174354195000001,3.923511982
404,1.6832660000000033,-30.46819687,5.081208229,9.5903244,-0.363624379,-0.512222201,10.3305728445,2.2955862285,-1.2030814289999998,-1.606537521
405,1.6874325000001136,-30.412967684999998,5.1343598365,9.588264449999997,-3.475416422,0.0904317795,11.68651867,5.1111798285,4.9805088045,3.1599129435
406,1.6915989999999965,-30.38064575,5.09483099,9.612716700000007,-0.8070027230000001,-0.8337826429999999,10.2548046095,2.3112621310000003,-5.9223060610000005,-0.202326842
407,1.6957655000001068,-30.316291810000003,5.169954300000001,9.596839900000006,-2.295042038,-0.49361243850000003,10.5589494705,6.505734444,8.3795692915,2.6094888445
408,1.69993199999999,-30.275295255,5.0819113255,9.62814329999999,0.5423115085,-0.310391158,9.879208564,3.1289458275,-11.649278641,-1.9646247625000002
409,1.7040985000001,-30.181619644999998,5.138022422500001,9.602966300000006,-3.9223309755,0.1821554825,12.917030809,9.974057673499999,6.6878143549999995,0.9427706005
410,1.708264999999983,-30.12021637,5.058008193999999,9.659828199999993,0.5924004915000001,-1.4100397825000002,9.459287284,5.4572415355,-12.0678544035,0.7293398680000001
411,1.7124315000000934,-30.02362633,5.08351326,9.663688650000012,-3.501096606,-0.398271069,12.463562965,10.0137195575,1.7755601404999997,2.0882262584999998
412,1.7165979999999763,-29.961659429999997,5.011094808999999,9.708862350000004,1.665593326,-0.9524828795,9.0538849855,5.6550471785,-10.57638836,0.007127158500000001
413,1.7207645000000866,-29.86627388,4.978674173,9.75415799999999,-5.174548864,-0.279299695,15.705695630000001,9.44170332,-6.711507320000001,2.903041005
414,1.7249309999999696,-29.816975595000002,4.9683282375,9.780143749999993,0.0818311645,-1.9485569594999999,8.1871843335,4.3404352665,-2.9740629255,1.7560096980000002
415,1.72909750000008,-29.749828335,4.8784265515000005,9.855087249999997,-4.236701965,0.16315519850000001,13.493437765,5.7540979385,-14.4553957,2.5753451590000003
416,1.7332639999999628,-29.701871869999998,4.9476718900000005,9.828285249999993,-1.8040679995,-1.381034732,9.404071329499999,4.724443674,8.4556825185,1.019472301
417,1.7374305000000732,-29.683841705,4.8159196380000004,9.920028700000003,-2.3537792565,-1.286848307,13.073692799500002,-0.3009097875,-19.819237710000003,1.8567764160000002
418,1.741596999999956,-29.64881325,4.952963829,9.873535149999995,-3.5612950325,-0.0497851785,10.365920303,3.370795369,16.69176197,2.9961743355
419,1.7457635000000664,-29.6635685,4.810381651,9.970321650000002,-0.66751197,-2.164751351,10.6789613955,-4.2829703095000005,-21.23615551,1.7198556065
420,1.7499299999999494,-29.62559414,4.928947687,9.951515199999989,-4.6698526145,0.8163350225000001,9.1596550965,3.4357019665,13.1289496425,4.7938332555
421,1.75409650000006,-29.66409397,4.8680729865,9.998603849999995,0.8079536855,-2.909950256,9.10701631,-6.6198589805,-9.773164510500001,1.3896365165
422,1.7582629999999424,-29.66670513,4.8966112135,10.015518200000002,-3.2235554454999997,-0.0793501325,15.701270105999999,-1.801026642,1.6267666815,3.1665341854999998
423,1.762429500000053,-29.72240257,4.9296360015000005,10.004974349999998,-1.110485226,-1.0842386485,7.5677757864999995,-8.092164755,3.4129632710000006,0.9973158835
424,1.766595999999936,-29.750113485,4.869401931500001,10.081459050000007,-2.8476111295,-1.0269908609999998,11.7066545465,-5.4254543785,-11.160496235,4.0733942985
425,1.7707625000000462,-29.773945805,5.010629177,10.001487749999995,-1.2571397869999998,-0.659796387,10.135097506000001,-3.5482896565,18.809792995,0.2444111035
426,1.7749289999999291,-29.840299605,4.8405759335,10.118774399999992,-0.374229193,-1.1530899405000001,13.938955785000001,-10.484374999,-25.02748203,1.7271690364999999
427,1.7790955000000395,-29.848927500000002,5.002557993,10.0183258,-4.6409721375,-0.5394994465,10.562771083,-1.518553257,22.19275761,-0.6030233205
428,1.78326200000015,-29.908062935,4.8470396995,10.135604850000007,0.8296805735,-1.456975415,9.275169253,-9.612529276,-23.51672649,2.5434566739999998
429,1.7874285000000325,-29.915383335,4.914160967,10.087593049999995,-4.613970041,-0.37946254049999995,12.961835621,-1.90774858,9.195410253,-0.7819131015
430,1.791595000000143,-29.938677785,4.870695114,10.13211059999999,0.803960666,-1.2641295195,9.2777073405,-4.5569138525,-7.525758386000001,1.681484878
431,1.795761500000026,-29.972833635,4.7828388215,10.187652549999996,-4.1614996195,-0.3761821055,17.591015815,-6.174876213,-13.088314056,0.6439804140000001
432,1.7999280000001363,-29.995868685,4.868181466999999,10.166107199999999,-2.454042077,-0.1821664575,6.899769783,-3.8541749715,9.808858632,2.5626022815
433,1.8040945000000197,-30.047561645000002,4.6742124555,10.27348330000001,-0.20178630949999998,-1.8900533915,14.517119404999999,-8.654287099,-26.938163760000002,-0.839186847
434,1.8082610000001296,-30.059856415,4.799786568,10.228881849999993,-6.0874118804999995,0.117525253,11.25572467,-2.4777293205,15.07421017,3.102998376
435,1.8124275000000125,-30.10995197,4.6681098935000005,10.301704400000006,2.33996892,-1.5446796415000001,8.066553562000001,-8.2361445425,-18.679737565,-0.271882385
436,1.8165940000001228,-30.111875535,4.660045147,10.329971299999997,-5.5820701125,0.5652960095,17.117661475,-1.8201604489999998,-2.8829020265,2.1530943515
437,1.820760500000006,-30.127548214999997,4.6626012325,10.324310300000008,-0.8928195185000001,-1.023352474,7.5262858855,-3.328607917,-0.041271210000000114,-0.3112769945
438,1.824927000000116,-30.144992825,4.555679321,10.4242706,-3.888939023,-0.7391893565000001,13.124108790000001,-4.3710576295,-17.44885683,3.608047724
439,1.829093499999999,-30.135002139999997,4.673150301,10.344429000000005,-1.5067337749999998,-1.0257686975,10.217998980499999,0.46772253550000004,16.330923079999998,-1.0360191465
440,1.8332600000001091,-30.183345795,4.5136530399999995,10.462058999999996,-1.501797855,-1.254810393,13.4013257035,-8.242447617,-23.969673155000002,2.240965128
441,1.8374264999999923,-30.17280483,4.617661953,10.384818999999993,-4.0967942475,-0.6446615455,9.3423718205,0.499458432,14.782003405000001,-1.548432052
442,1.8415930000001024,-30.185188295,4.5614545345,10.44605254999999,-0.8278788925,-0.34784422800000003,10.828227042,-3.3790559765,-9.863888978,2.617083311
443,1.8457594999999856,-30.166347504999997,4.5983457565000005,10.390800499999997,-3.9378017185000003,-0.5065756885,11.345039845999999,1.285245478,6.5086801065,-3.330055475
444,1.849926000000096,-30.130905155,4.670551061499999,10.360755899999987,-0.9993258715,-1.5805879235,8.335802736,3.244235158,8.945439815,0.906398177
445,1.8540924999999788,-30.1182642,4.6636397835,10.3332214,-2.675454855,-1.525693357,15.060332774,0.28192955249999996,0.30012846000000026,-3.1104775665
446,1.8582590000000887,-30.105191235,4.7881293295,10.248916649999998,-1.8317064644999999,-2.5039297339999997,6.3645645395,1.0972757635000001,17.628771784999998,-1.5564237835
447,1.862425499999972,-30.061367035,4.743854046,10.258315999999994,-1.5958899855,0.3293657375,13.58797741,3.668663144,-5.789637861999999,-1.5530809165
448,1.8665920000000824,-30.053424835,4.9297914505,10.139709449999998,-3.329856515,-1.15469861,9.5417194375,0.8471912445,26.06394672,-1.4215396045
449,1.8707584999999651,-30.040215494999998,4.8646876809999995,10.141563399999995,-1.0157402979999999,-1.2043236495,13.375372885,0.06893426200000008,-7.515446901,-3.5750938655
450,1.8749250000000757,-30.013222695000003,5.104777813,10.001625050000001,-6.1732895375000005,-0.830570694,10.2243299465,3.392672658,32.96182251,-0.38302930100000004
451,1.8790914999999584,-30.01255035,5.0973501205,9.979904199999993,0.12222719199999998,-0.973681629,8.100582122999999,-1.183371276,-0.09776312099999995,-2.5816076995
452,1.883258000000069,-29.977308275,5.3349945545,9.849624599999999,-2.9478311535,-1.638213038,4.063990712,4.343909383,32.129587175,0.461312771
453,1.887424499999952,-29.93824291,5.337278843,9.825401299999996,1.1347444655,-0.496892247,13.057433603,3.4677573445,1.0543971955,-2.259418726
454,1.8915910000000624,-29.91278362,5.569624662500001,9.71737675,-4.6116638185,-1.206564009,9.641967056,2.9783871174999996,30.24971962,2.4228780270000003
455,1.8957574999999447,-29.879665375,5.568082571,9.69476315,1.7594099045,-1.0144597665000001,12.25788164,2.7499441505,0.5697951314999999,-2.348492265
456,1.8999240000000555,-29.83893585,5.817234278,9.572517399999995,-7.6207420825000005,-1.0632170885,12.389850256499999,5.0312554835,32.843589785,1.9342354535
457,1.9040904999999384,-29.839567185,5.817614793500001,9.537353500000009,1.8952816725000001,-1.713328958,10.0910838855,-1.133468352,1.524719387,-3.5583039525
458,1.9082570000000487,-29.80455017,6.0459120275,9.426635750000003,-4.9326074124999995,-0.912409056,10.9492113575,4.261674404,29.988082885,1.86438483
459,1.9124234999999317,-29.809599875,6.0482079985,9.409622200000001,3.153988838,-2.2772458195,8.897780992,-1.8691987845,0.660353899,-1.602106333
460,1.916590000000042,-29.79296017,6.1512711045,9.384040849999991,-4.807621956,-0.915093273,11.879595993,1.0077281519999999,11.898043392000002,3.210885644
461,1.920756499999925,-29.824087145,6.2538712025,9.305267299999997,1.2891080975,-1.7198108435000001,7.8184084894999994,-4.197635889,14.74324894,-1.9632930160000002
462,1.9249230000000357,-29.849593165,6.226159811,9.345466650000006,-4.2832859755,-2.5667850375,15.562598705000001,-4.9012715815,-5.6213583965,2.222765207
463,1.9290895000001456,-29.85890293,6.443526745,9.21096039999999,-2.4712948795,0.7191186695,8.3660619255,-0.8172802775,30.00385857,-0.8670680225
464,1.9332560000000285,-29.907286645,6.3678667545,9.288909899999993,-1.609358072,-1.5796572565,9.635430099499999,-8.1596591485,-12.85504341,3.2301347255
465,1.9374225000001388,-29.88831234,6.5377423765,9.201652549999991,-1.4819001855,-0.8109798655,8.529019358,2.085998535,22.50083542,0.8199504165
466,1.941589000000022,-29.929760935,6.456003666,9.264144900000005,0.5777192635,-1.138608754,7.4471058275,-7.2513148785,-12.82904577,1.670163691
467,1.945755500000132,-29.91655731,6.5129232405,9.246864299999999,-3.874846816,-1.0256977675,15.0472712515,0.32669046549999997,6.339190783,1.729434788
468,1.949922000000015,-29.91204834,6.5879251955,9.2131653,-1.8180639145,-1.020726651,9.639239551,-0.302978009,9.452089549,0.6852960585
469,1.9540885000001251,-29.898033145,6.5235965255,9.260719300000005,-1.890528977,-0.626409322,13.39745903,-0.45514577599999995,-10.121810436,1.1533066029999999
470,1.9582550000000083,-29.847426415,6.653316259,9.197135899999992,-4.24628067,-0.7417298965,12.751154423,5.638296604,16.922650335,0.8771597445
471,1.9624215000001184,-29.851411820000003,6.5811197759999995,9.240676899999997,1.391323984,-1.9669430255,9.4985181075,-2.5580682755,-10.684082983500002,0.226276152
472,1.9665880000000016,-29.82325077,6.5761139395,9.230735800000005,-2.2204668525,-0.5314018119999999,14.674456595,2.2057825925000003,-0.2809047695,-1.6243267655
473,1.970754500000112,-29.816571234999998,6.541718483,9.2336502,0.272136137,-2.3613185884999996,5.1318513155000005,-0.7179542485,-4.3509243425,-1.6953294275
474,1.9749209999999948,-29.780537605,6.419220209000001,9.295593300000007,-2.4251701834999997,-1.4203913510000001,12.973278520000001,2.1742007135000003,-16.776660919999998,-1.1939053535
475,1.9790875000001047,-29.742368695,6.460886716499999,9.279174799999993,-2.9476013185000003,0.177131239,13.872163296,3.3166083095000003,4.703106761,0.8840497435
476,1.983253999999988,-29.740597725,6.328184128,9.322525049999996,1.472518116,-2.9286978245,10.651621104,-1.6731606725,-16.741981985,-3.733877659
477,1.9874205000000984,-29.739313125000002,6.270619154,9.373283350000008,-5.4345035555,-0.760119915,16.949181555000003,-1.9956819565,-9.5941579345,1.9188776614999998
478,1.9915869999999811,-29.758805275,6.2730123995,9.370780949999997,-1.553695038,-1.6388088465,3.619184941,-3.6129004955,0.04618883150000008,-0.435582891
479,1.9957535000000917,-29.775425910000003,6.0992753505,9.486412049999998,0.5433199255,-1.2046951055,11.3061618785,-4.9616976975,-25.524123189999997,1.6592397095
480,1.9999199999999746,-29.781772615,6.101681709499999,9.470596299999997,-4.9720315930000005,-0.80450809,10.556739809,-1.8720802070000002,0.8377712069999999,-1.7935213445
481,2.004086500000085,-29.833356860000002,5.9609036445,9.581337000000005,2.040592074,-2.903678536,8.1919006615,-9.054508686,-21.81386375,3.1047029495
482,2.008252999999968,-29.825284005,5.935567379,9.589492800000002,-5.447823763000001,0.9400607644999999,13.6295747745,-0.45072725399999997,-3.4711195230000005,-0.9473681155
483,2.012419500000078,-29.843671795,5.9067845345,9.642669699999999,-1.0625777245,-1.5912387369999998,12.4973275675,-4.224440694,-6.512035311,3.4495971205
484,2.016585999999961,-29.83981323,5.8385026455,9.699836700000006,-4.813606262,-0.7867047490000001,11.899024963999999,-1.6622231004999999,-11.087429763,1.9405604005
485,2.0207525000000714,-29.82281399,5.900173187,9.710105899999988,0.16026961799999995,-0.5215442035,10.0962619785,0.44785210499999994,5.2097496395,4.797879219
486,2.0249189999999544,-29.84140396,5.797508955,9.751525900000004,-3.6838803295,-0.8078982235000001,12.835501194999999,-4.0520831345,-13.49715519,-2.1292732955
487,2.0290855000000647,-29.875336644999997,5.8743348125,9.759849550000013,-0.8781981155,-2.2817952630000002,5.4778484105,-5.638487339,6.914627669,5.4888107774999995
488,2.0332519999999477,-29.85066986,5.80287528,9.779342650000004,-1.734238833,-1.5372955204999998,9.6469683655,1.4078736155,-8.944555043000001,-2.5445563795
489,2.037418500000058,-29.852634430000002,5.8817415235,9.764541650000012,-2.7897036075,0.22617932400000001,13.413455485,-1.522061974,8.486227033,3.2503824235
490,2.041584999999941,-29.848462105,5.8819129465,9.748336800000004,-3.963599205,-1.8946369884999998,8.990065572,-0.6117256515,0.6297448870000002,-1.9620374440000001
491,2.0457515000000517,-29.84112263,5.953009367,9.727890000000002,-1.4346162975,-1.5111195445,13.258089541499999,-0.3320501595,8.0208549505,2.1822047235
492,2.049917999999934,-29.84293461,5.964343548,9.6957855,-2.7200648784999997,-0.5434902605,6.194153547,-1.1296646745,2.7364712955,-2.9454324245
493,2.0540845000000445,-29.880168915,6.0035369395,9.691810599999997,0.4116832465,-2.467313528,7.297457335500001,-5.8835902215,3.71396178,1.9964118599999998
494,2.0582509999999274,-29.880763055,6.0078992845000005,9.645584100000008,-1.189353332,-0.5713308005,11.687598706,-0.804824889,2.851978868,-4.817525864
495,2.062417500000038,-29.88652992,6.039645672000001,9.660797149999993,-3.311956644,-0.42433922,13.63002682,-2.346212536,1.821031213,3.5066525935
496,2.066584000000148,-29.867427825,6.1247999669999995,9.597404499999996,-3.6396437885,-1.364833355,8.267534255,1.78428787,12.277634622,-1.7615808845
497,2.070750500000031,-29.832622530000002,6.1848781105,9.597755449999994,-1.3646971585,-0.412065439,12.497705696,2.8143895865,5.8738435505,3.293901205
498,2.0749170000001413,-29.783772470000002,6.296581745,9.512588499999993,-4.057117462,-0.1960940325,10.8653407105,5.5564460755,16.101279735,-2.0753298995
499,2.0790835000000243,-29.761361125,6.3661866190000005,9.512123099999997,-1.1001484245,-1.670796156,9.480344651000001,1.2369755505,6.7008899425,4.121804595
500,2.0832500000001346,-29.69781494,6.482782841,9.418823200000006,-0.162600577,-1.1086527705,8.108388901,7.5667541025,17.318068505,-3.0243248940000003
501,2.0874165000000175,-29.646087645,6.531161785,9.412368749999999,-2.5961254835,-0.4538622795,10.4706902515,4.8346618415,4.8542568685,2.2312434315
502,2.091583000000128,-29.54954815,6.667883873,9.31426239999999,-2.3491980435,-1.369622648,11.5167462825,11.626459125,19.69165516,-2.3623888490000002
503,2.095749500000011,-29.44204998,6.741399288,9.306640599999994,-1.342825174,0.49706866599999994,11.769496205,11.554405215,7.585594177500001,3.5205109119999998
504,2.099916000000121,-29.316638949999998,6.827456474,9.242820750000007,-2.091444433,-1.3654586075,7.512393711,14.642356395,12.37890196,-1.8579291105
505,2.104082500000004,-29.18957329,6.8537287715,9.261497500000004,0.49623195099999995,-1.6331613065,9.177090466,13.530273914999999,1.117081523,3.4555659294999996
506,2.1082490000001144,-29.067520145,6.895305394999999,9.221801750000012,-1.264421761,-0.530084267,9.7737100145,13.903216839999999,6.3110278845,-1.9952980875
507,2.1124154999999973,-28.963183405000002,6.870129347,9.2695923,-0.52537933,-1.837192178,12.0217289945,10.3866262415,-5.928262234,3.4579993485
508,2.1165820000001077,-28.813586235,6.911704540000001,9.2426071,-4.0856986045,-0.106808826,13.3015706535,17.024057385,5.573057470499999,-0.6919430944999999
509,2.1207484999999906,-28.69340992,6.9525249005,9.253143300000005,-1.9586147070000002,-2.1842851640000003,9.545212268,12.8198123,3.1545790435,3.419116855
510,2.124915000000101,-28.545658109999998,6.917371273500001,9.257705700000002,-0.725969419,-0.7567299605,14.35767031,16.351976395,-4.31160593,-1.8393328785
511,2.129081499999984,-28.442491535000002,6.9792768955,9.253280650000008,-3.036845684,-1.3123048245,9.326258182,11.002635005,6.2647946485,3.011030674
512,2.133248000000094,-28.345701220000002,6.9111478325,9.28218840000001,-0.518259108,-2.5655986669999997,8.243449924,9.880141734999999,-9.1785676455,-1.1483631135
513,2.137414499999977,-28.240032194999998,7.0020489695000006,9.243782049999993,-2.5908254385,-0.9616107045,9.788406850000001,11.791849135,11.24401188,1.1069065925
514,2.1415810000000874,-28.112005234999998,6.9472408295,9.281204250000002,-1.341619432,-0.07923892149999998,14.573612215,13.505544185,-8.251448395,0.5288956615
515,2.1457474999999704,-28.01883507,7.0750210285,9.241920449999995,-4.6062270405,-2.2711138725,8.816407204,10.3104887,15.20516491,3.0470063685
516,2.1499140000000807,-27.885566715,6.9649493695,9.3254089,3.0551561114999997,-0.7527937325,6.031355977,13.457468989999999,-16.677909375,2.2895036935
517,2.1540804999999636,-27.778497695,7.0534214975000005,9.294921849999994,-4.1879515645000005,-0.5566791,12.121296885,11.849838734999999,10.5712404225,1.69643116
518,2.158247000000074,-27.679533005,6.974713087,9.368507399999999,-0.19835248600000002,-1.7613039015,12.44555664,9.4849019055,-12.787834167,3.0679457185
519,2.162413499999957,-27.560975075,7.080529213,9.326881400000005,-4.639760256000001,-1.6915391085,11.934625145,13.395198345,13.03787899,1.441185236
520,2.1665800000000677,-27.4264431,7.0271134375,9.395530699999995,-0.1783270465,0.4627069535,13.55268526,13.82400608,-9.808819295500001,3.9878810645
521,2.17074649999995,-27.34695816,7.1028842925,9.379035949999988,-2.252844036,-2.4846270080000004,5.205890417,8.3433775905,8.489993335000001,2.34182024
522,2.1749130000000605,-27.232100485,7.013770103500001,9.45040130000001,0.856005974,-2.172156751,10.293300629,11.419752595,-13.74944353,2.3490181565
523,2.1790794999999434,-27.134728435,7.1005887985000005,9.427413950000002,-6.387309074499999,-0.49429141,15.43630314,10.58006382,10.009519576999999,2.280691981
524,2.183246000000054,-27.029927254999997,7.132291794,9.458343499999998,-0.6589921415,-0.9275638385,6.483732938499999,10.805635454,1.3606157449999998,4.7081148625
525,2.1874124999999367,-26.94312,7.1789734365,9.433776850000001,-2.06758064,-1.6581293345,8.7499828315,9.354050636,5.8453998565,-0.1818867065
526,2.191579000000047,-26.826719285,7.2107520105,9.460060150000004,-0.699113816,-1.2675099969999999,5.1151823995,12.26425123,1.6360070704999998,4.2078945635
527,2.19574549999993,-26.729792595,7.219423294,9.465278650000002,-0.9679523704999999,-0.6513047030000001,15.94345951,10.1161499025,0.165692085,0.936238736
528,2.1999120000000403,-26.62814045,7.3234324455,9.446350100000004,-4.315574646,-1.3508157135,9.137547013499999,11.174545765,11.81322527,3.2885102035
529,2.2040785000001506,-26.48182106,7.4074587825,9.434204100000002,-2.5629471539999997,-0.24792553499999997,9.933712007,16.318059445,9.2127065655,3.0686694384999997
530,2.2082450000000335,-26.302155495,7.538703203,9.424301149999991,-0.47611471299999997,-1.3257165555000001,10.646168231,20.409703255,14.28002167,5.6289360525
531,2.212411500000144,-26.129631045,7.599870920000001,9.428527799999998,-1.4256362915,-0.929480553,8.872883318,19.209375379999997,5.921398163,3.530718565
532,2.216578000000027,-25.964776039999997,7.704718828500001,9.441398649999996,-1.057066217,-1.5408442615000002,8.281694889,18.27121925,10.279676436999999,6.5914809705
533,2.220744500000137,-25.756283760000002,7.832514285999999,9.403572100000005,-4.5606300829999995,-0.6329718830000001,12.483499049999999,24.206429479999997,15.319680215,2.486336827
534,2.22491100000002,-25.542104725,7.978285074,9.39448544999999,-3.0983314515,-0.703511767,11.9973354335,24.54762554,15.883937360000001,6.284610987000001
535,2.2290775000001304,-25.353897095,8.186454773,9.340171850000004,-2.1475842595000003,-0.8101041765,3.5954014065,22.082671165,24.913393025,4.6922643185
536,2.2332440000000133,-25.152980805,8.268773078999999,9.326515200000003,-0.10057431449999998,-1.751565993,7.824188230999999,23.037903784999997,9.274957180000001,2.4389119150000003
537,2.2374105000001236,-24.89381027,8.5290637015,9.258399999999995,-5.395458698500001,-1.5442051294999999,12.325219156,30.873659135,31.294052125,5.702814579
538,2.2415770000000066,-24.649649619999998,8.7117772105,9.241111750000002,-1.091163754,0.054364428000000006,12.80351877,28.30263424,20.416334155,7.017718315
539,2.245743500000117,-24.416558265,8.982776642000001,9.155479450000001,-2.899890423,-2.449222684,5.3771774765,28.146234515,33.40606308,3.9987598660000003
540,2.24991,-24.141093255,9.1538906095,9.138504049999995,0.409627795,-1.5399334435,6.9001406455000005,32.070807455,19.19405365,6.300610542499999
541,2.25407650000011,-23.886939050000002,9.441500186999999,9.04784395,-3.1525137425,-1.165852368,11.017429831000001,30.877367975,35.567562105,3.8310135604999997
542,2.258242999999993,-23.592603680000003,9.648777008500002,9.01441955,-2.4955869315,-0.6252402365,8.929290533,34.67705345,24.00887489,6.090331792500001
543,2.2624095000001034,-23.2735281,9.991217137,8.908401499999997,-1.821309,-0.9117617309999999,6.511096716,39.07725334,42.34428406,4.460347651999999
544,2.2665759999999864,-22.9507885,10.1826767925,8.902336149999996,-1.018313825,-0.651436746,7.699562072500001,37.55031395,21.06136608,8.0511951445
545,2.2707425000000967,-22.604125975,10.450780865,8.84980010000001,0.10065095099999999,-1.6480594279999998,9.5189549945,41.363126754999996,31.745601655,6.297837973
546,2.2749089999999796,-22.21661282,10.6151309,8.881576550000005,-3.2855023145,0.3858896195,11.9983325,44.49749756,16.45153189,10.681337355
547,2.27907550000009,-21.828071594999997,10.903659820000001,8.851669299999998,-1.7547559145,-2.729259491,8.7839019285,45.943872455,33.134439465,9.194499493
548,2.283241999999973,-21.394838335,11.052921770000001,8.89451600000001,-0.8721716399999999,0.8612303735,13.373076915,49.705617905,14.4408679,10.981194975000001
549,2.2874085000000832,-20.97816753,11.28448343,8.898841849999997,-1.8718409535,-1.720140457,6.8872766495,48.562955855,25.462065695,9.936634063500001
550,2.291574999999966,-20.4851923,11.396920205,8.979789699999998,-0.5763921740000001,-1.3022281530000002,8.0681278685,55.94454956,8.8955552575,13.373167039999998
551,2.2957415000000765,-19.983498575,11.64852524,8.998832700000008,-3.0721000435,-0.046766876999999984,7.7849973415000004,58.415487285,27.291739465,11.953466415
552,2.2999079999999594,-19.425997735,11.765013695,9.095642100000006,-0.03976864199999999,-1.5268151165,11.199413536,63.24362946000001,8.97341728,15.10871601
553,2.30407450000007,-18.831894875,12.031845095000001,9.125732450000001,-5.6508791445,0.106859997,10.641715764999999,69.2265358,28.834385875000002,13.217792984999999
554,2.3082409999999527,-18.211247444999998,12.191755295,9.2361145,0.5385059640000001,-0.6561531425,8.274594544,70.402873995,13.7290153495,18.059441569999997
555,2.312407500000063,-17.532703400000003,12.434480189999999,9.299781799999991,-4.622362614,-0.7813413889999999,6.822715459,78.49610901,25.194111825,15.3398962
556,2.316573999999946,-16.833140375,12.588685035000001,9.414932249999993,2.343299031,-0.738379224,9.438442110499999,79.662693025,13.3421123015,18.036026955
557,2.3207405000000563,-16.09537649,12.77941942,9.489311200000003,-5.3170001505,-0.322349146,11.556478739,85.282066345,19.239765165,14.11642218
558,2.324906999999939,-15.354217055,12.950870515,9.620445250000003,0.2751407695,-2.23359102,9.2870762325,84.14106369000001,15.294567585,20.027700425
559,2.3290735000000495,-14.577164175,13.150514600000001,9.693633999999989,-4.656520128,-0.494517639,11.994178058,89.97477721999999,20.682385445,13.73351002
560,2.3332399999999325,-13.819378375,13.335155010000001,9.806434600000003,-0.523947209,-1.3594387175,10.387716295,86.537612915,17.89646196,17.894797325
561,2.337406500000043,-13.011592385,13.544361590000001,9.878280599999997,-5.545438051,-1.734794557,13.203769685000001,93.6483078,22.209288595,13.263750550000001
562,2.341572999999926,-12.23177147,13.779245855,9.9970474,-1.075244855,0.0026936529999999903,13.342892171,88.91918564,24.126632694999998,19.359516145
563,2.345739500000036,-11.427587509999999,13.97815752,10.056320150000005,-3.8525474070000003,-1.528058529,7.015581846,93.5113678,21.667056080000002,10.9496007
564,2.3499060000001464,-10.584115025,14.203874110000001,10.172759999999997,0.08507733,-2.186649203,9.878889324500001,96.523330685,23.64855957,18.160491945
565,2.3540725000000293,-9.738609314,14.433959005,10.245460500000007,-3.5898342135,0.2533549665,12.501875876,98.013191225,25.388279915,12.53185272
566,2.3582390000001396,-8.890822411,14.65771341,10.363052350000004,-1.4666877985,-2.1605661515000003,9.481524705,96.899909975,23.933555605000002,17.512482645
567,2.3624055000000226,-8.0015075205,14.898287775,10.447639449999997,-4.9295487399999995,-0.8813706935000001,13.411235805,102.83853535,26.802713395,13.316001895
568,2.366572000000133,-7.133034229,15.179157735,10.566459649999999,-0.473711759,-1.919692159,9.922013046,99.22352982000001,31.24507713,17.777183535
569,2.370738500000016,-6.3043472765,15.419972895,10.6420746,-3.7975690365,-1.9757788774999998,8.7903084745,95.75411606,27.35197544,11.466731075
570,2.374905000000126,-5.501773119,15.664443969999999,10.771774300000004,-1.761106789,-3.8993036749999996,9.429910183,90.846668245,27.28639984,17.621878619999997
571,2.379071500000009,-4.652124405,15.91904259,10.851951600000007,-2.5061633585,-0.5494253935,11.957873107000001,97.96973801,29.255034445,11.601447584999999
572,2.3832380000001194,-3.8452750445,16.214993954999997,10.962654149999992,-3.277900934,-1.9095057844999999,16.263100145000003,91.85344315,34.11911678,15.0511117
573,2.3874045000000024,-3.1002016064999998,16.517776490000003,11.042663599999997,-0.797906652,-2.8430190084999998,10.3344545355,85.33621216,35.351537705,11.069506165
574,2.3915710000001127,-2.3827524185,16.744822505000002,11.13813015000001,-1.226484984,-3.8015322685,6.702016470499999,81.52032470500001,26.338422775,11.95945454
575,2.3957374999999956,-1.6265330315,17.05661297,11.248191850000012,-4.4821097850000005,-1.2801882625,9.824691056999999,85.54774474999999,36.594459535,13.614789009999999
576,2.399904000000106,-0.8881943225,17.317051884999998,11.357620249999997,1.7704197764999998,-2.3107011914999998,8.596198084,83.42065811,30.6176157,12.917068485
577,2.404070499999989,-0.161924884,17.535629274999998,11.47953034999999,-1.6712488235,-1.8322996495,10.5442276,81.4166069,25.74600983,13.874093055
578,2.408237000000099,0.520880386,17.78278828,11.620704649999993,-1.7301885485000001,-0.253753975,16.86577892,75.49639893,29.358364105,15.74223089
579,2.412403499999982,1.220844269,18.10402298,11.759094199999993,-4.447301507000001,-2.5306360725,6.871921778000001,77.527362825,38.43038559,14.885813715000001
580,2.4165700000000925,1.8971061705,18.240507125,11.898635849999991,1.512051761,-2.28363204,10.058343410500001,74.626091005,16.45383358,15.149909019999999
581,2.4207364999999754,2.5920715335,18.46212959,12.037025450000002,-4.674998045000001,-2.0510928035,14.94004297,76.82144928,26.839692115,14.38618231
582,2.424903000000086,3.3093066215,18.650643345,12.192092900000006,0.3686743975,-0.5653019395000001,5.132829367499999,78.84203338500001,23.148355485,16.14183235
583,2.4290694999999687,3.9712767600000003,18.76559639,12.3340149,0.9792540670000001,-1.2584748270000001,9.073832034999999,72.62379074,14.439391615,14.897377015
584,2.433236000000079,4.652594328,18.970080375000002,12.47657774999999,-4.3138207195,-1.77369076,12.05076623,74.9281311,25.33477306,13.991304395
585,2.437402499999962,5.3628036975,19.100536345000002,12.664520249999995,-0.10694792850000001,-1.3954827189999999,8.790001153,76.52019118999999,17.106105805,19.54661655
586,2.4415690000000723,6.083901882,19.127033235,12.803215049999991,-0.35583029699999996,-2.623510003,11.55995369,79.782276155,4.3810714485,15.023195744999999
587,2.445735499999955,6.846546173,19.236776355,13.001617449999998,-3.9062595365,0.5413661375,15.150283335000001,82.355911255,15.269705770000002,20.540061
588,2.4499020000000655,7.557801962,19.272851945,13.165878300000003,2.0921170709999997,-1.1565965710000001,4.3541646005,77.53901672,6.2760024670000005,17.606227875000002
589,2.4540684999999485,8.302557468,19.198722834999998,13.328598,-1.1080197395,-1.8876954320000001,6.1599612235,81.60123825,-6.612092494500001,19.16660309
590,2.458235000000059,9.120676041,19.18998337,13.490829450000007,-3.062117219,-0.6807721999999999,14.09287214,90.469497685,1.3971194919999999,18.022476195000003
591,2.462401499999942,9.9506158825,19.10564232,13.6524048,0.65842754,0.366059929,11.375599861000001,91.89040756,-7.292852401499999,19.41648388
592,2.466568000000052,10.748919485,18.91497803,13.78050995000001,-0.7585000545,-2.1224913005,14.13189316,89.48706436,-20.246850969999997,18.099989895
593,2.470734499999935,11.597533705,18.844439505,13.950790400000002,-2.262831211,-1.337038696,7.220684528,93.888248445,-4.901028752,20.285769465
594,2.4749010000000453,12.45137978,18.591576575,14.053268400000007,2.3367839455,-0.988023937,8.737344981,97.19684601,-27.602669714999998,17.39580059
595,2.4790674999999283,13.305138589999999,18.33736801,14.170852699999998,-3.73193562,-0.900319904,13.6526556,96.65738678,-27.095976829999998,19.526016235
596,2.4832340000000386,14.17343855,18.078770640000002,14.270584099999994,-2.231277704,-1.2621201275,9.098368646499999,99.14774704,-27.794031144999998,18.10530281
597,2.487400500000149,15.048074245,17.78668785,14.355850249999989,0.3426672665,-2.0283604265,13.256454944,100.46640395,-31.801609040000002,17.935396195
598,2.491567000000032,15.89363861,17.4519577,14.399948100000003,-0.780089781,-1.691846967,14.42677927,98.55657196,-37.718955995,15.263564585000001
599,2.495733500000142,16.705542565000002,17.139833449999998,14.471992499999999,-2.7518179414999997,-0.9093528985,13.621460915,93.533229825,-33.969896315,18.11563015
600,2.499900000000025,17.528541565,16.810046194999998,14.513122550000006,0.11579543800000001,-2.600091338,5.3082795145,95.99633789,-36.78435898,15.84283018
601,2.5040665000001354,18.331921575000003,16.34530592,14.492782599999998,-1.1489382385,-2.5625981094999997,9.046221735,95.77931595000001,-54.116830825,14.625728605
602,2.5082330000000184,19.13277817,15.982840060000001,14.509010349999997,-1.9092794065,-1.2335753735,18.75002098,94.24520874,-40.942939755,15.42885542
603,2.5123995000001287,19.85552216,15.57486296,14.4757843,-2.7264972925,-1.9358183144999999,15.873797415,86.487766265,-47.76656914,12.39963865
604,2.5165660000000116,20.516524315,15.153356075,14.486953749999998,0.5327337535,-2.9958968165,11.153313635,77.640060425,-47.380046844999995,18.352571485
605,2.520732500000122,21.118157385,14.745713235,14.40430450000001,-4.295888543,-1.9034135935,17.011403084999998,73.45530700500001,-49.461408614999996,8.1181168555
606,2.524899000000005,21.701085095,14.356064795,14.416824299999988,-1.9948938489999999,-3.879421711,7.2295817755,68.23800278,-43.353507995,18.099730495
607,2.529065500000115,22.251452450000002,13.87250519,14.279769900000005,0.733350724,-2.2705138325,6.047518492,68.74963379,-60.111242295,6.6160452365
608,2.533231999999998,22.788069725,13.496075155,14.27342985,-6.1429035665,-1.2431979775,19.649546625,63.265136715,-42.361797335,16.30842209
609,2.5373985000001085,23.26694679,13.11536646,14.177680949999996,1.4240840074999999,-2.293675661,11.046150209499999,58.785167695,-46.752359389999995,7.259251118
610,2.5415649999999914,23.675151825,12.69872093,14.12180325,-5.1827003954999995,-3.0183262825000003,16.371234895,49.181488035,-48.81332016,13.61509466
611,2.545731500000102,24.018857005,12.389309404999999,14.063987699999998,0.818837166,-1.622291505,16.272183419999998,41.44785881,-37.029853825000004,8.505083083999999
612,2.5498979999999847,24.36050606,12.070508005,14.02210995,-6.231765747,-3.2548257704999997,1.6085882189999998,40.73685837,-37.26193428,10.878863809999999
613,2.554064500000095,24.640592575,11.672279355,13.943725599999993,3.6218274834999997,-1.460630804,15.729934695,34.248517989999996,-47.63445854,11.132674215
614,2.558230999999978,24.909493445,11.487998485,13.940391550000001,-10.75535393,-2.7322256565000003,12.466199396499999,31.054475785,-20.594006540000002,8.6070923805
615,2.5623975000000883,25.134284015,11.179639815,13.915428150000011,6.814911604,-1.9492923915,6.5362459995,26.230322835000003,-35.107580185,12.66332293
616,2.566563999999971,25.28376293,10.987181665000001,13.881675700000002,-10.990535735,-3.6843819620000002,21.218236925,17.444260595,-22.937812805,5.947328328999999
617,2.5707305000000815,25.415328979999998,10.8339371685,13.966461199999998,4.834042549,-0.636418661,9.656100990999999,12.55291462,-12.676747325000001,16.583291055
618,2.5748969999999645,25.493792534999997,10.647517204,13.904975899999997,-6.367369651500001,-3.3661477565,3.6763227880000002,9.478668213999999,-23.665515900000003,2.7595125434999996
619,2.579063500000075,25.609848975,10.502170561,14.012283299999993,0.375102438,-0.6398308500000001,21.1056695,10.294435979500001,-10.6096954355,18.638262745
620,2.583229999999958,25.64852715,10.48399496,14.024658200000005,-5.20132494,-1.890023291,11.0571115,3.0430287125,-1.6877604130000001,1.9425387975
621,2.587396500000068,25.667601585,10.261742115499999,14.110130299999994,1.5745968375000001,-1.3837218885,14.343747615,-0.8178182695,-20.00461483,20.343028065
622,2.591562999999951,25.675368305,10.3767695435,14.205497749999992,-8.513437032999999,-1.661052674,13.941522119999998,-2.420110464,16.965247155,3.859489679
623,2.5957295000000613,25.650274275,10.203231811,14.291885349999987,3.6663855315,-2.846513867,2.644888401,-6.1570880415,-14.689796925,17.894649505
624,2.5998959999999443,25.64299202,10.2238545415,14.347534199999998,-4.9644589425,-0.09197145699999998,12.1874964215,-3.3305104969999997,4.726768434,4.5625295635
625,2.6040625000000546,25.646068575,10.195058344500001,14.499229450000001,-0.7470429195,-0.6440558955,8.7175939085,-4.145626545,4.301348269,17.32893181
626,2.6082289999999375,25.623467445,10.181533335000001,14.513343849999998,0.977821574,-1.895692289,9.856857778,-4.325270891500001,-1.0941568764999998,1.893442631
627,2.612395500000048,25.641628265,10.108865262,14.627517699999999,-6.1880118845,0.5643711685,18.62599039,-1.46794571,-2.3606720269999997,15.638370515
628,2.6165619999999308,25.633350375,10.1421747215,14.67237089999999,1.757879436,-1.4910742045,5.799205663,-3.2697784905000002,5.543080449,2.7280887365
629,2.620728500000041,25.634593010000003,9.9871559145,14.722099350000008,-1.9960576890000001,-1.6979167464999998,6.4260950085,-2.1489388945,-14.56344414,13.04427719
630,2.624894999999924,25.696857455,10.030851362,14.795219399999993,-0.9359461665000001,0.9739055335,13.601290225,4.6515264515000005,8.11872077,5.2147192955
631,2.6290615000000344,25.77406406,9.9210214625,14.836326600000007,-2.652347207,-0.2396148815,11.665398361,7.137881994,-10.099451063,9.7847290015
632,2.6332280000001447,25.82509041,9.81519699,14.867866500000005,1.6736415625,-1.8799897429999999,14.6270256,4.171701193,-10.1596307755,8.5813708305
633,2.6373945000000276,25.896794315,9.754179954,14.91900634999999,-5.626069784,0.059630512999999996,11.173811913,6.321132183,-4.284646988,8.3343982695
634,2.641561000000138,25.97707367,9.664779187,14.9587097,2.6011311409999998,-1.760608435,5.3769026695,7.5071873665,-7.944883107000001,8.601286888
635,2.645727500000021,26.085144995,9.438179968,14.909652699999995,-2.2101252675,0.474875763,10.727055074999999,12.698331835,-27.31406975,6.4158074855
636,2.649894000000131,26.232963565,9.3448882095,14.94206235,-2.5091403725,-0.6550286559999999,9.5379984395,15.809212685,-8.7083425525,8.0752358435
637,2.654060500000014,26.387702945,9.188991548,14.894035349999996,-2.051381767,-1.0050594805,10.89978838,18.24352646,-19.6245451,2.8889608385
638,2.6582270000001245,26.520002365,9.004015922999999,14.872894300000013,0.333423588,-1.5358107685000002,12.1422562615,14.962282179999999,-21.340052605,7.334615230500001
639,2.6623935000000074,26.62844372,8.8124682905,14.787277200000005,-1.709353238,-1.1286377980000002,14.481711865000001,13.3717165,-25.429638865,0.90942131
640,2.6665600000001177,26.795889855,8.701001883,14.781928999999991,-5.641786814,-0.057356238000000004,11.542542935,18.892083165000003,-12.584331035,5.1401009559999995
641,2.6707265000000007,26.94663143,8.463732481000001,14.703773499999997,1.9253159759999998,-0.8993720114999999,8.489709856,18.22397423,-29.92427635,4.287226081
642,2.674893000000111,27.072411535,8.2987065315,14.652542150000002,-2.4173837899999997,-2.554940343,6.9066679475,14.68646765,-20.75530338,3.270478487
643,2.679059499999994,27.230772975,8.081331729999999,14.583145149999993,-0.15470024950000005,0.5940027385000001,14.13295603,18.960621835,-27.30378914,4.273662448
644,2.6832260000001042,27.405885695000002,7.9765229225,14.55981444999999,-6.604282855999999,-1.4971019625000002,16.81165695,20.105532645,-12.799209115,3.0022586584999997
645,2.687392499999987,27.552666665,7.7949767114999995,14.53171540000001,2.6849383115,-0.9614049849999999,10.242321252,16.812234875,-21.20427322,6.7751748565
646,2.6915590000000975,27.67964077,7.633620977,14.431404099999995,-3.4917627575,-2.1825872659999996,9.635116818,15.56108046,-23.037278174999997,-1.8951855895
647,2.6957254999999805,27.810227395,7.4354856015,14.408576950000011,-0.699257672,-0.16978052249999998,16.230585575,14.805001735000001,-22.63946533,8.367062807
648,2.6998920000000908,27.934580805,7.368382930999999,14.358795200000003,-5.991256237,-1.5078961549999998,8.134229659999999,14.38591194,-10.240669726,-1.7820147275
649,2.7040584999999737,28.02827835,7.1919093135,14.334075949999999,3.794998288,-1.684469074,6.6119897365,10.380308150000001,-20.41686535,7.032500267
650,2.708225000000084,28.07959938,7.073237181,14.24098205,-4.669220209,-1.959301889,14.050546645,6.2393479345,-18.131772995,-3.392081499
651,2.712391499999967,28.12049389,6.9517951015,14.255073550000006,0.05756834499999999,-1.2821897715000001,16.68008804,3.4924249649999997,-12.399379255,8.0486466885
652,2.7165580000000773,28.172600745,6.956016302,14.206741300000004,-7.413842201,-0.45159119350000004,14.13327694,5.653772115500001,-2.6204066275,-5.619513273
653,2.7207244999999602,28.203725815,6.8175520894999995,14.225692750000007,2.9712635275,-0.11295302599999998,12.5355842105,2.2187057135,-13.917550084999998,9.526910304000001
654,2.7248910000000706,28.16784477,6.7963418959999995,14.1606369,-3.7943201065,-3.6461465355,10.876832485000001,-4.668117285,-6.256032943499999,-5.929528713
655,2.7290574999999535,28.164922715,6.7019846439999995,14.214920050000003,-1.598151088,0.388766155,14.93872881,-2.314874053,-7.265260935000001,10.75093603
656,2.733224000000064,28.123139379999998,6.734857321,14.211738549999993,-3.932049513,-1.316217095,11.5614318865,-6.2781519889999995,2.9472765924999997,-2.504944444
657,2.7373904999999468,28.05200291,6.615657091,14.244201700000005,3.1199879645,-3.603084445,2.9117665295000004,-10.214510918999999,-11.135880948,9.843604086
658,2.741557000000057,27.985563274999997,6.596240282,14.197578449999995,-2.5733054280000003,-0.06146316199999999,8.438882589,-8.624928235999999,-5.0193274025,-4.1142612695
659,2.74572349999994,27.94210243,6.5125193595,14.232727050000008,-4.724190950500001,0.6601099075,20.315033915,-6.8832383155,-7.245179891499999,8.121046543
660,2.7498900000000503,27.87083149,6.5717375275,14.251785249999998,-0.9256443344999999,-2.0748190285,10.5449194925,-10.140594006,6.9907855990000005,-1.6336954234999999
661,2.7540564999999333,27.80097866,6.438466549,14.225387549999994,-0.48981414700000003,-1.337230742,5.6093848945,-9.220947265500001,-15.951241969999998,4.386983037
662,2.7582230000000436,27.7197094,6.427809,14.228981050000002,-0.5834706575,0.038315594,15.224461080000001,-11.095325944999999,-1.281902909,0.675556332
663,2.7623894999999266,27.632232665,6.374912977,14.233757049999994,-4.5473182205,-1.419619799,12.89729595,-11.747662545,-5.6960554125,3.1573644874999998
664,2.766556000000037,27.566663740000003,6.399230957,14.26212310000001,0.783950806,-1.0088362545,5.3287609815,-9.560418129,3.802939653,1.3378765585
665,2.770722500000147,27.47097492,6.245852232,14.208847050000003,-2.4641634825,-0.9875999984999999,12.807374,-11.98313189,-19.600169185,2.5666178465
666,2.77488900000003,27.36172104,6.210136652,14.208503700000009,1.4713240865000001,-1.74318409,10.443113803,-14.408886435,-4.173846602499999,1.6340283155000002
667,2.7790555000001405,27.27783394,6.119098902,14.168052700000004,-7.017820835,-0.002162292499999996,14.30936432,-10.72180128,-12.259616375,0.4368252305
668,2.7832220000000234,27.18189049,6.0907027725,14.196495049999996,0.166542411,-0.9700867835,15.2311492,-13.183993815000001,-1.8276270625,4.2702519895
669,2.7873885000001337,27.058623315,6.033632754999999,14.154640199999989,-3.380239844,-1.445272863,8.3298647405,-15.461709500000001,-8.7130229475,-1.6225405335
670,2.7915550000000167,26.931315425,5.9687788484999995,14.143005399999993,3.354729414,-0.8429277835,7.6303424835,-16.439296725,-7.915979147,1.9880366325
671,2.795721500000127,26.799199105,5.8579216,14.065834049999992,-5.1451835635,-0.46345821,15.38309765,-16.079869745,-16.370399475,-2.4989773035
672,2.79988800000001,26.668371200000003,5.834919214499999,14.08592225000001,0.281941958,-0.4394969715,12.033349515000001,-17.248603825,-1.7369017005000003,3.079894781
673,2.8040545000001202,26.56027603,5.7792322635,14.01322175,-7.176770686999999,0.18565708399999997,12.747626305,-13.260890005,-10.203880788,-5.055175781
674,2.808221000000003,26.411690710000002,5.696472645,14.025405849999999,2.136990011,-1.202296346,11.037658691499999,-19.299346925000002,-8.591491462,5.4163241385
675,2.8123875000001135,26.225982665,5.654484033499999,13.939826949999997,-2.620319128,-2.9352123735,4.153959155,-22.45884323,-9.388788223,-7.2203116415
676,2.8165539999999964,26.05180168,5.5604467395,13.928672750000004,1.890347302,-0.216625765,7.4993319515,-22.073859215,-11.068313595,3.4712046384999997
677,2.8207205000001068,25.88484669,5.496069908,13.836051949999998,-5.1774654385000005,-0.247753158,15.41687679,-20.13702488,-12.13035774,-6.852310419
678,2.8248869999999897,25.708566665,5.480046511,13.860710150000003,-0.6514514385,-0.56214194,13.95067072,-22.743130684999997,-0.8021356315,3.1809304955
679,2.8290535000001,25.577432635,5.498361588,13.796073950000007,-6.8714675905,0.6872907429999999,12.74349928,-16.16565895,-1.7029242905000002,-8.199578762
680,2.833219999999983,25.45732975,5.4714193345,13.827476500000003,-0.670746699,0.051261961500000064,11.9445266705,-16.08633184,-1.6542061865,4.467175245
681,2.8373865000000933,25.32884884,5.525222778,13.7740936,-2.683404684,0.1213549075,8.891616106,-15.993480680000001,2.752583146,-8.8247337345
682,2.8415529999999762,25.231700895000003,5.5694720745,13.835060100000007,-0.7554240784999999,-1.579009816,6.06635952,-13.666592600000001,7.55821085,4.00825727
683,2.8457195000000866,25.165659905,5.602493047499999,13.78291320000001,-0.9879856555,0.015314936500000043,11.250832554999999,-8.501122951500001,0.5881221590000001,-7.6143572335
684,2.8498859999999695,25.09130955,5.646089077,13.835105900000002,-1.5696875449999999,-0.8297520135,13.384663105000001,-10.837928770000001,7.0298082824999995,3.113698721
685,2.85405250000008,25.027821539999998,5.733520031,13.820381150000003,-2.945557356,0.8116517514999999,12.98430729,-8.6227457525,8.41273427,-6.3263652325
686,2.8582189999999628,25.000409124999997,5.8113355635,13.890785199999996,-5.3970441815,-0.7897265254999999,8.9923758505,-5.4267480375,11.66316271,3.3651220795
687,2.862385500000073,24.971411705,5.876831293,13.8657379,0.705730796,-0.181076601,12.850220685,-4.366536379,5.511787176,-6.323451519000001
688,2.866551999999956,24.932665825,5.9864239695,13.93553159999999,-4.949494481,-0.8528042435000001,7.109635115,-6.8110437395000005,15.083227635,1.694804698
689,2.8707185000000663,24.895807265000002,6.034480095,13.924484250000006,4.182896614,-0.45824110500000004,6.303383112,-5.4830346105,4.325258255,-3.9189140795
690,2.8748849999999493,24.864886285,6.089859962,13.92277525,-4.5533056255,-1.3342892825,12.089098454999998,-4.9819048645,5.589986801,-3.286767602
691,2.8790515000000596,24.82866001,6.1732583045,13.95330045,2.113419056,-0.1908691225,13.377420425,-5.928453445500001,10.261819363,-1.193866849
692,2.8832179999999425,24.81448269,6.2367093565000005,13.93892670000001,-7.4464330675,-0.14889931699999992,14.24890566,-2.7928358314999997,5.8388043645,-5.0492966175
693,2.887384500000053,24.78877449,6.305912494499999,13.983909600000004,1.3532744645,0.18515653950000002,14.780597685,-4.869817019,9.438974382,1.092587985
694,2.891550999999936,24.765172954999997,6.4108057025,13.951095550000005,-5.849332094,-1.126204103,7.0684399605,-3.6902500390000004,9.4358181955,-9.132635593500002
695,2.895717500000046,24.747689245,6.4123709205,13.992217999999994,2.1386620405,-0.6119399445,9.638672588,-3.839131713,1.874289632,4.0829793215
696,2.899883999999929,24.705430030000002,6.471292734,13.910301199999992,-0.8866175410000001,-1.1715556385,8.8672816755,-5.2770330905,1.9844763275,-12.13812828
697,2.9040505000000394,24.675610544999998,6.477161646,13.943786650000007,-1.4426315425,-1.09023577,11.8076195695,-5.1983833315,1.9581122105,3.0480360985
698,2.9082170000001497,24.64491653,6.492050648,13.855087299999994,-1.687045932,0.390916504,17.022938725,-3.7880829575000003,-3.1383520365,-10.659843445
699,2.9123835000000327,24.61178398,6.5441281794999995,13.906990050000005,-3.8906890154999996,0.16891958799999998,12.32697344,-5.8546075825,7.907485723499999,2.7297221425
700,2.916550000000143,24.565984725,6.5649917124999995,13.8286667,-0.5762423125,-0.882891238,9.225802183,-5.7381396295,-1.9583237175,-9.839017867999999
701,2.920716500000026,24.51035881,6.534476995,13.844596849999988,-2.039013863,-0.486148432,11.160341742,-8.077307700999999,-2.8952670695,2.951182604
702,2.9248830000001362,24.427435875,6.536736250000001,13.767417899999998,0.032652992,-2.2943635585,3.7891335484999997,-10.203369615,-3.9134594199999997,-8.7894763945
703,2.929049500000019,24.373518945,6.4469754695,13.733024600000007,-1.583818555,-0.41074232050000004,13.165872095000001,-7.168266773499999,-11.853533745,0.430697009
704,2.9332160000001295,24.29362297,6.4565417765,13.669990499999997,-2.5148113965,-0.712868154,14.504363535,-10.043311118999998,-2.4007648230000003,-7.6231234075
705,2.9373825000000124,24.239528659999998,6.402992487,13.662948600000007,-2.1016023755,-0.5742529949999999,10.4237113015,-7.566996812499999,-6.553620577,1.5865460040000001
706,2.9415490000001228,24.15159035,6.393008709,13.581436150000002,-1.336391181,-0.017483879,17.052794454999997,-10.780712605,-5.427144527499999,-8.682573318500001
707,2.9457155000000057,24.02465248,6.3520288465,13.591140700000011,-1.5146694185,-1.3972754479999998,9.5685238835,-16.542214395,-4.3681246045,2.769898176
708,2.949882000000116,23.89959812,6.338251114,13.51026155000001,-0.25336880949999996,-1.203542948,7.942329406500001,-15.242547989999998,-5.778342246999999,-8.446193218000001
709,2.954048499999999,23.76450157,6.2582583425,13.494873049999995,-3.2950338125,-0.8222346605,13.50274229,-17.1731987,-9.873639109,1.910797119
710,2.9582150000001093,23.6139164,6.251144171,13.420570399999988,-1.7681621905,-0.7295574545000001,12.17359686,-18.40516567,-4.6926574709999995,-8.0752108095
711,2.9623814999999922,23.481200219999998,6.2408330445,13.43800354999999,-7.034444809,-0.5896287265,9.1736769675,-17.31380463,-0.6559742239999999,2.1148911115
712,2.9665480000001025,23.315886495,6.225764513,13.369499250000004,2.1611519455,0.010508417999999992,13.66331387,-20.268654825,-5.253853320999999,-7.090868711500001
713,2.9707144999999855,23.111936569999997,6.2337095735000005,13.379905699999995,-5.3822126385,-1.2977958325,9.711847781,-25.78095436,1.011596398,0.4732808535
714,2.974881000000096,22.88753891,6.256868601,13.342498750000004,4.198837757,-0.6776878535000002,5.4653868674999995,-27.761404990000003,0.465775974,-5.500750065
715,2.9790474999999788,22.683337215,6.274595499,13.2986145,-6.9725363255,-0.3770100175,13.089065075,-25.084337235,-0.41908770799999995,-5.9316649439999996
716,2.983214000000089,22.467086795,6.3412554265,13.313163750000001,1.00861004,0.3612161875,13.823238374999999,-27.455514905,7.7034292225000005,-1.7731147409999999
717,2.987380499999972,22.269682885,6.4458398814999995,13.285751349999998,-7.210719824,-0.6771364584999999,10.3848888895,-24.48446083,10.007040502999999,-8.0853178505
718,2.9915470000000823,22.119761465000003,6.5241763595,13.309066799999997,0.013193518000000015,0.1820325935,8.9314005385,-19.625814435,9.4036169055,-1.285578966
719,2.9957134999999653,21.952425955,6.5566465855,13.256263750000002,-2.5943906305,1.0478473309999998,13.56512642,-20.538144109999998,0.8948657215,-7.5860435965
720,2.9998800000000756,21.745289800000002,6.6204943655,13.268302950000006,1.633102417,-0.661137149,12.162199976499998,-26.342678069999998,7.294970989,-1.829696357
721,3.0040464999999585,21.534832,6.7074604035,13.224830650000001,-3.5555250645,-0.7597952185,6.544475317,-25.808607105,7.435401678,-8.945656299500001
722,3.008213000000069,21.375069619999998,6.7818517685,13.251312249999998,-1.817445099,0.499918714,12.33569813,-20.84884453,9.1122429355,-0.630533129
723,3.012379499999952,21.2056694,6.882107496,13.200744600000007,-3.6238874195,-0.385378983,11.27104044,-20.779610635,8.6666707995,-10.268060685
724,3.016546000000062,21.07086563,6.934818268,13.232963550000008,0.20757605150000003,0.8560631575,7.8492290985,-17.96599102,6.9326045515,0.9851046205
725,3.020712499999945,20.912374495,7.012891530999999,13.180526749999999,-2.4217134715,-0.29325497899999997,10.8949799555,-19.4319067,6.1538028715,-9.475304604
726,3.0248790000000554,20.778165819999998,7.042026997000001,13.204429649999994,-0.64072752,-0.5249583275,7.178606987,-17.762482645,3.9303195475,1.1129835845
727,3.0290454999999383,20.655762675,7.0932605265,13.165382350000002,-2.782019377,1.0018963815,14.618427754999999,-15.282123565,3.750847459,-6.8039369579999995
728,3.0332120000000486,20.522283555,7.145647287499999,13.195747400000002,-1.2350685,-0.127274182,12.63632059,-17.778723720000002,6.8045446875,0.8652554450000001
729,3.0373784999999316,20.422332765,7.2095062735,13.180496199999993,-1.7330954075,0.014649536500000004,8.04624629,-12.949420455,6.188913106999999,-4.6710000035
730,3.041545000000042,20.337807655,7.1948366165,13.190940850000004,-1.096709162,0.1174447965,9.785787582,-11.613226415,-1.5675913989999999,1.4717300535
731,3.045711499999925,20.260334970000002,7.181730032000001,13.147026049999994,-1.6516078115,0.1465137715,9.474147083,-9.815649985,-3.6441565750000002,-4.6432909965
732,3.049878000000035,20.19394493,7.145635605000001,13.165824900000004,-0.7889469565,0.36938583849999995,14.350383285,-9.560827253,-3.640032649,3.291192174
733,3.0540445000001455,20.092814445000002,7.1679451465,13.13525390000001,-2.1364799740000002,0.8827191889999999,9.960390805,-12.860935685000001,0.9057385845000001,-4.623229503499999
734,3.0582110000000284,20.039201735,7.1677327155,13.167976350000004,-2.9726010560000002,-1.171042681,5.08382535,-8.2312111855,0.9602136165,3.3578597305
735,3.0623775000001388,20.01916981,7.122848749,13.127380400000007,-0.051065683499999986,-0.023592173999999966,10.066506388,-2.9917300940000002,-7.069978237000001,-2.9841610195
736,3.0665440000000217,20.01899147,7.0945570465,13.125930749999995,-3.6214106084999997,1.6362235845,13.85073757,-1.3057368390000001,-3.6015793085,0.6900987625
737,3.070710500000132,19.965979575,7.0660011765,13.119667050000004,-0.223358212,0.2723904105,11.880386829999999,-7.458878279,-3.8295843605,0.185837701
738,3.074877000000015,19.91285896,7.061314106,13.107963549999994,-2.4423471685,-0.8997777105,7.5306377410000005,-7.5065398215000005,-1.355857581,-1.4248880145
739,3.0790435000001253,19.942895890000003,7.055281877500001,13.10378265,-2.1689709424999997,-0.08959814900000002,8.005173445,2.4792017935,-1.205546886,-0.5073795915
740,3.083210000000008,19.994019505,7.043745279,13.112564050000003,-2.407431245,1.1121254564999998,15.596633435000001,4.693424106,-1.2945689855,1.1474280060000002
741,3.0873765000001185,20.00252342,7.030555725,13.09379580000001,-1.3789076505,1.6547124385,13.392698764999999,0.1042817829999999,-2.607913375,-1.849386334
742,3.0915430000000015,19.99601555,6.9964509015,13.104904199999993,-2.433933854,-1.1326830985,7.274490595,-2.2541166539999997,-3.7448775764999995,2.3326499465
743,3.095709500000112,20.007602695,6.9818007945,13.097122199999987,1.2119615075,-0.7542381135,7.1189413075,0.306019641,-2.323672175,-0.558243111
744,3.0998759999999947,20.049280165,6.9609186649999995,13.078262300000006,-4.019280076,0.05210232749999999,9.7915339465,3.9767509700000003,-3.4754416939999997,-1.5554756525
745,3.104042500000105,20.08586502,6.958689928,13.101150499999989,-2.0861161945,0.3921506025,13.35766411,2.8681157830000004,0.32816317650000004,2.3649497029999997
746,3.108208999999988,20.110507965,6.973158121,13.06713099999999,-3.2013339995,0.958232969,13.24612141,2.1419713495,-0.11293312900000002,-4.709029913
747,3.1123755000000983,20.15049553,6.9860317705,13.103156999999996,-3.0509907605,0.698473215,9.87111163,3.0781137945,2.5689924360000003,3.2037130595
748,3.1165419999999813,20.17115879,7.025798321,13.0950165,-0.5192683485,-0.9459309575,6.555577755,1.2777277825,3.7955049274999997,-2.8662457464999997
749,3.1207085000000916,20.19707966,7.030615568,13.094917299999992,-1.7604493495,-0.5980208364999999,5.4425837994999995,1.925857425,0.180036068,-0.49636542799999994
750,3.1248749999999745,20.241405485,7.021565914,13.090759250000005,-0.7785245555,-0.02417100949999998,11.6265955,4.067527771,-1.5407218335000001,-0.397059085
751,3.129041500000085,20.272243500000002,7.0621180535,13.097930899999994,-1.9099323155,1.0320612789999999,15.24641037,2.4012446105,4.5040709975,-1.1735289695
752,3.133207999999968,20.304964065,7.112745285000001,13.122108449999999,-4.2356750965,0.8625616135,13.64453602,2.2617500425,6.345158815,0.287110001
753,3.137374500000078,20.343520165,7.163365364,13.15769195,-3.256592393,-0.9609577654999999,6.4093527795,2.9032521245,6.810038566499999,1.5759865044999999
754,3.141540999999961,20.41093445,7.1864066125,13.15767670000001,-0.3941352665,-0.267455864,8.745252369500001,6.772058487,2.2398881015,-1.276280582
755,3.1457075000000714,20.444393159999997,7.208201884999999,13.1856918,-1.0073450505,0.758308798,12.823957445000001,2.3922925295,3.256325126,1.922092199
756,3.1498739999999543,20.420334815,7.269625664,13.199089049999998,-0.7043218875,-0.8648353665,7.4275755885,-4.3999627825,7.114047527,-1.3861401675
757,3.1540405000000646,20.439619065000002,7.2984604834999995,13.206634499999993,-3.0673015115,-0.894249007,9.067562103499998,1.0125178995,3.1973609925,-0.6508192715000001
758,3.1582069999999476,20.500622749999998,7.3373265265,13.224533049999991,-3.360256314,1.1790813205,15.399904255,5.7373197075,4.7640044685,0.059303347500000006
759,3.162373500000058,20.502254485,7.3925435545,13.242881799999992,-2.534719944,1.2323472205,14.393198015,-1.2834142445,6.6115529535,-0.5654150845
760,3.166539999999941,20.48081684,7.4516153335,13.255462649999998,-2.019876599,-1.6128168105,4.721639633,-4.0799957515,6.8121635915,-1.3902830485000002
761,3.170706500000051,20.49445152,7.4549884795,13.258972200000002,-0.2171173915,-0.5484442415,5.3317505125,0.3802560865,0.166761475,-0.036519468
762,3.174872999999934,20.5013504,7.4746518135,13.24926760000001,-0.4667033775,0.544915214,13.47645092,-0.3367310765,1.4552342595,-2.216233313
763,3.1790395000000444,20.46442509,7.457900524,13.250427250000001,-1.5902183055,0.32199019949999996,10.64025736,-5.6481184955,-2.1926938295,0.541869178
