,time,Euler_X,Euler_Y,Euler_Z,Acc_X,Acc_Y,Acc_Z,Gyr_X,Gyr_Y,Gyr_Z
0,0.0,-27.463168144999997,12.782582285,-149.08760835,-2.0758861305,-0.014585293499999999,9.3363256465,-7.087849139999999,-2.0090651215,1.6221815345000001
1,0.0041664999999966,-27.517445565,12.77432823,-149.05267335000002,-1.3074614405,-0.2671667975,10.9408826835,-8.661755085,-2.9717062115,2.7384500505
2,0.00833300000010695,-27.58777046,12.75834322,-149.01321415,-2.4714850185,-0.7041895535,9.709384919000001,-10.696654795,-4.009531498,2.718266368
3,0.01249950000010355,-27.641533855,12.74033737,-148.97264095,-1.5689877865000001,0.012686773999999984,12.058812145,-8.7412371635,-4.338686704500001,2.7929314975
4,0.0166660000001002,-27.695755005000002,12.72856283,-148.9284592,-1.9398430585000002,-0.39919228100000004,7.7243375775,-8.917551994,-3.823366612,3.45443213
5,0.0208325000000968,-27.756574635,12.706692695000001,-148.8874817,-1.746433474,-0.697600231,10.587076665,-9.596457006,-4.764030449000001,2.5815114975
6,0.02499900000009345,-27.821058275,12.69152689,-148.84238435,-2.5392889679999997,-0.433356494,10.7796578385,-10.185367585,-4.2382212655,3.3531917335
7,0.0291655000000901,-27.88365078,12.671570299999999,-148.8069687,-1.7669104729999998,0.055614219000000006,11.472317220499999,-9.6741847985,-4.264866561,2.1123101115000003
8,0.0333320000000867,-27.942528725000003,12.654159544999999,-148.759346,-2.2442760765,-0.5877921580000001,9.825835226999999,-9.584649087999999,-4.6209816485,3.480200052
9,0.03749850000008335,-28.006653784999997,12.65538311,-148.73440549999998,-1.4550748470000001,-0.7986162004999999,8.824217318,-9.536584854,-1.4316374955,2.1489515900000002
10,0.04166500000008,-28.082414625,12.616267685,-148.69080350000002,-1.624925094,-0.11577213550000001,10.624422549,-11.526810170000001,-6.709386706,1.8416700365
11,0.0458315000000766,-28.143167495,12.627145765,-148.67905424999998,-3.0578864809999997,-0.12636352350000002,12.731824395,-8.9081516245,0.29256582249999985,1.458442509
12,0.04999800000007325,-28.212026594999998,12.591437814999999,-148.63793945,-1.266393721,-0.8155570329999999,9.183310509,-10.498873715,-6.2272443795,1.6700419185
13,0.05416450000006985,-28.255839345,12.607862,-148.62329864999998,-2.3185827435,-0.001365522000000001,11.7896957395,-7.006550312,0.7129721599999996,2.1189698574999998
14,0.0583310000000665,-28.332992555,12.584125045,-148.59968565,-1.1162717345000002,-0.710098982,7.1676807395,-11.01375866,-3.9918026909999993,0.5068159995
15,0.06249750000006315,-28.383643149999997,12.55344534,-148.57068635000002,-3.2002192139999996,0.5691796840000001,14.8560097205,-8.1774287205,-5.072453378,0.90286985
16,0.06666400000005974,-28.45465755,12.5576272,-148.56671145,-1.7257093190000001,-1.145870231,8.6371307385,-9.8441720025,0.0518307684999999,0.1319518085
17,0.0708305000000564,-28.494791030000002,12.522370815,-148.53627775,-1.6701606510000002,-0.24942368249999997,11.4391810905,-6.8634312155,-5.663007498,0.7371714115
18,0.07499700000005305,-28.540610309999998,12.522924425,-148.52404785,-2.1012437645000004,-0.09031009700000003,10.5037639145,-7.120636225,-0.7826173304999999,0.8226267994999998
19,0.07916350000004965,-28.584140775,12.493308540000001,-148.51119235,-1.7835689785,-0.37064754050000004,8.442830801,-6.737153053,-4.099417924999999,-0.796826959
20,0.0833300000000463,-28.62318802,12.447046755,-148.47579960000002,-1.7014576495,-0.198623985,11.9463949215,-6.922216892,-7.028215644500001,0.5410303175
21,0.0874965000000429,-28.65844822,12.46718216,-148.49252315,-3.1630157235,0.11663183599999999,11.159651996000001,-5.026159167,2.8089852334999996,-0.9570951164999999
22,0.09166300000003955,-28.682634354999998,12.405100820000001,-148.4394226,-0.3980591595,-0.6841235905,9.8304586425,-5.514124751,-9.7001829125,1.3911670745
23,0.0958295000000362,-28.69124508,12.425866605,-148.4548111,-4.137076616,0.5826407745,12.043346405,-1.9689469929999999,2.8083833455000002,-0.7216618659999999
24,0.0999960000000328,-28.70819664,12.385507579999999,-148.42010495,0.42982026949999996,-1.807350695,5.549721956,-4.102652073,-6.3862835780000005,0.7155018005
25,0.10416250000002945,-28.70141888,12.371741295,-148.41669465,-4.3209620715,0.6663419749999999,14.505838393,-0.6391008495,-1.8706603040000003,-0.7836483715
26,0.1083290000000261,-28.712319375,12.38983774,-148.41422275,-0.770777941,-0.5829029455,10.227374078499999,-2.564170837,1.5864946839999998,0.772647023
27,0.1124955000000227,-28.70463848,12.34283972,-148.3931961,-2.9991337784999996,-0.503423631,11.018244027,-0.9107973874999999,-6.355384946,-0.9430201355000001
28,0.11666200000001935,-28.69182396,12.38152504,-148.39390565,-1.7577952744999998,-0.9064237175000001,9.4790227435,0.286777198,3.936594829,1.6717451214999999
29,0.12082850000001595,-28.682673455,12.365298750000001,-148.39627074999999,-1.361791283,-0.06413065999999999,8.1727170945,-0.06030851650000002,-1.8253741265000003,-1.5808528659999999
30,0.1249950000000126,-28.672703740000003,12.35108614,-148.36808015,-2.3888075355,-0.6094397305,13.507195474,-0.820962131,-3.2560570259999997,1.6039956215
31,0.12916150000000926,-28.656088824999998,12.381442545,-148.3976212,-2.539576292,-0.0580923555,11.0457623015,1.491177499,4.572333813,-1.6143434645
32,0.1333280000000059,-28.639001845000003,12.33997011,-148.35231015,-1.2037115689999998,-1.5210425855,8.6751964095,-0.340150692,-7.1014003755,1.780452028
33,0.1374945000000025,-28.605821605,12.391141415,-148.37259675,-2.866995573,0.6133363995,11.63472557,3.1495073435,6.2520316855,0.566074669
34,0.14166099999999915,-28.604113580000003,12.36674118,-148.3548508,-0.746992871,-1.408553183,6.735752344,-1.4163072405,-3.7563416970000003,-0.10460850599999999
35,0.14582749999999575,-28.574894905,12.352846145,-148.33438869999998,-2.502590418,-0.30759190049999996,14.441155431999999,1.6039057075,-2.8838307875,1.0258693995
36,0.1499940000001061,-28.58040714,12.39403057,-148.3618698,-3.037179589,-1.0874361095,10.006718399,-1.1439060570000001,5.6905035085,-0.9791297575000001
37,0.1541605000001027,-28.5583601,12.367482185,-148.31665800000002,-0.38535265650000006,-0.204969648,9.3104155055,0.17956852899999998,-5.6219210625,2.831916213
38,0.15832700000009936,-28.559393885,12.394207475,-148.3394165,-4.570146084,-1.0917728845,12.137479785,-0.8066115825,3.912965566,-1.2948700785
39,0.162493500000096,-28.548626894999998,12.415057659999999,-148.31632995,0.5700054170000001,-1.0582046809999999,6.348659277,-0.546422109,0.6266908645,3.2169110775
40,0.1666600000000926,-28.560082434999998,12.380051139999999,-148.31021885,-3.367288828,-0.317856878,12.1620590685,-2.7997959855000003,-4.2139907185,-1.8623150590000002
41,0.17082650000008925,-28.57208729,12.44967556,-148.31214905000002,-1.945977297,-1.1310636994999999,12.552948475,-2.7207120065,7.132507801,3.5496786835
42,0.17499300000008586,-28.59985828,12.424019335,-148.30847165,-1.8671320975,-0.5735095445,7.571576595,-4.6310603614999994,-3.0954547525000002,-1.6179936525
43,0.1791595000000825,-28.61308098,12.4552989,-148.2870865,-2.583303571,-1.0556390585,11.65428877,-3.4975533485,1.7692906855000001,3.7932058575
44,0.18332600000007915,-28.641804695,12.50187302,-148.31612395000002,-1.5760543455,-0.2761578485,8.423106193999999,-3.9122093915000002,6.3592148425,-0.838264197
45,0.18749250000007575,-28.68367672,12.467276095,-148.2711563,-1.069099568,-1.8927592635,9.4734034545,-7.357696295,-6.376082182,2.1414977315
46,0.1916590000000724,-28.71846485,12.52100706,-148.30371094999998,-3.485193491,0.573137317,13.58273935,-4.7519598005,7.2092224335,-0.506611079
47,0.19582550000006904,-28.77006531,12.542015075,-148.29732515,-1.447472334,-2.0166165229999997,7.6296498795000005,-7.612942219,1.5049258470000002,1.608574119
48,0.19999200000006565,-28.806200025000003,12.534991739999999,-148.28399655,-1.737802088,0.16347286449999998,11.4627518635,-5.9877314565,-1.65466702,0.48281550399999984
49,0.2041585000000623,-28.865245815,12.599868295,-148.3009567,-2.6246917845,-1.4297516945,9.1807320125,-7.909812212,7.466018914000001,1.7151997685
50,0.2083250000000589,-28.909815785,12.5917511,-148.2925186,-0.06630903500000002,-0.2409623565,8.5454068185,-6.811434268999999,-1.5034531655,-0.12466448549999998
51,0.21249150000005554,-28.961242675,12.595519065,-148.28255465,-3.8697997330000002,-1.0425061585000002,13.033613205,-7.7387723925,-0.5257832410000001,1.0405400990000002
52,0.2166580000000522,-29.00859547,12.653112415,-148.30890655,-1.4078736005,0.057382762000000004,10.1785421395,-6.2552206515,7.375063181,0.1378046275
53,0.2208245000000488,-29.064010619999998,12.629391675,-148.28789525000002,-1.68187581,-1.6603506205,8.3035981655,-8.459569454,-4.007968262,0.48252093799999995
54,0.22499100000004546,-29.091950415,12.65640688,-148.28762054999999,-2.6964149475,0.16764721299999996,12.693453784999999,-4.6541256905,2.6495620015,1.117894992
55,0.2291575000000421,-29.134580615,12.6852746,-148.30307770000002,-1.9218057394999999,-0.9330848414999999,7.4223389645,-5.970505476,3.546290934,-0.13015878199999997
56,0.2333240000000387,-29.162273405,12.649668695,-148.26991275,0.1474584935,-0.469212919,9.13791299,-5.467544794,-5.791321278,0.8036978245
57,0.23749050000003535,-29.204144475,12.666499615,-148.28656765,-4.7670013905,-1.2096201185,14.3115263,-5.868407011,2.372665763,-0.9596757445
58,0.24165700000003196,-29.22111988,12.682680130000001,-148.2862091,-0.9582922454999999,-0.13454014050000002,10.009574653,-3.3033975365,1.5012054445,0.47167348899999995
59,0.2458235000000286,-29.24956322,12.643966200000001,-148.2762146,-2.2668775620000003,-1.066887945,7.847156763,-4.936561346,-4.925982833,-1.566739492
60,0.24999000000002525,-29.251902585,12.668900965,-148.2647095,-1.900817633,-0.15098593,12.10029316,-1.870165676,1.7860807945,2.1365858925
61,0.2541565000000219,-29.278889655,12.662781715,-148.2862015,-2.698683381,-1.593383968,7.77489686,-3.947698474,0.2255722284999997,-2.7716462615
62,0.2583230000000185,-29.274758339999998,12.61532402,-148.24282835,0.20066416299999998,-0.379745502,9.6195693015,-1.908081438,-7.628361702,1.1437973175
63,0.26248950000001514,-29.291703225,12.59927511,-148.26470949999998,-4.954669714,-0.598381389,13.027264595,-2.7369132045,-0.773447454,-3.4161515235
64,0.2666560000000118,-29.280586239999998,12.617865085,-148.25307465,-0.2728233335,-0.9381910415,10.869352339999999,-0.23613765850000007,1.1026543640000002,1.7776982785
65,0.2708225000000084,-29.29847908,12.55345535,-148.2581711,-2.6879594325,-0.7801906755,7.879601955,-3.287491083,-6.7422878745,-4.6265518665
66,0.27498900000000503,-29.278992655,12.555617335,-148.22248075,-1.5623945,-0.92236498,12.284809589999998,0.1633163695,-2.005216956,3.2741461994999996
67,0.27915550000000167,-29.291365625,12.53914499,-148.25671385,-3.399514437,-0.8917810325,8.5582749865,-1.7477554084999998,0.033605874000000036,-4.962816
68,0.2833219999999983,-29.27904892,12.509019375000001,-148.2015686,1.3759669065,-0.6170066000000001,8.354801655,-1.3170136810000002,-6.6165099145,3.5822472569999997
69,0.28748849999999493,-29.301328660000003,12.448903085000001,-148.2162018,-5.0422480105,-1.0358597935,12.065598965,-3.5966038705,-5.7930124995,-5.259787559499999
70,0.29165500000010525,-29.28871536,12.489542965,-148.19306185,-0.6840193645,-0.7139827205,12.518645765,-0.30229277449999997,2.728690863,4.254441380499999
71,0.2958215000001019,-29.307730675000002,12.418411729999999,-148.20651245,-2.658188462,-0.7761847675,6.558819294,-3.2786415815,-7.0325751305,-5.734112263
72,0.2999880000000985,-29.291648865,12.42267084,-148.15008545,-1.283786118,-1.8820406195000001,11.6407938015,-0.7475195455,-2.9882398245000004,5.522756457
73,0.30415450000009514,-29.304607394999998,12.401080610000001,-148.1818237,-3.1545284685,0.09180999100000001,9.500865459,-2.091191292,-0.7857296615,-4.7100808625
74,0.30832100000009177,-29.30647373,12.39872694,-148.1474762,0.04850930000000009,-1.5652405025,8.611127853500001,-2.373331666,-2.5721747875,3.1401833295
75,0.3124875000000884,-29.32510853,12.31613016,-148.13502499999998,-3.457305491,-0.9651280045,10.070480825499999,-3.924209714,-9.697018622,-3.7777219415
76,0.31665400000008503,-29.33123016,12.351162434999999,-148.1304779,-2.3725669385,-1.1613516805,13.69909239,-2.025977075,3.1933712365,2.0177487134999996
77,0.32082050000008167,-29.361076355,12.313210965,-148.13710785,-1.7516801060000002,-0.36294607850000005,9.002436401,-4.7748589515,-3.8966233729999997,-3.15891457
78,0.3249870000000783,-29.368589399999998,12.28016615,-148.11037445,-2.101320654,-2.4165603520000003,10.53755808,-2.7558421495000003,-5.2052413225,0.28130841250000005
79,0.32915350000007493,-29.37684059,12.251003265000001,-148.1020889,-3.4712790250000003,0.301051967,11.0315485,-2.5698314905000004,-3.842385292,-1.1022189855
80,0.33332000000007156,-29.397833825,12.25203657,-148.1098557,-1.964912325,-1.598933697,8.878642559,-3.493928552,0.3417194484999999,-1.2377310990000001
81,0.3374865000000682,-29.42328358,12.197227475,-148.07839965,-1.2578007575,-0.6485252085,9.5003881455,-5.2215199475,-7.8249251865,-0.298584819
82,0.3416530000000648,-29.453289984999998,12.153097155000001,-148.07916260000002,-2.890549719,-1.0339140445000001,12.308792115,-4.7491034265,-4.777727604,-3.1945497990000002
83,0.34581950000006145,-29.46913624,12.15178394,-148.07702634999998,-2.819888115,-0.7882172319999999,13.717720035,-3.3145012855,-0.574527502,-0.10040766049999994
84,0.3499860000000581,-29.499910354999997,12.110059735,-148.08370975,-0.8913580179999999,-1.2185797695,6.637780428,-4.695339084,-4.180249065,-3.6609591245
85,0.3541525000000547,-29.51212215,12.069625850000001,-148.0474014,-2.121689558,-0.902480185,9.3191297035,-3.7247902155,-6.596504927,1.0121595265
86,0.35831900000005135,-29.538612365,12.028631685,-148.0566864,-2.05134213,-0.6664249005,9.8405776005,-4.0921883585,-3.9530836339999995,-3.9022074939999998
87,0.362485500000048,-29.549731255,12.01789999,-148.0493164,-2.4226979015000003,-0.9851594865,10.917926789500001,-2.878207654,-1.8583126660000002,-0.12804555900000003
88,0.3666520000000446,-29.569828035,11.93856001,-148.02957155000001,-0.6171700695000001,-1.0945685205,7.8549435155000005,-4.06462729,-9.632905961,-3.1991347670000003
89,0.37081850000004124,-29.566699025,11.892829415000001,-148.004982,-3.5531289580000003,-0.4207344725,14.957042694999998,-1.57085073,-6.5174975395,-0.4457899930000001
90,0.37498500000003787,-29.58168411,11.86867809,-148.01663209999998,-2.120748341,-1.1663281620000001,10.2499537455,-2.6769247055,-2.052673757,-3.1316542625
91,0.3791515000000345,-29.569822315,11.819030765,-147.994339,-2.9489966035000004,-0.7010944635,10.1440839765,-0.45617678749999996,-6.79826808,-0.9096575975
92,0.38331800000003113,-29.56414318,11.76060915,-147.9765625,-1.6215076449999999,-0.6638782915000001,8.194597006,-0.9676611315,-7.329020977000001,-2.1383600234999998
93,0.38748450000002777,-29.54315472,11.757267474999999,-147.9728012,-4.540703773500001,-1.2514364119999999,12.493979455,1.0952967105,-0.9038238825,-0.04023998949999996
94,0.3916510000000244,-29.547533035,11.747270584999999,-147.97735595,-0.9567001835000001,-1.6353266240000002,8.9874875565,-1.6521374285,-0.976657629,-1.5435329080000002
95,0.395817500000021,-29.535546304999997,11.699445725,-147.9500198,-1.8996562365000003,-0.10981270649999997,9.285614967499999,-0.5590178965,-6.9172718525,-0.256539315
96,0.39998400000001766,-29.541015625,11.691521165000001,-147.95366669999999,-2.91642344,-2.0715969205,11.186549665000001,-1.7731519935,-0.823190302,-1.332734168
97,0.4041505000000143,-29.53829765,11.73381615,-147.97121429999999,-3.1684291360000003,-0.39015959950000006,10.9784188265,-0.5744504334999999,5.0711632965,0.5191940515
98,0.4083170000000109,-29.558644295,11.722547055,-147.96832275,-0.09413194650000001,-1.6666933295000002,5.3219037055000005,-3.7387882470000005,-1.537692845,-0.870608643
99,0.41248350000000755,-29.56294537,11.748294354999999,-147.9685516,-4.168452859,-0.963356078,11.1574506785,-1.8230612874999998,2.341993034,1.2994038465
100,0.4166500000000042,-29.567829135,11.815891265000001,-147.99149319999998,-2.067321181,-1.3238351345,9.215221644500001,-1.2504741995000002,8.1809508805,1.176666856
101,0.4208165000000008,-29.573435785,11.85131073,-148.0001984,-2.460347176,-0.7340064045000001,6.940304041,-1.76670979,3.8537963035000002,0.9865387975
102,0.42498299999999745,-29.575545310000003,11.912124635,-147.99813845,-2.26786685,-1.029034883,12.33118391,-1.545216978,6.0256156645,3.3399493695
103,0.4291494999999941,-29.571912765,12.03313589,-148.0514984,-4.358546495,-0.026793017999999995,11.68833208,0.5714156629999998,15.51882982,1.246971801
104,0.4333160000001044,-29.560328480000003,12.14281797,-148.07020565,-1.436278939,-1.2226293085,7.259448528,0.42486405399999994,12.016055585,4.6616185905
105,0.437482500000101,-29.50877285,12.267508985,-148.09292605000002,-3.3625916245000003,0.0204628855,10.451896427,5.45612897,13.988944052499999,4.8295081855
106,0.44164900000009766,-29.441979410000002,12.49211979,-148.16595460000002,-2.4746710060000003,-0.6888663475,8.426013229999999,8.554546413499999,27.302528380000002,5.6483983995
107,0.4458155000000943,-29.352815630000002,12.642029285,-148.17926025,-1.292614162,-0.18598163150000002,8.262822392,9.805036784,16.130307674999997,7.1536037925
108,0.4499820000000909,-29.246655465,12.91028118,-148.26862334999998,-6.8112585545,-0.692048505,16.390566345,13.8001584995,33.00142479,6.1538529395
109,0.4541485000000876,-29.12512016,13.221410275,-148.33301545,-2.9530417919999996,-0.3491443395,10.262115718,15.100925920000002,36.003040315,11.2446200835
110,0.4583150000000842,-28.9961977,13.53205538,-148.42465975,-4.8982419969999995,-1.1328760390000001,14.0309493545,16.734820365,37.590631485,8.260885955500001
111,0.4624815000000808,-28.84972763,13.96144724,-148.52198795,-2.3571650385000003,-0.5735476315,7.1350290775,19.104950905000003,50.37688446,14.51801586
112,0.4666480000000774,-28.701067925,14.34284544,-148.63867190000002,-2.6006609205,-0.911855072,7.8291531784999995,20.033296585,46.456537245,9.632225992
113,0.4708145000000741,-28.535137175,14.84704685,-148.74624634999998,-2.4934363365,-1.0611574055,9.0322289465,21.92821026,58.90181350499999,17.51158762
114,0.4749810000000707,-28.34067631,15.32733631,-148.88518525,-2.7906259895,0.4631955325,7.5376551155,26.463721274999997,58.153301240000005,12.792225835
115,0.4791475000000674,-28.091361999999997,15.862923145,-148.9834213,-2.7132087945,0.210216701,11.6186866765,31.897221565000002,61.87744712999999,19.73105335
116,0.483314000000064,-27.80103874,16.40964222,-149.12335965,-1.967160225,0.5297254175,6.2747987815,38.289169314999995,65.332771305,16.032134535
117,0.4874805000000606,-27.417632105,16.899545670000002,-149.16553499999998,-1.3171942235000003,1.419339895,8.8772687935,46.314167025,54.297016145,22.205007555
118,0.4916470000000572,-26.96761799,17.451257705,-149.27220154999998,-2.7816619275,1.794039309,11.614394902999999,56.568561555,64.30809784,18.928092
119,0.4958135000000538,-26.387633325,17.941954615,-149.2839813,-1.267180085,0.860357523,10.197029114,68.91475868500001,53.220596310000005,24.61052513
120,0.4999800000000505,-25.715394975000002,18.430742260000002,-149.3052673,-2.1146708355,2.3425031900000004,9.686631202000001,80.25172804,53.58573532,23.0492239
121,0.5041465000000472,-24.942780495,18.879090305,-149.28954315,-0.765896797,1.0356416554999999,9.9656479365,90.97463989,47.758055685,24.489013675000002
122,0.5083130000000438,-24.067977905,19.332058905,-149.2412796,-1.9500820635,0.8338435295000001,9.5709130755,101.95469668000001,47.197202680000004,26.611533165
123,0.5124795000000404,-23.10707855,19.757222175000003,-149.18325805,-0.9803054255,1.285177171,9.152940036,111.96144106,44.22527504,25.915781975
124,0.516646000000037,-22.02758026,20.15819645,-149.07086945,-1.442775607,1.62382704,7.935135602,123.7285728,39.41981697,29.62228203
125,0.5208125000000337,-20.89548111,20.54047966,-148.9713211,-2.111379385,0.382170707,9.137029412,130.67464065,38.680235865,26.644508360000003
126,0.5249790000000303,-19.661761285,20.89284611,-148.80314635000002,-1.133733928,0.9510458855,10.695681096,139.7283249,33.01808548,32.080183985000005
127,0.5291455000000269,-18.369988445,21.22708702,-148.65196989999998,-2.1662980315,0.22768524299999998,12.2903623555,147.48361204999998,32.50026226,28.487225535
128,0.5333120000000235,-16.98130417,21.51265907,-148.42573545,-0.568992704,0.05560883899999999,10.170573710500001,155.60432435,24.890987875,34.57383728
129,0.5374785000000202,-15.530427454999998,21.753806115,-148.2123108,-1.451040089,0.43712826050000003,11.248500825,163.62339020000002,21.13693285,30.413333894999997
130,0.5416450000000168,-14.015721795000001,21.983064655,-147.94390105000002,-1.2839831560000001,0.146984391,10.4109730745,168.62940215,18.8761248565,36.083860395
131,0.5458115000000134,-12.465486527,22.125315665000002,-147.68585965,-1.444492355,0.24984663699999998,11.6362848295,173.33779145,9.9668730485,31.425920490000003
132,0.54997800000001,-10.858401773,22.268556595,-147.3833313,-1.809724599,-1.0100455285,14.131297584999999,177.99006655,9.960854949,36.349199295000005
133,0.5541445000000067,-9.2321364885,22.342983245,-147.09713745,-1.158027828,-1.370326519,11.306651590000001,180.945961,3.082272055,32.921051025
134,0.5583110000000034,-7.5604350545,22.401784895,-146.765831,-1.915384382,-0.596008062,11.42999077,184.3034439,1.497013211,37.19151497
135,0.5624775,-5.878466963999999,22.432790755,-146.4749908,-1.8352439404999998,-1.0305563805,10.23176384,187.32885745,-0.27796864500000007,32.377378465
136,0.5666439999999966,-4.1991218925,22.373179434999997,-146.14548495,-0.41615273049999996,-2.812096119,10.38693714,185.26929475,-10.479097964500001,35.68368149
137,0.5708105000001069,-2.5430084245,22.34207821,-145.8522415,-3.354932785,-0.734311387,15.640202044999999,184.10575105,-5.902864098999999,31.99234867
138,0.5749770000001035,-0.884829879,22.278646469999998,-145.54526520000002,-1.7260622385,-2.690161824,11.517158030000001,183.64500429999998,-8.756808699999999,34.160707474999995
139,0.5791435000001002,0.7361114025000001,22.151491165000003,-145.2529068,-2.5388313535,-2.856054425,11.97476816,179.99779510000002,-15.5532918,32.13424778
140,0.5833100000000968,2.333224535,22.063847545,-144.95759585000002,-2.9921120405000003,-2.629736006,14.351926325,176.93832394999998,-9.784579756,33.166606905
141,0.5874765000000934,3.870226443,21.919854165,-144.69084164999998,-1.9703153375,-2.3295471670000003,11.830142500000001,171.1602402,-15.949056385999999,30.43064022
142,0.59164300000009,5.3711675405,21.756764415,-144.4177322,-2.062050998,-3.6258040664999998,13.768428325,166.55196385,-17.20619726,31.67940712
143,0.5958095000000867,6.777052641,21.603635785,-144.17493439999998,-3.2873266935,-2.841767967,11.831520085000001,156.64535525,-15.6876106245,28.70630169
144,0.5999760000000834,8.144031763000001,21.39930916,-143.941391,-0.120380491,-4.098268747500001,13.477982525,152.36216735,-21.10056496,28.86750126
145,0.60414250000008,9.423928739499999,21.243610385,-143.7194748,-2.755321741,-3.0995340345000004,10.4936332685,142.56995775000001,-14.989950419,27.113683705
146,0.6083090000000766,10.6307363535,20.997014049999997,-143.52848815,-0.5624980924999999,-4.366581559,9.989061830499999,135.1709328,-25.581665035,26.118857385
147,0.6124755000000732,11.793373585,20.803092954999997,-143.32649995,-3.151959717,-3.8596023319999997,14.232474805,129.60292055,-18.676963805,26.22803974
148,0.6166420000000697,12.84413147,20.58980274,-143.15673065,-2.0119307634999997,-3.763024211,10.836184025,117.57081600000001,-21.149908064999998,23.75932598
149,0.6208085000000665,13.812190055,20.32104588,-143.00092315,-1.461362034,-3.5644292835,7.348949433,108.37713621,-27.572209360000002,23.990612985
150,0.6249750000000631,14.718634605,20.08176327,-142.87793729999999,-2.831731677,-3.9900951385,13.873013019999998,102.24719621,-24.606785775,20.36858845
151,0.6291415000000598,15.56367159,19.87205505,-142.7344971,-3.745262742,-3.6298545595,15.382619855000002,94.24536898,-20.324982645,21.644901275000002
152,0.6333080000000564,16.32546902,19.620040895000002,-142.63732149999998,-1.8666707274999998,-3.7281414269999997,12.780671120000001,86.12995910000001,-26.20545864,18.62416649
153,0.637474500000053,17.02242184,19.38450909,-142.53419495,-2.538833201,-3.6184334755,11.6923232075,78.22512054500001,-23.98021412,18.733775135000002
154,0.6416410000000496,17.62209511,19.175457,-142.45023344999998,-2.041874945,-4.0616784095,7.669403791500001,67.25243187,-21.265006065,16.336212160000002
155,0.6458075000000463,18.169514655,18.891949654999998,-142.3954926,-0.8262773155,-2.6749399305,11.9550480865,62.2772274,-30.696969985000003,15.84112358
156,0.6499740000000429,18.659994124999997,18.68283272,-142.34458925,-3.856389761,-3.7666496035,12.715601445,55.600009915,-22.115479465,13.09635115
157,0.6541405000000395,19.053720475,18.412583355000002,-142.30011745000002,0.706759334,-3.6467062235,5.4086281655,44.27911377,-29.257861135,14.79926872
158,0.6583070000000362,19.41460991,18.17317009,-142.2926712,-3.8494529125000003,-1.91011554,14.7880759245,41.67420292,-26.95296764,10.043598888
159,0.6624735000000328,19.730464939999997,18.00170803,-142.21113585,-1.8801414665,-2.5169900655,9.7754983885,33.683817865,-16.46208954,15.147641660000001
160,0.6666400000000294,19.941539765,17.755497935,-142.24441530000001,-2.677257091,-3.4736965895,12.076181411499999,25.17787218,-29.169620515,6.260769367
161,0.670806500000026,20.13193893,17.589635845,-142.1685562,-2.5234892369999997,-3.626178384,10.392475606,19.0994973185,-15.89292711,14.49814272
162,0.6749730000000227,20.27464485,17.417281155,-142.18160245,-2.2304468155,-1.431489289,10.931890487,16.145623209,-20.01059771,5.526428819
163,0.6791395000000193,20.40918732,17.283256055,-142.09313205,-3.467030376,-3.8094114065,10.7270547125,12.085030079500001,-11.7222418805,14.701825620000001
164,0.683306000000016,20.461301805,17.15745115,-142.09064485,-2.4954951405,-1.5879673955,8.1957109,4.76326883,-14.12015772,5.3166450855
165,0.6874725000000126,20.478276254999997,17.052165505,-142.0035019,-2.4558837715000004,-3.550498009,5.367653787,-1.970125437,-8.522380591,13.4025764445
166,0.6916390000000092,20.46483612,16.970164775,-141.9678192,-2.345307112,1.3579866440000001,11.464745999000002,-4.2854094355,-7.840787885,7.073448538
167,0.6958055000000058,20.46492577,16.944394115,-141.88524625000002,-3.9203595665,-4.1685006620000005,11.039810658,-3.92813009,0.22273564350000008,9.5245015645
168,0.6999720000000025,20.441551205,16.8962636,-141.81704715,-1.2735874655000001,0.17815279950000007,13.493624685,-6.57810688,-2.713367343,9.195638895
169,0.7041384999999991,20.40135574,16.87031555,-141.7689514,-4.0714884399999995,-2.5080717805,9.410326004,-7.6057004930000005,-1.1887952385,5.780096054
170,0.7083049999999959,20.370284079999998,16.844864845,-141.67871854999999,2.346737385,0.4036355165,8.336577176,-8.243470429,0.6602650879999999,10.47544527
171,0.712471500000106,20.345044135000002,16.81033897,-141.674881,-4.798723220499999,-2.2397025225,12.327243805,-4.32384932,-3.9285527464999994,1.329859406
172,0.7166380000001027,20.34230137,16.792592525,-141.55119324999998,-0.22066071650000002,0.5240082945000001,10.651425837,-5.8948103765,2.783089757,13.5944132785
173,0.7208045000000993,20.328982355,16.735306265,-141.59202575,-3.74195683,-2.5149549245,11.636286736999999,-1.266669035,-8.274410486,-2.4913366435000004
174,0.724971000000096,20.37397194,16.648169045,-141.4887314,0.4776495695,-0.3402329085,8.6441054345,0.584305525,-5.8834123609999995,14.178202152499999
175,0.7291375000000926,20.398960115,16.59060049,-141.5378494,-2.7446210385,-0.090370536,11.440544125999999,3.5168802145000004,-8.6368274685,-3.401506543
176,0.7333040000000892,20.48645115,16.46776724,-141.4620209,-1.3954826949999999,-0.7423111944999999,13.118995665,6.669193505999999,-10.967520474,12.770314695
177,0.7374705000000858,20.525245665,16.426808360000003,-141.4830475,-2.2608588335,-0.6232870965,11.96751547,4.2183835505,-5.6396406885,-1.0421600195
178,0.7416370000000825,20.62040329,16.300278185,-141.43149565,-2.5029940305,-1.1814717055,11.661999701500001,8.494349004,-12.32954359,10.3665957435
179,0.7458035000000791,20.68773079,16.229364869999998,-141.43707275,-2.101100594,-1.25072366,9.5804557795,7.171128271000001,-8.3748948575,1.923597157
180,0.7499700000000759,20.789278985,16.112866405000002,-141.4126358,-0.615682386,-2.2641758915,8.3893718725,10.110682965,-12.12954569,7.456125736500001
181,0.7541365000000724,20.89656353,16.02246952,-141.41121675,-3.2206745144999998,0.26158015449999994,10.905435561,11.6580658,-10.26723814,3.5152601005
182,0.758303000000069,20.99852848,15.94931507,-141.37774660000002,-1.268880889,-1.4078761335,13.288532735,9.9038224235,-6.8875923165,6.5685026650000005
183,0.7624695000000656,21.105388645,15.911683085,-141.34476469999998,-4.6987143755,-1.8550899625000001,9.3025245665,10.665601729999999,-3.0289673795,4.7144157885
184,0.7666360000000622,21.20141792,15.81280899,-141.33266450000002,0.6268293260000001,-0.049935042999999985,6.9409031865,9.860611441,-10.6468272195,5.3555021284999995
185,0.7708025000000589,21.29854488,15.798846245,-141.3014984,-4.5867171285,-1.3893444540000002,12.22562361,9.494826315000001,-0.44533544800000013,3.469717443
186,0.7749690000000555,21.427605630000002,15.774463175000001,-141.2654953,-1.506765783,-1.0789533705,11.826972484999999,13.041847225000001,-1.2657597065,4.7864429955
187,0.7791355000000522,21.52930355,15.797639845,-141.2251892,-4.0639731885,-1.528888345,10.321555136499999,9.79337263,4.108619988,2.8415665624999997
188,0.7833020000000488,21.589647290000002,15.76772785,-141.1948013,1.5081898275,-1.603846192,9.166522265,4.9427664275,-2.107475042,4.410271883
189,0.7874685000000454,21.650513645,15.835261345000001,-141.15376285,-5.4344313145,-2.217989385,9.9468302705,4.885922193500001,9.096360088499999,0.9613858759999999
190,0.791635000000042,21.719584465,15.859532354999999,-141.0855713,0.45889806749999995,0.16336882100000005,11.32263541,4.7636462449999994,5.557661891,6.061545371999999
191,0.7958015000000387,21.737789155,15.940797805,-141.03046415,-4.674282551,-2.9655017855,6.5329354425,-0.6607448755,11.2207140945,1.8528894184999998
192,0.7999680000000353,21.767443655,15.950256825,-140.97184750000002,0.48923105,-0.45136794450000006,6.6814091205,0.4580398795,3.3557724955,5.315633059
193,0.804134500000032,21.805832865,16.05837059,-140.90232085,-5.082460880499999,-0.15288907300000004,11.706906321,1.2386345865000001,14.8323102,2.168713361
194,0.8083010000000286,21.854005815,16.118183135,-140.80464175,1.324254334,-1.0211667715000001,9.093413829500001,1.301132798,10.688757417,7.339452505000001
195,0.8124675000000252,21.898460385,16.18311691,-140.76073455,-4.464074134500001,-1.7040878535,8.740267274499999,2.791529119,8.9239487645,1.3198438885
196,0.8166340000000218,21.94931793,16.20114851,-140.67517855,1.6343321204999999,0.5318970755,12.273935315,1.959758222,5.496194211500001,7.7910953769999995
197,0.8208005000000185,22.00995445,16.326169965,-140.61196139999998,-6.483739376,-1.5909236375,12.175199984999999,4.0341016055,16.44518566,0.6454723480000001
198,0.8249670000000151,22.05233765,16.27477789,-140.5440979,4.132452011,-1.8241550924999999,5.8062995675,1.5673542915,-2.952943921,9.093822719
199,0.8291335000000118,22.043320655000002,16.336601260000002,-140.53331755,-4.618216753,-1.4645091595,7.4865260125,-2.587690711,7.1496632085,-2.1347160935
200,0.8333000000000084,22.0705719,16.27181101,-140.4539413,2.045372188,0.43515607700000003,8.9974780085,-0.6745958329999999,-3.9793837085,10.793918848
201,0.837466500000005,22.06339836,16.314620495,-140.47753145000001,-6.267930746,-1.4034785625000001,15.570744995000002,-1.2372317315,3.5485003885,-4.962553501
202,0.8416330000000016,22.067813875,16.233987810000002,-140.40480804999999,0.5483007205,-1.3325601665,11.48104,-3.1568398474999997,-6.024769812500001,10.814728258999999
203,0.8457994999999982,22.05195999,16.2272501,-140.45913695000002,-2.9897638559999997,-0.4886287745,9.887920378499999,-1.248648912,-3.287138581,-6.0006079670000005
204,0.8499659999999949,22.07239914,16.11000729,-140.42458345,1.16283907,-0.5127868355,8.178060293,-0.03896564249999995,-11.6151483085,8.72236538
205,0.8541325000001052,22.061598779999997,16.087815284999998,-140.4897461,-1.877295077,0.411132395,7.9805369355,-0.2769987585,-5.4775147440000005,-6.453429460500001
206,0.8582990000001018,22.069574359999997,15.94438696,-140.48605344999999,-1.3121130785000001,-0.9715482520000001,11.29953337,-0.448370218,-15.893471245,6.5512008665
207,0.8624655000000985,22.08736229,15.875318530000001,-140.55548095,-2.9191852805000003,0.090692058,10.838846683,3.2260954400000004,-10.8777399075,-4.816514611
208,0.8666320000000951,22.14438534,15.727305885,-140.58210755,-1.335112423,-0.7171270925000001,13.62054634,6.5050011265,-17.709893705,3.5781565905
209,0.8707985000000918,22.220419885,15.62814522,-140.65304565000002,-2.482711196,0.288367346,10.0262126905,10.235040663,-14.30108452,-3.5979046820000002
210,0.8749650000000884,22.306602480000002,15.48900652,-140.68486785,-0.9093389510000001,-0.7230283395,7.081535101,10.1712498645,-16.93247461,2.6881767215
211,0.879131500000085,22.401744845,15.351809025000001,-140.7754059,-0.8154651525000001,-0.10080325600000006,7.7629807005,13.062446595,-19.403407095,-3.9419437945
212,0.8832980000000816,22.5191679,15.19525385,-140.81826785,-3.080340445,-1.4813534095,12.686453345,14.22311783,-19.33788586,2.3625686765
213,0.8874645000000781,22.641851425,15.068033695,-140.8985748,-0.805978715,0.16597467649999997,12.67234659,16.09996414,-17.855359075,-3.2123212815
214,0.8916310000000749,22.760256765,14.945549965000001,-140.9401627,-5.0087783340000005,-2.465454876,15.142690179999999,14.36336851,-15.50810671,0.9842846990000002
215,0.8957975000000715,22.866068839999997,14.830297945000002,-140.9875183,-1.5690095725000002,0.5259767845,8.714544058,13.054989814999999,-15.061930655000001,-0.174042314
216,0.8999640000000682,22.96762562,14.725354195,-141.04122925000001,-3.725254178,-1.5714726745,12.073421,12.68552971,-14.102945805000001,-1.054172933
217,0.9041305000000648,23.08743858,14.59482908,-141.071846,-1.627289804,-1.967866242,8.8441238405,14.175780775,-15.99216318,2.373748958
218,0.9082970000000614,23.193582535,14.504551890000002,-141.11980440000002,-1.2830440105,0.06655052299999997,10.6896066655,13.041171075,-12.292992115,-1.242745429
219,0.912463500000058,23.29050255,14.377101425,-141.14517975,-1.8899310825,-0.62471199,9.7944257285,11.218284371,-15.404738905,2.832884595
220,0.9166300000000546,23.347130775,14.309760095000001,-141.17997739999998,-3.791599035,-2.2427439094999997,8.64546609,6.631500244,-9.1087675095,-0.765673466
221,0.9207965000000512,23.380748750000002,14.167672634999999,-141.23613734999998,-1.314925015,-0.539542809,11.125799177,4.516393006,-18.42985821,0.27085143350000007
222,0.924963000000048,23.404118535000002,14.102231025,-141.2776489,-3.5773123499999997,-2.4090989824999998,11.077926157,2.788141996,-9.200441837,-1.5483036935
223,0.9291295000000444,23.425883295,13.958515644999999,-141.3387909,0.14512896549999987,-0.743351206,9.074160576,3.1759933244999994,-18.838367465,-0.18856561199999988
224,0.9332960000000412,23.420354845,13.902207375,-141.40356445,-3.1060322520000003,-0.4623778165,9.6618089675,0.0029647349999999406,-9.2859931005,-4.4901117085
225,0.937462500000038,23.39292812,13.792056084999999,-141.44158175,-1.561583191,-0.8118599950000001,11.5911459945,-3.342261076,-14.08182335,0.6871275305
226,0.9416290000000345,23.33978844,13.720751285,-141.51789094999998,-2.870290756,-1.6461036205,12.604871275,-5.348176241,-11.467969419,-4.9881682395
227,0.9457955000000312,23.310455325,13.635098935,-141.5313339,-3.549782038,-0.9366235730000001,13.179804325,-4.219152093,-10.257285594999999,2.1531649675
228,0.9499620000000278,23.280162815,13.56084108,-141.60640715,-1.865986794,-0.1708535625,10.603833673499999,-2.6417633295,-11.7304639825,-4.7154027225
229,0.9541285000000244,23.25308037,13.51819229,-141.5989227,-1.838106304,-1.339343935,11.55463696,-4.5572462085000005,-4.548319936,2.352577627
230,0.958295000000021,23.233288765,13.448045255,-141.6472626,-1.783726871,0.9109831899999999,7.8885974885,-2.2020238340000002,-10.002014876499999,-1.9787638185
231,0.9624615000000176,23.19894886,13.4201231,-141.6350937,-2.785262108,-1.5341208575,9.881835463,-5.567407489,-2.704908162,2.1629683375
232,0.9666280000000143,23.180541990000002,13.38562536,-141.6509094,-2.8626838919999997,-1.6670795680000001,9.890734671499999,-2.9419041725,-4.6178245545,-0.2962670995
233,0.9707945000000108,23.165636065,13.35805559,-141.6510544,-2.0397437815000004,-0.6724956035,12.37851572,-2.853688493,-3.2340985535000004,0.843451172
234,0.9749610000000075,23.164094925,13.395851615,-141.63510895,-3.401962042,-0.908295006,11.643691065,-1.8160107735,4.8330604435,-0.268725313
235,0.9791275000000041,23.16034222,13.393252375,-141.6155167,-1.555113703,0.217270613,6.3580827714999995,-2.048933834,0.4222440719999998,1.7809833215
236,0.9832940000000008,23.137346264999998,13.45181513,-141.6012802,-1.042483419,-1.1304982305000002,6.472625913,-4.3991048335,7.0308396815,-1.499143675
237,0.9874604999999974,23.147418979999998,13.48989916,-141.56269075,-3.655180573,-0.872370571,10.589439392,-0.9978472294999999,5.782285452,1.8629617695
238,0.991626999999994,23.169137,13.53045082,-141.55381775,-1.5148346424999999,-0.527727887,11.511136055,1.2856109145,4.6028398275,-1.6517723800000002
239,0.9957935000001044,23.20738888,13.62632084,-141.5077286,-3.3817272185,-1.7794965505000002,15.104667185,2.1550984384999996,12.502040865,-0.0747487245
240,0.999960000000101,23.23026562,13.67576647,-141.48686980000002,-1.0395711065,0.8383211195,10.329406021,1.077219486,6.160160184,-0.7257730225
241,1.0041265000000976,23.254841804999998,13.789779185,-141.45915985,-3.234513283,-0.76152277,9.890970230499999,0.9975011945,13.652326106,-2.9406557085
242,1.0082930000000943,23.298282620000002,13.82422829,-141.43054965,-0.40115004799999987,-1.323010772,8.4870777145,3.24272421,4.850574759000001,0.7468343825
243,1.0124595000000909,23.340799330000003,13.901491165,-141.43493654999997,-1.20662567,-0.9579366745,11.454027653499999,4.0748025175,8.12178874,-4.6341148615
244,1.0166260000000875,23.366396905000002,13.917865280000001,-141.4281921,-1.7124558095,-1.656443179,11.120606425,1.7065163854999998,1.8611240384999999,-0.7213417885
245,1.0207925000000841,23.361882209999997,13.994850634999999,-141.43202209999998,-3.1957197485,-1.4936437905,11.825739859999999,-1.5430597065,8.11857462,-4.539803624
246,1.0249590000000808,23.297447205,14.00423193,-141.4526596,-0.10827541349999992,-2.6872093085,6.4859822965,-8.300706057000001,-0.19718599300000017,-3.39945811
247,1.0291255000000774,23.194434165,14.018689155,-141.4976578,-2.1590371135,-2.9745875,13.16382217,-12.258889540499998,-0.6576274635000001,-6.029452324
248,1.033292000000074,23.050756455,14.053645135,-141.5273285,-1.078058809,-2.4347039465,11.267187595,-17.51859021,2.271113992,-5.451341629
249,1.0374585000000707,22.787146565,14.07252741,-141.61711880000001,-2.8417688009999997,-3.858082175,11.0945527545,-30.3149609585,-2.1388993239999996,-11.150318621
250,1.0416250000000673,22.427931785,14.083887575,-141.67661285,-2.1987767215,-4.156810522,14.885035513000002,-42.539065365,-1.4875459670000004,-7.1414592255
251,1.045791500000064,21.958641049999997,14.14962435,-141.79177095,-2.2182920279999996,-3.7031155825,11.848675252,-54.234859469999996,2.1213288305,-16.054553985
252,1.0499580000000606,21.38216877,14.132724285,-141.89949035,-1.0432760715000002,-4.9819686415,11.3250653725,-67.25694847,-6.532610774,-11.0183811165
253,1.0541245000000572,20.72522545,14.174514295,-142.0399628,-4.0185683965,-3.2859894035000003,13.20574379,-75.915037155,-1.2580848935,-17.470959665
254,1.058291000000054,19.958106045,14.26338625,-142.13942715000002,-1.4356863014999999,-4.389327407,8.2854781175,-90.319778455,5.9209317555,-14.59283829
255,1.0624575000000505,19.057203295,14.268900395,-142.33052825,0.763646424,-3.4902979135,4.4111363290000005,-103.6408806,-6.833288101,-21.481498719999998
256,1.066624000000047,18.115265845,14.33871937,-142.46048735,-5.135477126,-3.411055565,14.135893345,-110.39703753,3.061175376,-17.055585864999998
257,1.0707905000000437,17.095433235,14.497400760000001,-142.60370634999998,-3.6482567784999995,-2.3015214205,20.252770425,-119.2561989,13.0827715405,-21.767848015
258,1.0749570000000404,15.939767365000002,14.636678695,-142.7509155,-1.7860521675,-5.210983753000001,4.7645651085,-135.42301179999998,11.0176818385,-21.088433265
259,1.079123500000037,14.692226885,14.666227339999999,-142.9288254,-0.9364542215,-1.8890916705,13.035668849,-145.520092,-2.002001405,-21.30747986
260,1.0832900000000336,13.40141487,14.967369555000001,-143.0522461,-6.6931533815,-2.8557105065,16.71842623,-152.30428315,31.42927456,-22.289630889999998
261,1.0874565000000302,11.973894118,15.060388565,-143.21785735,4.6991444825,-4.323301077,-4.8371034845,-167.41444395000002,6.779431839,-22.04067421
262,1.0916230000000269,10.427293299,15.125935555,-143.4309998,-4.050893903,-4.7975994345,14.067122459,-180.14972690000002,2.7546422495000003,-25.385189054999998
263,1.0957895000000235,8.8683013935,15.400402070000002,-143.5714264,-4.012971878,-0.692433208,17.819704055000003,-183.89749905,29.95433235,-21.93368864
264,1.0999560000000201,7.16601491,15.473808285,-143.7969284,1.445745468,-5.066787243,1.146886587,-198.3152466,4.802804469,-27.855051995
265,1.1041225000000165,5.381586015000001,15.529284,-143.98712925,-3.906398535,-1.5639275905,21.130137445000003,-209.25646975,4.4132909795,-22.514556884999998
266,1.1082890000000134,3.580425633,15.80089283,-144.2035141,-2.1843481065,-2.6874939204999997,4.2109327315,-210.36061855,30.20055962,-28.138029095
267,1.11245550000001,1.6841760874999998,15.660233975,-144.40546419999998,2.529202044,-2.1122964025,3.7107646165,-222.0918808,-17.790726184,-24.07161903
268,1.1166220000000067,-0.23496973499999996,15.77578211,-144.65486145,-6.036575794,-0.5732898715,18.92110872,-223.4190979,13.1920264975,-28.417029385
269,1.1207885000000033,-2.1078589555000002,15.80471182,-144.85940549999998,-1.0304158925,-0.2211883065,6.6573324215,-219.1869278,4.216066840000001,-25.67408562
270,1.124955,-4.0119130015,15.701293945,-145.1184616,-0.19371724149999991,-2.449576214,11.277857063999999,-221.26647185000002,-11.125283001500001,-30.17077637
271,1.1291214999999966,-5.883885622,15.70582056,-145.3312912,-2.3399156925,2.8730518815,8.285724409,-218.84047700000002,2.898114374,-25.317949295
272,1.1332880000001069,-7.7217955585,15.63932371,-145.5931549,-0.5139411685000002,-1.3820326925000002,12.7610511755,-213.24085235,-4.695162774999999,-31.92152977
273,1.1374545000001035,-9.503993511,15.57078123,-145.78894805,-3.6674481630000004,0.9786056280000001,10.431147575,-208.6729889,-4.710808755,-23.11240101
274,1.1416210000001001,-11.2714815135,15.464071270000002,-146.0602264,-1.5532877445,0.5022274849999999,12.1679276245,-204.45911404999998,-7.427343369999999,-34.694422725
275,1.1457875000000965,-12.9190597545,15.313167575,-146.2042465,-2.4727306364999997,1.531682253,10.205217125,-194.27775574999998,-14.236132623500001,-19.87121582
276,1.1499540000000934,-14.53328609,15.189810755,-146.44644925,-0.2347061629999998,1.2354400755000001,5.336124657999999,-187.0653915,-8.209845544999999,-32.545957565
277,1.15412050000009,-16.061117645,14.973110675,-146.5660019,0.31356191649999987,2.277487874,11.432256279,-180.7263031,-21.563939575,-20.419205665
278,1.1582870000000867,-17.544925215,14.74437237,-146.74439239999998,-1.5442335605000004,-0.26004341249999996,11.5730702885,-173.5082321,-20.651824714500002,-28.91786194
279,1.1624535000000833,-18.911370275,14.4652791,-146.81669614999998,-0.4023234845000001,2.067687273,10.6124686015,-162.83934785,-29.416798595000003,-19.198387144999998
280,1.16662000000008,-20.20433426,14.118546485,-146.92182925,-1.1284208299999996,2.446627617,10.745774506,-153.03302005,-35.42489338,-26.198742865
281,1.1707865000000766,-21.38325787,13.79848862,-146.95480344999999,-1.5243108269999999,1.981507182,12.258950235,-141.41689300000002,-34.932912825,-18.274222375
282,1.1749530000000732,-22.477548595000002,13.346572875,-146.9658966,0.3212884665,2.100215316,10.975673675,-132.06621555,-50.057756425,-21.99812126
283,1.17911950000007,-23.459674835,12.925066475000001,-146.95446775,-1.2854718565,2.5125671625,10.359292506500001,-119.05525589999999,-47.531908990000005,-19.295732495
284,1.1832860000000665,-24.32167053,12.392186164999998,-146.8914032,-2.479865015,3.193969727,13.602751255,-106.238658895,-61.632434845,-19.606871605000002
285,1.187452500000063,-25.11585617,11.936451909999999,-146.85653689999998,-1.76506871,1.8579400179999999,13.98726082,-97.28306198,-51.8605175,-19.331599235
286,1.1916190000000597,-25.79082489,11.382179736000001,-146.75,-3.718019366,3.0741758345,13.680237770000002,-84.759254465,-65.60409737,-17.7190423
287,1.1957855000000563,-26.397946355000002,10.882527829499999,-146.69391635,-0.9306856394999999,2.244492054,12.709525585000002,-75.470676425,-57.216978075,-20.268700600000003
288,1.199952000000053,-26.91760349,10.398095129,-146.60397339999997,-3.283641368,2.176691115,12.092595575,-65.641290665,-57.091991425,-16.60849619
289,1.2041185000000496,-27.35464096,9.907457351,-146.52758025,-2.9298547504999997,2.9819556475,11.259153365,-55.361051555,-57.032949445,-18.60104656
290,1.2082850000000462,-27.757745745,9.5433225615,-146.47768405,-3.0949676034999998,1.302052945,12.987102032,-50.591344835,-41.8878479,-15.053057670000001
291,1.2124515000000429,-28.04947567,9.119747876,-146.424057,-4.649286747,0.7934205379999999,11.970373153,-37.459643365,-48.38462448,-17.92753792
292,1.2166180000000395,-28.29585457,8.786668778,-146.3574982,-2.9372994605000002,1.9270664455,12.464862822,-32.004834175,-39.401205065,-11.97003174
293,1.2207845000000361,-28.471934315,8.473180293999999,-146.3485794,-3.4123548264999997,0.5439097509999999,15.3156662,-22.657401085,-34.067723275,-16.83003855
294,1.2249510000000325,-28.564892765,8.2214500905,-146.2893982,-2.6696984765,0.70005323,5.009788394,-13.4319527155,-30.10014057,-8.647370098
295,1.2291175000000294,-28.62075138,7.9754340645,-146.29429625,-2.274273992,2.4288374185,11.365846155,-7.864288328000001,-26.116448405,-14.620665075000002
296,1.233284000000026,-28.660407065,7.8035540585000005,-146.27191165,-2.75868392,0.668144584,14.06240034,-6.3454974865,-19.581078055,-7.990256786
297,1.2374505000000227,-28.67068958,7.636612415,-146.28918455000002,-4.5330917835,0.627100229,8.2633829125,-2.2373155355,-17.0264763805,-11.43955946
298,1.2416170000000193,-28.63562679,7.525595665000001,-146.28813935,-1.506485909,0.8702434005,8.089164257,2.9850571145000004,-11.95820892,-6.723412037
299,1.245783500000016,-28.59292889,7.4321258065,-146.3318405,-3.443838477,0.22783742800000004,15.453766825,4.520401002,-7.7605066285,-10.0194649675
300,1.2499500000000126,-28.52990055,7.363375902,-146.34079745,-2.9969799520000002,-0.24720619600000002,12.635520935,6.4756572245,-7.161862849,-4.951494813
301,1.2541165000000092,-28.44962883,7.3145246505,-146.411293,-2.4853276015,1.3114292619999999,7.688298463500001,9.412035942,-1.5190266369999998,-10.309340478500001
302,1.258283000000006,-28.35631275,7.302697897,-146.44934845,-2.810787648,-0.73169478,10.49349213,10.5187118065,0.5413832665,-4.818146944
303,1.2624495000000024,-28.268118854999997,7.2922439575,-146.51920315,-3.1037334205000002,0.44804455350000005,14.119822500000001,10.391510964,2.474309981,-8.085038185
304,1.266615999999999,-28.185790060000002,7.336891651,-146.6122818,-1.6973027589999998,-1.065242559,8.307001828999999,10.0573351365,9.610098003,-7.4179029465
305,1.2707824999999957,-28.09338951,7.3809115885,-146.69046785,-3.8941682579999997,-0.45285181700000005,8.4960415365,10.969548230000001,8.704015611500001,-5.886441231
306,1.274949000000106,-28.0286541,7.4588592055,-146.79450225,-1.6194712519999999,-0.4179116635,12.91314077,8.1801195145,13.7358994475,-6.7512158155
307,1.2791155000001027,-27.98525333,7.572778702,-146.91741945,-3.8885352615,-0.6876859369999999,10.384425638,5.8771498955000006,18.611996175,-6.719186783
308,1.2832820000000993,-27.927835465,7.694215298,-147.02510075,-3.3289567235,-1.985589266,8.7599377635,7.3918936255,18.562215805,-4.749207497
309,1.287448500000096,-27.91379261,7.803318262,-147.1370544,-0.4468755125,0.1084295175,11.908273695,2.279802039,17.47744799,-5.890500546
310,1.2916150000000926,-27.930482865000002,7.9387083050000005,-147.2605286,-1.9684479835,-2.3929368255,6.8141651155,-1.1420104505,20.925231935,-5.6919658185
311,1.2957815000000892,-27.935127254999998,8.021857262,-147.35388949999998,-2.20288831,0.5303477904999999,9.6815829295,-0.20411920550000007,13.706162215500001,-5.4329531195000005
312,1.299948000000086,-27.976786615,8.1311290265,-147.46389010000001,-1.603158832,-1.045256853,13.561809065,-4.3056197165,17.410046575,-5.7480094435
313,1.3041145000000824,-28.022759434999998,8.2072179315,-147.54955289999998,-2.682326078,-1.422671288,12.800684454999999,-5.2553949355,12.5411992075,-5.0222547055
314,1.308281000000079,-28.066462515,8.235772848,-147.6198349,-0.465773292,-0.10069144149999999,8.371921539,-5.1986848115,6.6634482135,-6.130877018
315,1.3124475000000757,-28.132753370000003,8.2850587365,-147.68931579999997,-0.9124720989999999,-0.25863336,10.444044114499999,-7.921556234500001,8.776021839,-4.8009474275
316,1.3166140000000723,-28.19053936,8.290277243,-147.74045565,-2.2833687659999997,-0.8397590965,9.888683795,-7.205636739999999,3.1194941995,-5.4149966240000005
317,1.320780500000069,-28.246131894999998,8.284153700000001,-147.76818085000002,-0.835932404,-0.163106433,8.2195663455,-7.4005868435,0.5987456445,-3.5479878185000002
318,1.3249470000000656,-28.314228059999998,8.299052953499999,-147.81305694999998,-2.895413041,-1.077494204,9.861691953000001,-8.580225227,3.8011466265000005,-4.1753833295
319,1.3291135000000622,-28.37652397,8.244399309,-147.81132505,-1.9438949824999998,-0.21977476799999998,9.5468101505,-8.721962452,-6.1826303005000005,-3.2235968115
320,1.3332800000000589,-28.444601055,8.253132104999999,-147.8419418,-0.9363067075,-0.446561873,7.296432376,-8.8243408205,2.354326069,-3.0370478035
321,1.3374465000000555,-28.48869133,8.2202904225,-147.8474579,-3.179602027,-0.2058072685,12.34490299,-6.424966335500001,-3.4596829415,-2.746787548
322,1.341613000000052,-28.55061436,8.1941697595,-147.8534317,-2.046095908,-1.049011439,10.536999225999999,-8.510246754,-2.6941504185,-2.4911956785
323,1.3457795000000485,-28.613204005,8.1978590485,-147.87127685000002,-3.062411189,-0.4447216245,11.33385563,-8.4044473175,1.0869530440000001,-1.9539116024999998
324,1.3499460000000454,-28.67917824,8.1545209885,-147.8674164,-2.60894084,-0.849619925,11.286072735000001,-9.207312584,-5.0559624435,-2.440364361
325,1.354112500000042,-28.741840365,8.145930289999999,-147.87057495,-1.4661134480000002,-0.943631053,8.693132162,-8.657631159000001,-1.0414494275,-1.134486586
326,1.3582790000000386,-28.795594215,8.1137933735,-147.86949155,-2.487783134,0.06859692900000003,10.4620585465,-7.6539123060000005,-3.7034280895,-2.1452370885
327,1.3624455000000353,-28.866605755000002,8.071086407,-147.84875484999998,-1.091127494,-1.403909087,8.652823925,-10.0846266745,-6.0080821515,-0.588115662
328,1.366612000000032,-28.912501335,8.0349195005,-147.84975435,-2.2743851244999997,-0.20048782199999998,10.797849178,-6.7043278215,-4.002345979,-2.5851233005000003
329,1.3707785000000285,-28.97976017,7.980438231999999,-147.82523344999998,-2.8811525104999998,-0.8742096720000001,11.136068107,-9.701092242000001,-7.4617288115000004,-0.885746806
330,1.3749450000000252,-29.044214245,7.9464528560000005,-147.81505585,-2.07828176,-0.782357946,9.284785747,-9.1272177685,-4.4347785715,-1.2612898945
331,1.379111500000022,-29.081160545,7.896048069,-147.7934265,-2.8039743899999996,0.37740942850000003,10.5996093775,-6.034579992,-6.8531599045,-0.967392147
332,1.3832780000000184,-29.14709473,7.8644576075,-147.78495785,-2.4288598895,-0.8446333705,9.0269970895,-9.2807614795,-4.0891528125,-1.2955103515
333,1.387444500000015,-29.165556905000003,7.8159353735,-147.76564025,-2.47085464,-0.480476692,10.377512932999998,-3.743821263,-6.534697056000001,-1.1121892335
334,1.3916110000000117,-29.192780495,7.795017004,-147.75656125,-1.798077613,0.009813040499999981,10.044686319,-4.6538823845,-2.995719373,-0.6236233415
335,1.3957775000000083,-29.200807570000002,7.7335214615,-147.7339859,-2.558699325,-1.040657103,10.044425964,-2.5470731855,-8.074266909999999,-1.5465554894999998
336,1.399944000000005,-29.20088768,7.7061810495000005,-147.72782135,-1.7191572485,-0.523075983,8.698352097,-1.3284247965,-3.4977841375,-1.3213168975
337,1.4041105000000016,-29.221134185,7.643859863,-147.70490265,-3.158650517,-1.0673872530000001,10.3380205635,-4.0060601235,-8.197740554,-1.5392683150000002
338,1.4082769999999982,-29.20631123,7.600872754999999,-147.690506,-0.8055060205,-0.413667053,8.796919584000001,0.28937679549999995,-5.627620101,-1.3372998835
339,1.4124434999999949,-29.22823906,7.564143419500001,-147.68547825,-4.1374275685,-0.9637859910000001,13.006343365,-3.921007633,-4.4823437335000005,-1.891463816
340,1.4166100000001052,-29.233421325000002,7.512699127,-147.66369625,-1.5907673835,-1.219117269,9.216289518,-2.2313138245,-6.9471386975,-1.055620305
341,1.420776500000102,-29.239581105,7.497388601499999,-147.66273495000002,-2.9211928845,-0.6015829845,12.4397912,-1.9313707385,-2.0221801399999997,-1.050311655
342,1.4249430000000984,-29.255537985,7.449288607,-147.63728329999998,-2.220844388,-0.932039544,9.9124402985,-3.6109859345,-6.7982559225,-0.479267746
343,1.429109500000095,-29.261246685000003,7.445822239,-147.64534759999998,-2.488873899,-0.8407145439999999,11.089777945,-1.7371125815000001,-0.2584087850000003,-1.2951199265
344,1.4332760000000917,-29.28153896,7.4184606075,-147.62464905000002,-2.3937813045,-1.2768000365,8.984097480500001,-4.0434310435,-4.3567645535,0.24519866699999998
345,1.4374425000000883,-29.293869015,7.4209325315,-147.63066865000002,-1.2897734045,-0.484551847,10.91480064,-2.5938320160000004,0.24885487550000018,-0.725644916
346,1.441609000000085,-29.308358195,7.4078373905,-147.61920165,-2.6975506545,-1.0771937070000002,8.9517726915,-3.207843542,-2.3241590260000002,0.1245748995
347,1.4457755000000816,-29.334607124999998,7.403828621000001,-147.6240082,-2.180489659,-0.6265126169999999,11.333434102999998,-4.278595686,-0.5047664645000001,-0.9774457065
348,1.4499420000000782,-29.3441782,7.409557103999999,-147.6247482,-2.2795542475,-1.1637856960000001,10.9887900375,-2.4081034065,0.34599733350000017,-0.03626975399999999
349,1.4541085000000749,-29.378355980000002,7.4073672295,-147.61894990000002,-2.565740794,-0.9365237205,11.755328657,-5.409233689500001,-0.9430007935,0.2556813805
350,1.4582750000000715,-29.390401840000003,7.411664485999999,-147.6294403,-2.145341635,-0.592309706,8.882300377,-2.5555770395,0.7648026945000002,-1.133116126
351,1.462441500000068,-29.420428280000003,7.430844307,-147.63993075000002,-3.5951240065,-0.865753263,12.735357765,-4.6621814965,2.2183212040000004,-0.1339880675
352,1.4666080000000645,-29.429839135,7.4173452855,-147.64015965,-1.6762598155,-0.9944266975,10.273342607,-2.4230748415,-1.6885802745,-1.112752885
353,1.4707745000000614,-29.44081688,7.4443809985,-147.65494535,-3.366615176,-0.387809187,12.594200135,-2.298621625,3.2868189814999997,-0.118427433
354,1.474941000000058,-29.451263429999997,7.4318609239999995,-147.65985875,-2.334107041,-1.6155403255,8.8489303585,-2.5063595775,-1.334565638,-1.4834549425
355,1.4791075000000546,-29.44144249,7.4525811675,-147.67732239999998,-2.1360717415,-0.168414958,11.117325305000001,0.2621489765,2.7803366165,-0.780485094
356,1.4832740000000513,-29.463317869999997,7.4656782150000005,-147.6993637,-3.246475816,-1.179466825,11.898769857,-3.6130735874999997,2.3234419845,-1.7163012025
357,1.487440500000048,-29.481519695000003,7.4818422794999995,-147.71822355,-1.9265812635000001,-0.686198212,9.9901843065,-3.0994314549999995,2.3644382955000003,-1.1449756025000002
358,1.4916070000000445,-29.490846635,7.5137913229999995,-147.75847625,-2.4375320074999998,-0.6129295375,7.6984126564999995,-1.8228759765000002,5.3679900145,-2.492783904
359,1.4957735000000412,-29.520692824999998,7.5164244175,-147.77708435,-1.6511927845,-0.891048193,8.9494812505,-4.541385174,0.9284391405000001,-1.8801619109999999
360,1.499940000000038,-29.53261757,7.537582874,-147.82058715,-2.4144462939999998,-1.812985718,7.017883181,-2.0454183814999998,4.416611554,-3.462269664
361,1.5041065000000344,-29.569922445,7.5573265554999995,-147.84368130000001,-2.865217164,-0.2681992650000001,14.174687865,-5.3482328655,2.9641432759999997,-1.3184863325
362,1.508273000000031,-29.581588744999998,7.567685127,-147.89981840000002,-1.6449708344999998,-1.7198905345,8.2969024185,-1.8074109555,4.0148074330000005,-5.3850796225
363,1.5124395000000277,-29.59432888,7.6231355665,-147.95223235,-4.1707364325,-0.0726350845,12.975428579999999,-1.9546356205000002,8.3826124655,-2.168994665
364,1.5166060000000243,-29.605299950000003,7.634982108999999,-148.01009365,-1.9738799335,-1.3278088855,8.226614952,-1.7076945935,4.256549359,-5.435155153
365,1.520772500000021,-29.600363729999998,7.677491665,-148.0643082,-1.655085083,-1.1862156685,10.997616293,0.18572878849999985,7.155227662,-3.1357266305
366,1.5249390000000176,-29.590321545000002,7.690622568,-148.1207275,-2.015111804,-0.34526084349999997,8.2732403295,0.8074439314999999,4.342835486,-5.281008363
367,1.5291055000000142,-29.587447165,7.698931217,-148.16503139999998,-1.937331323,-0.9432335195,9.942468882,-0.16548079249999997,2.9904112815,-4.151677489
368,1.5332720000000108,-29.58106613,7.735061168500001,-148.23926545,-1.4156549424999998,-1.646332562,10.674440622,0.6695369035000001,7.7612612225,-5.728296995
369,1.5374385000000075,-29.591814040000003,7.73722291,-148.26941685,-2.65876168,-1.2033212185,11.004626749,-1.997846663,1.5228304864999997,-3.0757898095
370,1.541605000000004,-29.56253624,7.7761011125,-148.3393555,-1.821368605,-0.09690407449999999,9.418797017500001,3.32317245,7.831004217,-5.162313223
371,1.5457715000000005,-29.547152519999997,7.774822235,-148.3700485,-3.021616936,-2.0391553045000004,8.7656381155,1.1222875115,1.1896790265000001,-3.3094558715
372,1.5499379999999974,-29.489837645,7.8516130445000005,-148.43965150000002,-2.0871901515,0.1915731925,9.7687627085,6.6479807509999995,11.762270271,-2.8723751305
373,1.554104499999994,-29.43799973,7.8931772705,-148.497879,-1.9900863915,-0.7754159125,7.360463978,5.9178684509999995,7.28890872,-3.6383806465
374,1.5582710000001043,-29.33750725,8.0187244415,-148.59127805,-2.3080358205000002,0.729278654,11.9553718555,12.265775916499999,18.269271372,-2.5617901685
375,1.562437500000101,-29.237986565,8.1308758255,-148.67914580000001,-2.6467330010000003,-2.49073565,6.5985522880000005,12.1334900865,16.4343261715,-2.651208222
376,1.5666040000000976,-29.111559865,8.309080839,-148.77111815,-3.8809677364999997,-0.0183058755,16.3845000255,15.496580125,23.67870808,0.5870791075000001
377,1.5707705000000942,-29.004436495,8.505023241,-148.9006119,-3.814781785,-1.376991689,12.1546278,13.817058564,27.60449171,-2.1355609895
378,1.5749370000000908,-28.872982025,8.718563556500001,-149.0086975,-1.081419647,-1.663139194,9.6357395635,16.539454465,28.312039375,0.8651200535000001
379,1.5791035000000875,-28.73179054,8.8785500525,-149.09483335,-2.968350053,-2.661824346,11.925945760000001,17.226938245,21.38357115,0.08848455499999996
380,1.583270000000084,-28.601242065,9.16543293,-149.2034683,-1.571308136,-0.6427414715,11.458485604,16.495319845,36.065703395,4.90233469
381,1.5874365000000805,-28.541799545,9.2754073145,-149.27486420000002,1.654520303,-4.3454653025,2.005313158,7.2283196465,15.27983618,-1.3373065890000002
382,1.5916030000000774,-28.50433922,9.4024376865,-149.29208375000002,-0.790411592,-2.1217077375,12.148976805,3.6656708725000002,14.0420174755,5.146868705499999
383,1.595769500000074,-28.487971305000002,9.5410585395,-149.38661195,-1.754027277,-0.5967281240000001,13.635394575,2.605420353,19.6052823045,-2.1529982685
384,1.5999360000000706,-28.493935585,9.615393636499999,-149.378273,1.5338780285,-3.3223484755,7.253652811,-1.985601188,7.044690135,4.714832425
385,1.6041025000000673,-28.528283119999998,9.558085439500001,-149.34503934999998,-0.7352912425,-2.2611395865,10.788669587000001,-5.972467422499999,-8.3369519735,-0.015740021999999992
386,1.608269000000064,-28.574402810000002,9.5526013385,-149.30274965,-0.4339612425,-0.9144948125000001,11.312697887999999,-7.417213437999999,-3.3102216749999993,3.662190378
387,1.6124355000000605,-28.629887580000002,9.422427177500001,-149.2208786,0.05590331549999994,-0.9258904455,7.4416732805,-9.44955158,-18.7783532155,0.854036689
388,1.6166020000000572,-28.68338299,9.257367370499999,-149.08265690000002,-1.3631902635,-1.585037708,8.0827453135,-10.244067669500001,-25.52722359,4.4555036425
389,1.620768500000054,-28.72327614,9.101833581000001,-148.95568845,-1.747850105,0.04077476999999999,9.6306037895,-8.457985161,-24.02609634,4.1162934305
390,1.6249350000000504,-28.73312855,8.8729178905,-148.79104615,-0.9949967115,-0.561160445,9.108550549,-5.3851656905,-33.75804615,3.4975195525
391,1.629101500000047,-28.690753935,8.6715943805,-148.61907195,-1.782047585,0.14159922349999998,9.235496998,0.6151521204999999,-31.413165095,6.2021024229999995
392,1.633268000000044,-28.63202381,8.404636383,-148.44462585,-1.524686158,-0.34229331500000004,8.3143038755,2.859468222,-38.286259650000005,2.327076435
393,1.6374345000000403,-28.522490505,8.142415761999999,-148.23976895,-1.8121500015,0.6082052665,10.7109279625,8.258030534000001,-39.712150574999995,6.262428522
394,1.641601000000037,-28.37986755,7.868729829499999,-148.0740738,-2.495369136,-0.5153061485,10.6971426,13.220540642000001,-38.541700365,1.3016220330000001
395,1.6457675000000336,-28.174232485,7.575321913,-147.85522459999999,-1.6347389369999998,0.39988344899999995,11.468563078999999,19.853281022,-43.772428515,6.170923948
396,1.6499340000000302,-27.908280375,7.2927656175,-147.69171905000002,-2.8415070775,0.5144209115,9.4520242215,28.08608055,-39.36098671,0.8815479875
397,1.6541005000000268,-27.585481645,6.9645597935,-147.4663315,-0.825002607,0.6751053335,8.9269599915,34.192619325,-47.75852203,5.326515435999999
398,1.6582670000000235,-27.19763374,6.6491975785,-147.2887955,-3.43224895,1.0224316715000001,11.72658634,42.67244339,-43.62376785,0.992978543
399,1.66243350000002,-26.736227035,6.363767385499999,-147.09758,-1.4608597455,1.3730165959999998,12.1849041,51.608348844999995,-41.278118129999996,4.770794153500001
400,1.6666000000000165,-26.187099455000002,6.0303735735,-146.9049454,-2.805234194,1.1728206275,10.512770174,62.046268465000004,-46.39168739,2.425792158
401,1.6707665000000134,-25.565120695,5.786280632,-146.73654935,-3.0195953245,1.2664644125,13.638597965,71.285980225,-35.53197479,5.2186317445
402,1.67493300000001,-24.864300725,5.5375163555,-146.58688354999998,-2.2584282460000003,1.380767405,7.961251022,80.974296575,-34.96260929,3.1158107514999998
403,1.6790995000000066,-24.087251665,5.279111743,-146.412056,-2.681441426,1.040088117,12.59723854,90.01571657,-37.22649002,6.0041316745
404,1.6832660000000033,-23.21227932,5.1072541475,-146.29830170000002,-4.592963219,1.105505526,14.503444195,102.370891575,-24.71221256,3.7766195535
405,1.6874325,-22.26320171,4.9158450365,-146.16137695,-1.6003294584999999,0.680150062,8.436528445,111.251682295,-27.82748032,6.130084753
406,1.6915989999999965,-21.229363444999997,4.7874456645,-146.06970215,-5.342979431,1.092832327,16.65608168,121.74091340000001,-18.728088378000002,3.9493510725
407,1.6957655000001068,-20.147909165,4.6800183055,-145.9700928,-0.6966438884999999,0.5732594129999999,10.8889918305,127.569191,-16.58810091,6.5178914070000005
408,1.6999320000001035,-18.977576255000002,4.588688254,-145.90434265,-5.0970370769999995,1.223843366,14.18936062,138.42285155,-13.3282399195,3.1587759855
409,1.7040985000001,-17.79715824,4.556941509,-145.830101,-2.727679253,-0.4058167265,10.915723086,139.70826725,-6.646703002500001,6.867106318499999
410,1.7082650000000965,-16.525556084999998,4.540618658,-145.79721065,-2.899214506,0.7491802275,10.686234476500001,150.9927063,-3.3176047805,2.6717382075
411,1.7124315000000934,-15.243167880000001,4.568706155,-145.75401305,-2.3785069285000002,-1.1080444455,15.521583555,152.20149995,1.5918421745,5.1703994275
412,1.71659800000009,-13.919356825,4.6527301075,-145.7390289,-4.428568244,-0.041229575500000004,12.606777669,157.4405594,9.060211643499999,3.571746588
413,1.7207645000000866,-12.564950464999999,4.7479543685,-145.7288284,-1.697232306,-0.7752527445,8.474845886,161.22479245,10.720228912,2.9376704095
414,1.7249310000000833,-11.191526888,4.899145365,-145.728096,-3.789874554,-0.7970208080000001,11.1045403465,163.5413208,17.448913095,3.1695301235
415,1.72909750000008,-9.77021265,5.0089216235,-145.70605469999998,-0.169546932,-0.8262445030000001,11.97571945,169.18058775,12.41665554,4.1931154725
416,1.7332640000000765,-8.3569667355,5.19059968,-145.71247864999998,-4.4509084225,-0.451510109,13.813483235,168.4608612,21.49362278,2.2113525865000003
417,1.7374305000000732,-6.97112751,5.390538931,-145.68592834999998,0.9905833455000002,-0.837886274,9.459970475,164.88124084999998,23.332491875000002,5.456559777500001
418,1.74159700000007,-5.6110839845,5.567618132,-145.6766205,-2.8692608474999997,-1.9580345749999999,8.3828308565,161.91127775,20.867952345,2.9638717175
419,1.7457635000000664,-4.231927395,5.7836771015,-145.62028505,-1.4073918165000001,-2.1646801235,12.770170215,163.73604585,25.26714039,8.024178147
420,1.749930000000063,-2.832907617,5.979303359999999,-145.57096865,-3.4832077024999997,-2.490721226,11.3974242225,166.12603000000001,23.00654316,6.8409154415
421,1.75409650000006,-1.467406958,6.2046396735,-145.48516085,-0.800716534,-2.2293003799999997,12.262282131,161.68440245,26.63571644,10.3228862295
422,1.7582630000000563,-0.1445937155,6.3897957805,-145.4060135,-1.9017274675,-0.208462201,5.5028448105,156.5191193,21.923015595000003,8.956591606
423,1.762429500000053,1.1372025905,6.6149361135,-145.289711,-2.63406837,-1.8277772665,12.349670650499998,151.13282775,27.06608391,12.930757044500002
424,1.7665960000000496,2.338691801,6.8305726055000004,-145.1931534,-1.959265053,-2.397928953,7.803223012,141.6299591,25.97375679,9.823926449
425,1.7707625000000462,3.543738127,7.1018271445,-145.05059814999998,-1.4534555975,-3.08604157,9.67876148,141.41680144999998,33.26264095,14.67697668
426,1.7749290000000428,4.711559653,7.241817713,-144.96797944999997,-0.7378896475,-2.1792401669999997,5.577828169,137.6917114,17.144542695,7.694836142
427,1.7790955000000395,5.8906903265,7.5294344424999995,-144.7980652,-3.7854969499999997,-2.8240369555,16.28406334,137.73036960000002,36.15317917,16.676627635
428,1.783262000000036,6.9808657165,7.688637495,-144.72053525,-0.16013577550000002,-0.6502566655,9.007138729000001,128.3855515,19.70553017,6.2662438155
429,1.7874285000000325,8.0521171095,7.887303591,-144.5624008,-0.2319489495,-1.6775133014999999,7.046222569499999,124.8132286,25.966463089999998,15.230217459999999
430,1.7915950000000294,9.0571975695,8.009205818,-144.4670258,-3.2611193655,-1.7355765105,12.0999615175,117.84154125,15.823679445,8.1249983295
431,1.795761500000026,10.0064773545,8.1953639985,-144.33501435,2.0374098120000004,-2.566019535,4.703477502,110.50790785000001,24.49693203,11.556777001
432,1.7999280000000224,10.9869666115,8.253968000499999,-144.23091125,-3.7672109380000003,-1.792876959,13.208986280000001,114.6793938,8.8444504745,10.066840173
433,1.8040945000000197,11.917793750000001,8.3549559115,-144.11714934999998,1.3246542215000001,-2.464318633,11.047683235000001,108.56586455,14.42371273,10.506012201499999
434,1.808261000000016,12.815181254999999,8.4349982735,-144.01711269999998,-3.5527089829999996,-1.323248029,12.72566462,104.68847654999999,11.585900306,8.8910961145
435,1.8124275000000125,13.689782145,8.4000873565,-143.9361801,1.942285776,-0.912953377,6.472984314,102.3513489,-2.0268921834999998,9.9875359555
436,1.8165940000000087,14.52774334,8.4808523655,-143.8489075,-3.917109847,-2.4477213620000002,10.416986464,97.75186921,11.54377651,6.9064623695
437,1.820760500000006,15.34073353,8.440458297500001,-143.78050995,1.886411041,-1.6437274815,8.9001951215,95.11367798,-2.7746353150000003,8.83250022
438,1.8249270000000024,16.111307144999998,8.398059368,-143.74067689999998,-3.5199665425,-1.9274225829999998,11.026223657500001,90.56254577499999,-3.986963868,5.0363488195
439,1.829093499999999,16.88827276,8.36862278,-143.68363955,1.178247005,-1.9242275954999999,15.965138435,90.993915555,-1.6566710494999999,7.1853196625
440,1.8332599999999957,17.58561039,8.3023393155,-143.66801455,-3.6070653200000002,-2.1475771664999996,6.335136890499999,82.20436477499999,-7.3345426300000005,3.4430499675000004
441,1.837426500000106,18.278522494999997,8.2400164605,-143.64022065,2.542942345,-1.5504250525,12.963623524499999,81.43190384,-6.277376651499999,5.132725
442,1.8415930000001024,18.919864654999998,8.135284424,-143.6348343,-5.4949395655,-2.087120414,8.9475393295,75.68762207,-12.046865464500002,3.775343269
443,1.8457595000000997,19.55849266,8.079271078,-143.6002426,2.4066848755,-2.2532211540000002,15.236263755,74.86611557500001,-5.1582956335,5.7182506325
444,1.849926000000096,20.113738060000003,7.9473040105,-143.6311264,-3.89108181,-2.1868342755,4.546846747,65.962999345,-16.340904235,1.427161941
445,1.8540925000000925,20.66915703,7.868896246,-143.585289,0.981836259,-1.6208221909999998,14.992437365,64.67156029,-7.1056590105,7.994744777999999
446,1.8582590000000887,21.147262575,7.755374193,-143.61159515,-5.375380397,-1.519984126,8.5681153535,56.63834381,-13.996215819,1.543083012
447,1.862425500000086,21.604411125,7.70353961,-143.56098939999998,1.594193578,-3.8582900765,11.280606984,52.832006455,-3.8043425305,7.4051196575
448,1.8665920000000824,22.026867865,7.580582380000001,-143.58487705,-3.5942884085,0.508233398,7.7708621010000005,49.913574215,-14.926363945,2.4149802925
449,1.870758500000079,22.42131329,7.527470112,-143.55380250000002,0.4351012710000002,-2.6909605265,11.706430436,45.64211464,-4.7109520435,5.34781456
450,1.8749250000000757,22.782876965,7.392311573000001,-143.56929775,-3.5169699189999997,-0.213747576,8.115288851999999,42.443561555,-15.869508745,4.0803554055
451,1.8790915000000723,23.112833025,7.36784482,-143.54258725,-0.1325194839999999,-2.0766905545,10.23295355,38.05779457,-1.6701996325,3.5641101600000002
452,1.883258000000069,23.414975169999998,7.261861563,-143.56531525000003,-0.7863299844999996,-0.9245895445000001,10.5064263325,35.377044675,-12.90713215,2.1747156380000003
453,1.8874245000000656,23.700526234999998,7.213680983,-143.53896329999998,-2.416917324,-2.4277626275,16.61032295,32.76673889,-4.2468146685,4.690508604
454,1.8915910000000624,23.95770645,7.148300409500001,-143.54520415000002,-1.515931606,-0.535518542,13.702114823,29.697291375,-7.6308241169999995,2.1211678985
455,1.8957575000000588,24.141626355,7.140179395500001,-143.50679775,-2.7136952874999998,-3.0997509955,8.3809027205,20.452312945,0.7742457390000004,4.100725889
456,1.8999240000000555,24.30440712,7.091845274,-143.50537875,-0.19008755699999957,-0.6688155535,3.3501541315,18.242441175,-5.3851190805,2.1232799885
457,1.904090500000052,24.43918514,7.092869282,-143.4706497,-2.1688089965,-2.8321847915,7.1415046435,14.58398056,1.6179165845,3.250242233
458,1.9082570000000487,24.5852108,7.050003529,-143.44490050000002,-1.171088219,0.10952431000000001,9.5577377325,15.878333569999999,-3.6477320185,4.3406791689999995
459,1.9124235000000451,24.69034195,7.055203199500001,-143.426918,-1.302533865,-1.823576033,11.327836632,11.2779116635,1.2587540145000005,1.226858139
460,1.916590000000042,24.803142545,6.963970422500001,-143.42398070000002,-0.8648042085,0.14958405499999994,10.2220382705,12.261409761000001,-10.087526919,4.1989554165000005
461,1.9207565000000384,24.883605000000003,6.9970724585,-143.38555910000002,-2.7876336575,-1.2747071385,15.73327494,8.010430334999999,5.3202047945,2.016673058
462,1.9249230000000357,24.960345265,6.9382064340000005,-143.3818512,1.056438327,-1.2013013364999998,7.345033227,7.9223821139999995,-6.5009957205,2.6891747710000002
463,1.929089500000032,25.042679784999997,6.89469552,-143.3663559,-1.841516733,-0.6490355135000001,9.7539860955,8.4851136205,-4.162185818,3.3736128805
464,1.9332560000000285,25.12067604,6.8098609450000005,-143.3850937,-0.9379501045,0.0034772459999999894,8.592973471499999,8.453057289,-10.435893058000001,1.6547951994999999
465,1.9374225000000247,25.190606119999998,6.735046625,-143.37799834999998,-1.0232238470000001,-0.451549843,12.5730960375,7.0355653765,-7.979573489500001,4.032731533
466,1.941589000000022,25.233350755,6.645557165,-143.3990402,-1.7267547475,-1.3979443315,8.9586958885,4.392752051,-11.049869178,1.7333027125
467,1.9457555000000184,25.31566906,6.5329697135,-143.41027830000002,2.0068016055,-0.32547231000000004,7.870462419,8.6581299285,-13.0049362195,3.960975289
468,1.949922000000015,25.38715172,6.386115074,-143.45417785,-5.1345908645,-0.7862735089999999,17.106337545000002,8.121316074,-18.3558621425,2.399836898
469,1.9540885000000117,25.48055172,6.326073646499999,-143.4377518,1.1569910049999996,-0.1215513755,8.6645449385,9.6716303835,-5.882600309999999,4.2964948415
470,1.9582550000000083,25.556329724999998,6.086652755999999,-143.5372238,-1.2500159739999999,-0.25201291200000003,6.4499357095,9.2382178305,-31.223358155,1.2323604819999998
471,1.962421500000005,25.638212205,5.9921450615000005,-143.5225677,-1.720548451,-0.47224114850000004,14.617546555,8.535574197999999,-9.682054997,5.988135576
472,1.9665880000000016,25.739426610000002,5.8346254825,-143.6027069,-2.5495599505,-0.5132277685,11.018854144999999,11.8383169155,-21.377012255,-0.9334927794999999
473,1.9707544999999984,25.83769512,5.6515148875,-143.61663055000002,0.22947168350000013,-1.5301804245,9.8237516875,10.9387569405,-20.716599465,7.5992856035
474,1.9749209999999948,25.916849135,5.491587162,-143.72105405,-2.7258808615000003,0.656448461,9.091617586,9.422738552999999,-22.879529955,-3.2954207660000003
475,1.9790875000001047,26.012286185,5.368876934,-143.71432495,-1.2785154429999999,-1.840748012,9.0520143515,10.3740906725,-13.0923762335,6.7212162015
476,1.983254000000102,26.102139475,5.2381654975,-143.79853055,-2.514745593,-0.01077705599999998,13.614415645,10.4983956835,-18.675937174999998,-2.5741996165
477,1.9874205000000984,26.19436264,5.132146000500001,-143.8172684,-1.8831371665,-2.4714184405,13.252591135,10.19509506,-12.619879725,3.1105995625
478,1.991587000000095,26.282330514999998,5.0041303635,-143.88991545,-2.2852172555,1.082718924,13.233606815,10.0448691855,-17.786338805,-1.4473005534999999
479,1.9957535000000917,26.354058265,4.946886182,-143.903038,-1.4142490105,-1.7596890925,8.579789160499999,7.7429171215000006,-7.0715408325,1.1704607009999999
480,1.9999200000000883,26.394963265,4.830737709999999,-143.9614563,-1.1206412295000001,0.0850896575,7.083115101,4.2775143385,-15.748699666499999,-0.4920163154999999
481,2.004086500000085,26.423677445,4.7747448685,-143.9886093,-2.170576453,-2.9204266075,9.8859219545,2.7264050245,-7.688958645,-0.39132809600000007
482,2.0082530000000816,26.446979525,4.676766038,-144.04725645000002,-0.9063048359999999,0.73550725,9.809689282,2.085389972,-13.797456740000001,-1.4771666524999998
483,2.012419500000078,26.468481065,4.6553065775,-144.0615463,-2.899247289,-1.9754691125,10.827175615,1.746871591,-3.2962769195,-0.8378608229999998
484,2.016586000000075,26.47737026,4.6125010255,-144.07667544999998,-2.88884902,1.0953685345,12.44864416,0.045971333500000044,-5.5832068945,0.22390103350000023
485,2.0207525000000714,26.487202645,4.6576395035000004,-144.08370209999998,-2.1459600925,-2.593306303,13.05077076,0.3096057175,4.2322344035,-3.6098086845
486,2.024919000000068,26.50199604,4.6260768175,-144.07106779999998,-3.2703690525,0.6865394225000001,12.2052145,0.48778471349999997,-2.9080291984999995,2.566066265
487,2.0290855000000647,26.490265845000003,4.704236269,-144.07107539999998,0.16044956450000003,-0.6292063145,6.6746726034999995,-2.4149168135,8.149593115,-4.6648205495
488,2.0332520000000613,26.46994972,4.6976048945,-144.0353241,-2.9583297374999997,0.44636920049999995,10.1401524555,-3.952277571,0.9807507990000004,3.656131625
489,2.037418500000058,26.440765380000002,4.8181011675,-143.99604035,-0.6616739035000001,-2.242979169,10.623340129999999,-4.90535748,14.78993225,-2.7127074004999994
490,2.0415850000000546,26.418668744999998,4.8645337820000005,-143.9512863,-3.668873429,-0.3326055555,13.422005655,-4.2644375565,7.1643669325,1.8009175060000002
491,2.0457515000000517,26.391729355,4.9573905465,-143.91088105,0.6409568785000002,-1.6871443985,9.729682207,-4.7087938785,11.882228376499999,-1.1394822594999998
492,2.049918000000048,26.3587265,5.0135558840000005,-143.8768692,-4.1976987125,1.0874430535,10.009082316,-5.504794179999999,7.6141006945,0.06035351749999984
493,2.0540845000000445,26.321825985,5.1266705990000005,-143.81739040000002,0.5821526945,-0.884661067,8.958700657000001,-6.180536747,15.092218875,-0.17020058650000003
494,2.058251000000041,26.275170324999998,5.2151498795,-143.76710509999998,-5.8974176645,-0.9189268055,15.18556976,-7.261354686,11.941192864,0.13441669950000001
495,2.062417500000038,26.226792335,5.321241379,-143.71690365,2.6149602235000002,-0.7079092565,9.854375364,-7.4955215455,13.844229461000001,-0.782240152
496,2.0665840000000344,26.18984699,5.387442350500001,-143.67814635000002,-4.847196102,0.05876898800000002,11.116330145,-5.9842157364999995,8.924934984,0.07684886450000006
497,2.070750500000031,26.131142615,5.4953136444999995,-143.627861,3.6846143605000004,-1.329775035,7.054027080499999,-8.749607084500001,14.042664049999999,-0.8395646215
498,2.0749170000000277,26.06799698,5.5886425975,-143.59274290000002,-6.585500002,-0.15730749449999998,11.184143066,-9.110728740999999,11.6695683005,-1.709911942
499,2.0790835000000243,26.013824460000002,5.697287798,-143.5192261,1.8412361295000002,-0.3434268239999999,15.49827576,-8.479416847500001,15.328396318,1.6271373035
500,2.083250000000021,25.956706044999997,5.787047386,-143.50617215,-6.725824833,-0.9846851825,10.75359583,-8.1325206775,10.108582974,-3.9140350225000002
501,2.0874165000000175,25.918571475,5.8830754755,-143.41639709999998,3.4441133145,-0.6505488455,4.5834100245,-6.7630310055,14.816892145,4.0858685075
502,2.091583000000014,25.88034821,5.9508137705,-143.42552185,-4.183026075000001,0.729679763,8.6917121405,-5.611310959,6.573279619000001,-5.151792407
503,2.095749500000011,25.843952180000002,6.0375506875,-143.33118435,1.8536034225,-1.195176244,12.132641315,-6.694704532499999,14.049925566499999,5.046632886
504,2.0999160000000074,25.81551743,6.1278984545,-143.3273468,-5.011013985,0.42760285150000005,14.982063295,-4.5962700845,9.6898782255,-4.9452126025
505,2.104082500000004,25.798129080000002,6.2139775754999995,-143.23201755000002,-0.9557598085,-2.4388979675,11.334062575,-4.343534708,14.0136137,5.2690028845
506,2.1082490000000007,25.776856425,6.288116932,-143.2403183,-3.23654592,1.2618159055,12.049409865000001,-3.6294925210000004,7.314234733499999,-5.4316398205
507,2.1124154999999973,25.774570465,6.360316038000001,-143.160202,-0.7655418815,-2.2612447739999997,11.683469773999999,-2.4262702465,11.721524714000001,4.313002093000001
508,2.116581999999994,25.763342854999998,6.4295334815,-143.1614456,-2.0198634269999998,1.2472398805,9.886724472000001,-2.4966197610000003,7.136049509,-4.427555889
509,2.1207485000001043,25.760498045,6.468082428,-143.12121580000002,-0.4209864139999999,-1.9001376629999998,7.275861024999999,-1.9905592799999998,6.0283491609999995,1.8003029225
510,2.124915000000101,25.734464645000003,6.5183844565,-143.10442354999998,-0.93136251,1.381299436,11.794172289999999,-4.548396945,6.0220477585,-1.5383721590000001
511,2.1290815000000975,25.71808338,6.582118272500001,-143.09738925,-3.0433365104999996,-3.112735033,10.423073290000001,-3.1023197175000004,7.027201891,-3.036138594
512,2.133248000000094,25.697995185,6.611421585,-143.06830595,-0.4464480875000001,0.932884574,11.310391905,-3.9788383245,4.386757791,0.8961079119999997
513,2.137414500000091,25.656570430000002,6.674312115,-143.0895767,-2.8430761995,-1.7116036415,12.960608480000001,-5.7419312,5.4734039305,-6.051774025
514,2.1415810000000874,25.620822905,6.745950699,-143.0248642,-1.2737042905,0.06482775499999999,10.7276089185,-6.3258461955000005,10.773463249,2.493103862
515,2.145747500000084,25.583171845,6.7833194735,-143.08786775,-1.8249180315,-1.026302457,8.065804481499999,-4.731589913500001,0.5848434569999998,-9.2030539525
516,2.1499140000000807,25.53724289,6.8348481654999995,-143.00927735,-1.3495723009999998,-0.4723362175,11.5441851595,-7.7422106265,9.287773610999999,5.011067152
517,2.1540805000000773,25.483808515,6.892180443,-143.07714844999998,-2.784660231,-0.750045845,12.356126783,-6.519054174000001,2.5100158455,-10.737411023
518,2.158247000000074,25.439233780000002,6.9232320785,-143.00022890000002,-2.475616634,-0.94491826,12.15263605,-7.512733698,6.9624757765,5.9264051915
519,2.1624135000000706,25.354729650000003,6.990740537500001,-143.0600281,-1.675629519,-0.6476713605000001,13.0470767,-10.370091914500001,4.0486507419999995,-10.394950865999999
520,2.1665800000000677,25.29390335,7.0738637445,-142.9695511,-3.3430457115,-0.9168649915,9.690698622,-9.6193146695,13.263889552,4.7393910885
521,2.170746500000064,25.206889150000002,7.1056413655,-143.03134154999998,1.035883784,0.6168082429999999,7.1465365885,-10.712732794,0.12940943249999992,-8.784697771
522,2.1749130000000605,25.113039015,7.199813604500001,-142.9509354,-3.294820786,-2.3744920494999997,11.483188154,-13.481519225,13.931446075,3.09432888
523,2.179079500000057,25.00328064,7.2702510359999994,-142.98840330000002,0.6719513535,0.1485493335,9.4197473545,-13.788236616999999,5.594624281,-8.114938022499999
524,2.183246000000054,24.880712510000002,7.347578286999999,-142.9489975,-4.6612420085,-1.7251009940000002,14.49616146,-16.328733445,10.014771938500001,-0.45526100699999994
525,2.1874125000000504,24.72555637,7.459362507,-142.94911955,-0.53216064,-0.226264924,14.172706125,-19.806370735,11.99827719,-6.146470903999999
526,2.191579000000047,24.585679055,7.5716257095,-142.9390793,-5.4103245735000005,-1.844061494,9.6417183885,-17.970237735,12.486741541,-5.025297046
527,2.1957455000000436,24.435880660000002,7.6394090655,-142.94878384999998,1.6582772135,0.96008116,6.6397349835,-19.063761715,6.770806434,-4.957720307
528,2.1999120000000403,24.269973755,7.7417533395,-142.9656372,-3.237832546,-1.6811225415000002,10.6262652855,-20.700782775,10.045882701,-7.5857617855
529,2.204078500000037,24.11281395,7.8108980655,-142.98308559999998,-0.697092533,-0.2659215035,9.8992669565,-19.77682543,6.552917242,-5.8094274995
530,2.2082450000000335,23.910108565,7.88862133,-143.0286331,-2.479378283,-1.7941732405000002,13.5106678,-24.6147089,5.9544301035,-9.534277917499999
531,2.21241150000003,23.676773075,8.001390934,-143.03831485,-2.363028824,-1.779011965,11.51022863,-29.007127765,11.753756525,-6.9947177155
532,2.216578000000027,23.39493179,8.0669341085,-143.11201475000001,-1.6886766255,-1.8503918050000001,7.5776460175,-33.643296245,3.409733415,-11.839886665
533,2.2207445000000234,23.03849697,8.164856434,-143.16949465,-1.80599574,-2.90393129,10.805086611,-43.032874105,8.006410598999999,-11.407369373
534,2.22491100000002,22.633331300000002,8.3091580865,-143.2235336,-3.47360909,-2.266449213,16.099176410000002,-48.77323437,13.183061122,-13.3436718
535,2.2290775000000167,22.140849115,8.429308176,-143.29262545,-1.7465950545,-3.2550705669999997,7.092441797,-59.031238555,10.110493182999999,-13.3951416035
536,2.2332440000000133,21.52130413,8.558857678999999,-143.39215085,-0.5082358119999999,-3.3039939405,9.52338314,-73.65221977499999,9.726458548,-17.535397529999997
537,2.23741050000001,20.82955551,8.712783098,-143.4788742,-4.9496136905,-2.0826611515,13.5597441215,-82.559272775,13.406523229000001,-16.507270339999998
538,2.2415770000000066,20.04858589,8.995223522500002,-143.5341339,-0.9090105595,-2.520826578,10.793678759999999,-93.730937955,29.14093113,-18.65446568
539,2.2457435000000032,19.12701988,9.09844923,-143.6644211,-2.6459561585,-5.034977436,7.7222151755,-109.21817397500001,6.3284891405,-18.96831417
540,2.24991,18.128035545,9.4461817755,-143.7051315,-3.356314659,-3.2215287685,17.056250095,-120.17266085,37.778121944999995,-18.423080445
541,2.2540764999999965,17.05929184,9.6981081965,-143.78246305,-2.0913433135,-1.823002696,3.2271211145,-127.7978554,25.88537979,-18.0661726
542,2.258243000000107,15.88973236,9.948864461,-143.85781859999997,-0.284959301,-3.352467537,5.3899953365,-139.88257215,26.06632137,-17.740089415
543,2.2624095000001034,14.651498315000001,10.258052347,-143.92739104999998,-5.556971073,-1.272125274,15.70620537,-148.20289609999998,33.431796075,-17.742733
544,2.2665760000001,13.38741112,10.5626707085,-143.99188235,1.0685873774999999,-1.288204849,6.156639576,-151.4246063,33.42583847,-16.897791865000002
545,2.2707425000000967,12.002126216499999,10.82647562,-144.07973485000002,-4.232469559,-3.3935475349999997,16.414167405,-165.39752195,28.469420435,-17.37449741
546,2.2749090000000933,10.6328139315,11.155623915,-144.15461735000002,-2.5821834359999998,-0.086548179,15.746333595,-163.7204285,36.786840440000006,-16.60850525
547,2.27907550000009,9.187366723,11.497450355,-144.2185135,-0.2784724234999998,-1.753472328,2.9899539940000004,-173.1062546,39.055147175,-15.149238109999999
548,2.2832420000000866,7.7203843585000005,11.66564226,-144.35336305,-1.454229295,-1.8483596965000002,8.634057762,-173.9599152,17.61675596,-18.93469572
549,2.2874085000000832,6.234271884,12.04974985,-144.44325255,-5.0751850605,-1.2269169389999999,14.152404310000001,-177.26847075,44.392314909999996,-16.65965414
550,2.29157500000008,4.711366415,12.248608115,-144.59403989999998,1.789599523,-1.1964523045,5.837616801499999,-180.16427614999998,22.15300655,-20.50036335
551,2.2957415000000765,3.144660371,12.46431208,-144.7408142,-3.770080805,-0.9883404675,14.90927267,-185.30590825000002,24.62512779,-19.752985000000002
552,2.299908000000073,1.5589823725,12.7821393,-144.9088516,-1.180441499,-0.20436990249999998,14.047819615,-187.11799625,37.342901229999995,-21.562685965
553,2.30407450000007,-0.0510629414999999,12.90683222,-145.0867157,0.06267929100000003,-2.9154756065000003,-1.0986821655,-189.482872,14.573556901,-22.371333125
554,2.3082410000000664,-1.704269767,13.086839675,-145.27447510000002,-2.0515609385,-1.0465868115,12.085325245,-194.53321835,21.923503875,-21.867072105
555,2.312407500000063,-3.289482478,13.247262,-145.4752121,-3.7703979015,0.15583908550000003,15.799438474999999,-185.71434779999998,20.057888505,-24.18709278
556,2.3165740000000596,-4.887602210000001,13.394006730000001,-145.6606903,0.9318433405,-0.05365723349999996,9.768539192,-187.8722305,18.968603129999998,-20.36623669
557,2.3207405000000563,-6.5449984075000005,13.424806595,-145.87094115,-1.749759555,-0.17192947850000007,11.756919144000001,-193.95600124999999,5.815226792,-25.550533295
558,2.324907000000053,-8.1347668165,13.49679947,-146.0379715,-1.673470318,0.8883218765,9.7472991965,-187.3489151,10.937553404,-18.732808114999997
559,2.3290735000000495,-9.7133393275,13.56826067,-146.23711394999998,-3.3241907950000003,0.7611464259999998,14.852561949999998,-184.7887192,11.905358791,-23.097625735
560,2.333240000000046,-11.268211364999999,13.501517775,-146.38311005,-0.175573945,-0.46126401449999993,6.922466755,-183.7039566,-5.062353611000001,-18.202489855000003
561,2.337406500000043,-12.797321321,13.486721039999999,-146.56803135,-0.4889818805,0.5000950845000001,7.425926327,-179.34436035,2.686299205,-22.64039993
562,2.3415730000000394,-14.243766305000001,13.36745644,-146.6892166,-2.062827766,2.6459884645000002,8.265969515,-171.4341202,-10.858772038,-17.32869482
563,2.345739500000036,-15.666519165,13.287178520000001,-146.852684,-0.330338351,1.087591596,11.82491684,-167.22987365,-4.6078795195,-21.86292553
564,2.3499060000000327,-17.00765848,13.16682005,-146.9639511,-3.167674303,1.2315122185,12.979997635,-158.9681549,-10.443019388,-17.11255169
565,2.3540725000000293,-18.28738594,12.972178934999999,-147.06549075,-0.8316607625,2.3040250540000002,12.355936525,-151.8430176,-18.866363525,-19.28643799
566,2.358239000000026,-19.522444725,12.849157335000001,-147.17440795,-2.7407474515,1.3254424035,11.158082486,-146.32002260000002,-10.1804823855,-17.39347315
567,2.3624055000000226,-20.62736416,12.654295444999999,-147.24808505,-1.7774616184999998,2.7814089060000002,7.5871503350000005,-131.76173405,-19.251063350000003,-16.565320970000002
568,2.366572000000019,-21.654203414999998,12.43617773,-147.30799105,-0.3634892704999999,2.9766864775000004,9.709003927,-122.7354469,-22.11783123,-16.56987667
569,2.370738500000016,-22.597771639999998,12.26690197,-147.36111449999999,-2.6948628725000003,2.0376270415,11.1359505665,-113.05021667,-16.75335741,-13.717102050000001
570,2.3749050000000125,-23.424548145000003,12.034353255,-147.40904235,-3.1970354915,2.4689624905,10.678348062000001,-99.08273314499999,-23.79380703,-16.478399275
571,2.379071500000009,-24.17461109,11.827031609999999,-147.43292235,-1.3765828310000001,2.7527884245,10.8057022075,-90.642711625,-21.96895218,-12.74774933
572,2.383238000000006,-24.846139905,11.62758398,-147.4753113,-2.6531336305,1.960265577,13.455400465,-80.60181427,-19.98370266,-14.99856329
573,2.3874045000000024,-25.394578935,11.43886423,-147.4898605,-2.2185441255,2.962170005,8.197187424500001,-66.75881004,-20.17143345,-11.082685470000001
574,2.391570999999999,-25.87569046,11.219024182,-147.50893405,-2.3070568445,2.1493926045,9.063115597,-58.3454628,-23.04237175,-14.0247283
575,2.3957374999999956,-26.28206444,11.062875269500001,-147.51470949999998,-3.433680773,1.8899598119999999,16.614976884999997,-49.912073135,-16.962237358,-8.7939648645
576,2.399904000000106,-26.586221695,10.8803982755,-147.54116820000002,-1.9534076525000001,2.3898919225,7.4288680555,-36.994296075,-18.463832855,-13.01344776
577,2.4040705000001026,-26.813935280000003,10.711856366,-147.5248871,-3.251418054,2.7834105495,12.533443452,-28.968624589999997,-19.343434334999998,-7.3974208835
578,2.408237000000099,-27.004740715,10.58049059,-147.5470123,-2.3598582745,1.509875834,14.483185765000002,-23.545387504999997,-13.101727485,-9.916440966
579,2.412403500000096,-27.101823805,10.445199965,-147.545166,-2.7237032655,1.6259472369999999,8.7498819825,-12.8617026795,-14.92850065,-7.3985922335000005
580,2.4165700000000925,-27.142320634999997,10.3101615915,-147.5467987,-2.5134821535,2.7591531275000003,11.8198485395,-6.064483880999999,-14.529767272499999,-7.9957237244999995
581,2.420736500000089,-27.16051769,10.2299890545,-147.56225584999999,-2.5411171020000003,0.19659447649999995,8.4783715025,-2.97011161,-8.077085258,-6.28525424
582,2.424903000000086,-27.106154445,10.1095099425,-147.56671145,-2.7412080465,1.188278973,13.560794116499999,5.298868059,-12.9915392425,-7.187811136500001
583,2.4290695000000824,-27.04775238,10.0336728075,-147.57503509999998,-2.134360954,0.487484336,9.963530064499999,5.992304095500001,-7.9726679325,-5.2976834775
584,2.433236000000079,-26.945052145,9.979847429,-147.6108093,-3.360206008,0.9072178605000001,13.862609865,11.854829071000001,-4.0351265665,-7.1808822155000005
585,2.4374025000000756,-26.83433151,9.908208369,-147.61362455,-2.7951349320000003,-0.6590521935,8.391921997,12.15224791,-7.832239149,-4.465119183
586,2.4415690000000723,-26.719526295,9.9106802945,-147.67146300000002,-2.334540844,0.7834207120000001,12.072943684999998,13.760514259999999,3.1481505485000003,-6.4616460799999995
587,2.445735500000069,-26.606467245,9.868873595,-147.6870804,-3.5559790135,-0.717937261,11.80945873,12.672370910000001,-3.9443631175,-4.2228473425
588,2.4499020000000655,-26.477761270000002,9.885289669999999,-147.74788665,-2.492460489,-0.33344726999999996,11.030315394999999,15.497582435,4.774026811,-6.039050102
589,2.454068500000062,-26.383912085,9.912868022000001,-147.7906189,-4.097468376,-1.4422144289999999,12.061357975,10.95285988,4.9226786795,-3.3791265485
590,2.458235000000059,-26.273296355,9.934189321,-147.83512115000002,-0.7442095129999999,0.171778351,9.2882785795,12.932687759,4.332846351000001,-3.868461013
591,2.4624015000000554,-26.210376735,10.0304541575,-147.91294095,-4.6398506165,-1.6513355975000001,11.6546464,7.987218858,14.140925404999999,-3.48040545
592,2.466568000000052,-26.145820614999998,10.048426149,-147.93790435,-0.41957539699999996,-0.33974498500000005,8.6404201985,7.048205627000001,2.955197596,-2.0216997265
593,2.4707345000000487,-26.130924225,10.191690923,-148.0303268,-3.330789685,-1.1741081480000002,8.820094108500001,2.54614532,19.948904990000003,-2.5539061725
594,2.4749010000000453,-26.118714335,10.23211241,-148.05015565,-0.8942552469999999,-0.768915255,10.0959305765,0.6529195309999998,5.1183719635,-0.3027861114999999
595,2.479067500000042,-26.139385224999998,10.384483813500001,-148.1387024,-3.4699041845,-1.6218903660000001,9.899238585500001,-1.7625935675000002,20.725990295,-1.672929704
596,2.4832340000000386,-26.18379307,10.478651523,-148.1697769,-1.938956022,-0.421710722,11.334009649999999,-5.8504140375,11.4887747765,1.319024563
597,2.487400500000035,-26.24069214,10.604594708,-148.24119565,-2.4941986800000002,-1.646121323,10.66222286,-6.4641970405,17.00274229,-1.2350929229999998
598,2.491567000000032,-26.31394863,10.752375126499999,-148.2917633,-3.3094019890000004,0.2589459865,11.7986717225,-8.884025095,18.30115223,2.105791792
599,2.4957335000000285,-26.403182985,10.855027674999999,-148.34706115,-2.036961913,-1.6026581525,8.5565543175,-10.6373193255,13.640384195,-0.7452590465000002
600,2.499900000000025,-26.495357515000002,11.02404213,-148.3998337,-1.899351418,0.1309612095,12.928810595,-11.09146261,20.69585705,3.07198751
601,2.504066500000022,-26.607228275,11.10969305,-148.43976595,-2.024408236,-1.1355963945,7.1601274010000004,-13.676654339999999,11.0311632135,-0.043825864500000034
602,2.5082330000000184,-26.72257996,11.25519037,-148.4870987,-2.087766528,-0.087461591,11.956077575,-13.93879175,17.91235542,2.356978059
603,2.512399500000015,-26.85440731,11.345265865,-148.52368165000001,-1.7900252340000002,-1.4485749005,7.972101212,-16.110597135,11.3201313015,0.5755264760000001
604,2.5165660000000116,-26.981508255,11.4655776,-148.55236055,-1.419616461,-0.30833691350000003,10.942421915,-15.795836444999999,14.22664356,3.0330916795
605,2.5207325000000083,-27.116381645,11.54401493,-148.59304045,-2.6147997380000003,-0.89970018,10.0732717505,-16.38471985,10.2954344725,-0.41756343799999995
606,2.524899000000005,-27.235971455,11.650947095,-148.6135635,-1.8334351775,-0.374280207,11.192702295,-15.105583195000001,12.28322649,3.3361845015
607,2.5290655000000015,-27.371440885,11.718476295,-148.65306855,-2.5676977635,-0.688722879,9.8680572525,-16.45804024,9.064503195,-0.8583846095
608,2.533231999999998,-27.47526455,11.81453371,-148.66037749999998,-1.171562791,-0.08731377099999998,11.289440155,-13.52631092,10.387579917,4.16484344
609,2.537398499999995,-27.61188221,11.868816375,-148.6945343,-2.8227635625,0.001184381499999998,8.7316432,-16.721444130000002,7.378855585,-1.0100529645
610,2.541565000000105,-27.723257065,11.945763585000002,-148.6905899,-1.109921135,-0.19267112750000004,11.661190031,-14.64843273,7.7510168555,4.207991123
611,2.545731500000102,-27.84819794,11.9950552,-148.71771999999999,-3.0134994985000003,-0.30803959049999996,10.120548246,-15.508224965,6.463516593,-0.496051762
612,2.5498980000000984,-27.934866905,12.057225225,-148.6936569,-0.8123181464999999,-0.3297088815,12.647811415,-12.166179660000001,5.0543868545,5.481209993
613,2.554064500000095,-28.041962625,12.086802005,-148.71018220000002,-2.9934751985,0.13645604249999999,8.2281856535,-13.672003745000001,3.8109569545,-0.46989315750000005
614,2.5582310000000916,-28.128350255,12.12929344,-148.6763229,-1.1643671095,-0.40435840199999995,11.87353611,-12.351486685000001,2.3995164635,5.3794959785000005
615,2.5623975000000883,-28.2356081,12.162127015,-148.68398285,-3.0342810155,-0.5099561255,9.9123425485,-13.95555401,3.6703801154999995,0.684438139
616,2.566564000000085,-28.33121395,12.192923069999999,-148.64297485,-0.5041707605,-0.3592611705,10.418251039000001,-13.626821515,0.7514321805000002,5.433363795
617,2.5707305000000815,-28.428574564999998,12.223941804999999,-148.6448975,-3.7095652814999998,0.20556807549999995,11.209378245,-12.949362755,3.1473748689999996,1.2304697935000002
618,2.574897000000078,-28.520213130000002,12.253326895,-148.61675265000002,-1.2617788315,-1.442352012,9.1540417685,-12.834213735,1.3033812045000004,4.0332632065
619,2.579063500000075,-28.608493805000002,12.295106409999999,-148.6168213,-2.8115935920000004,0.89996174,10.744951008500001,-11.922410487,4.1799888635,2.0506952405
620,2.5832300000000714,-28.69857502,12.331277844999999,-148.6084061,-1.3566672805,-1.3029702605,10.3892147565,-12.193534851999999,3.1265763339999997,2.426186919
621,2.587396500000068,-28.76403713,12.373904705000001,-148.59417725,-2.6566308735,0.8088120445,11.817060234,-9.4945003965,3.4538049699999998,3.5202101470000002
622,2.5915630000000647,-28.828022955,12.408251765,-148.59547425,-1.483181387,-0.9316801575,7.4464917765,-8.828529836,3.4701207875,1.359040171
623,2.5957295000000613,-28.877492905,12.45818138,-148.57192995000003,-2.4181470275,-0.08621293299999999,12.782202241500002,-7.720957519000001,3.667933346,4.844926834
624,2.599896000000058,-28.921060565,12.48889971,-148.58232114999998,-1.506433219,-1.036994904,10.1410923025,-6.2048500775,3.6105954634999997,0.25892168299999996
625,2.6040625000000546,-28.963846205,12.54028177,-148.55162815,-2.7980774045,0.24281185850000003,11.393264774999999,-7.0709974765000005,3.413086892999999,5.6282622815
626,2.608229000000051,-28.987153055,12.542556765,-148.54434965000002,-1.7769977449999999,-0.7125633060000001,11.9160881025,-4.2703478335,-0.37230348499999977,0.4368507565
627,2.612395500000048,-29.01126957,12.616055965000001,-148.52269745,-2.0207072495,-0.7661905284999999,7.5359392745000005,-4.644406199,6.237068893,6.032877922000001
628,2.6165620000000445,-29.03151703,12.559351445,-148.48468015,-0.5249519945,-1.2046483755000001,11.048461915499999,-4.648452520499999,-8.311173199999999,0.101598829
629,2.620728500000041,-29.05383015,12.625630375,-148.4728088,-4.1924507615,0.095393315,13.461610315,-4.23611474,6.025205731,4.6752580405
630,2.624895000000038,-29.070333480000002,12.560103895000001,-148.42645265,0.12592112999999994,-0.8532991409999999,9.471717358,-4.2868955135,-9.733617901,0.37866830799999995
631,2.6290615000000344,-29.060212135,12.588027955000001,-148.39115145,-4.145709753,-0.1962555275,13.391483305000001,-1.04457438,0.6528940200000002,4.921141863
632,2.633228000000031,-29.07081032,12.563243385,-148.3629303,-0.04571402049999995,-0.8972104785,6.7837781690000005,-3.1221126915000004,-4.415422201,0.895864397
633,2.6373945000000276,-29.043971065,12.499209884999999,-148.2888565,-2.7638914285,-0.05711673249999999,12.2457931055,-0.0063273910000001266,-11.199795007,3.5040341615
634,2.6415610000000243,-29.038525579999998,12.507029535000001,-148.2772751,-3.401287377,-0.633464005,13.1638841605,-0.8930019734999999,-0.031953812000000026,1.148382306
635,2.645727500000021,-29.001403805,12.45641756,-148.21647645000002,-0.943762243,-0.814216286,8.9066782,1.667217936,-9.0445468425,2.9000757935
636,2.6498940000000175,-28.96729851,12.441572185,-148.19924924999998,-4.614222765,0.030002966500000006,14.011703494999999,2.2916032375,-2.7063632015000003,0.423941374
637,2.654060500000014,-28.929452894999997,12.455565454999999,-148.186203,-1.582395703,-1.2156249285,8.339080691,2.982374191,0.4561641215000001,1.7618047
638,2.6582270000000108,-28.88988018,12.39598131,-148.16607664999998,-1.7957346140000001,-0.6150213775,10.642744424,2.9279313085,-7.577837763,-1.8834787159999997
639,2.6623935000000074,-28.87481785,12.437770365,-148.18576050000001,-3.7398421765000003,-1.441555142,14.230244635000002,0.9898365734999999,5.249503195000001,0.0459007025
640,2.666560000000004,-28.841344835,12.398528575,-148.1835632,-1.150314361,-0.575342238,6.9818229675,2.784248352,-4.4479001735,-2.578796685
641,2.6707265000000007,-28.81696224,12.421569824999999,-148.2051697,-3.2016552684999997,-1.0306467565,12.973342895,2.119469419,3.3646740905000003,-1.1764427425
642,2.6748929999999973,-28.81062889,12.42362499,-148.2391434,-1.072450936,-1.0567645135000001,8.9340110995,0.488604426,1.941905975,-3.9295632840000003
643,2.679059499999994,-28.784197804999998,12.410463335,-148.24433894999999,-2.769842755,-0.6749909075,9.1835553625,1.9967900365,-1.3652510644999998,-1.6248840245
644,2.6832260000001042,-28.786484715,12.442750929999999,-148.28650665,-2.095581919,-0.428691849,12.40698862,-0.4010421335,5.577314377,-2.9721542595
645,2.687392500000101,-28.777179715000003,12.437995435000001,-148.30580905,-2.614841163,-1.5692552924999998,10.967925074,0.4004783034999999,0.30400228500000015,-2.631779373
646,2.6915590000000975,-28.76930618,12.476442335,-148.3292084,-2.674449325,-0.4013954995000001,8.6309826365,0.23973637849999996,5.178315876000001,-0.642142542
647,2.695725500000094,-28.775203705,12.486379620000001,-148.36747739999998,-1.467618823,-0.6615826039999999,11.07621622,-0.8841074405,2.876196624,-3.7083843945
648,2.6998920000000908,-28.78758049,12.519266604999999,-148.3747177,-3.0208501815,-1.360468119,10.3450393665,-2.6528416425,3.6927809700000003,0.719260484
649,2.7040585000000874,-28.81172466,12.55463123,-148.4254532,-2.467086673,-0.5792509615,8.418710947,-2.7430220245,6.2328166945,-3.497822821
650,2.708225000000084,-28.81778812,12.608307360000001,-148.4443588,-1.3734046370000002,-1.0729033650000002,8.6961250315,-1.5624297855,6.528186319000001,0.7241080105000001
651,2.7123915000000807,-28.85217381,12.634523864999998,-148.49156190000002,-2.7086587549999996,-1.4319233594999998,11.240082264,-4.09604311,5.1310315135,-3.717285275
652,2.7165580000000773,-28.868613245,12.687146665,-148.51279449999998,-1.638796069,-0.48479354350000003,7.348002193499999,-2.712976694,6.540967345,0.41678847350000003
653,2.720724500000074,-28.891259195,12.71484375,-148.5571899,-2.693192735,-0.126227349,12.405200957999998,-2.7717615405,5.076960324,-3.2416291834999997
654,2.7248910000000706,-28.897021295000002,12.78169489,-148.59950255,-2.585487932,-1.6099976005,10.4394376255,-0.870691866,9.2428269395,-0.9455751185
655,2.729057500000067,-28.91490555,12.81747961,-148.6507568,-1.930381954,-1.202561399,8.20336032,-2.0379393395,6.3315390345,-3.4728745225
656,2.733224000000064,-28.91166878,12.880449295,-148.7043076,-2.615930438,-0.9358510375,13.124909403,0.5629117489999997,9.460214138,-2.338752925
657,2.7373905000000605,-28.93052101,12.913907524999999,-148.76019285,-2.1360867025,-0.9274764660000001,12.173934939999999,-2.0849797725,6.362570524,-4.053433776
658,2.741557000000057,-28.91993618,12.956956385,-148.8054886,-2.344590783,-0.7578864245,9.259180784,1.323641345,6.881047309,-2.6809078455
659,2.7457235000000537,-28.929371835,12.999325275,-148.8685913,-1.634338915,-1.308544397,8.815903425,-0.7853389829999999,7.6985454855,-4.233399391500001
660,2.7498900000000503,-28.959564205,13.014520645000001,-148.91066745,-1.1467670054999999,-1.1312815250000001,8.0267548545,-3.604979813,3.77236366,-4.0010654925
661,2.754056500000047,-28.990707399999998,13.030258175,-148.9623413,-1.6800998445000002,-1.9293420015,9.3399193265,-3.7357532979999997,4.2201263905,-4.5171027185
662,2.7582230000000436,-29.039208414999997,13.06078291,-148.9990463,-2.593448962,-1.3769176005000001,11.2716588995,-5.9591457845,5.0641286385,-2.5173227785
663,2.7623895000000402,-29.066169735000003,13.063569065,-149.0371933,-1.076645017,-0.48247569799999995,8.033651707,-3.57757321,2.141147138,-3.9477498530000004
664,2.766556000000037,-29.124341965,13.130432605,-149.0853882,-3.639702648,-1.6897470955,8.0883436205,-6.8474099635,9.528964998,-1.528042793
665,2.7707225000000335,-29.182699200000002,13.15191603,-149.1194916,-1.8571703135,-0.818636127,10.026213524500001,-7.391263485,3.854468942,-2.4539012905
666,2.77488900000003,-29.246126175,13.225711345,-149.16096495,-2.772957623,-0.713688195,9.0942404265,-7.7119414805,9.8864755625,-0.38352191449999995
667,2.7790555000000268,-29.299860955,13.26617336,-149.19799045,-1.7777554695,-1.2913037244999999,9.839331627,-6.659720898,6.0289906275,-1.736254513
668,2.7832220000000234,-29.337300300000003,13.33513975,-149.2154541,-1.82370089,-1.3225545885,6.179218769,-5.277896881,8.0127159345,1.8145574335
669,2.78738850000002,-29.39084244,13.364006045,-149.243721,-1.3162732125,0.15889921750000002,8.707778454,-6.780736446500001,4.36828041,-1.6670324205
670,2.7915550000000167,-29.449141505,13.387188909999999,-149.2442322,-1.7552382945,-2.2813318970000003,11.0080919275,-8.269114494,2.262159586,0.8506296875
671,2.7957215000000133,-29.513625145,13.41862154,-149.2689743,-2.4859014750000004,-0.7217609885,9.6871638305,-8.244628191,4.370455743000001,-1.006517917
672,2.79988800000001,-29.55574894,13.40136099,-149.2425308,-1.830285907,-0.9503455755000001,9.519729136,-7.0395796299999995,-3.523994073,1.1823082194999999
673,2.8040545000000066,-29.608229635,13.44405079,-149.26862334999998,-2.4471626285,-0.847072482,10.238218782,-6.890082121000001,5.6077313425,-0.34385824200000004
674,2.808221000000003,-29.671608925,13.402713775,-149.23957825,-1.1082271335,-1.905261636,6.803813934,-9.562890053,-6.198556004,-0.054519980999999995
675,2.8123875,-29.715595245000003,13.387672425000002,-149.2276306,-3.526929736,-0.026152387500000013,15.362967489999999,-7.009265423,-2.603725432,0.14710256449999998
676,2.8165539999999964,-29.769267085,13.427850245,-149.2508621,-2.398604214,-1.6208037735,7.9639503975,-6.9409019945,5.3155698165,-0.5008352994999999
677,2.8207205000001068,-29.803640365,13.35523415,-149.1856613,-0.5789299605,-0.7035181370000001,7.061105371,-7.222977638,-11.65237093,1.967525542
678,2.8248870000001034,-29.83546543,13.39129639,-149.19180295,-3.891634345,-1.0272811355,12.802867415,-4.8838603495,3.9059601425,1.0472895055
679,2.8290535000001,-29.864089970000002,13.367845055,-149.15164185,0.2575382815,-0.6893082859999999,4.478360534,-5.7688450815,-5.111463428,2.3463220595000003
680,2.8332200000000967,-29.88359928,13.32801199,-149.10975645,-3.3646649125,-1.3109172585,11.496066094,-4.733902335,-6.79864013,1.3931326869999998
681,2.8373865000000933,-29.880822185,13.365412710000001,-149.07988740000002,-2.844284654,-0.655000858,10.753929616499999,-1.7689188125,1.822523296,4.978184462
682,2.84155300000009,-29.872003555,13.379448889999999,-149.04998015,-3.2029072044999998,-0.944065064,8.844147682,-0.9890167715,-0.49849104850000003,3.3943990765
683,2.8457195000000866,-29.834864615,13.418074135,-148.99499515,-3.2731534245,-0.4558936655,11.889832495,1.6111607549999998,0.5402805804999997,7.5506219864999995
684,2.849886000000083,-29.799741745,13.54494905,-149.0042648,-4.8209671975,-0.7629284110000001,10.328442095,3.2083962859999997,13.5392125835,6.171759367
685,2.85405250000008,-29.748882289999997,13.626924995,-148.95996094999998,-1.932528939,-0.6038883925,8.450084448,3.553246796,5.7101327195,9.003630399
686,2.8582190000000764,-29.692373279999998,13.86359644,-148.9993973,-5.918385744,-0.302335903,14.551808835,6.5843889725,26.7482008925,9.648723123
687,2.862385500000073,-29.613692285,14.06314182,-148.9964981,-1.5193412305,0.08175691950000002,6.670840025,8.1019873555,20.375041965,11.7507357595
688,2.8665520000000697,-29.50199318,14.38731861,-149.0561676,-5.5212109090000006,-0.1761157365,12.239760401,13.871510265000001,37.06758404,12.679618833
689,2.8707185000000663,-29.352630615000002,14.723554615,-149.09269715,-2.340966046,0.6574216205,8.834136485,17.8264918345,37.081092835,15.529412744999998
690,2.874885000000063,-29.168554305,15.15588665,-149.1841049,-5.1900595425,0.0335233585,7.5847423075,23.673857209999998,50.248132705,15.59607363
691,2.8790515000000596,-28.91700077,15.626202585,-149.23526765,-3.2739058735000004,0.258348126,14.408799169999998,30.609616754999998,52.090837480000005,21.570507525
692,2.8832180000000562,-28.632017134999998,16.15138817,-149.3444519,-3.284576297,-0.021023601500000016,4.3881692885,36.55502129,61.125556945,18.754514695
693,2.887384500000053,-28.258660315,16.713690755000002,-149.40122225,-4.5878819225,0.3384091185,13.30254936,45.598932265,62.427217485,25.51008606
694,2.8915510000000495,-27.84585762,17.3728199,-149.53743745,-2.6172094195,0.47324156749999996,7.8961236475,53.093046189999995,76.990623475,22.843402865
695,2.895717500000046,-27.371294975,18.003396035,-149.59855655,-4.4746718405,0.0852402855,9.0565905575,58.084375380000004,70.33412552,27.92971897
696,2.8998840000000428,-26.85901165,18.774009705,-149.74747465000002,-3.3935832975,0.4773023125,11.6502919195,65.911743165,89.85235979,26.380167965
697,2.9040505000000394,-26.290964125000002,19.508499145000002,-149.8460617,-3.7894008155,-0.7590725425,6.3447730545,70.96517372,83.918045045,28.4911108
698,2.908217000000036,-25.699443815000002,20.256727220000002,-149.94934080000002,-0.955751538,0.674577564,11.3379783655,73.999258045,85.613948825,28.19055748
699,2.9123835000000327,-25.067633630000003,21.06136894,-150.06014249999998,-6.006129265,-0.38317965,13.4163346275,79.42730331,92.71807098,29.20582485
700,2.9165500000000293,-24.343681335,21.826968190000002,-150.121521,2.6268184185,-0.029159367499999977,7.0712785715,88.34497833,86.115867615,31.61783886
701,2.920716500000026,-23.59880924,22.559091565000003,-150.18019865000002,-4.554937601000001,-0.678459495,10.0665285595,90.94356153000001,83.11161804,28.948004725
702,2.9248830000000225,-22.758483885,23.3490839,-150.193306,0.23002227050000001,1.8898355809999998,10.828466413,100.20186616500001,87.53509903,35.60307503
703,2.929049500000019,-21.856735229999998,24.03624821,-150.19371035,-3.826249361,-0.822715521,10.4915537825,107.15643692500001,76.52894211,30.527251240000002
704,2.933216000000016,-20.838046069999997,24.72479248,-150.09407805,1.1172833254999999,1.242038168,9.349773884000001,116.058872215,72.83623123000001,39.98274994
705,2.9373825000000124,-19.77103138,25.34321976,-150.03282925000002,-3.3878996370000003,0.577299446,10.122504471500001,123.89354705,67.47718238499999,31.36473465
706,2.941549000000009,-18.583674430000002,25.951129915,-149.8432312,1.042991638,1.0235634150000001,9.849376441499999,131.4035988,62.00697898999999,43.37405205
707,2.9457155000000057,-17.359231475,26.483553885,-149.7099762,-2.9411485195,-0.147729114,11.0722522735,138.8466568,56.491407394999996,32.5862236
708,2.9498820000000023,-16.006685734999998,27.01129818,-149.44712065,-0.6670924424999999,0.8609834015000001,11.5145719035,146.8970032,52.39215659999999,45.321216585
709,2.954048499999999,-14.62395048,27.423797605,-149.24840545,-2.4908530115,-0.78169179,11.4132947895,153.82263945,42.10482788,33.332452775
710,2.9582149999999956,-13.165813445000001,27.873790745,-148.94034575,-0.323793888,-1.3081433475,9.9127588265,156.62705234999999,44.359576225,45.01436615
711,2.962381500000106,-11.700839997,28.175372125,-148.6902237,-0.7942301034999999,-0.534622192,9.7745861985,160.51061249999998,29.515795705000002,33.731163025
712,2.9665480000001025,-10.147489308,28.48494148,-148.3331909,-1.8285260799999998,-1.0961326955,14.23385429,164.88178249999999,29.17258739,44.017227175
713,2.970714500000099,-8.608112813,28.69952774,-148.05970765,-1.475409329,-1.5307451485,10.783826352999998,167.84954835000002,20.571376324,32.95052528
714,2.974881000000096,-7.022219658,28.860060695,-147.6770477,-0.394600764,-2.8679534195,12.080514435,167.02398685,13.4846501935,42.5676384
715,2.9790475000000924,-5.4737586975,28.983706474999998,-147.36504365000002,-1.907771409,-1.298100531,13.032297135,166.50881195,10.972782732,34.347711565
716,2.983214000000089,-3.9047407505000002,29.047386165,-146.9794693,-0.326845512,-2.2679194215000003,10.447574616499999,164.6551666,4.170975926,40.939914705
717,2.9873805000000857,-2.3891054019999998,29.010751725,-146.6554031,-1.372551739,-3.54504931,10.8128061305,161.7844696,-6.46249759,33.66794014
718,2.9915470000000823,-0.8799173830000001,28.99662781,-146.28211975,-2.928347349,-2.9099098445,13.856662275000001,158.1893005,-2.9524862745000005,39.035305025
719,2.995713500000079,0.569678545,28.904705999999997,-145.9599228,-1.1483984955,-2.2242115140000003,11.858966825,153.9657669,-11.399032118000001,33.668839455
720,2.9998800000000756,1.9882780464999998,28.767256735,-145.62074280000002,-2.8578994274999996,-4.469128847,13.040802955,149.36658475000002,-15.8813006875,35.895563124999995
721,3.0040465000000722,3.362728953,28.622274394999998,-145.30541225000002,-1.8631750939999998,-1.9270082115,13.335083485,145.47013095,-16.119859214999998,33.61310768
722,3.008213000000069,4.6794320345,28.410655974999997,-145.0134659,-2.199125886,-3.712254524,10.28009319,139.7003479,-23.32017517,32.976678845
723,3.0123795000000655,5.9579924345,28.185786245000003,-144.70812990000002,-2.0704191329999997,-3.3780821560000005,14.23080206,134.7498474,-24.172143935,34.05922699
724,3.016546000000062,7.154063463,27.96410942,-144.45758055,-2.4614236355,-3.772452116,10.678525924,127.80124665,-23.512580395,29.766542434999998
725,3.0207125000000588,8.3250780125,27.69077015,-144.1805878,-1.06962242,-3.429358721,12.016545295,123.71667865,-28.81153965,32.93495846
726,3.0248790000000554,9.3967227955,27.409394265,-143.97450255,-2.6010811925,-4.029290318499999,9.497307060499999,115.61220935,-30.054742814999997,27.07349205
727,3.029045500000052,10.454945561999999,27.11599159,-143.73083495,-0.8500327615000001,-2.8991857765,12.16741562,112.2310295,-30.495649335000003,31.28529167
728,3.0332120000000486,11.386363506999999,26.814462665,-143.56631470000002,-3.897240996,-4.622542381500001,14.15811777,101.2064934,-32.344992635,24.21931362
729,3.0373785000000453,12.269945145000001,26.500844,-143.36701965,-2.1394867895000003,-3.8985346555,13.04507494,93.96213912,-32.72200489,28.156854629999998
730,3.041545000000042,13.06308365,26.17560959,-143.2348862,-2.082532942,-2.868430495,10.371270655,86.56729888999999,-35.075321195,22.440524099999998
731,3.0457115000000385,13.800870895,25.80795765,-143.0818558,-2.071661234,-4.7955589295,10.1229276635,79.12410736,-39.344484324999996,25.82346058
732,3.049878000000035,14.463091855,25.458107945000002,-142.98957065000002,-1.785850704,-3.858211756,8.944163085500001,73.12361145,-38.341459275,20.020918845
733,3.054044500000032,15.082212925,25.08213234,-142.87981415000002,-0.09043937950000003,-2.5989705325,11.711249351500001,67.37095450999999,-40.811401364999995,22.523654935
734,3.0582110000000284,15.619328495000001,24.677935599999998,-142.8270645,-2.483287394,-3.364917636,13.927618025,60.24464035,-45.35028267,18.353137015
735,3.062377500000025,16.11864185,24.30893135,-142.73081205,-4.025997281,-4.2760140895,14.121637345,53.945249555000004,-39.891544339999996,21.714258195
736,3.0665440000000217,16.552238459999998,23.960079195,-142.69290925,-1.326353133,-2.4435981515,11.5274298195,48.650964735,-39.077884675,15.720578195
737,3.0707105000000183,16.937612530000003,23.49514103,-142.65688319999998,-1.6290543525,-4.240159273,10.47100878,43.263240815,-52.47328186,19.369636535
738,3.074877000000015,17.3147707,23.13716698,-142.61564635,-4.0344012975,-1.9923098685,17.008612155,41.854946135,-39.78986168,16.871040345
739,3.0790435000000116,17.63441753,22.773231505,-142.57682035,-1.9630466100000001,-2.921627164,8.763054847500001,35.32359409,-40.548336025,16.70197582
740,3.083210000000008,17.868925095,22.323314664999998,-142.57737735,-2.55622375,-3.3319244384999998,6.5669519905,26.725274085,-51.504508975,16.291307449999998
741,3.087376500000005,18.097156525000003,21.944361685,-142.576149,-1.8577087225,-3.5357769725,15.337869165,26.221371650000002,-43.378099445000004,13.67067051
742,3.0915430000000015,18.30180931,21.527851105,-142.57170105,-3.178514004,-2.342708707,9.189677476,22.805603505,-47.36311722,16.054573535
743,3.095709499999998,18.502168655,21.174911495,-142.57050325,-1.2001608015,-1.021066144,17.058318137,22.95858765,-40.304424285,13.032513145
744,3.0998759999999947,18.63798046,20.82571125,-142.56465150000002,-4.0313252805,-3.4498535395,11.470903397499999,14.618186237,-39.52443695,13.959897045
745,3.104042500000105,18.70580864,20.468108174999998,-142.5682602,-0.868936479,-2.678909123,8.015936377,7.120182396000001,-40.956169125,12.86009693
746,3.1082090000001017,18.733962055,20.124456405,-142.57604214999998,-3.3355922700000002,-3.0662962795000004,12.21818614,2.3906280975000005,-39.353992465,12.39707947
747,3.1123755000000983,18.768825534999998,19.850372315,-142.5383377,-2.659221649,-1.424831487,12.578021047500002,1.4285380844999995,-29.95479012,14.076662540000001
748,3.116542000000095,18.763561244999998,19.50535679,-142.55480955000002,-2.2665236,-3.2874308825,9.296035289999999,-1.1287689209999998,-39.81203651,11.625015260000001
749,3.1207085000000916,18.715511325,19.25392723,-142.51504515,-3.2344941499999997,-3.323113203,7.616635202,-8.514359238,-27.30882263,13.43458843
750,3.124875000000088,18.640349385,18.922691345,-142.52814485,-1.0246610195,-0.5487430695,9.9546628015,-9.7279398425,-38.16203499,11.31172514
751,3.129041500000085,18.579426765,18.76519871,-142.45024105,-4.4646210669999995,-0.7819110455,14.50411844,-11.474633216500001,-15.26440096,13.920729640000001
752,3.1332080000000815,18.4842186,18.534161570000002,-142.4296799,-1.8753976524999998,-3.438097477,9.1558861735,-13.443411829999999,-25.58149052,11.0017976765
753,3.137374500000078,18.37658787,18.34078598,-142.37071225,-3.256764859,-1.7141664625000002,8.2230145935,-16.240231039999998,-20.07221222,13.25541353
754,3.1415410000000747,18.24526119,18.16581345,-142.33369445,-1.5461198095,-1.06111908,13.502717494999999,-18.510652545,-18.6606102,10.415319921
755,3.1457075000000714,18.174455639999998,18.085977555,-142.23046875,-6.1770155429999996,-2.160785079,12.29348898,-13.37556696,-5.6014958645,13.78585529
756,3.149874000000068,18.05073452,17.905936240000003,-142.1918182,-0.005849659500000048,-0.9461280555,1.4746018055,-17.586069585,-19.222385405,10.736562014
757,3.1540405000000646,17.9043026,17.81189728,-142.11602779999998,-2.4584602264999997,-1.4178171755,8.042983293499999,-21.41891861,-8.250657796,11.274406435500001
758,3.1582070000000613,17.83154583,17.724159245,-142.04126739999998,-2.6747275889999997,-0.011347775999999997,12.739937305999998,-12.814291955,-7.4549496175,11.163148402
759,3.162373500000058,17.765032765,17.6795702,-141.95175175,-3.4298115970000005,-1.291155338,8.457290171,-12.2537655845,-2.160158515,10.973321439
760,3.1665400000000545,17.68111038,17.56574345,-141.90328979999998,-1.2965375185,-0.09234051400000001,11.300568581499999,-13.192005398000001,-11.399312495,9.15891397
761,3.170706500000051,17.633158684999998,17.55208492,-141.81285094999998,-1.7839185,-1.7131245735,10.9564590455,-10.106777430000001,1.3797938825000002,9.85487485
762,3.174873000000048,17.609337805000003,17.472539905,-141.76195525,-2.414047837,0.531475276,9.333417294,-6.046459198,-7.433393001500001,8.095995725
763,3.1790395000000444,17.608163835,17.423028945,-141.68211365,-1.32749439,-0.7958783805,9.767196178999999,-4.0943784700000005,-3.085350275,10.0287299165
764,3.183206000000041,17.57386017,17.31060171,-141.65615845000002,-2.25231719,-1.4404563905,10.5347456915,-6.394332976,-12.098490237499998,6.456594941500001
765,3.1873725000000377,17.591477395,17.265500065,-141.60268405,-0.041900038500000125,-0.8386377094999999,4.5344599485,-0.9080817699999999,-3.4936994315,6.969558356
766,3.1915390000000343,17.662181855,17.09978485,-141.60568235,-3.1999105215,1.9857439399999999,12.2027738115,7.203391849,-19.181881904999997,5.2874276635
767,3.195705500000031,17.7340765,17.051317215,-141.556839,-1.7909782235,-3.031593323,13.5515914,5.836198985499999,-4.019406765499999,6.6232024415
768,3.1998720000000276,17.812811850000003,16.907102585,-141.57338715,-2.3744523524999996,0.6929551365000001,9.2817954995,8.7370060705,-17.20283413,3.0697584155
769,3.204038500000024,17.931469915,16.78778982,-141.5673981,-0.4269988535,-1.3869583305000002,8.117111206,12.939601180999999,-13.5914306645,4.567430317
770,3.208205000000021,18.07148266,16.622581484999998,-141.5841446,-2.8231220245,1.0088795720000001,13.792649744999999,15.99399948,-19.547578815,4.0453284385
