,time,Euler_X,Euler_Y,Euler_Z,Acc_X,Acc_Y,Acc_Z,Gyr_X,Gyr_Y,Gyr_Z
0,0.0,-17.717541695,13.216641424999999,9.908683749999994,-0.090737224,-2.736102283,5.884051561,20.08744049,-15.127313135000001,0.5985216795
1,0.0083329999997658,-17.548554420000002,13.144258494999999,9.940193149999999,-4.7003576755,-0.35230961450000003,-0.6033888759999999,19.316816329999998,-9.89781809,0.430831544
2,0.0166659999995317,-17.47657204,13.065320490000001,9.989677450000002,0.8169214425,-0.43127964399999996,-2.6503958705,7.189083695000001,-11.271238326999999,2.2226627765
3,0.0249990000002071,-17.46955109,13.024407865,10.020317049999989,-3.9816629885,-1.9810932280000002,1.5596837995,-0.08417475200000002,-6.261746168,1.5016346575
4,0.033331999999973,-17.449507715,13.019625184999999,10.063842750000006,0.620364964,-3.0558903219999998,4.5138194565,1.1252267365000002,-2.5788538455,4.242536664
5,0.0416649999997389,-17.45842266,13.03887653,10.087989799999988,-4.1073498725,-1.236294806,1.3951525685,-1.818021417,0.8491631745000001,2.9462963345000004
6,0.0499979999995048,-17.466089250000003,13.06849003,10.120887750000009,0.8467175365,-3.0825890305000003,3.2267247435,-1.9150106905,1.733469248,4.2949762345
7,0.0583310000001802,-17.505280495,13.130659105,10.151390099999986,-4.640737772,-1.281476319,3.39099133,-5.6256101130000005,5.53530705,5.2002727985
8,0.0666639999999461,-17.552942275,13.194815160000001,10.158050549999999,1.3390007615,-2.596589714,1.9545725585,-5.9871423245,6.6008724,2.6235828995
9,0.0749969999997119,-17.60104084,13.28609991,10.18533325,-3.670095563,-1.699027352,-0.5080856680000001,-6.612771036,8.9743902665,5.905087471
10,0.0833299999994778,-17.709034915,13.39397478,10.151229850000007,0.8930114805,-0.8888041975000001,0.2990404365,-12.094449999,13.034326553,-0.3015823959999999
11,0.0916630000001532,-17.838001249999998,13.51365757,10.142349249999995,-2.4589973095,-1.7175192235,0.17517346150000002,-15.319865705,13.48163366,2.9581888915
12,0.0999959999999191,-18.022917749999998,13.682188035,10.06693270000001,-2.13003093,-2.076925695,5.6825466155,-20.150759694999998,21.44434452,-2.575731218
13,0.108328999999685,-18.168169974999998,13.803485395,10.036048899999997,-0.313447412,-2.291786462,5.2477788924999995,-16.65084219,14.44264984,0.6609629095
14,0.1166619999994509,-18.311332704999998,13.95932484,9.970359849999994,-3.7252378465,-1.86392954,5.2070131305,-15.373629090000001,19.64940357,-1.848779329
15,0.1249950000001263,-18.442863465,14.09765196,9.937721249999996,1.059126705,-1.293849736,1.716816187,-14.9413023,16.438954355,1.184422493
16,0.1333279999998922,-18.580061915,14.24941492,9.890045150000006,-3.7298656699999997,0.5415161105,-1.172128737,-15.153688429999999,18.523934365,0.08601266100000005
17,0.1416609999996581,-18.750517844999997,14.37076473,9.859474149999997,2.456500411,-1.218262464,3.299616337,-19.658434865,14.422139645,0.8521925210000001
18,0.1499940000003334,-18.928437234999997,14.56362295,9.829193099999998,-5.117552757,0.43348872650000003,-0.5927671790000001,-20.52939701,22.530792235,3.7109743355
19,0.1583270000000993,-19.143410680000002,14.677540775,9.774520850000002,2.5338777305,-2.2116917970000003,3.8604578375000003,-24.25188446,14.48176098,-1.98528412
20,0.1666599999998652,-19.306385040000002,14.800023079999999,9.785972600000008,-2.976274252,-0.010543405999999922,5.637230873,-19.99356079,12.93087864,5.660696983499999
21,0.1749929999996311,-19.478619575,14.90332127,9.713088999999997,0.6741458775,-3.5851038695,6.119379996999999,-18.526631355,13.98656893,-4.296149492
22,0.1833260000003065,-19.566598895,14.993282795,9.725311250000004,-1.1989735365,-1.2799661754999998,6.524861574,-11.029197692,9.1933097855,4.5076966285
23,0.1916590000000724,-19.608101845,15.058326245,9.677345250000002,-1.178182036,-0.8021951765,4.787157297,-3.6000686885,8.708495616,-3.05871135
24,0.1999919999998383,-19.655141829999998,15.077484609999999,9.679336550000002,-0.26949077850000003,1.041770279,-1.7161377070000001,-5.7985696795,1.5774659515,0.5575578805
25,0.2083249999996042,-19.78446293,15.10019827,9.671005250000007,0.40539488199999996,0.39420542099999994,-0.3711089195,-15.36465645,2.3823099735,-0.43249642850000003
26,0.2166580000002795,-19.91236973,15.11423254,9.646301249999993,-3.0238572655000002,-2.700247407,11.72456312,-14.667450904999999,2.044996232,-2.5529261825000003
27,0.2249910000000454,-19.924427029999997,15.1077919,9.65869140000001,0.6653202774999999,-2.274565816,10.974305155,-1.9448888265,-1.7247406245,0.6559740599999999
28,0.2333239999998113,-19.861546515,15.02024794,9.685180650000007,-2.2913517355,-0.5011946485000001,4.859878063,6.628305197,-11.4347267145,-1.129024288
29,0.2416569999995772,-19.78506088,15.00058031,9.687370299999998,-0.0938849415,0.074881561,3.2308837175000003,9.00054264,-2.8122388425,-0.9917575380000001
30,0.2499900000002526,-19.725545885,14.875753405000001,9.729858399999998,-1.882313311,0.5182524399999999,2.5026454325,5.735707164,-16.278017995,-0.852192283
31,0.2583230000000185,-19.68546963,14.830291745,9.74140165,0.12593874300000002,-2.0258915425,10.989500524,4.3496882915,-6.0915969610000005,-1.032125473
32,0.2666559999997844,-19.55839348,14.677640440000001,9.791549700000004,-2.673033297,-1.3245618639999999,7.3657209875,13.615466595000001,-19.725800516,-1.0652205945
33,0.2749889999995503,-19.368238445000003,14.59286642,9.819610600000004,-0.6680111584999999,-0.6291041675,8.1549038885,21.868658064999998,-11.177630306500001,-0.7917110325
34,0.2833220000002256,-19.192325595,14.41359043,9.89382934999999,-0.7718020674999999,-0.6474213600000001,5.0485333205,18.776011465,-23.66999102,0.6441979410000002
35,0.2916549999999915,-19.01906395,14.262168405,9.923233050000007,-2.5181941985,-1.016462177,12.196791889,19.81872654,-18.7928280835,-3.1961150765
36,0.2999879999997574,-18.82114315,14.198638915,9.973304749999997,-2.0048376325,-2.012436718,2.620074749,22.176543235,-9.6171715245,2.627196327
37,0.3083209999995233,-18.614601135,13.91031599,10.037162800000004,1.0203260185,-1.9256675245000001,13.962635519500001,22.814814565,-35.66092682,-4.480563998
38,0.3166540000001987,-18.35856056,13.811454295,10.088989249999997,-5.740518332000001,-0.588806443,9.608015713499999,29.151665685,-13.683155299,1.4753629415
39,0.3249869999999646,-18.148379325,13.67711878,10.09478759999999,1.710616588,-2.0806646344999997,4.5143647195,24.93249702,-16.0218901625,-4.7778784035
40,0.3333199999997305,-17.92678261,13.430654525000001,10.178459150000009,-3.472342059,-2.0064207315,16.87733507,24.154146195,-31.6665144,-0.36922156799999994
41,0.3416529999994964,-17.73038006,13.3366642,10.167678800000004,-2.5382645725,-3.797223806,4.0725176335,23.75890732,-10.859494686000001,-5.071070671
42,0.3499860000001717,-17.483901025,13.135507105,10.233612050000005,-1.9426758290000001,0.11182171100000005,13.5049462335,27.660624505,-25.838936805,-0.3968034835
43,0.3583189999999376,-17.28240967,13.074337005,10.210311900000008,-3.4844185115,-2.817323148,9.519130708,24.716959000000003,-6.6986475,-5.2787389755
44,0.3666519999997035,-17.11688995,12.898231984999999,10.2760849,0.1682717875,-2.703862786,7.5053463005,17.969880105,-22.965765475,0.7199591995000001
45,0.3749849999994694,-16.944805145,12.783334255,10.267028800000006,-5.202932596,-1.988856733,12.589378357,20.803864474999997,-13.379931211999999,-5.5686924455
46,0.3833180000001448,-16.769564629999998,12.812618255,10.274322499999997,-2.3847860544999997,-2.5440919395,7.725024939000001,20.721029285,2.6086657024999997,1.4400841595
47,0.3916509999999107,-16.625469205,12.612994669999999,10.29997250000001,0.7297807935,-2.9356364015,13.880029199500001,16.515935900000002,-24.316132545000002,-4.469752073
48,0.3999839999996766,-16.567227365,12.66036129,10.285537749999989,-6.374715924499999,-3.0762211085000004,-0.9652929310000002,7.270415783,5.4269787055,-0.45346805450000005
49,0.4083169999994425,-16.493959425,12.647613045,10.285842899999992,0.3932759760000001,-0.7504843920000001,14.950361254999999,8.6675831095,-1.9855511184999999,-0.8320465685
50,0.4166500000001178,-16.445921900000002,12.65366316,10.283424350000004,-3.9129999875,-4.025393486,7.962155342499999,5.7320699115,0.27318811399999987,-0.51902134
51,0.4249829999998837,-16.424507140000003,12.71190834,10.28151704999999,-1.2181659640000002,-1.07262668,4.7916504145,2.5094974635000002,6.2609391215,1.3263179065
52,0.4333159999996496,-16.45029354,12.796921255,10.242774999999995,-3.8390209675,-4.1781054735000005,5.765554847000001,-2.159383061,10.5599510665,-1.9047968385
53,0.441649000000325,-16.47303581,12.82895184,10.264678950000004,-0.07933580900000003,-1.7420417965000001,21.703789710000002,-3.4216264484999996,2.4489005805,3.114620805
54,0.4499820000000909,-16.500234605,13.00851631,10.1806488,-5.829559445499999,-3.5512768030000004,-2.6173253050000005,-1.097251594,22.947000505,-3.7532624005
55,0.4583149999998568,-16.637826914999998,13.090525625,10.191795350000007,1.408591211,-2.8832069635,6.7852246775000005,-16.944297792,8.554795503,3.616462827
56,0.4666479999996227,-16.783775329999997,13.2640605,10.089660649999999,-6.508988142,-1.252425447,13.643927337000001,-14.77940464,22.8661251675,-5.868278265
57,0.4749810000002981,-16.937303545,13.428530695,10.092758200000006,2.8908038735,-3.59029901,6.033901334,-18.671545029,18.278987051999998,5.6011543275
58,0.4833140000000639,-17.110173225,13.53896332,10.023475649999995,-5.4801882504999995,-1.3316026035,10.011190772500001,-18.848970415,14.528672219999997,-4.2475111485
59,0.4916469999998298,-17.317028045,13.78896618,9.994331349999996,1.5869005919999999,-2.902986288,-1.4261355399999998,-24.160834310000002,29.156748295499998,5.157759786
60,0.4999799999995957,-17.515485759999997,13.856012345,9.936561600000005,-5.3409857775,-1.0215630755,24.246973035,-22.206285475,9.186481951,-4.4154951570000005
61,0.5083130000002711,-17.71586609,14.168095585,9.879295350000007,-0.13779521000000017,-2.8907098175000003,-7.0904090405,-22.54186344,37.202415465,4.516442716
62,0.516646000000037,-17.92984104,14.172009469999999,9.855834950000002,-0.00628232949999985,-0.7884128095,22.581435205,-25.068095210000003,0.7791478635,-2.8801241815
63,0.5249789999998029,-18.096071244999997,14.46121788,9.787483199999997,-2.897580087,-2.0309118475,-3.8562948695,-18.050164225,34.96080971,2.7344450205
64,0.5333119999995688,-18.315505979999998,14.505631925,9.77320865,-0.36339473749999995,-1.2390894295,10.561078608999999,-26.012666705,5.076078177500001,-0.3601239919999999
65,0.5416450000002442,-18.485959049999998,14.736469745,9.69513705,-4.182346582,-0.398387879,11.002452609999999,-18.176654815,28.63739443,-0.28494429599999993
66,0.5499780000000101,-18.644709585,14.82430601,9.689285299999995,1.7533278465,-2.3432895245,5.094403237,-19.015825749999998,9.708591460000001,2.254695896
67,0.558310999999776,-18.761167525,14.87751913,9.657318099999998,-2.6827689109999997,-0.7066480854999999,14.4650652415,-13.0681388385,6.73045063,-1.8923613129999999
68,0.5666439999995418,-18.844342230000002,15.08844042,9.629913349999995,-2.434963584,-2.085039854,-0.271400392,-9.268395185500001,24.482368709000003,4.714260459
69,0.5749770000002172,-18.917912485000002,15.010711195,9.62674715,1.5084943769999999,-0.734085917,18.439423085,-8.846422195,-9.2093256105,-3.8062185645
70,0.5833099999999831,-18.969879149999997,15.188024519999999,9.603027350000005,-4.0459970235,0.05124318599999994,-3.8193112014999997,-5.5869790315,20.508633615,3.8752046819999997
71,0.591642999999749,-19.0475235,15.15502739,9.600158700000009,2.1678877175,-2.7580617665,14.573541880499999,-9.357758045499999,-4.139709234,-2.036607206
72,0.5999759999995149,-19.051466945,15.173116685,9.61695859999999,-4.8573696615,-1.241137635,13.334751843000001,-1.0875034335000002,0.9092288015000003,2.099835932
73,0.6083090000001903,-19.007195475,15.233058455,9.584739649999989,-0.1870824845,-0.9408779629999999,4.649896145,6.191570281500001,7.516998646499999,-1.607633099
74,0.6166419999999562,-18.996390339999998,15.13401842,9.637405400000006,0.7675572335,-1.3908218145,5.5087665335,-0.46551334850000003,-13.728304385000001,1.4647566825
75,0.6249749999997221,-18.946115495,15.10654259,9.629638700000001,-3.5581172705000004,0.042955354,13.4169108855,6.158187389,-3.3245743809999997,-2.3629772065
76,0.633307999999488,-18.856859205,15.125595090000001,9.642715450000011,-1.1487874685000001,-2.607100725,5.8114548925,10.195607903,1.1645448210000002,1.751155853
77,0.6416410000001633,-18.755471229999998,14.96168518,9.676872250000002,0.002815365999999875,-1.4775697885,15.571485039999999,10.988839145,-20.399564740000002,-3.0308121445
78,0.6499739999999292,-18.67493343,14.960238935,9.673583949999994,-4.66005373,-1.59741807,1.6430138350000003,9.66451502,-0.5443663599999997,-0.8727859259999999
79,0.6583069999996951,-18.568101885,14.876950265,9.695594799999995,0.85901849,-1.0768456755,10.675330876,12.0154032705,-10.7883936745,-1.1842425465
80,0.666639999999461,-18.43901253,14.75074911,9.7270508,-1.7955532075,-2.486162543,13.467401025000001,14.425361155000001,-16.0249083025,-1.8056440354999999
81,0.6749730000001364,-18.28073692,14.64349365,9.756401049999994,-2.131531596,-0.9714249075,5.255731582499999,17.956780435,-13.7762421385,-1.227703437
82,0.6833059999999023,-18.14723301,14.61051941,9.759079,-2.465958357,-1.2455396054999999,5.7307035925,15.858846660000001,-4.369574070499999,-1.425029114
83,0.6916389999996682,-18.025346755,14.459413529999999,9.797904950000003,-0.009275078499999978,-2.5845533014999997,13.325182674499999,13.32211256,-19.1358537675,-1.715834498
84,0.699971999999434,-17.87420464,14.36942816,9.827514649999998,-4.5068427325,-1.885211736,13.4242115015,17.16352749,-11.8376340875,-0.5612719355
85,0.7083050000001094,-17.712390900000003,14.32483101,9.825851400000005,-1.2185835835,-2.2072278855,1.6666917799999998,19.335103035,-5.539352891500001,-2.2037924525
86,0.7166379999998753,-17.559381485,14.154284480000001,9.875846850000002,-0.9459435934999998,-1.9438224065,16.645475865,16.785609245,-21.76827526,-1.1327579915000001
87,0.7249709999996412,-17.46938801,14.099843504999999,9.873634350000003,-2.8271294685,-1.7512113155,1.4512702224999998,10.7307977655,-6.644314527500001,-2.6408343315
88,0.7333040000003166,-17.337700845,14.026625155000001,9.878890949999999,-1.7961449029999998,-2.1528461575,13.417051794999999,15.56066513,-9.079456329,-2.493520856
89,0.7416370000000825,-17.235434535,13.977690695,9.895614600000002,-1.5221588609999999,-3.2516860960000002,5.3500939605,11.670968534,-6.687269687500001,-0.320158824
90,0.7499699999998484,-17.1130991,13.80736208,9.915641800000003,-2.2473523615,-0.6594775915,17.54377937,13.99124384,-20.716545105,-4.2463686465
91,0.7583029999996143,-16.994698525,13.879591940000001,9.8896637,-3.6300750225000002,-2.8102083804999998,-1.445020199,14.843734265,8.6736110455,-0.811600044
92,0.7666360000002896,-16.913496015,13.728450774999999,9.917396499999995,1.824270666,-1.133532137,13.695104121,8.823645949,-18.789758446,-2.592559099
93,0.7749690000000555,-16.840168955000003,13.71151876,9.906295749999998,-6.7449154855,-2.623423003,11.0174484855,9.0052778725,-2.0610981000000006,-2.3169879315
94,0.7833019999998214,-16.766048429999998,13.71434498,9.906860350000002,0.5738836675,-3.0915849805,5.2803342345,8.760800362,-0.19981003000000008,-0.2393394415
95,0.7916349999995873,-16.72063732,13.59945536,9.927413950000002,-2.7840331195,-2.48139894,13.737073420000002,4.773088455,-14.396471796999998,-2.1546125409999997
96,0.7999680000002627,-16.671381949999997,13.60524702,9.933609000000004,-2.108305395,-1.580407165,8.848193168,5.6113433834999995,-0.038075685499999956,0.46822826949999996
97,0.8083010000000286,-16.59338856,13.607428075000001,9.932403550000004,-0.9214186074999999,-1.3974119425000002,7.1365987055,9.2944147595,-0.21314907100000013,-0.518662635
98,0.8166339999997945,-16.578643794999998,13.519058704999999,9.963806149999996,-0.999368161,-1.9013432115,5.341344715,0.7527906895,-11.704784451499998,0.06859523049999994
99,0.8249669999995604,-16.556324955,13.5785079,9.960128799999993,-4.411452174,-2.4104040865,8.5202321995,2.681593433,6.464499475,1.1449117960000001
100,0.8333000000002357,-16.527547835,13.528896334999999,9.9668274,0.6302860975,-2.4438939690000003,11.643599986,3.1379362939999997,-6.437774180000001,-1.339080751
101,0.8416330000000016,-16.488686559999998,13.464534279999999,10.012146000000001,-3.7336313125,-2.2598177495,15.244737624,3.3092396109999997,-9.410192489,2.4031093715000003
102,0.8499659999997675,-16.47664547,13.54263258,9.975791900000004,-1.791346848,-1.680751443,-1.027076006,2.3284552395,9.696074245,-1.826410651
103,0.8582989999995334,-16.47911072,13.46786404,10.01802825,-1.0397871730000001,-2.299329139,14.820435525,-1.5846755505,-10.506428717,1.734820306
104,0.8666320000002088,-16.505542755,13.452495095,10.015548699999997,-2.3835390805,-1.0413196685,6.8316295144999994,-3.2200489039999995,-2.187289238,-1.231551707
105,0.8749649999999747,-16.467061039999997,13.49011803,10.010231000000005,-1.270385206,-1.9815207125,8.8218843935,4.6570968035,4.0059640385,0.23599666350000004
106,0.8832979999997406,-16.45166111,13.39406681,10.041931149999996,-0.8140326735000001,-2.1110975745,10.735008003499999,0.8474986664999999,-12.608946456,-0.13028040899999999
107,0.8916309999995065,-16.402640339999998,13.34286356,10.054550199999994,-2.722506881,-0.809168115,11.1052293765,5.4409400225,-6.817165375,-0.783795774
108,0.8999640000001818,-16.397116660000002,13.387815475,10.036689749999994,-1.1460920570000002,-1.763232738,-0.8541253209999999,1.022814959,5.266849519999999,-0.883729845
109,0.9082969999999476,-16.396249769999997,13.26988459,10.077362100000002,-1.6024885180000001,-2.228878498,20.371090889999998,-1.118048191,-15.417195559,0.09000858649999999
110,0.9166299999997136,-16.36898708,13.26675272,10.059989950000002,-2.9270053505,-2.3992393610000002,5.2982604505,3.6312980655000002,-0.2870713469999999,-2.4842158559999996
111,0.9249629999994796,-16.2890501,13.20007515,10.094841000000002,-1.7143043279999999,0.419179261,12.389619827,8.5038576125,-9.314113141,1.2167213115
112,0.9332960000001548,-16.257018090000003,13.233554365,10.079483050000007,-2.7778314649999998,-2.6491265295,9.097279311,4.17510128,3.8520486345,-1.050792098
113,0.9416289999999208,-16.16354561,13.08648062,10.125747700000005,1.543765068,-2.314668417,16.423584939999998,9.827565669999998,-18.9610238055,-0.1366266755
114,0.9499619999996868,-16.042236324999998,13.047125340000001,10.138526900000002,-5.803233623500001,-0.8860284985,7.1511516595,14.12025642,-5.454785350000001,-0.35655018699999996
115,0.9582949999994526,-15.97448635,13.06118202,10.13378904999999,-0.2453680035000001,-1.989801288,2.6900262830000004,8.126521349,1.2723603250000002,-0.45862937000000004
116,0.966628000000128,-15.833374025,12.917722225,10.174079849999998,-1.0206414460000002,-0.817282196,22.403209685,15.74456167,-18.349022389,-0.650838658
117,0.9749609999998938,-15.712866304999999,12.947773935,10.153015150000002,-3.5491985085,-2.604170203,6.891053736,14.88240528,3.632221222,-1.7725886705
118,0.9832939999996596,-15.63847399,12.798409939999999,10.187530549999991,0.1706331895,-3.358243346,7.7908734399999995,7.8990859985,-18.85739851,-1.363471806
119,0.9916270000003352,-15.500736235,12.719399925000001,10.202323899999996,-3.5791212320000003,-0.26443237100000005,13.631968019999999,16.028768065,-10.103363274,-1.3324658870000001
120,0.999960000000101,-15.358929634999999,12.784482480000001,10.165542599999995,-3.017332673,-1.0273688435,8.92995119,17.882426260000003,8.1692602615,-2.490210444
121,1.0082929999998669,-15.24657011,12.64960909,10.205558750000009,1.725735545,-3.60022676,9.2193479525,12.30522585,-17.35024595,-0.1804331395
122,1.0166259999996328,-15.139843944999999,12.54139137,10.199028049999995,-4.3114779,-2.1666444245,12.51647997,12.87619114,-12.8359143715,-4.6007537845
123,1.0249590000003082,-15.023593900000002,12.539523124999999,10.195449849999989,-2.0004517585,-2.1470056325,10.182312014,13.910715102000001,-0.5979641674999998,-0.8979647755
124,1.033292000000074,-14.898381709999999,12.44026041,10.20600125,-0.8674274835,-1.9654496310000003,9.1330001335,14.651790144,-12.3338418,-2.3166995045
125,1.04162499999984,-14.844573019999999,12.42536354,10.197456399999993,-3.6067237855,-3.346092403,6.9676954745,6.578421116,-1.9707593919999997,-1.893116236
126,1.0499579999996058,-14.813699725,12.332442284999999,10.211952199999999,-0.5685222615,-3.136105716,11.867476702000001,3.204891503,-11.71241379,-1.625857532
127,1.0582910000002812,-14.728460309999999,12.332972525,10.219032299999995,-4.171699703,0.05990298100000002,12.234833955500001,9.9527027615,-0.6491165199999998,0.34027235200000006
128,1.066624000000047,-14.7429595,12.38351059,10.1884613,-0.8835173845000002,-3.51237309,1.7296631859999998,-1.0829955340000001,6.279420850499999,-2.3374080655
129,1.074956999999813,-14.76101637,12.243142605,10.250556950000004,-1.2352790830000002,-2.611849666,19.562856670000002,-3.8665908275,-18.638866425,2.2914314865
130,1.0832899999995789,-14.74910736,12.34805727,10.20289615,-5.1731458305,-2.1108807924999997,4.8339068869999995,2.5540789365,13.092059614,-2.6444461345
131,1.0916230000002545,-14.727510925,12.30456543,10.2428436,2.1760210995,-2.2810319960000003,11.994378326500001,1.4346528055,-6.7407348155,2.7880010605
132,1.09995600000002,-14.74867773,12.260622025,10.240211499999987,-4.9346181155,-2.0685218869999997,13.4073534025,-2.5539573435,-5.52568722,-2.100783974
133,1.108288999999786,-14.7838583,12.28346729,10.239456149999995,-0.36089694500000014,-1.9805364010000002,3.373875618,-4.3419659135,2.17367649,0.19494992499999997
134,1.116621999999552,-14.76959562,12.25136185,10.261184700000001,-3.32834509,-0.448288016,14.48910189,1.06445729,-4.87550497,1.02113089
135,1.1249550000002273,-14.799448009999999,12.345201015,10.239662150000001,-0.8398441079999999,-2.433218241,5.7200093865,-3.1688591095,11.0384368875,0.006044961500000001
136,1.1332879999999932,-14.805102824999999,12.187077044999999,10.297210699999994,-0.6069697145000001,-2.7282654045,21.432683945,-2.24749016,-20.577441215,1.2451149225
137,1.141620999999759,-14.78145599,12.258699415,10.28257755,-4.7221785784999994,-1.55022648,2.44438553,3.1133857639999998,8.2442514875,0.08149161900000002
138,1.149953999999525,-14.777003765,12.2510457,10.299362200000004,0.9681621420000001,-0.9646355359999998,7.7934880269999995,-0.022989034500000116,-1.8873734500000001,1.2598684135
139,1.1582870000002004,-14.724183085,12.12434101,10.337196350000013,-1.475500822,-1.4023954275000001,21.157250405,5.2741711140000005,-16.33632231,-0.031236548000000003
140,1.1666199999999662,-14.664357185,12.133481499999998,10.364418,-3.98917377,-2.211269915,10.0524251455,6.3818569185000005,-0.248387665,2.930197954
141,1.174952999999732,-14.640645505,12.04431677,10.396606450000007,-0.8926498865,-3.397902846,8.7019212235,1.9079726935,-11.801394940000002,0.5154032854999999
142,1.183285999999498,-14.590948104999999,11.949819085000001,10.461219749999998,-0.628456585,-0.7902400645,13.727135658,4.2537827495,-13.3919577575,4.027954459
143,1.1916190000001734,-14.505209924999999,11.89783001,10.499473550000005,-2.9392362835,-0.688324496,13.581035136,9.2197306155,-7.668174205500001,2.3579701185
144,1.1999519999999393,-14.412563325,11.889252665,10.53513335000001,-3.4968862534999996,-2.932267308,10.142607451,10.1311604985,-2.542296052,3.3490229845
145,1.2082849999997052,-14.329217435,11.82744503,10.55833435000001,-1.1816048625,-1.739133716,12.53868961,9.3173203465,-8.3685564985,0.378917873
146,1.216617999999471,-14.209504605,11.73133087,10.595893849999996,-2.355700016,-1.9795234800000001,18.691942214999997,13.344439505,-12.7693498125,0.9697234035
147,1.2249510000001465,-14.05929184,11.617496965,10.617935200000005,-0.16930270199999997,-1.2050557135000002,12.688412190000001,17.358757015000002,-14.3778490995,-1.2284596715
148,1.2332839999999123,-13.908160689999999,11.515594005,10.638519299999999,-2.808760226,-2.6433660985,13.027084349999999,17.546174049999998,-12.959047793500002,-1.062587798
149,1.2416169999996782,-13.731515885,11.447074409999999,10.642349249999995,-2.1736740174999998,-2.093317032,10.6019043925,20.99004936,-8.595362187,-1.9250453115000001
150,1.249949999999444,-13.536084175,11.319923875,10.664352399999999,-3.6937227845,-0.46268410950000005,19.17144394,22.8211298,-15.935840604,-1.545673132
151,1.2582830000001195,-13.359246735,11.26276636,10.661293049999998,-1.4113841950000001,-1.508619517,6.05458343,21.176431655000002,-7.0890438555,-2.3735377189999998
152,1.2666159999998854,-13.184473515,11.133690835,10.682365399999995,-1.1374902575,-1.8639197945,19.422397135,20.367106435,-16.144674775,-1.5779529810000001
153,1.2749489999996513,-13.014588835000001,11.07144451,10.692481999999998,-3.6780873535,-3.5500224830000002,12.551988125000001,20.031986240000002,-8.039089322499999,-0.9899328799999999
154,1.2832820000003269,-12.828276635,10.923378945,10.721832300000003,-0.8299954235,-1.7498052195,19.675528525,21.58060455,-18.597839355,-1.0142924789999999
155,1.2916150000000926,-12.612558365,10.83060455,10.737365749999995,-2.561392546,-4.362259984,12.755387783,25.43037605,-11.7630494095,-1.153864622
156,1.2999479999998584,-12.4256835,10.747614865,10.735763550000001,-2.5254186395,-2.0752428175,7.910065174,22.345877645,-10.188114270500002,-2.74160254
157,1.3082809999996243,-12.271695615,10.685017585,10.746833800000005,-2.6051841380000003,-1.751962662,14.364145757,18.128004075,-8.1163392075,-0.812464714
158,1.3166140000002995,-12.16861391,10.672648429999999,10.711250300000003,-3.4922771455,-2.841965675,11.070788385,13.041535856,-1.0622987744999999,-4.826651096
159,1.3249470000000656,-12.08354473,10.620721815,10.711585999999997,-2.6091332435,-1.717409372,18.836004255,10.079901218,-6.590557577000001,-1.742978603
160,1.3332799999998317,-12.013321399999999,10.56213856,10.689277649999994,-2.5018803475,-3.8012362715,12.611506460000001,8.8227791765,-6.837881208000001,-4.4643377065
161,1.3416129999995974,-11.933484555,10.50597477,10.693321249999997,-0.13621586549999998,-2.7260233165,16.216331955,9.3841805455,-7.1920501315,-1.387709141
162,1.3499460000002728,-11.838352205,10.45680523,10.66384124999999,-2.7734419705,-3.4962414505000003,13.130765440000001,11.951315639999999,-5.5636367799999995,-5.0423744915
163,1.3582790000000386,-11.751843449999999,10.4170208,10.659568800000002,-1.7862124445,-0.6943259835000001,12.729539395,10.362272741,-5.067200707,-1.9192301035
164,1.3666119999998043,-11.71320152,10.37628031,10.621154750000002,-2.889291763,-1.9365811645,7.191939592000001,5.3527164460000005,-4.3652048125,-5.852802992
165,1.3749449999995704,-11.719669815,10.34851408,10.616142249999996,-2.5727415085,-2.5461478495,17.393320085,-0.7910443544999999,-3.6340200009999997,-1.6953102945
166,1.3832780000002458,-11.70980263,10.316329005,10.579658499999994,-4.1004225015,-3.446665004,14.81034708,1.8682191670000001,-3.416894317,-5.4286556245
167,1.3916110000000117,-11.670293805,10.242922304,10.58041385,0.13843464849999987,-2.6902905705,20.67387581,4.6146229505,-9.144604563,-2.141926706
168,1.3999439999997776,-11.61169767,10.2262849795,10.546836850000005,-4.3169709445,-2.7975263295,7.0347144605,7.6376788614999995,-1.6577662229999999,-4.7213441135
169,1.4082769999995437,-11.541943069999999,10.130281448,10.54414365000001,0.6516605615,-0.4473861455000001,19.92980671,8.3161747445,-11.72222805,-3.0677150490000002
170,1.4166100000002189,-11.514708995,10.161526678,10.504608149999996,-4.3698153495,-2.4187841414999998,5.6146775485,4.0010274945,4.1053991915,-4.273050189
171,1.4249429999999847,-11.49634838,10.065870286,10.481315600000002,0.17111358000000004,-3.0091558695,14.67770958,2.5660406350000002,-11.196798684000001,-5.406763077
172,1.4332759999997506,-11.449741365,10.062751768,10.452301000000006,-4.8021197319999995,-1.5028458685,21.202319145,6.116399288,-0.1941757200000005,-3.8965406414999997
173,1.4416089999995163,-11.35139132,10.009738444,10.405914300000006,0.493247047,-3.2115110755,8.268337488,12.647405145,-5.6531505575,-7.0409333705
174,1.449942000000192,-11.231962685,9.9349350935,10.37526704999999,-4.343198061,-1.2402472195,17.07821274,14.86725521,-8.5988359475,-5.763927698
175,1.4582749999999578,-11.119563580000001,9.9552030545,10.325592049999997,-0.7674744335,-2.3652185795,10.2069463755,14.398014544999999,3.028070927,-5.7209730145
176,1.4666079999997237,-11.007807255,9.900214197499999,10.291511499999999,-2.7521480325,-1.3369273615000001,14.67766619,13.998790265,-6.2017776975,-5.642452240000001
177,1.4749409999994896,-10.913972855,9.84968233,10.263198849999995,-3.7961401940000004,-3.1577305795,16.833433624999998,11.717124462,-5.8051407335,-4.9014064075
178,1.483274000000165,-10.801540854999999,9.822774887,10.228912350000002,-0.20207196500000002,-2.4935837015,12.737569333,14.093786235,-2.9161871675000004,-5.00713563
179,1.4916069999999308,-10.659729485,9.695180893,10.224548299999995,-1.730675444,-2.677945301,15.6090436,16.997556685,-15.45009804,-3.811111331
180,1.4999399999996967,-10.566631314999999,9.666655063499999,10.185470600000002,-2.3375834525,-3.2608518600000003,10.386338715,11.8488197315,-3.012919545,-5.609114647
181,1.5082729999994626,-10.46385193,9.5621442795,10.188507049999998,-0.3517540095,-1.6550999880000001,14.813492775,12.1636343,-12.900018215,-2.3664295075
182,1.516606000000138,-10.3770256,9.457623482,10.149620099999993,-3.6939407585,-3.0639487505,16.742696764999998,11.0792503375,-12.003117561,-7.243247509
183,1.524938999999904,-10.326099395,9.370634556,10.146003749999991,-0.774840862,-2.5026209355,6.747628212,6.061020374,-10.6903338455,-2.734064281
184,1.5332719999996698,-10.259165289999999,9.1937336925,10.126052850000008,-1.7449535725,-2.927729428,17.015620235,8.3153510095,-20.969377520000002,-6.544177770499999
185,1.5416049999994357,-10.15088272,9.0992879865,10.116500850000008,-3.483256817,-3.2707425949999998,18.204782965,13.0739631645,-11.458844423499999,-3.571425438
186,1.549938000000111,-10.058889391000001,8.994839191499999,10.09123989999999,-0.7436997295000001,-1.2271202355,3.9608482125,11.39611578,-12.3118517385,-5.563163757
187,1.558270999999877,-10.025415422,8.8331427575,10.087394750000001,-3.0881686805,-3.4012869595,15.139641285,3.980652392,-19.527397155000003,-4.276381016
188,1.5666039999996428,-9.9999485005,8.7803750035,10.046844449999995,-4.339019299,-1.5931448934999999,15.95971155,3.69342554,-5.903991461,-6.273784399
189,1.5749370000003182,-9.9475440965,8.587539196,10.046463000000003,0.05679613350000001,-3.2169207335000003,15.883613584999999,6.1730852125,-23.279319764999997,-4.4807775020000005
190,1.583270000000084,-9.918611527500001,8.479168415,10.0014496,-4.5797362325,-4.063280225,12.702215195,4.179450512000001,-12.398830178,-7.955833911999999
191,1.59160299999985,-9.871682167,8.356215477,9.984291100000007,-0.0903264285,-1.16208303,11.472788573999999,5.8225526809999995,-14.6871566775,-4.968548298
192,1.599935999999616,-9.849819660000001,8.175543308,9.950927699999994,-2.0758234260000004,-2.181987494,16.484462735,3.091147661,-21.18404961,-8.062225103
193,1.6082690000002913,-9.855462550999999,8.0796558855,9.922042849999997,-2.7892075775,-2.4770685434999997,8.3020045775,-0.29601733750000003,-11.2513756775,-5.7873837945
194,1.6166020000000572,-9.873460770000001,7.877267360499999,9.907295199999993,-0.4188411085,-2.6421231625,14.941849229999999,-2.0285147725000003,-24.128663064999998,-6.313899279
195,1.624934999999823,-9.874873638,7.7342686655,9.88497925,-3.59362185,-4.521509171,17.647232535,0.08190202699999993,-16.947277544000002,-6.006841421500001
196,1.633267999999589,-9.851037502,7.6340100765,9.867424,-1.8061208425000002,-0.8031973840000001,10.468708995,3.0353068710000004,-12.0013928405,-4.5440875290000005
197,1.6416010000002643,-9.851957798,7.467701435,9.849296600000002,-3.735798001,-2.77235806,15.52543497,0.06766152350000043,-19.795980455,-5.97994709
198,1.6499340000000302,-9.872267723,7.4309015275,9.824836749999989,-2.8198574780000003,-1.6001675725,10.6766986825,-2.1630005835,-4.353940010500001,-4.0624369385
199,1.658266999999796,-9.9031929975,7.275498152,9.800750749999992,-2.114635706,-2.0476914045,15.045018200000001,-3.452704191,-18.38397789,-6.46487546
200,1.666599999999562,-9.95884323,7.1963071825,9.796295200000003,-1.6791089775,-3.769582033,12.3795957565,-6.710464001,-9.772581817,-2.6114423275
201,1.6749330000002374,-9.948675155,7.100729942,9.767494200000002,-1.599224182,-2.4776178,16.83670902,1.5241045949999998,-11.200440646499999,-5.789868116499999
202,1.6832660000000033,-9.906630516,7.002978325,9.770179749999997,-3.2102506760000002,-1.4159018995,15.016048905000002,4.91550827,-12.1185921435,-2.154291928
203,1.6915989999997691,-9.935646058,7.0128183365,9.706588749999995,-3.812914729,-2.8049316405,2.258673012,-2.6654493215,1.965392828,-7.6882081035
204,1.699931999999535,-9.969368936999999,6.9260804655,9.71212765,-2.2363988165,-2.298514813,21.339844705,-4.2356925015,-10.868589400000001,-1.5889858600000002
205,1.7082650000002104,-10.0279483805,6.941749572499999,9.648811349999988,-4.735942364,-2.4497733415,10.464019777,-6.211023569,2.6561589225000004,-7.5449500085
206,1.7165979999999763,-10.070703505,6.880167007,9.672454850000008,0.9585026205,-4.539453268,14.260174275,-5.593093753000001,-8.27054985,1.0520154389999998
207,1.7249309999997422,-10.083833695,6.8409934045,9.619987499999993,-5.0440039635,-1.4449329825,17.363479615,-0.9239820244999999,-4.035500051500001,-7.4231283665
208,1.733263999999508,-10.118404385,6.874921799,9.641548200000003,1.041323643,-1.281571239,3.6943418980000002,-4.571091174999999,3.050880194,2.8092798595
209,1.7415970000001837,-10.191366675000001,6.852993965,9.584548950000013,-5.501399994,-4.510316968,15.049454215,-8.029629109,-1.8979818829999995,-7.5829930305
210,1.7499299999999494,-10.29159117,6.965414286,9.596786500000007,-3.340260625,-1.4866091015,9.3714962005,-12.31887007,12.512116433,3.3939834834999996
211,1.7582629999997152,-10.39395523,6.964364290000001,9.5383377,-1.9921655955,-3.7142668965,18.930218695,-11.5363142475,0.6197621524999999,-7.3046758175
212,1.7665959999994811,-10.46063185,7.1006865505,9.532943700000004,-3.5959016085,-2.745178044,9.0799310185,-8.0251095295,15.6995608815,1.895044446
213,1.7749290000001563,-10.56530094,7.135967016,9.477661149999989,-0.1827342105,-0.9705992640000001,11.585342648,-11.84782791,4.8572087605,-6.137364149
214,1.7832619999999224,-10.69235849,7.2602348325,9.47678375000001,-2.1783858240000002,-3.489990711,15.077097890000001,-15.329237464999999,14.169966491,2.2181492449999998
215,1.7915949999996883,-10.83642149,7.393509388,9.415260349999997,-4.0729870795,-2.4806168675,8.736116409000001,-16.460863115000002,16.575245617,-4.650862217
216,1.7999279999994542,-10.993781089999999,7.516933441,9.401214600000003,-3.470196247,-2.426713049,16.73786974,-18.765748979999998,14.3506516215,0.7371920345
217,1.8082610000001296,-11.132918835,7.692981958,9.324188199999995,-2.8169935945,-3.7801179885,9.0691919315,-15.570249555,21.985981940000002,-5.3844355345
218,1.8165939999998957,-11.25304508,7.813630104,9.309654249999994,-0.40770375700000006,-1.9359956980000002,17.51407814,-14.28959179,14.0313770745,0.6830427645
219,1.8249269999996611,-11.409900665,7.9736349585,9.245735199999999,-2.8811834455,-1.5121766925,2.100859702,-17.860260965000002,19.81279755,-4.116434097
220,1.8332600000003367,-11.559623720000001,8.108318329,9.218437199999997,-0.655264765,-1.5833905934999999,16.828789710000002,-17.625695705,15.97858381,-0.3984677795
221,1.8415930000001024,-11.69824791,8.358909607,9.125656149999998,-5.03251636,-1.9278038145,5.5918844945,-15.13663769,31.16993427,-5.16813159
222,1.8499259999998685,-11.850547315,8.529030323,9.0608139,-0.8614543525,-2.310379803,12.814576625,-17.24298954,21.04981899,-3.8080583810000004
223,1.8582589999996344,-12.0041914,8.689938545,8.989570650000005,-2.3485457305,-2.4785900114999997,12.0565268985,-17.23773289,20.130516055,-4.7141308785
224,1.8665920000003096,-12.100236895,8.759095669,8.951210000000003,0.640854299,-2.7903786225,18.175871375,-10.9581251155,8.557493446,-3.1607778665
225,1.874925000000076,-12.210376740000001,8.904805183499999,8.875373850000003,-3.4398537875,-1.895159483,5.322490752,-11.9185586,18.479058265,-5.543595314
226,1.8832579999998416,-12.33509302,9.011354922999999,8.814765949999995,-1.551338434,-3.506656885,8.324099302,-13.955842975,13.514126776,-4.7479588985
227,1.8915909999996077,-12.458320145,9.1112713815,8.773117099999993,-0.8013666719999999,-0.30134432,5.484863043,-14.104475975,12.2600846285,-2.6846222875
228,1.8999240000002828,-12.572402955000001,9.197319984500002,8.723052949999996,-1.635785341,-1.8069743515,13.80888653,-12.847022055,10.8582806585,-3.993472099
229,1.9082570000000487,-12.678504945,9.321817875,8.697875999999994,-3.7339981794999995,-3.0847034454999998,10.636334659,-12.34206438,14.723037957999999,-0.07665067549999999
230,1.9165899999998144,-12.820796965,9.390141010499999,8.644912750000003,-1.6367151739999999,-2.5060952155000003,10.319339989,-16.163950919999998,8.874035836000001,-4.7501677275
231,1.9249229999995805,-12.93502855,9.4008483885,8.662841799999995,0.1502140165,-2.020224035,13.366057875000001,-14.15549946,0.2698333259999999,1.9138257505
232,1.933256000000256,-13.015580655,9.487452984,8.613311749999994,-3.421884179,-1.3278584185,6.1319769934999995,-8.8114340325,10.9352780595,-3.820012331
233,1.9415890000000215,-13.08475876,9.627061844,8.592880249999993,-2.2093231675,-1.132791758,10.0413331965,-7.992988347999999,16.358126166,0.9871790705000001
234,1.949921999999788,-13.165308475,9.6719870565,8.540718049999995,-0.44277000450000004,-2.5687847215,8.845601202500001,-8.7261822235,6.1449775715,-5.220181942
235,1.958254999999553,-13.227144715000001,9.636174679,8.561378450000007,-0.8796742559999999,-3.5273765624999998,15.245952130500001,-7.933754444,-5.2506048315000005,0.95498839
236,1.966588000000229,-13.292375565,9.705494405,8.507530200000005,-4.554041624,-1.1223691405,7.5239955185000005,-6.8569891455,9.048991682,-4.7279849055
237,1.9749209999999948,-13.327112675,9.736412524999999,8.505569449999996,-1.3579141495,-2.380710006,12.870432375499998,-4.240564473,3.1566087605,0.19058918950000003
238,1.9832539999997607,-13.343398095,9.740232942999999,8.48262785,-0.6667712330000001,-1.6409056635,6.3686268329999995,-1.595260948,0.5627191064999999,-2.971027017
239,1.9915869999995264,-13.363605499999998,9.723061086,8.513259899999994,-1.903773382,-1.8182520869999999,12.588541986,-3.1614308355,-3.349189818,2.6048461795
240,1.999920000000202,-13.41348171,9.7672677015,8.48390959999999,-3.5954869389999997,-3.541383326,8.070912122500001,-5.487588167,5.4558131695,-2.5831509235
241,2.008252999999968,-13.448521615,9.711408138500001,8.517578150000006,0.07021397350000003,-2.4293102025,13.696736815,-5.0036448835,-7.953086376,1.8793101905
242,2.0165859999997338,-13.477628710000001,9.712083818,8.512405400000006,-2.5454629065,-0.9890802055000001,1.832859516,-3.4889856575,-0.2874174114999999,-1.0139074475
243,2.0249189999995,-13.504879955,9.7662672985,8.520561200000003,-3.944799304,-2.096835345,10.3952364925,-3.542359114,5.588501215,2.015750647
244,2.033252000000175,-13.537267685,9.824462889,8.500274699999991,-1.5147343425000002,-2.4936617015,10.50648713,-3.5728272199999997,6.8412039280000005,-1.138911426
245,2.041584999999941,-13.542360304999999,9.736697195,8.542770399999995,-0.0014824869999999768,-2.110716045,13.577509403499999,-1.5949726105000002,-11.925700665,1.9804864525
246,2.049917999999707,-13.56509304,9.773276807,8.527687049999997,-4.425690651,-1.694251478,7.486453888500001,-2.512237817,4.1767405865,-1.143848486
247,2.0582509999994727,-13.580727575000001,9.818690778,8.523811350000003,-1.5299887060000001,-2.221020907,9.372798919000001,-1.9107193945,4.897198781499999,0.3962842525
248,2.066584000000148,-13.57928133,9.81118393,8.536209099999994,-1.44247818,-1.528395057,7.69708848,-0.18309056750000008,-1.7287624405,0.7767196745
249,2.074916999999914,-13.574865339999999,9.828201291500001,8.5300522,-1.9090973734999999,-2.1645539555,12.876807215,0.5504435599999999,1.6459769009999998,-0.672629796
250,2.08324999999968,-13.574112415,9.897429942999999,8.532470700000005,-3.072207987,-3.647078395,7.6994242664999994,-0.0616598685,7.5002837200000005,1.7869387865
251,2.0915829999994457,-13.60329294,9.864062788,8.515815750000002,-0.858851492,-2.3860491515,9.823433163,-3.2794226705,-3.9413519900000002,-3.290795326
252,2.099916000000121,-13.614184380000001,9.8828625665,8.552192649999995,-2.1899425985,-1.926008202,7.7471897605,-2.145467639,0.6710419650000001,4.2718846795
253,2.108248999999887,-13.616165635,9.946677208,8.511939999999996,-4.708026886,-1.9468632339999998,9.7895491105,0.48583161799999997,8.053679466,-3.2550954819999998
254,2.116581999999653,-13.607424259999998,10.02894306,8.523963949999995,-0.573493406,-1.8856301905000001,9.88676548,0.6971554455,8.7506809235,3.2673903705000003
255,2.1249150000003283,-13.601311205,9.9534602145,8.521423350000006,-0.020039201000000006,-2.934476137,12.648614882499999,0.68376565,-9.2443704615,-2.86592567
256,2.133248000000094,-13.621511455,10.0080728555,8.537902800000012,-4.431287527,-2.1660597475,7.8849368095,-2.8671875594999996,5.401011944,2.9960141184999998
257,2.14158099999986,-13.645459655,10.0313792205,8.498474099999996,-1.4734408855,-2.3099362555000003,10.6431145685,-2.1695895194999997,3.303295419,-4.306322813
258,2.149913999999626,-13.626494885,10.0418963415,8.519020099999992,-0.9823890625,-1.1430546045,8.243444202,1.752148107,0.14652609800000005,2.2199410200000003
259,2.1582470000003013,-13.622644425,10.050870892999999,8.497489950000002,-2.5846616625000003,-2.9977650645000002,7.496745585999999,0.811247621,1.1342750865,-2.6597884895
260,2.1665800000000672,-13.63990116,10.130192757,8.50070955000001,-2.6933748125,-2.9976701735,8.4003591555,-2.248802055,8.653661250999999,2.173822701
261,2.174912999999833,-13.671495915,10.094361305,8.491195649999995,-0.9709463119999999,-2.1540356875,14.016230585,-3.700616777,-4.423892498,-2.5454339385
262,2.183245999999599,-13.67730999,10.1164336205,8.51441195000001,-1.5556904674999998,-1.908593893,2.6171603205000005,-1.2894910725000002,1.41535309,2.8521516325
263,2.1915790000002744,-13.703552720000001,10.196785452499999,8.48607634999999,-4.266878128,-2.148567796,7.5638883114999995,-2.6565996405,9.6459436425,-1.4098909795
264,2.1999120000000403,-13.7333827,10.258661269000001,8.489143350000006,-0.28963619500000004,-2.5764870645,10.740868332,-3.7478048800000003,6.621876240000001,1.6780592200000002
265,2.208244999999806,-13.748232365,10.1877379405,8.499496449999995,-0.552614778,-2.4148055315,13.910897253999998,-2.1051449774999993,-9.068983555500001,-1.2753649055
266,2.216577999999572,-13.78255415,10.2047848725,8.501556399999998,-3.224869847,-1.8113939835000001,5.0862994785,-4.2669280765,1.4184650555,0.284490913
267,2.2249110000002474,-13.82299614,10.241623877,8.487007149999997,-2.1770420675,-2.4325556754999997,7.8152771,-4.653113842,4.191539436499999,-1.0529819725
268,2.2332440000000133,-13.843669415,10.2147021275,8.504394500000004,-0.836610332,-1.4568791315,9.594680072500001,-2.9596802,-4.1384601595,0.7828031035
269,2.241576999999779,-13.84950924,10.198866846,8.509780899999996,-2.4465095994999997,-1.8946096,14.002140520000001,-0.920742154,-2.511296153,-0.278894208
270,2.249909999999545,-13.88478327,10.218492508499999,8.503707849999998,-2.1205688715,-3.628071189,5.9030483965,-4.207618475,1.9514651299999999,-0.5674705950000001
271,2.2582430000002205,-13.925515175000001,10.161755564,8.520271300000005,-1.4434150455,-2.0760000645,10.491051675,-5.3500269655,-7.5904784195,-0.178563252
272,2.2665759999999864,-13.930805204999999,10.147110937,8.549491900000007,-2.2392615080000002,-1.002837956,7.3564163425,-1.359552264,-3.045596659,2.486962855
273,2.2749089999997523,-13.930663110000001,10.2173833825,8.541206349999996,-4.1555402274999995,-1.9712063075000001,8.009294987,0.08755588550000004,7.9093818665,0.6400101185
274,2.283241999999518,-13.93360901,10.230874063,8.562210050000004,1.0339100360000002,-2.2107717395,8.952076195,-0.9094974250000001,0.4643732905,2.3597177865
275,2.291575000000193,-13.930224415,10.1411170975,8.596061750000004,-2.4629529715,-3.166552067,11.802435874999999,-0.4210852385000001,-11.93237209,0.8427723420000001
276,2.2999079999999594,-13.942570685,10.198882581,8.601593000000008,-3.9726240635,-2.8631743194999997,7.830061433499999,-1.6943176089999998,6.0616412165,1.8678479195
277,2.3082409999997253,-13.933645725,10.188079358,8.596168500000005,-1.0125931504999999,-1.4178664085,9.602749347,1.0787050725000003,-1.6154643890000002,-1.3700605335
278,2.316573999999491,-13.9128623,10.15936756,8.619705199999999,-1.2182224095,-1.4896992445000001,5.5822880265000006,1.893308371,-4.5261193515,1.4291784765
279,2.3249070000001666,-13.936564445,10.2059216515,8.60354615,-3.6794878239999997,-2.7401282790000003,8.6608252525,-2.598852724,5.368789494,-0.950877442
280,2.3332399999999325,-13.97720051,10.207070828,8.611953750000012,-1.1580027115,-3.8954771755,12.181862354,-5.166993618,-0.616080165,0.5598183944999999
281,2.3415729999996984,-13.977353095000002,10.143728732,8.624855050000008,-2.278866187,-1.104365468,14.320030213,-0.39905011700000004,-8.2604382025,-0.80412066
282,2.3499059999994643,-13.968658445,10.243547442,8.617897,-3.5230791569999997,-2.0580040815,0.9678654669999993,1.0911407764999999,11.316145899999999,1.657734275
283,2.35823900000014,-14.000210285,10.2912178055,8.607795749999994,-1.173911661,-2.5897536875,8.1029166005,-3.6744452714999998,5.326205015,-0.2174712865
284,2.366571999999905,-14.01651335,10.251074792,8.649703950000003,-0.2770245745,-1.7538418175,14.2640352245,-2.96657747,-6.3827416894999995,3.1978925465000003
285,2.3749049999996714,-14.044410705,10.287162781500001,8.635749849999996,-4.521248579,-3.133286595,8.203252794,-3.1437509654999998,4.0862589625,-0.9828694365
286,2.3832379999994373,-14.078409675,10.343073845,8.642272949999992,-0.957948625,-2.169259429,5.070656538,-4.3345118760000005,5.8119990975,1.939106762
287,2.3915710000001127,-14.09824371,10.318329335,8.664253250000002,-1.8646605825,-1.4920023085,8.816619633,-2.9592577215,-4.03020145,1.3560880425000001
288,2.3999039999998786,-14.124182224999998,10.39085865,8.662254349999998,-2.7918431755,-2.9067909715,11.655291080000001,-3.1684173490000003,7.9921606795,1.4513859305
289,2.4082369999996445,-14.153941155,10.397469995,8.673423799999995,-1.104849577,-2.4126532075,8.330441952000001,-3.917806268,-0.06742918499999995,1.0346550195
290,2.41657000000032,-14.196959495,10.352295394999999,8.692939750000008,-1.7744690775,-2.2274324300000004,6.1497154235,-5.6903123855,-6.332025528,0.4689646885
291,2.4249030000000857,-14.221224785,10.454900265,8.69922634999999,-3.5992718935,-1.4751940965,6.052078366,-3.1472278835000003,11.239905836,3.295636773
292,2.433235999999852,-14.236166,10.510229115,8.679794350000009,-0.91542238,-1.783487529,11.992598774000001,-1.4811432660000001,6.488245725500001,-1.0258949325
293,2.441568999999617,-14.229538439999999,10.462093355,8.723991400000003,-0.5932292415,-2.6636670825,9.6931214345,-0.2741811795,-7.4024055005000005,3.1910152435
294,2.449902000000293,-14.24732351,10.48219347,8.710342400000002,-3.5100322965,-2.7698250415,6.5333678724999995,-1.9318128155,2.2255377769999996,-1.4068490859999998
295,2.458235000000059,-14.27767944,10.535666464999998,8.715454100000002,-2.2155741455,-1.8250956615,7.010635853,-3.8631200195,5.5580528104999996,1.724305689
296,2.4665679999998247,-14.271416665,10.496619225,8.714668250000003,-0.07387965899999999,-1.2239623965,11.0540103925,0.6654067040000002,-5.031116605,-1.686217308
297,2.4749009999995906,-14.27194929,10.538559915,8.721115100000006,-3.9109401705,-1.544384897,6.349010854,-0.30199182049999995,4.1759339575,1.53338984
298,2.483234000000266,-14.306913380000001,10.560885429999999,8.705558750000009,-1.0465022025000001,-3.7388980390000004,8.5688312075,-3.958980918,2.5361614825,-1.5555332305
299,2.491567000000032,-14.329722879999998,10.50501537,8.733291649999998,-1.858948052,-2.6599059995000003,12.867344855,-3.4528887755,-7.8265776635,1.0728331805
300,2.4998999999997977,-14.31632948,10.538252355000001,8.71965025,-2.962680578,-0.795559518,8.740819456,1.8105486035,3.7555468679999997,-1.013702527
301,2.508232999999564,-14.315341475,10.61635208,8.705253599999992,-3.1951839924999996,-2.3472474814999997,2.895049226,0.33118565349999995,8.9845142355,0.23533722749999997
302,2.516566000000239,-14.330496785000001,10.61425066,8.707046500000004,0.7827769474999999,-2.2714090795,11.154359339500001,-1.9627227189999998,-0.8097942475,-0.2995008565
303,2.524899000000005,-14.326955315,10.598448274999999,8.718559249999998,-2.7312970165,-2.1499286890000002,13.033435345000001,0.06362557400000002,-2.6872729065,0.40007516750000005
304,2.533231999999771,-14.337862009999998,10.63148689,8.7025833,-2.633559108,-2.3957250715,6.224521429,-1.0589436294999999,3.7963560815,-1.2829594015
305,2.5415649999995367,-14.36052847,10.664465905,8.697097749999998,-2.024648011,-2.2129948735,6.9936516285,-2.7137577835,3.4761590365000004,-0.0925826505
306,2.549898000000212,-14.34976864,10.64540243,8.714714049999998,-0.4521294239999999,-1.743751705,10.669960499999998,0.8008931210000001,-3.2380232515,1.0048144755
307,2.558230999999978,-14.34571123,10.721168514999999,8.694488500000006,-4.5129258629999995,-2.8967261315000004,9.074339630499999,0.8383794130000002,8.8834464525,-0.5023528669999999
308,2.566563999999744,-14.36754131,10.714961055,8.704063399999995,0.505392179,-2.5103673335,8.0179369445,-2.9447149635,-1.514512047,0.47377365450000003
309,2.5748969999995097,-14.39466381,10.6868515,8.702331549999997,-3.1421557665,-2.2254338865,9.4478473665,-3.317402169,-3.7302782535,-1.481117606
310,2.583230000000185,-14.403561595,10.754490375,8.710853599999993,-2.204536438,-1.4224644305,5.487914323,-1.362196982,7.099042654,2.5532845254999996
311,2.591562999999951,-14.42936039,10.829978945,8.676742600000011,-3.0572466855,-2.04936333,7.8942731639999995,-2.43821305,9.2551481705,-2.0927793975
312,2.599895999999717,-14.43911886,10.775901795,8.707115149999993,1.4923253655000002,-2.812245607,12.1063284855,-1.958112329,-7.685058357000001,1.4177672265
313,2.6082289999994828,-14.453038215,10.769277575,8.702026399999994,-4.7264533045,-2.850565076,9.3061995485,-1.6519899365000001,-1.1371695995,-1.2213315965
314,2.616562000000158,-14.48869276,10.83862877,8.686676050000003,-1.5490158795,-2.386644423,4.4515776895000005,-4.047029853,7.997333882,-0.10722118600000001
315,2.624894999999924,-14.486869335,10.801969055,8.684661899999995,-0.8697278350000001,-1.20198524,9.873758076,0.16081899400000002,-4.71586895,-1.7787486315
316,2.63322799999969,-14.49489069,10.819721695,8.690231300000008,-3.025799632,-1.9102395775,8.1604189855,-1.183710739,1.382285118,0.7286352815
317,2.641560999999456,-14.547414305,10.838439465,8.67826844999999,-1.3991487325,-3.6001434325000004,6.32363832,-6.149951935,2.004864603,-1.24034366
318,2.649894000000131,-14.56907797,10.79475212,8.703216549999993,-1.8639924490000002,-1.618241996,12.674242975,-3.2642201215,-6.3205242155,1.090090544
319,2.658226999999897,-14.57832432,10.88720274,8.684387199999989,-4.1188088655,-2.143349707,4.267946482,-0.7834177765000001,10.7804117205,0.19575681
320,2.666559999999663,-14.624636169999999,10.8904624,8.70464324999999,0.6567681729999999,-3.245369792,6.027156354000001,-6.1301853655,-0.7370114324999997,1.9749155045000002
321,2.6748930000003384,-14.681874274999998,10.82518005,8.725463849999997,-2.6266192045,-1.8256611825,12.86776161,-7.4308887729999995,-8.713932035,-0.06265240949999998
322,2.683226000000104,-14.72195959,10.95374584,8.704345750000002,-4.3964812755,-1.6848123670000001,4.1864531035,-4.4322819705,15.039729595,1.0685685275
323,2.69155899999987,-14.786154750000001,10.93756342,8.708511349999995,1.751321256,-3.013433814,7.247966118,-7.916240930500001,-2.5314948534999995,-0.461024329
324,2.699891999999636,-14.893420695,10.926125525,8.732780450000007,-4.2177369595,-2.7210018035,8.825440647,-13.507163527,-2.5670337675,1.9763371945000001
325,2.7082250000003114,-14.995846270000001,10.990102295,8.698150650000002,-0.8599803444999999,-1.1615018415,5.6258358955,-11.607854844999999,7.966765969,-2.4601388575
326,2.7165580000000773,-15.037230014999999,10.986755370000001,8.725799550000005,-2.350593746,-1.995677233,11.3515286445,-5.6917085205,-1.7474858759999994,2.605211258
327,2.724890999999843,-15.162642,11.021727085,8.721099850000002,-1.4146842954999999,-3.1392239335000003,-1.374699801,-15.064010620000001,3.6714686605,0.131067991
328,2.733223999999609,-15.227240085,11.016360760000001,8.733375549999991,-1.7160081864999999,-0.24553090300000002,13.659595965,-8.126674176,-1.515594959,0.7885791584999999
329,2.7415570000002845,-15.29283047,11.121616840000002,8.718963599999995,-1.9368839859999998,-2.823118508,1.2062704865,-7.682260754,12.060720445000001,1.413944334
330,2.7498900000000503,-15.40179348,11.070612905,8.747070300000004,-1.6456825135,-0.737966299,9.868987558499999,-13.83150625,-7.2858625645,1.1335262655
331,2.758222999999816,-15.48410177,11.202985765000001,8.716781600000004,-4.531597972,-2.5447919965,4.351829051999999,-9.273201942499998,15.7285969235,0.4012215135
332,2.766555999999582,-15.555247784999999,11.230210305,8.734687800000003,0.7898360195,-2.7876107695,11.643282650500002,-9.081298592,2.068535805,2.46403873
333,2.774889000000257,-15.615717409999998,11.266576765,8.7245712,-3.9821821454999995,-0.702122331,3.7193712889999997,-7.044453621,4.074440005,-0.6744741795
334,2.7832220000000234,-15.710780620000001,11.37279463,8.715843200000009,0.060940980999999894,-2.3487672505,-2.170689702,-11.3190174115,12.035334006,2.01223588
335,2.7915549999997893,-15.788954735,11.35234308,8.740142800000001,-2.7334852515,-2.1466823815,18.204840660000002,-9.902112482500002,-3.4641475660000003,0.9022551775000001
336,2.799887999999555,-15.84143877,11.52657366,8.695480349999997,-2.5977441665,-1.2653296885,-1.5724622009999998,-5.33298254,21.04132748,0.20668138150000004
337,2.8082210000002306,-15.941238405,11.51102972,8.697074900000004,-0.1156617405,-2.3907594679999997,6.427229164,-12.1889905955,-2.4455738055000005,-0.483853221
338,2.8165539999999964,-16.001697065,11.632629395,8.684417699999997,-2.9290635590000003,-0.6689807475,5.3338092565,-7.029817581,13.9193849565,2.1493172645
339,2.8248869999997623,-16.09693241,11.67474699,8.6650238,-0.667823076,-2.964964509,9.6847920435,-11.145506381,4.888017655,-0.9652918875000001
340,2.833219999999528,-16.148159030000002,11.782752035,8.661094649999995,-3.391460359,-1.977863729,4.8100439315,-6.124819308499999,12.0605039575,2.7163848875000003
341,2.841553000000204,-16.216384885,11.843064309999999,8.656272850000008,0.5005265470000002,-0.8234843615,-2.9484305375,-8.187426927,6.609799385,0.9149217304999999
342,2.849885999999969,-16.261473655,11.92004871,8.662063599999996,-3.2278500794999996,-1.4992586225,19.029479504999998,-5.6149818895,8.170951365,2.793854833
343,2.8582189999997354,-16.329453465,12.064768789999999,8.624801599999998,-1.8431732655,-2.033212602,-9.04901886,-7.3643702285,17.371379255,0.25373560149999996
344,2.8665519999995013,-16.380577085,12.058116434999999,8.654220550000005,-0.22127366049999964,-1.0001426785,17.303260805,-6.953223466500001,-2.2549128549999997,2.643486023
345,2.8748850000001767,-16.422750475,12.224055765,8.623451200000005,-2.9621666075,-2.784649253,-0.3576538564999998,-4.4087810515,19.59252405,1.7513038515
346,2.8832179999999425,-16.433146475,12.237003805,8.627632149999997,-0.8242815730000002,-1.3079547885,10.231267930000001,-1.453960046,0.836855173,0.466383934
347,2.8915509999997084,-16.470918655,12.345255375,8.6191101,-1.1554601195000003,-1.508673757,-3.0728663204999997,-4.422163128999999,12.209301473499998,2.280454874
348,2.8998839999994743,-16.50136757,12.406942845,8.618553149999997,-1.2538017035000002,-1.515855804,13.734621045,-3.7309124245,6.610298692500001,1.5960359875
349,2.9082170000001497,-16.532784460000002,12.47441769,8.594802849999994,-2.5052019359999997,-1.6803015769999998,-8.294242261499999,-3.2661093469999996,8.030912041999999,-0.794732809
350,2.916549999999916,-16.57266998,12.53772688,8.601890550000007,-0.8801851269999998,-1.146396637,17.259536265,-5.055899739,6.528996707499999,2.5126867295
351,2.924882999999681,-16.584531785,12.63268757,8.557350200000002,-2.2409884929999997,-3.3457059860000005,1.729446091,-0.37450554950000003,11.887795895,-2.1898187995000002
352,2.933215999999448,-16.586808205,12.643474574999999,8.57987215,0.17714679249999987,-1.0871579055,2.352459982,-0.9596886339999999,-0.029481410999999902,2.452863991
353,2.9415490000001228,-16.634487149999998,12.753227235,8.521911599999996,-3.704848766,-1.5111145975,-0.36268174649999985,-4.285979867,14.024002075,-3.1780103445
354,2.9498819999998886,-16.70338249,12.765155315000001,8.557518000000002,0.9356429725,-2.104018569,11.691240789,-9.326899646000001,-0.3300333019999999,3.9676584005
355,2.9582149999996545,-16.735455514999998,12.81883049,8.5176163,-2.5578186515,-2.1351034045,0.42418146150000013,-2.8676736355,6.989282252,-3.0646988155
356,2.96654800000033,-16.77930069,12.92432308,8.52462770000001,-0.6151171625,-2.231407285,4.476072788,-5.576597929,11.3691061715,3.994636655
357,2.974881000000096,-16.818327905,12.919761654999999,8.505516049999997,-3.630271554,-0.6303310695,4.297463298,-4.253653288000001,-0.4028798345000002,-2.7415170074999997
358,2.9832139999998617,-16.864719389999998,12.989322665,8.543609599999996,2.2523946759999998,-0.809441466,0.5470662715,-6.7066271305,6.180792093000001,6.239513755
359,2.991546999999628,-16.973977089999998,13.03264713,8.518867500000013,-5.0521384475,-3.043369889,4.1130597595000005,-12.532369615,5.2803628445,-1.6985509245
360,2.999880000000303,-17.034170154999998,13.10967827,8.547966000000002,1.583018318,-2.1727474335,9.98905921,-8.126218798,7.3393499855,5.5182030200000005
361,3.008213000000069,-17.055267335,13.097936155,8.568275450000002,-3.446604371,-1.333249807,2.912719697,-3.1706899855,-2.566968858,1.415948451
362,3.0165459999998347,-17.101507185000003,13.19664621,8.557846100000006,-0.101620133,-0.8092505635,2.3117320985000003,-5.374065518,11.1641650185,1.8706978854999998
363,3.0248789999996006,-17.166747094999998,13.158581255,8.59716035000001,-2.4899243115000003,-0.49142197899999995,3.657366991,-9.000107529000001,-6.2441635425,2.6007795635
364,3.033212000000276,-17.218538285,13.24172306,8.574966400000008,0.5427946445,-2.5247443915,11.7609210025,-5.6977716665,9.780083658,0.0225920675000002
365,3.041545000000042,-17.22443199,13.17793417,8.620162950000008,-1.968829632,-0.781885594,-2.691594005,-2.0640872715,-9.416470525000001,2.3619143964999996
366,3.049877999999808,-17.212752345,13.217971325,8.591781650000001,-1.496930331,-1.122447014,14.487159255,2.0989015105,5.065504075,-2.203548238
367,3.0582109999995737,-17.196167945,13.168390275,8.648727399999999,-0.9273939805,-1.3891130685,2.310527086,0.30801087650000003,-8.179173945000002,4.1814035775
368,3.066544000000249,-17.150076865000003,13.071430679999999,8.634162899999993,-1.5177416799999999,-1.4526420235000002,11.668090222499998,5.8439347695,-11.130241394999999,-5.5395056005
369,3.074877000000015,-17.09922314,13.101901535,8.678100599999993,-2.6357072145,-1.1835280355000002,-5.146841287000001,4.793001175000001,1.4539237049999993,5.578974366
370,3.083209999999781,-17.01383686,12.93540955,8.679130549999996,0.6576654915,-0.4174961005,19.87821722,10.1205210665,-19.650165559999998,-6.207497835
371,3.0915429999995467,-16.877251625,12.99787235,8.704750050000001,-4.7840454580000005,-1.0956597475,-1.2404279725000005,15.605439185,5.7569289205,4.6017776725
372,3.099876000000222,-16.799357415000003,12.82575321,8.698616049999998,2.0705947129999998,-2.307752371,10.8824071865,9.4008135785,-20.069252492,-7.0747320655
373,3.108208999999988,-16.62870693,12.790318015,8.743202199999999,-4.9416742325000005,-1.0683798345,3.6893396375000003,19.212114335000003,-6.1012530300000005,3.2855079175
374,3.116541999999754,-16.497296335,12.71075392,8.706832850000012,1.3274773955,-2.6387236715,7.483515026,16.610271455,-8.453718660500002,-7.183330774
375,3.12487499999952,-16.317164419999997,12.634114745,8.75726315,-4.336129904,-0.15796899799999986,7.820704699,20.206669804999997,-11.0148043645,2.5504306555
376,3.133208000000195,-16.20461941,12.576468945,8.696876549999999,-0.0861752035000003,-3.091578603,-3.0313308239999994,14.976312876,-5.189320089999999,-9.103619098500001
377,3.141540999999961,-16.065197945,12.488599775,8.761772149999999,-3.0299743414999996,-1.3910980885000002,19.94504452,14.958788395,-12.777214049500001,3.8616048095
378,3.149873999999727,-15.944795605,12.47738075,8.642105100000009,-2.3333508969999994,-3.1628925800000003,-7.899897574000001,17.443513875,2.057166575000001,-14.23304701
379,3.158206999999493,-15.798631665,12.4000864,8.703071600000001,-0.5722472670000003,-1.3718765975,13.492254735,15.880781175,-11.3970494245,3.834421158
380,3.166540000000168,-15.75943375,12.47371292,8.567695650000005,-4.809806051,-3.2237051725,-2.1532150505,8.087116358500001,12.295793293,-13.286985869999999
381,3.174872999999934,-15.68788004,12.416372775,8.625755299999994,1.821223855,-2.044253528,9.8735325315,6.98784143,-8.991080105,4.219106793
382,3.1832059999997,-15.651055809999999,12.565799715,8.508033800000007,-7.511026382499999,-3.1285794974999996,1.8671116235,7.3842990395,20.46749544,-8.8885092735
383,3.191538999999466,-15.65102434,12.573033335000002,8.550285299999999,2.7872946265,-1.5014728305,2.4024773835,-1.2260062695000005,-1.0395469649999995,4.5579769615
384,3.1998720000001413,-15.718392375,12.696320055000001,8.49626155,-6.305346011999999,-2.414828062,5.5444999505,-6.736447932,15.4462034695,-2.5335437059999997
385,3.208204999999907,-15.81287098,12.851555825,8.496185299999993,2.3453704715,-4.5251310465,2.8769879339999997,-11.478217601999999,17.405810119,4.595810354
386,3.216537999999673,-15.887112145,13.003323555000001,8.484504700000002,-6.2011599545,-1.5604137180000002,12.352934365,-8.6618380545,17.3676999505,3.2298094035
387,3.224870999999439,-15.97117996,13.147955415,8.501762400000004,-0.3780074715,-2.9272105695,-2.5050054790000003,-10.695319176,15.607288837999999,6.2321259975
388,3.2332040000001143,-16.11253834,13.32021284,8.491134650000006,-0.5958109945000001,-0.207400404,2.1272759435,-16.715058325,19.686543402999998,4.1139428615
389,3.24153699999988,-16.34370899,13.568136214999999,8.477317850000006,-1.612731874,-2.9894839525,0.4869400155,-27.485387799999998,28.47119713,6.2942132950000005
390,3.249869999999646,-16.51833439,13.76026154,8.462028499999988,-3.0025628805,-1.944624305,14.028059005,-20.5989027,22.1132164,4.3843598365
391,3.258203000000321,-16.683969495,13.93006134,8.453262350000003,0.206004493,-1.601415455,1.6832848790000001,-19.74039316,19.289069175,4.3789230585
392,3.266536000000088,-16.888279915,14.101014615,8.438453699999997,-0.780960828,-2.1559295655,0.7830002604999999,-24.151847840000002,19.61724186,3.8450454175
393,3.2748689999998533,-17.046281815,14.31491566,8.389541600000001,-0.9228732775,-1.1916046665,10.245814801,-17.62639904,25.681199075000002,1.5999049095
394,3.283201999999619,-17.1868372,14.43080187,8.3911667,-2.5837222334999996,-1.2229147999999999,3.254735112,-17.01267004,12.712383747499999,3.8231637475
395,3.2915350000002945,-17.33716202,14.556574820000002,8.343238849999992,1.6844870445,-0.503190696,0.02142369700000002,-16.685177805000002,15.518348218,-1.2782851759999998
396,3.2998680000000604,-17.484360695,14.70832062,8.332214350000001,-3.3788056675,-0.723554373,6.479196787,-17.42520523,17.252541065000003,3.787118137
397,3.3082009999998263,-17.639486310000002,14.786840914999999,8.292304999999999,0.42559635649999983,-2.2964610455,9.083754301,-17.51667118,9.852929475,-2.0318116245
398,3.316533999999592,-17.674144745,14.85555935,8.294258150000005,-0.601264477,-0.9158270955000001,6.5529496675,-4.28085655,7.262810111000001,2.285026997
399,3.324867000000268,-17.71219349,14.935110089999998,8.25128174999999,-1.4869055545,-0.9165421425,-0.399675608,-3.374830246,10.0857069485,-2.2951709289999997
400,3.333200000000033,-17.73794365,14.90021467,8.275939949999994,-1.391712874,0.2342765925,5.662525475000001,-3.9276036025,-5.385463565499999,1.0105841755
401,3.3415329999998,-17.757925035,14.973917010000001,8.228340150000008,0.6886527835,-1.8190453944999998,9.8018376825,-1.028712571,9.5643372515,-3.0140081345
402,3.349865999999565,-17.756274225,14.935639380000001,8.267051699999996,-2.9388171435,-1.665505767,-2.1387728155000003,-1.1067908999999998,-6.2517960075,2.447318375
403,3.3581990000002406,-17.733452794999998,14.937204835,8.216819749999999,0.08654781450000001,-1.8855021595,10.8389713785,4.200703025,1.4251506325000003,-5.949374437
404,3.3665320000000065,-17.613352775000003,14.881412505,8.285827650000002,-1.231336832,0.062403728,10.413626911,12.179962634999999,-9.333952428,5.168230534
405,3.3748649999997724,-17.571113585,14.833542825,8.231239349999996,-1.129266143,-2.0388112664999998,-4.8731992245,6.6476948265,-4.086572050999999,-8.2265565395
406,3.3831979999995383,-17.517011645,14.79652643,8.292037949999994,-1.2453449369999998,-0.8655500355,7.1420680305,4.527815819,-6.8866953865000005,4.9583016635
407,3.3915310000002137,-17.4208374,14.7157383,8.249877949999998,-2.303194106,-1.643548906,12.404030325,12.730663302,-8.3201465605,-8.0295910835
408,3.39986399999998,-17.29007435,14.65045357,8.333465600000011,0.008902549500000023,-0.992967725,4.6280931245,13.050430774999999,-10.878202202,6.479686259999999
409,3.408196999999745,-17.198370935,14.54554272,8.287292449999995,-3.107597947,-2.7238199715,2.7764156385,12.295740605,-10.963159798500001,-9.2771267875
410,3.416529999999512,-17.032069205,14.49071407,8.383178699999988,0.12324097549999999,-1.1249195335,6.684522865,16.973522185,-10.0846614855,8.252076149
411,3.4248630000001867,-16.90794468,14.336555005000001,8.352714550000002,-2.8066394925,-1.6197816995,14.4877800955,15.707553859999999,-17.192412375,-9.2138171185
412,3.4331959999999526,-16.769696234999998,14.3245306,8.415901200000008,-0.954698354,-2.9477127789999997,-4.6557294725,14.62474728,-4.029100179,6.143768549
413,3.4415289999997185,-16.65841675,14.148312090000001,8.411453249999994,-2.586428851,-0.7496651855,8.152769623,13.377164365,-20.648646118000002,-6.980876684
414,3.4498619999994844,-16.53128624,14.14642477,8.440872150000004,-1.5974253715,-2.1742311715000002,12.318747757,14.309284685000002,-1.7006025299999994,2.7317207454999997
415,3.45819500000016,-16.387825014999997,14.0319438,8.440216050000004,-1.0103648600000001,-2.0808597355,7.6506581305,17.126255035,-13.686284303499999,-4.3662322165
416,3.4665279999999257,-16.252957345,13.97258711,8.466056850000001,-2.324515272,-2.4296031075,-2.9078832865,15.34331894,-8.1948795315,0.40284073349999994
417,3.474860999999692,-16.18534756,13.92711258,8.479835500000007,-2.6667431855,-1.701259613,14.17584705,7.6140177255,-6.2207264325,-0.399864137
418,3.483193999999457,-16.087557314999998,13.885151385,8.462951650000008,-1.3034579160000002,-3.2742467819999996,5.4807662960000005,12.1242642395,-4.8081141725,-3.74474442
419,3.491527000000133,-15.977919105,13.8176651,8.527931200000012,-0.7217779155000001,-0.8301623465,9.362126114,11.200999735,-10.42235136,4.5990823505
420,3.4998599999998987,-15.942170144999999,13.81343317,8.4771042,-3.656614877,-3.552372098,-0.5293833615000001,5.640171647,0.637973845,-6.2769029145
421,3.5081929999996646,-15.876425744999999,13.80132961,8.5255966,-1.2010651825,-0.9910677075,14.0560669925,6.4120950699999995,-3.477945924,4.5924983025
422,3.5165259999994305,-15.818347455,13.752707484999998,8.477005000000005,-1.2327072024999999,-2.8455213329999998,4.2009489535,8.256135463,-4.5886690615,-7.4794151785
423,3.524859000000106,-15.767552850000001,13.765391825,8.541748049999995,-1.8456392885,-1.6844513639999998,12.480083465,4.161256939499999,-1.1180996894999997,7.2209410665
424,3.533191999999872,-15.770213125000001,13.74656725,8.458229099999997,-3.2835640315,-3.4093132015,-2.412932873,1.9510362150000002,-0.04846287000000071,-10.407917499
425,3.5415249999996377,-15.727652070000001,13.74936295,8.53759765000001,1.0169366595,-0.8215353190000001,15.20021963,2.767394781,-2.7321438800000006,8.538309097500001
426,3.549858000000313,-15.74861336,13.73009634,8.459846499999998,-5.1013245585,-3.7045150995,1.9632043245,-0.41288888450000005,-0.2734327299999997,-9.7771797205
427,3.558191000000079,-15.74392748,13.783249855000001,8.522155749999996,0.937902093,-1.4585328105,12.210883139,-1.2970927955000002,3.6398768399999994,8.2671191695
428,3.566523999999845,-15.80074549,13.758348945,8.448135399999998,-4.4072717425,-2.4446179275,0.10976552949999974,-4.812975166499999,-1.054278375,-9.5488233545
429,3.5748569999996107,-15.803384305,13.82517719,8.515525799999992,0.992356062,-2.025225818,14.683579439999999,-2.3340399265,5.04972315,9.292905809
430,3.583190000000286,-15.84114456,13.836984635,8.438606250000007,-5.475522399,-1.8504809885000002,6.4862765074999995,-2.4293699264999997,3.284500121999999,-8.6735520345
431,3.591523000000052,-15.87531328,13.92605114,8.488456750000012,2.1260123255,-2.2883356315,4.963894724999999,-5.617171526,8.1537604335,8.0530359745
432,3.599855999999818,-15.921164990000001,13.87940407,8.446014450000007,-4.7096576695,-1.7059931459999997,4.7957260585000006,-4.393924952,-4.537809374999999,-6.717931270499999
433,3.608188999999584,-15.959413525,13.99735737,8.457183850000007,0.8307285010000001,-1.8479740319999998,12.21678543,-4.990867496,12.726460694,4.6883239745
434,3.616522000000259,-16.0092659,13.982938765,8.420043950000007,-2.9861501455,-2.242006242,7.5055379890000005,-5.0155954365,-0.9949359900000001,-5.069577991999999
435,3.624855000000025,-16.01406717,14.03083992,8.4367752,0.33663982150000005,-1.5687470879999998,3.2283322064999997,-1.1608056425,4.463406089999999,3.0016628804999996
436,3.633187999999791,-16.076625825,14.04576397,8.41674805000001,-4.172239125,-1.4859914185,10.7074894925,-7.0216561550000005,1.8449754700000005,-2.1814941764999998
437,3.641520999999557,-16.129594805,14.127415655,8.390846249999996,0.5069215300000001,-2.973238587,4.9723974470000005,-5.704009533000001,9.7131770835,-0.6338561775
438,3.649854000000232,-16.144737245,14.086441995000001,8.42404175,-1.7961972950000002,-0.15023076549999992,11.961427215,-2.8811662195,-6.307711361,1.911827266
439,3.658186999999998,-16.21780872,14.184696195,8.371612550000009,-2.2057992815,-3.457347214,0.343919605,-7.342738627999999,12.5008194445,-3.0328154415
440,3.666519999999764,-16.259111400000002,14.187654495,8.398223850000008,-2.3994539379999997,-0.040802121000000025,13.7783772965,-5.8351608515,-1.0451245294999998,2.6410973665
441,3.67485299999953,-16.26083088,14.21795511,8.349960299999992,0.533360362,-2.466278881,4.316980958,1.111619234,4.5378186115,-4.8240376715
442,3.683186000000205,-16.271302225,14.224606040000001,8.412162800000004,-2.5919734835,-1.0623198745,13.983964918000002,-3.185725555,-1.7792993780000002,6.735608816000001
443,3.691518999999971,-16.28062344,14.2512846,8.324974099999991,-1.7592916485,-3.294658959,-0.006014018999999982,1.3425896165,5.3853931425,-9.290539978
444,3.699851999999737,-16.237326619999997,14.2161932,8.425392150000008,-0.9206206800000001,-0.21126431199999995,15.199514865000001,2.13746357,-7.8232035645,9.6015493865
445,3.708184999999503,-16.22456741,14.21897078,8.332336400000003,-2.2592707575000004,-3.1685534715,1.4740863445,4.175300120999999,2.821901679,-10.753959179999999
446,3.7165180000001774,-16.204969405,14.20132351,8.429466199999993,-1.084279716,-1.1314005555,14.458983425,-0.6193586585,-5.703964410499999,9.8289256095
447,3.724850999999944,-16.19252491,14.190586565,8.343612649999997,-1.896696776,-1.918478623,1.6042937284999998,3.9282321930000004,1.0264902139999998,-10.405112745
448,3.73318399999971,-16.156785965,14.119989395000001,8.45407865,-0.7639210219999999,-1.5019399075,10.213287113,0.9250578285000001,-12.232050655,9.5662226675
449,3.741516999999476,-16.140657425,14.155458925000001,8.380477900000002,-3.0232593414999998,-1.72538054,8.6807889915,4.016192079,5.937707424999999,-7.5142662525
450,3.7498500000001513,-16.114199640000002,14.100882055,8.449638400000012,-0.19320893299999997,-2.1311240194999996,11.005373475999999,1.021233827,-9.03401041,5.506006479
451,3.758182999999917,-16.06328726,14.08869934,8.428642300000007,-3.4691435095000003,-1.5962610245,3.1466686725000006,6.6546270849999996,-1.2532415399999994,-3.2459211945
452,3.766515999999683,-16.046441555,14.026913165,8.4770508,0.4442486765,-3.0030062795,8.8376418655,0.47140967850000015,-9.192909245,2.9652090665
453,3.774848999999449,-15.98006153,14.023926735,8.465980550000012,-4.747881055,-1.0749620345,13.6752390855,8.219689846,-0.5160093299999993,-1.81127321
454,3.783182000000125,-15.95477915,13.99599314,8.486084000000005,1.0744947790000001,-3.0366288425,0.16455411899999994,2.316622734,-4.378599169999999,0.9187193515
455,3.7915149999998894,-15.911100385000001,13.947354794999999,8.513336199999998,-4.3006921855,-0.966874875,16.48501968,4.3806250095,-7.01878166,0.9704923480000001
456,3.799847999999656,-15.88116741,13.935642245,8.510063149999993,0.7684869769999998,-2.2738320825000002,-2.970215261,3.5529525299999998,-1.750402450000001,-1.1625538615
457,3.808181000000332,-15.849370480000001,13.89549875,8.537490849999998,-4.7972903235,-1.497590318,21.519474029999998,2.956792325,-6.031817435000001,1.2847218214999998
458,3.8165140000000974,-15.822693825,13.93465996,8.515037549999988,0.716807127,-2.7143206595000002,-4.058708489,3.7171913905,4.721523759999999,-1.6462918819999999
459,3.8248469999998633,-15.784309385,13.826851845,8.55781555,-1.693932533,-1.2490884734999999,22.911455155,3.292788148,-14.3301484575,0.80854623
460,3.833179999999629,-15.76226282,13.89805269,8.53024289999999,-1.7330987455,-2.4200351235,-10.030702593000001,3.3211612704999998,8.585061310999999,-1.195794314
461,3.8415130000003046,-15.757409575,13.798195360000001,8.564872750000006,-3.891813874,-1.8569910825,19.869431975,-0.5112218854999999,-13.152753355000002,0.18255269500000004
462,3.8498460000000714,-15.717758655,13.895979405,8.539718650000012,-0.5383928415,-1.8449062109999999,7.145422517,5.385265946,11.5754614475,-0.08909258250000002
463,3.858178999999837,-15.69362116,13.75748539,8.568649300000004,-1.0924765170000001,-2.4616894125,7.658392908,1.9398618785000001,-17.43928623,-1.6772857014999998
464,3.8665119999996014,-15.66543102,13.83624601,8.570487999999997,-2.8181425335,-2.032445729,6.963084758,3.2603294844999997,8.53387642,2.295799315
465,3.8748450000002777,-15.649350645,13.784635065,8.568717950000007,-1.624397874,-2.632562757,10.597273588,1.8419132230000002,-6.426426889999998,-2.28210181
466,3.883178000000044,-15.594528675,13.80757999,8.584304799999998,-2.2564465129999998,-0.811937153,9.8019630885,6.065149307,1.6505327199999993,2.015957892
467,3.8915109999998094,-15.61660528,13.774398325,8.589935299999993,-0.3489575384999999,-2.9823797945,1.1957011225,-2.951673627,-4.534011840000002,-0.8560033140000001
468,3.8998439999995753,-15.575484750000001,13.75664902,8.631523149999992,-3.6428411005,-1.6536976694999999,21.574012279999998,3.6669099925,-3.864324570000001,3.6267917755
469,3.9081770000002503,-15.56926918,13.81339073,8.61574555,-1.389839411,-1.9288560155,-4.7093371675,1.0626738070000004,6.528365135,-0.36360627449999994
470,3.9165100000000166,-15.550148485,13.74989319,8.653083800000005,-1.422694206,-1.602712393,20.345371245,1.145775199,-9.014135360000001,1.6908662620000001
471,3.9248429999997834,-15.507689475,13.797300815,8.65411379999999,-0.8906726835000001,-0.9970563875,-5.804712057,4.9470646975,4.9266576785,1.215652168
472,3.933175999999549,-15.519064425,13.70189047,8.682044950000005,-1.569054842,-3.0210821625,23.46509266,-2.2580934165,-12.410711648,-0.376273453
473,3.941509000000224,-15.502564905,13.80932379,8.67260739999999,-3.3989498615000002,-1.9289196729999998,-3.2808463569999997,2.1421507005,12.1944456105,1.9514528885
474,3.9498419999999896,-15.48321438,13.685629365,8.687355050000008,0.043390988999999935,-1.621704817,16.791664124500002,1.7818287615000001,-15.26760578,-2.7418569625
475,3.958174999999756,-15.44308281,13.784897325,8.715370199999995,-2.70066607,-1.3635587695,1.6756882665,3.934624523,10.0872168535,5.8606603150000005
476,3.9665079999995214,-15.46482897,13.692383764999999,8.687706000000006,-1.5621094109999998,-3.220283985,12.073685408500001,-1.955329001,-10.345427515,-6.468781948
477,3.974841000000197,-15.396682265,13.762429715,8.748428349999998,-2.7579729555,-0.3295518459999999,11.162102876,6.381318092000001,5.695602420000002,8.5836052885
478,3.9831739999999622,-15.39712572,13.686682699999999,8.699897749999991,0.022207260500000103,-3.605356395,0.8227553369999998,1.1828005314999999,-7.768797875000001,-8.2599022385
479,3.991506999999729,-15.333924289999999,13.689575675,8.786979700000003,-2.852437794,-0.6454055904999999,15.680650234,5.0394079685,-2.875692364999999,9.396381855
480,3.9998399999994954,-15.34091711,13.732623575,8.684021000000001,-2.8276973965000005,-3.314954042,4.3044098615,1.9625650639999999,7.6460261350000005,-10.6219406105
481,4.00817300000017,-15.259713170000001,13.650163175,8.812164350000003,0.46355867400000017,-0.7747780080000001,15.98250294,6.0063735235,-14.005414725,11.325867174999999
482,4.016505999999936,-15.245696545000001,13.698091505,8.700302149999999,-4.457576871,-2.0467237455,-5.290231943,4.744270861,8.472238900499999,-11.491535185
483,4.024838999999702,-15.198644635,13.623671054999999,8.821861249999998,1.4081485269999998,-2.1174284219999997,26.756104470000004,2.08571624,-12.85408306,10.883119109999999
484,4.033171999999468,-15.11137104,13.695583339999999,8.72042085000001,-6.243440511,-1.4018361565,-1.2859077455000003,13.258355139999999,10.9076613765,-9.612526894
485,4.041505000000143,-15.07300663,13.615699769999999,8.82685085,4.4064545630000005,-2.749703303,8.9747375235,1.4460701939999998,-12.998897193,9.0657918475
486,4.049837999999909,-15.029742240000001,13.57270098,8.782707250000001,-6.769482374,0.38549697400000005,10.56308007,6.362552643000001,-4.163589955,-6.7795011999999995
487,4.058170999999675,-14.944643500000002,13.634399415,8.840889000000004,2.120571278,-3.011297047,9.2945907115,8.415029647,4.889710425,8.0450952075
488,4.066503999999441,-14.897284984999999,13.498870375,8.854728699999995,-5.505885601,-2.0251256225,10.1776833535,5.211967051,-16.647215842999998,-3.0749066210000002
489,4.074837000000116,-14.818368435,13.594418525,8.860191349999994,-0.47369456299999996,-2.471827924,6.688829064,9.1948206435,10.409987210499999,3.097658634
490,4.083169999999882,-14.714212895,13.4847188,8.900352499999997,-1.391171694,-1.7495973705,18.340298175,11.26563072,-14.4413741175,0.7731969354999999
491,4.091502999999648,-14.578748705,13.397351265000001,8.919647249999997,-0.0692247,-2.2297459245,7.5088673845,15.611054895,-11.224513292000001,-0.956725419
492,4.099836000000323,-14.477839945,13.40987444,8.943908699999994,-4.2748353485,-0.446130812,0.18857538699999976,11.3200540525,0.23452425000000066,2.7206874119999997
493,4.108169000000089,-14.393224715,13.307356355,8.953956599999998,1.3345317395,-3.5030559300000004,19.099103930000002,9.7516965845,-12.7130602575,-2.416461492
494,4.116501999999855,-14.303081514999999,13.23045921,8.991302450000006,-5.3089518545,-1.6181728095,8.120263099999999,9.685111522,-10.537064314999999,1.5443075895
495,4.124834999999621,-14.177669524999999,13.223072055,8.973220850000004,-1.6713475585000002,-2.0370936395,10.451003908,15.437366485,-0.8452439350000001,-2.7559327479999998
496,4.133168000000296,-14.034626485,13.18173933,9.010559099999995,-1.4296844599999998,-1.675321221,10.316225173500001,16.02614832,-6.388158795000001,2.6427496225000002
497,4.141501000000062,-13.88636112,13.00475645,9.016944899999999,0.008594751499999997,-3.1025608775,17.284914975,17.509777545,-21.299875257,-4.891703844
498,4.149833999999828,-13.78971577,13.040928365,9.033119200000002,-4.516170411999999,-0.9497985840000001,-3.974360943,11.050417425,3.2528228759999998,2.4562516735
499,4.158166999999594,-13.667317865000001,12.911447045,9.0182037,1.0051491259999998,-2.501185,20.543067935,14.95811033,-15.186218265,-5.830153942
500,4.166500000000269,-13.581111905,12.908952715000002,9.062789899999999,-4.197110176,-3.1763125655,5.972635865,9.060538053,-2.031267166,4.555787325
501,4.174833000000035,-13.495259285,12.722841265,9.043716449999991,0.6343095900000001,-2.331759572,13.181360007,10.677601337999999,-21.69718695,-7.8250055315000004
502,4.183165999999801,-13.34700537,12.78590107,9.08817289999999,-5.828975201,-1.9089323280000001,9.924615859,16.52507687,5.645190240000001,6.341876507
503,4.191498999999567,-13.248714925,12.64446974,9.056396500000005,3.1439427139999996,-2.689124763,10.5009717965,12.4906539915,-16.171072007,-7.917922257999999
504,4.199832000000242,-13.16020155,12.519415855,9.129699700000003,-5.57383728,-1.8092753885,12.410743238,8.618256092,-17.079991043,4.457502604
505,4.208165000000008,-13.131825925000001,12.571874139999998,9.059486399999997,-1.2483336930000002,-2.9859828349999997,0.8360432385000001,5.0855093,7.501569269499999,-6.991170168
506,4.216497999999774,-13.02410555,12.403110505,9.128150950000006,-1.5670194625000002,-0.5939082805,22.78727913,11.052886961999999,-22.057523725000003,2.806662083
507,4.22483099999954,-12.99126196,12.398080830000001,9.07367705,-4.2516682445,-6.436421633,5.9224631785,5.229946554,0.3382618424999997,-6.806157112
508,4.233164000000215,-12.952723025000001,12.212905410000001,9.137863150000001,1.519425869,-0.4486438035,10.0687463285,2.8569424150000002,-23.840997695,1.9288749099999998
509,4.241496999999981,-12.91089916,12.285328865,9.072242750000001,-7.255836487,-0.877559304,12.316218852999999,6.5964928865,9.6831517215,-6.03143096
510,4.249829999999747,-12.88498068,12.28259325,9.105750999999998,2.2239649295,-4.0882242920000005,10.001059534,2.12020576,-1.692040445,3.3474549055000002
511,4.258162999999513,-12.854605195,12.10276127,9.085555999999997,-4.2024635974999995,-2.822556138,16.98502779,4.05442369,-21.0075736055,-7.6061706545
512,4.266496000000188,-12.865241525,12.18793201,9.093879700000002,-2.6482899485,-3.0281802415000003,1.6773126125,-1.598795861,9.242225287,2.795761883
513,4.274828999999954,-12.822837830000001,12.079229835,9.074073799999994,-0.19992661449999993,-0.30742239950000005,19.49028015,5.4737432595,-12.705533984999999,-5.6281015875
514,4.28316199999972,-12.801029204999999,12.13789034,9.08388515,-4.4563671355,-2.9220799205,9.849476979,2.26936999,6.109542371500001,2.2397859695
515,4.291494999999486,-12.876567365,12.052249905,9.0876236,0.713488847,-3.5298516749999997,3.4605669955000002,-9.300084114,-10.628474472,-2.2779643535
516,4.299828000000161,-12.900171754999999,12.041562554999999,9.099678049999994,-5.5406733755,-0.888124153,15.048582555,-3.224736869,-2.0646371849999987,0.6439869255
517,4.308160999999927,-12.913501265,12.15024185,9.071441649999997,0.03445315349999989,-2.9547325375,12.18226385,-1.03982237,12.9503752,-0.7494596499999999
518,4.316493999999693,-12.909168245,11.956031795,9.110199000000009,0.22476696950000008,-3.257239521,13.892442705,-0.5436931845000001,-24.241570475,-1.213244438
519,4.324826999999459,-12.98541832,12.030425545,9.07691955,-6.3986921315,-1.9042972325,3.7320649029999995,-8.4320349695,9.067652226,-2.247950494
520,4.333160000000135,-13.023705960000001,11.98086691,9.092315650000003,1.913935542,-2.6848020554999996,16.90833378,-5.1116610765,-6.6946423075000006,-0.008452176999999894
521,4.3414929999999,-12.9737854,11.975205895,9.09669495,-5.1919789315,-0.9614240825,14.008042333999999,5.7832665445,-1.2812767049999998,-0.11493110700000003
522,4.349825999999666,-13.017635345,11.98866129,9.091178900000003,0.036000609499999836,-3.460283756,1.820625069,-5.257046461,1.2230801600000003,-0.683759302
523,4.358158999999432,-13.066662789999999,11.846982480000001,9.14142609999999,-1.5731392505,-1.6247605085,19.4011693,-7.2481644165,-18.391335965,1.457194673
524,4.366492000000108,-13.043356894999999,11.914141655,9.106323250000003,-4.549206376,-1.1457211375,10.7396246105,3.5664432045,8.2743525505,-2.6304987669999997
525,4.374824999999873,-13.014458654999999,11.913127419999999,9.11940765,-0.6203886125,-1.702829316,6.86386049,3.0201298295,-0.9729313849999999,1.0268682835
526,4.383157999999639,-12.996831895,11.82195234,9.124702500000012,-0.536803156,-1.8539074065000003,13.695394995,1.8748346495,-11.2963993545,-2.301612377
527,4.391491000000315,-12.934007645,11.847863675,9.136146549999992,-4.1586971285,-2.6186941265,17.91391754,7.13684988,2.2235336605,1.555021107
528,4.399824000000081,-12.862035275,11.82401085,9.111625700000005,-2.548927665,-2.4893475174999997,15.54233932,9.1241436025,-2.639425457,-3.8798205855
529,4.4081569999998464,-12.789013385,11.74346113,9.162391650000004,1.146779507,-1.4141241015000001,8.386921167499999,7.378462316,-11.2398991575,3.2224633689999997
530,4.416489999999612,-12.72495556,11.698615075,9.14038085,-3.199270129,-2.0474426745,10.615457059499999,8.123363972,-5.1837710144999996,-4.149096966
531,4.424823000000288,-12.634476665,11.698968409999999,9.159317000000001,-2.5582551359999997,-2.377498627,13.185117958500001,10.272551537,-0.9556350705000001,1.757853836
532,4.433156000000054,-12.547028065,11.692913535,9.134719849999996,-4.294553280000001,-3.2783626315,16.754953865,10.9804081925,-0.5717865229999999,-3.4234265085
533,4.44148899999982,-12.44168615,11.623081205,9.1503601,-1.1022318155,-2.610769451,15.369700435,12.138133525,-9.0863759535,-0.45087455200000004
534,4.449821999999585,-12.309225080000001,11.545972825,9.142593399999996,-2.2251934405,-2.1711458565,14.541564462499998,15.968783375,-9.3346686365,-3.321738124
535,4.458155000000261,-12.16369009,11.464254855,9.164100650000009,1.0375173685,-1.9888038935,11.869936464999999,16.79221153,-10.601966143,-0.03464967000000008
536,4.466488000000027,-12.041081904999999,11.42191696,9.158676150000005,-4.825222969,-2.4753623605,12.204972268999999,14.754576685,-5.3462104205,-2.1351194305
537,4.4748209999997925,-11.953603265,11.372976779999998,9.192932150000004,-1.1228711009999999,-2.0430673955,7.7662365435,9.5432567615,-7.078398824,2.2908929885
538,4.483153999999558,-11.89564085,11.35509777,9.163948050000002,-3.5750353335,-2.7147976160000002,17.056671145,7.5355870725,-1.8903825285,-4.2336043715
539,4.491487000000234,-11.835949424999999,11.331889154999999,9.176841749999994,-2.186561644,-2.4572240115,15.087220665,6.72734189,-3.5404509385000003,0.4841026585
540,4.49982,-11.7910285,11.318639755,9.132759100000001,-3.9848277569999997,-4.853790283,16.329336644999998,6.319845676,-0.9870953560000002,-5.855279922499999
541,4.508152999999766,-11.71572065,11.23862886,9.142272950000006,0.620617509,-2.1347435565,13.620824101,8.666802643,-10.112341878999999,-1.3005437255
542,4.516485999999532,-11.65306473,11.14846134,9.10913085,-1.4440225960000002,-2.408328742,12.84388208,8.1929826725,-10.314904687999999,-6.4467964175
543,4.524819000000207,-11.59235907,11.099372865,9.093223550000005,-2.7969151735000004,-3.8998931645,6.010544777,7.5252777325,-5.892459154,-3.4541502
544,4.533151999999973,-11.60092688,11.1233201,9.043373099999997,-4.1502308845,-1.344133392,6.736663342,-0.00048673149999989285,3.5102193355,-5.608767748
545,4.541484999999739,-11.620396135,11.073087690000001,9.016532899999987,-0.8048775789999999,-2.0902118385,15.932575705000001,-1.8347862959999999,-5.77070117,-4.7457733155
546,4.5498179999995045,-11.617197035,11.030620095,8.997589149999996,-0.4344561975,-2.2300006825,15.9280653,0.6980391745000001,-5.0311291215,-3.6499196295000003
547,4.55815100000018,-11.67564106,10.930447575,9.000625600000006,-2.345313758,-3.42171073,7.699762108,-7.238667011,-12.32055664,-2.522445321
548,4.566483999999946,-11.766860959999999,10.923344615000001,8.978302,-2.7701193695,-4.4365386365,13.9771189695,-10.5410976415,-0.806668937,-3.1868658065
549,4.574816999999712,-11.84179258,10.864990235,8.982269299999999,-4.402920723,-3.3887800275,15.50700855,-9.213743330500002,-7.4486017229999995,-1.4207768735
550,4.583149999999478,-11.918504715000001,10.821351525,8.986747749999992,-0.47733870899999997,-1.6737743915,11.7769436845,-9.419769764,-5.7183977365,-0.9964898525000001
551,4.591483000000153,-11.9907465,10.706223485,9.031524650000009,-1.9911158979999999,-2.8741759065,11.152618406999999,-9.805696367,-15.108537195,1.8680598735
552,4.599815999999919,-12.045015334999999,10.680891514999999,9.030624399999994,-0.89839232,-1.3600699605000002,13.902583595,-6.6115341185,-3.438032806,-1.1711726785
553,4.608148999999685,-12.082325935,10.59210253,9.06377409999999,-3.598885059,-1.6229181289999999,13.082261565,-5.35732007,-11.7127771365,1.15969122
554,4.616481999999451,-12.149087425000001,10.580483914999999,9.069679250000007,-1.8029739855,-3.0234148505,9.9663300505,-8.2406322955,-2.016890526,-0.05057531600000004
555,4.624815000000126,-12.199296475,10.4885993,9.095481850000013,-2.7841114995000003,0.1952623130000002,17.14028692,-6.7153179645000005,-11.919567582500001,0.21506988999999999
556,4.633147999999892,-12.236329555000001,10.42000484,9.093086249999999,-0.8225402685,-2.4621643425,18.083210465,-4.5064277645,-8.4701742505,-2.460746944
557,4.641480999999658,-12.25722313,10.360415459999999,9.0950165,-3.4091581105,-4.033915639,7.518389702,-2.6720385849999997,-7.5353114595,-1.7338468435
558,4.649814000000333,-12.251818655,10.2106132505,9.103103600000011,-0.26732866450000003,-0.05842745299999996,19.5447526,0.3561339675,-18.25233841,-3.320207834
559,4.658147000000099,-12.20206213,10.1621270175,9.081954949999997,-4.420071602,-3.3415033515,14.613241195,6.270807028,-5.630899429499999,-4.1123719215
560,4.666479999999865,-12.078947545,10.033869741,9.079345700000005,1.1852602955,-1.0920000075,12.78874445,14.723318575,-15.489762307,-3.963311553
561,4.674812999999631,-11.986362455,9.93074322,9.072670000000002,-5.9862606525,-0.75851281,9.4127831435,11.1206345565,-12.4307403545,-3.8093440530000002
562,4.683146000000306,-11.922955035000001,9.8910760895,9.044052100000002,0.016684919500000006,-2.149142027,9.745887517,8.0700535775,-4.435911625499999,-4.715970993
563,4.691479000000072,-11.833367345,9.763305187,9.056083650000005,-3.8267492655,-1.7168618439999999,19.774991035,10.373532297,-15.794403075000002,-2.208709776
564,4.699811999999838,-11.74437332,9.697831631,9.037208550000003,-3.042478621,-4.4793498515,14.38112688,10.930715559,-7.712633134999999,-4.2339631319999995
565,4.708144999999604,-11.608974934999999,9.609506607,9.053771949999998,-1.9228086469999999,-2.39087677,13.940807819,15.75549459,-11.252843857999999,-0.661372572
566,4.716478000000279,-11.425190445,9.471051693,9.05078125,-0.8516736589999999,-2.251089096,17.02409458,22.01534176,-16.716392515,-4.1124773025
567,4.724811000000045,-11.284585475,9.4172353745,9.05590054999999,-3.351578832,-1.0508989094999999,8.663005828500001,16.644384385,-6.9509687425,-1.1202835665
568,4.733143999999811,-11.157629965,9.300946236,9.05007169999999,0.375582941,-2.1199935675,10.033077953,15.21569967,-14.030273435,-3.817297101
569,4.741476999999577,-11.058670995,9.198486805000002,9.063590999999988,-4.515821218499999,-2.8828482035,16.832965375,11.48878908,-12.876017574999999,-1.2432765365
570,4.749810000000252,-10.961205005,9.124248028,9.0459824,-1.6135811505000002,-4.030017614,13.32979727,11.897315027000001,-8.8246557715,-4.1767601965
571,4.758143000000018,-10.81490469,8.972189903499999,9.071533200000005,-1.6189188955,-3.2794761655,15.181966785,16.912302015,-18.963018415,-0.903497882
572,4.766475999999784,-10.689692025,8.902266502,9.045387300000002,-3.9946427345,-2.7805396914999996,11.6941704755,15.4156847,-8.171092389,-5.06031847
573,4.77480899999955,-10.588508130000001,8.8057918545,9.059173549999997,-1.1256909665000001,-1.4602121115000002,10.3081297895,11.751216891,-12.177784683,-0.96202606
574,4.783142000000225,-10.52669811,8.678606033000001,9.049964900000006,-3.1780760885,-2.824070215,16.760876655,7.4598731990000005,-15.286114217000002,-4.321180582
575,4.791474999999991,-10.51270771,8.6310572625,9.049415550000006,-3.061133921,-3.990990281,7.929174185000001,1.5581269865000003,-6.0972704884999995,-1.542457238
576,4.799807999999757,-10.483129980000001,8.4709620475,9.06639100000001,-0.376221001,-3.0124253035,20.065323829999997,3.1190079455,-19.741070745000002,-1.9534893035
577,4.808140999999523,-10.41358471,8.399902821,9.061981200000005,-4.3175714015,-3.3690819145,15.760799406499999,8.2626869655,-8.759770824,-2.505438
578,4.816474000000198,-10.33459616,8.301096439,9.07813265,-0.48561069349999997,-0.382823415,5.25244689,9.098261833,-12.518596886000001,-0.676190555
579,4.824806999999964,-10.31895399,8.2311573025,9.082252499999996,-3.113097787,-3.6758822205,10.353979347,1.6729689835000001,-8.839117270000001,-1.4723258019999999
580,4.83313999999973,-10.318133355,8.2423143385,9.083618150000007,-4.5813171865,-2.027827203,13.452849865000001,-0.050197362999999884,0.8022191525000002,-0.028348386499999934
581,4.841472999999496,-10.29435968,8.1426186565,9.097618099999991,-1.369922638,-2.242406726,19.2328434,2.475462258,-12.56837511,-0.9464716315000001
582,4.849806000000172,-10.268188955,8.1625111105,9.090301499999995,-4.3197914365,-4.797171473500001,7.258027910999999,3.1527220015,2.0161478519999996,-0.8709994555
583,4.858138999999937,-10.232340815,8.1194376945,9.08560940000001,-0.24294391299999996,-0.16985207750000003,13.1653764245,4.217460632,-5.4679031965,-1.90175429
584,4.866471999999703,-10.19844198,8.077429533,9.094085699999994,-2.3797218205,-2.3049322365,17.641047479999997,3.838774204,-5.6496236315,-0.34668242950000006
585,4.874804999999469,-10.18892336,8.1151385305,9.064430250000001,-2.13811177,-2.500603259,7.9792653325,1.5048553945,4.576463699,-3.109638989
586,4.8831380000001445,-10.206047535,8.042402744,9.095924399999987,-1.9385485645,-2.2150634525,14.905882835,-2.7071110010000003,-9.7402167295,1.7017651200000001
587,4.89147099999991,-10.238934515,8.0533127785,9.059249900000012,-3.3309078215,-5.180016279,13.29146862,-3.4658621545,1.561571598,-4.499915361499999
588,4.899803999999676,-10.22653866,8.050369263,9.079681400000013,-1.556118429,-1.868318796,13.10286331,1.019344151,-1.2675473689999999,1.8952931705
589,4.908136999999442,-10.236353399999999,8.01187849,9.054244999999995,-2.563944936,-2.6819124815,14.770544529999999,-0.9055401085000001,-4.490752337,-4.2398154735
590,4.916470000000118,-10.294288155,8.0962195395,9.054183999999992,-3.5211747885,-2.7965682745000002,5.5161426065,-7.0427057745,9.452685831,1.3614099620000002
591,4.924802999999884,-10.348905564999999,8.0530884265,9.02902985,-1.668951616,-1.752579242,22.489882465,-6.2697820664999995,-5.059689045,-4.314237713500001
592,4.933135999999649,-10.41535759,8.0874049665,9.04496005,-3.7179002765,-3.102052331,10.225585458000001,-8.350696087,3.2200047954999995,2.1694681645
593,4.941469000000325,-10.487362860000001,8.08357811,9.024703950000003,0.1656070945,-3.646166325,9.979507446,-8.443509816999999,-0.5208272935,-2.8938643935
594,4.949802000000091,-10.52875376,8.0853290555,9.053932200000006,-4.159184694,-2.3004650475,21.419172285000002,-5.561459184,-0.9172606449999998,3.0210906865
595,4.9581349999998565,-10.60206556,8.2004871365,9.02486420000001,-1.2517575619999999,-2.2918561695,0.03511655350000009,-8.4724934085,13.7328639045,-1.3115901945
596,4.966467999999622,-10.706529615,8.215376854,9.0566101,-3.8726944325000003,-3.0639866590000002,15.708833695000001,-13.176190852000001,0.550731957,3.59897387
597,4.974801000000298,-10.81260872,8.37268877,9.0172958,-5.2417576315000005,-1.775586367,14.39772844,-12.16898918,18.911044595,-1.4997717735
598,4.983134000000064,-10.89368391,8.415326595500002,9.04583740000001,0.15156680350000007,-3.2006865739999997,12.982676505,-10.3533449175,3.8960539119999993,3.8529000285
599,4.99146699999983,-10.99442101,8.539182186000001,9.003387449999991,-4.4311370844999995,-3.7103328705000003,11.49660206,-11.4489226355,15.0421582475,-2.5677963495
600,4.999799999999596,-11.09561777,8.634224415,9.017517049999995,0.7665243145,-0.8292523325000001,8.167311905,-12.52438545,10.3818321835,3.3875802755000004
601,5.008133000000271,-11.22762775,8.688588142499999,8.990837099999993,-2.3421529535000003,-2.884755254,13.46920967,-15.4965991985,6.518123091,-2.2756527065
602,5.016466000000037,-11.399018285,8.843572616500001,8.973716749999994,-1.949863672,-2.3527765275,6.2319909330000005,-20.357548715,18.129889965,1.214724034
603,5.024798999999803,-11.574244499999999,8.894094943999999,8.945999150000006,-3.5186178685,-3.630787134,20.204361915,-20.639382365,6.0884549615,-2.4645515085
604,5.0331319999995685,-11.73999119,9.0056724545,8.918876650000001,-2.2658206224999997,-2.93233037,9.659261702,-19.49639416,13.269392967,-0.8740415125
605,5.041465000000244,-11.8997736,9.0564432145,8.886924750000006,-0.538353942,-3.1106954814999996,12.887022021,-18.707563399999998,6.2304978365,-2.9113342765
606,5.04979800000001,-12.021466735,9.084543705,8.876853949999997,-1.17240458,-2.4086480139999997,12.35012579,-14.525318145,3.0498504659999996,-0.8891599255
607,5.058130999999776,-12.142998695,9.16326046,8.847877499999996,-2.9392739535,-0.6774497665,1.3419542905000001,-14.193590165,9.462418797,-1.838084698
608,5.066463999999542,-12.300540445,9.223815918,8.842353799999998,-2.416722953,-0.9722321030000001,11.55495739,-18.890818600000003,6.7328706965,0.47106514899999996
609,5.074797000000217,-12.447615625000001,9.3814105985,8.793525700000004,-2.8627609310000004,-2.314075291,9.9776759125,-16.830631255,19.20294857,-2.0502092540000003
610,5.083129999999983,-12.54638052,9.3757715225,8.793960550000008,0.7953970429999999,-1.38318038,16.690266610000002,-11.984409809999999,-1.1676251885,-0.5319565535
611,5.091462999999749,-12.654195784999999,9.445574283500001,8.766220100000012,-3.005367577,-3.2008478045,4.7518258095,-12.51611185,8.384136915,-1.8212046325
612,5.099795999999515,-12.750691414999999,9.446410656,8.764228849999995,-2.2223040465,-3.2039717735,15.870680805,-11.663936613,-0.34325659249999996,-0.645421222
613,5.10812900000019,-12.849502560000001,9.5445547105,8.729217550000001,-5.244949818,-1.706699446,9.6951942455,-11.30290413,11.907989980499998,-1.8782985805
614,5.116461999999956,-12.911869045,9.5164027215,8.731765749999994,1.6872999075,-2.9708452225,11.987293242,-7.6493148810000005,-3.8681727649999997,-0.9023383185
615,5.124794999999722,-12.950948234999998,9.536927223,8.7308807,-3.27364707,-0.6525697705000001,6.997710111,-4.7862313985,1.913870813,0.005852847999999994
616,5.133127999999488,-13.0087657,9.598831177000001,8.719398500000011,-1.667943239,-1.7144152375,7.8688294889999995,-6.851277351,7.0502557175,-0.09621995699999997
617,5.141461000000163,-13.06584501,9.659788608500001,8.711051949999998,-3.105051994,-3.2751646045000005,14.275864599999998,-6.796642065,6.838437793999999,0.24286147949999992
618,5.149793999999929,-13.122953415000001,9.63774395,8.720588649999996,0.18605947500000009,-2.5856019705,7.377637742,-7.1816945075,-3.328640938,0.065630138
619,5.158126999999695,-13.150714875,9.6075201035,8.752044699999999,-3.522607565,-1.4758139845,11.65164328,-4.0947362925,-4.8770934365,2.3563373089999997
620,5.166459999999461,-13.185133935,9.6695742605,8.727272049999996,-2.3299429415,-1.6027546225,7.4044809915,-3.746280253,7.411594987,-1.5932248235
621,5.174793000000136,-13.201532839999999,9.691817760500001,8.741111750000002,-1.877000794,-1.7120383085,12.52623129,-2.359884292,1.7122411355,1.75456208
622,5.183125999999902,-13.214660169999998,9.677718639,8.727806099999995,0.46523396699999997,-2.068394542,5.260068297,-1.4354602095,-1.785779655,-2.357924998
623,5.191458999999668,-13.211879249999999,9.6516394615,8.749305699999994,-3.0773650405,-2.2060385495,17.023368835,-0.219840527,-4.139913857,1.3103218825
624,5.199791999999434,-13.207875255000001,9.698690891,8.719871550000008,-3.057112515,-3.7221049070000003,7.575652299500001,0.9484824025,5.7984550615,-2.5435384215
625,5.208125000000109,-13.224114895,9.680860519,8.731216450000005,-2.5716268419999997,-2.7618361709999997,8.4982311745,-2.326009899,-2.8945755065000003,0.37369874149999993
626,5.216457999999875,-13.23718977,9.6545548435,8.737289399999995,-1.6884310545,-2.031484097,10.9092006665,-1.7868426890000002,-3.7452359205,-0.468202561
627,5.224790999999641,-13.19809961,9.700784682999998,8.754737849999998,-4.0656714439999995,-0.901426166,12.5365118995,4.203289926,4.4176681045,2.8323646785
628,5.233124000000316,-13.161727905,9.771132467000001,8.731636049999992,-2.2425144315,-2.6086964605,9.3800346865,4.718366623,8.343640209,-1.178504646
629,5.241457000000082,-13.13707924,9.776777268,8.7638855,0.24901939950000002,-2.1864550114999997,7.369692564,2.167880237,-0.7218987939999999,3.4289970394999996
630,5.249789999999848,-13.142521859999999,9.7434663795,8.761344899999997,-1.580059469,-3.258656621,10.404402495000001,-0.7205667495,-4.326347105,-1.644606709
631,5.258122999999614,-13.120190144999999,9.7983222015,8.77790069999999,-3.985219121,-2.5761707425,11.4143769765,2.1902992725,5.461263211,2.9628819225000003
632,5.266456000000289,-13.082617285000001,9.826059817,8.744804400000007,-1.8293285965,-1.375779271,7.708077548,5.089836597,3.621481836,-3.498514056
633,5.274789000000055,-13.06000042,9.811734678499999,8.779563949999996,-0.5194516925,-2.260805011,5.507861376,1.8710238935,-3.120415628,3.1684360505
634,5.283121999999821,-13.060248375,9.7954487805,8.767715449999997,-2.266396016,-2.8776243925,12.612862589,0.10002362749999993,-2.089570284,-2.252035558
635,5.291454999999587,-13.073441985,9.8191404335,8.788948050000002,-2.4754116535,-2.7858635185,11.974361420000001,-2.1492395099999997,1.6865949035,2.6422686575
636,5.299788000000262,-13.100640295000002,9.779728889000001,8.772209150000009,-1.903100431,-3.002537131,10.0327377305,-3.0394621044999997,-4.658928931,-3.4389994145
637,5.308121000000028,-13.1081357,9.7681131355,8.803024300000004,-1.0905155835,-1.3570477365000002,5.5990439655,-1.6809661089999999,-2.6913385985,2.786476731
638,5.316453999999794,-13.119719504999999,9.782502651,8.785034199999998,-2.736984253,-2.8952675460000004,11.297133447499998,-1.1162748335000001,1.6569843294999997,-2.1218256355
639,5.32478699999956,-13.146058085,9.8596582435,8.789939849999996,-3.336270154,-2.566209316,7.1262116435,-3.392560363,8.3690094955,2.2265622615
640,5.3331200000002354,-13.187661174999999,9.825183392500001,8.775047299999997,-1.2092541159999999,-3.6995577815,15.31750345,-4.803162276499999,-4.1281825295,-3.102313161
641,5.341453000000001,-13.202929495,9.790612222,8.80235295,-1.779673159,-1.407616973,9.686114788,-2.5183468760000003,-5.2936048805,1.7561376690000001
642,5.349785999999767,-13.22937155,9.7929120085,8.791938799999997,-3.0478003025000002,-1.7090197205,8.2829409865,-3.070230786,0.0468807219999996,-1.5743661224999999
643,5.358118999999533,-13.24585581,9.86953068,8.788269049999997,-3.304485917,-2.5017477870000002,8.072238206,-2.058315039,8.5383593725,1.233293414
644,5.3664520000002085,-13.238719464999999,9.8512258535,8.774520850000002,0.01199942850000002,-0.866688043,15.964233400000001,1.0438953005,-2.2735583785,-2.522995591
645,5.374784999999974,-13.229250905,9.8345747015,8.79463955,-0.19664222050000002,-3.0871880349999996,4.7286720275,0.5930976275000001,-3.0073991715000004,1.4106463195
646,5.38311799999974,-13.241897105,9.78029585,8.784347499999996,-2.991711259,-3.049334556,11.48915625,-1.4215771255,-6.5661325455,-3.1130771635000003
647,5.391450999999506,-13.26208353,9.826997759000001,8.787956250000008,-3.7157709599999995,-2.4332729575,6.464548348999999,-2.6236339805,4.8420701025,1.2482904645
648,5.3997840000001815,-13.27529192,9.778924944,8.765831000000006,-1.6240288615,-1.9378403575,12.86033583,-1.2518447634999998,-5.518747091,-4.305848837
649,5.408116999999947,-13.26589203,9.775174139,8.782157899999987,-1.1018176080000002,-1.7109142395,8.115190982,0.6498972175,-1.3953611849999998,1.3171929715
650,5.416449999999713,-13.262817380000001,9.742650509,8.770965599999997,-1.6631659570000001,-1.6553480325,9.4709720615,0.491293877,-4.003197967999999,-2.6137342455
651,5.424782999999479,-13.303678515000001,9.7680597325,8.778152449999993,-3.0432105065000004,-3.9853375555,9.194631101999999,-5.1701761484999995,2.255410671,1.067236483
652,5.433116000000155,-13.353628635,9.7499346735,8.768394450000002,-1.4114769995,-3.283138275,12.63097477,-5.9246952065,-2.3545637135,-2.0611199740000004
653,5.4414489999999205,-13.374613285,9.702897071999999,8.783073399999992,-1.05965209,-2.1862928865,10.6694216725,-2.9329898355,-6.4088243265000004,-0.08211940550000002
654,5.449781999999686,-13.388161185000001,9.708220005,8.782356250000007,-3.929945707,-1.9637838005,1.4448490139999999,-1.7313302455000001,0.13719654049999974,-0.37383317950000006
655,5.458114999999452,-13.429944514999999,9.7326412215,8.781028750000004,-2.4573227760000003,-2.0296400935,14.76505613,-5.1224826575,2.3684084405,0.07084906099999999
656,5.466448000000128,-13.469675065,9.7475996015,8.780639649999998,-1.77192086,-2.842077613,13.229076865,-4.8586936000000005,1.2486683429999998,-0.06333115699999997
657,5.4747809999998935,-13.49115419,9.6495962145,8.802391049999997,-0.4247048495,-2.3523285984999998,13.426474095,-3.1466834845,-12.5576295875,-0.6926219459999999
658,5.483113999999659,-13.511734964999999,9.645412922,8.817192049999989,-2.5664812025,-2.310912311,1.2691828010000001,-2.883842468,-1.4024626015,1.1445911524999999
659,5.491447000000335,-13.522628784999998,9.64479351,8.799598700000004,-3.225510001,-1.4730004965,10.6937656405,-1.0814263375000002,-0.10376948099999994,-2.4965424535
660,5.499780000000101,-13.53803444,9.680478096000002,8.80883025,-0.6684062035,-1.5413242580000002,6.957491636,-2.145806909,3.400802195,1.6225465535
661,5.508112999999867,-13.563809395,9.5640072825,8.805953950000003,-0.5473543255,-3.8990337845,13.572156904,-3.1864317060000005,-14.02789545,-4.056911111
662,5.5164459999996325,-13.57525921,9.5311703685,8.830848700000004,-3.2298595905000003,-1.929625213,9.3256747745,-1.958829284,-5.029496012,1.5001040545
663,5.524779000000308,-13.61696911,9.4902973175,8.804199249999996,-2.9513251780000003,-2.240219593,4.542229533,-4.6134895085,-4.547476529500001,-4.659607768
664,5.533112000000074,-13.65907526,9.456274986,8.829208399999999,-0.6793521645000001,-1.9649305044999998,10.4274697305,-5.6538307665000005,-5.17255914,1.469924405
665,5.54144499999984,-13.675757405,9.4075026515,8.830001800000005,-1.5928554535,-1.6234479245,11.684784415,-2.1531330499999997,-6.2342433024999995,-1.7283141015
666,5.5497779999996055,-13.69811726,9.363801479500001,8.849433899999994,-2.8030331134999997,-3.038886577,10.8603315355,-3.176869035,-6.145932139,0.5530305355
667,5.558111000000281,-13.75480604,9.340746880000001,8.846443150000013,-2.917239606,-3.467149258,6.1543610095000005,-6.896075964,-3.1270123720000003,-1.458941996
668,5.566444000000047,-13.806247710000001,9.2467188835,8.890548699999997,1.283970222,-2.0558694600000003,9.599531889,-7.126591444500001,-12.710162639,1.9474439024999999
669,5.574776999999813,-13.855886935000001,9.259107112999999,8.889854450000001,-5.916620493,-1.7561623604999999,4.7045468105,-6.063152075,0.9427255395,-0.18814939249999998
670,5.583109999999579,-13.889080525,9.280357837499999,8.905593850000002,-1.6851249185,-1.9505426285,15.745955944999999,-4.407332659,1.5233433245,1.9778865575
671,5.591443000000254,-13.93784952,9.240980625,8.899185200000005,-1.88460283,-3.2316694260000003,8.150602816,-5.846699237499999,-4.927455425,-2.340366423
672,5.59977600000002,-13.974870684999999,9.146994590999999,8.958633399999997,-0.4296461345,-2.6576738355,11.1328301415,-5.699289322,-13.154173375,3.6736004355
673,5.608108999999786,-14.01540232,9.175517559,8.928802499999989,-5.029973506999999,-1.309328839,9.1369197385,-4.4367119075,3.6519941685,-3.067874551
674,5.616441999999552,-14.028440955,9.169846535,8.962181099999995,-0.7755653259999999,-1.6994792075,11.0703842655,-2.304409981,-2.1250976475,3.235532284
675,5.624775000000227,-14.040874005,9.139081955,8.94504545000001,-1.247224167,-1.594525993,4.5936757325,-1.2874673605,-3.6140914555,-3.331246376
676,5.633107999999993,-14.05645561,9.092081069999999,8.99123385,-1.625972956,-2.2753731310000003,11.4326806055,-2.867283106,-7.3115577695,3.5009661915
677,5.641440999999759,-14.078463554999999,9.128615856,8.967170699999997,-4.167968273,-3.015615821,9.415633204,-2.305953622,4.4184690705000005,-2.1558799745
678,5.649773999999525,-14.108288285,9.0747885705,9.00343319999999,-0.12442374049999999,-2.6797086745,7.016001105499999,-4.39710021,-7.8205203435,2.1577755215
679,5.6581070000002,-14.122902395,9.058902263499998,9.011146550000007,-3.4388833045,-1.5933277904999998,9.8072018615,-2.0317787675,-2.606504201,-0.0379730985
680,5.666439999999966,-14.0955267,9.1094813345,9.0231323,-3.1753208639999997,-1.169784218,8.823833106999999,2.954115629,5.032378136999999,2.4250023365
681,5.674772999999732,-14.080617905,9.1743516925,9.016250599999992,-1.7973828314999998,-2.713864446,9.089691876,1.8036329445000001,7.2176381339999995,0.6471180320000001
682,5.683105999999498,-14.071130275,9.129137039,9.046737649999997,0.7056378274999999,-2.0833500625,10.247302534,0.4338794949999999,-6.657492039499999,1.748843849
683,5.691439000000173,-14.0618062,9.129789829,9.046974199999994,-3.6201357845000004,-2.0279418825,12.160839554999999,0.9953565,-0.46236252800000033,-0.4066067635
684,5.699771999999939,-14.054077150000001,9.185180187,9.031532249999998,-2.2410014865,-2.8953225015,4.9831128565,1.0967377275,6.379168406500001,-0.5926813329999999
685,5.708104999999705,-14.041017535,9.1903891565,9.038673400000008,-1.2732053399999999,-1.548923254,9.150897505,1.28780058,-0.13954627499999983,0.505861953
686,5.716437999999471,-14.006533625,9.1912584305,9.040687550000001,-1.613146782,-2.1377795930000003,10.470827105,3.9959933755,-0.46368163799999995,-0.178211011
687,5.724771000000146,-13.98050547,9.2211613655,9.04693605,-2.6925225255000003,-3.1692198515000003,9.002637386,2.8797701599999996,2.771947324,1.1280829905
688,5.733103999999912,-13.99773216,9.214776516,9.04128265,-1.7683942915,-2.5761814115000004,7.65396595,-2.0835452525,-1.0975958105,-1.2713178395
689,5.741436999999678,-13.999041555,9.1942377095,9.067840599999997,-0.269530237,-2.3438537715,8.0729010105,-0.7850635050000001,-3.6845436245,1.999741912
690,5.749769999999444,-13.99006081,9.250626564000001,9.060440050000011,-4.532693386,-2.062148392,7.9195224055,1.0970256625,6.2613551615,0.3438200055
691,5.758103000000119,-13.981690884999999,9.292928219,9.061172499999998,-1.4928192500000002,-2.392606616,11.8916497235,0.8482409120000001,4.360394895,0.8502197265
692,5.766435999999885,-13.992439749999999,9.2174520495,9.085525500000003,0.008194297500000003,-3.9016336205,8.557411672499999,-1.8603624104999998,-9.9949636475,0.17858242950000003
693,5.774768999999651,-14.00823307,9.205664158,9.10913085,-3.585229397,-1.0630416275,6.2417638305,-2.4688343495,-2.5861029625,1.933291912
694,5.783102000000326,-14.012866975000001,9.304088592500001,9.085060150000004,-2.8308163879999997,-1.3612269465,8.983635901,-0.21274566649999982,11.632743835,-0.34895553449999994
695,5.791435000000092,-14.02096748,9.2642583845,9.109642000000008,1.0702453255,-2.8372549415000003,8.550170421499999,-1.573175162,-5.8795304295,1.2126675995
696,5.799767999999858,-14.055954455,9.201048851,9.1221161,-2.992003739,-2.788017273,9.205104351500001,-4.547558308,-8.238659621,-0.853344679
697,5.808100999999624,-14.10645151,9.275211811,9.117568999999989,-3.5568205115,-2.859090924,5.9653811455,-6.120195626999999,8.214581966499999,1.1927077475
698,5.816434000000299,-14.117367745,9.2409296035,9.112602249999995,0.279281428,-0.766549483,9.756116390999999,-1.3163536785,-4.352851033,-2.011172056
699,5.824767000000065,-14.158385280000001,9.236049175,9.142807000000005,-2.8719707129999996,-3.4462242124999998,7.649168253,-5.6199878455,-1.9761632679999999,2.8664057255
700,5.833099999999831,-14.245278835,9.2590360645,9.117225649999995,-2.891773164,-2.952661514,6.2114988565,-10.053914546,2.8969320055,-2.7042421695
701,5.841432999999597,-14.28467226,9.2265048025,9.153587349999995,0.2676721215000001,-1.2689584194999999,10.953351022,-5.5526992085,-5.377523780000001,2.7354660035
702,5.8497660000002725,-14.34004259,9.306825638,9.117355349999997,-4.8398485185,-1.985007763,3.981266381,-6.0419056415,9.8768694385,-2.2148952335
703,5.858099000000038,-14.432795525,9.2857704165,9.138496399999994,0.9795556875,-3.709794998,9.473594010000001,-11.693932055000001,-3.6284761409999997,1.343114823
704,5.866431999999804,-14.485030174999999,9.234413147000001,9.148658749999996,-3.6571410895,-0.989610672,12.267420292499999,-6.550066471000001,-6.775734723,-0.8098773735
705,5.87476499999957,-14.52808714,9.380988121,9.111709599999998,-2.702970177,-1.8743489979999999,0.5127356049999996,-4.577335596,17.587386135000003,-0.2996226845
706,5.8830980000002455,-14.58524418,9.302813053000001,9.148406999999992,0.785236895,-2.5991497040000002,9.184224844500001,-7.6989810465,-10.694464207,1.409109831
707,5.891431000000011,-14.67248869,9.325856209000001,9.138824450000001,-4.9634424445,-2.8562217949999997,9.092413902,-10.3906402585,2.423363211,-0.859594643
708,5.899763999999777,-14.717877865,9.406387329,9.120719950000009,-0.612563193,-1.150679454,5.778822899,-5.2175247670000005,9.368339961499998,-0.06374099850000003
709,5.908096999999543,-14.76743698,9.376568794499999,9.117408749999996,-2.0565210374999996,-2.8414660095,9.2181544305,-5.992944048,-3.9066965594999994,-1.7291339635
710,5.916430000000219,-14.863599775,9.434387207,9.120956449999994,-2.7990287545,-1.1425124705,0.9896572825,-11.728779320000001,6.0736038685,1.7344234585
711,5.9247629999999845,-14.92399597,9.4824490545,9.085998500000002,-0.6158143875,-2.9227675420000003,10.673622609999999,-6.691983699,6.070800005,-2.9742679595
712,5.93309599999975,-14.995319365,9.487447262,9.123535149999995,-1.651674658,-2.2152629345,3.6565989255,-9.4047222135,-1.074939728,4.00894177
713,5.941428999999516,-15.08811092,9.5896668435,9.057464599999989,-3.8467614649999997,-2.069033265,1.821887344,-9.916038989499999,13.3312663435,-4.8262687925
714,5.949762000000192,-15.2242322,9.673739433,9.0632782,0.09120905400000001,-2.81766367,11.525162698499999,-16.574548725,9.0317815835,2.853625417
715,5.9580949999999575,-15.357975005,9.713627339,9.007041950000001,-2.909453392,-2.1716543435,-4.4868642095,-15.017329694999999,5.8221955275,-5.5917232035
716,5.966427999999723,-15.549696925,9.8956642145,8.981857300000001,-3.5717686114999996,-2.6718232035,7.6342189309999995,-22.610441205,21.321377755,2.4993433355
717,5.974760999999489,-15.764454839999999,10.002097129,8.944221500000012,-0.9371849295000001,-2.4555667640000003,4.833933771,-25.126565929999998,12.92274284,-1.315925628
718,5.983094000000165,-15.971746925,10.15746832,8.951202350000003,-1.930338952,-2.345210433,6.0743766425,-25.122414589999998,17.195368766,5.477367401
719,5.991426999999931,-16.186870575,10.4113855385,8.90895845,-3.017252624,-3.0174820425,-2.4961107965,-25.019462585,30.113102910000002,3.1783789395
720,5.999759999999696,-16.42477894,10.576069355000001,8.922225949999998,-1.3618335129999999,-1.4032632710000001,8.473760127,-28.962092400000003,17.992692944999998,6.5960001945
721,6.008092999999462,-16.686385155,10.778123855,8.9136429,-1.502890654,-1.036134154,-6.456840038499999,-31.291653634999996,22.97849369,5.4998767375
722,6.016426000000138,-17.04241085,11.04635811,8.877204899999995,-0.638501346,-2.161291659,4.01964438,-42.007638935,31.512295725,4.7804602385
723,6.024758999999904,-17.354417804999997,11.30893278,8.86328125,-2.9548137184999996,-3.256911874,11.106160403,-37.213634490000004,30.002020835000003,7.2853755955
724,6.0330919999996695,-17.57290554,11.536596775,8.820945749999993,-0.8489331790000001,-1.094526533,3.198623061,-25.32514858,27.04417419,3.0111426115
725,6.041424999999435,-17.813337325,11.75162554,8.836677550000005,-1.6083450314999999,-0.343259573,-5.574872017,-29.32599163,23.468694685,9.151753666
726,6.049758000000111,-18.155524255,11.973166465,8.79296875,-0.14317902950000005,-0.10012972350000005,0.9127207995000001,-40.10110664,26.327677725,2.8740190265
727,6.058090999999877,-18.469372749999998,12.214496615,8.774276700000001,-0.6587925330000001,-2.9831249715,7.97724867,-37.278837205,27.62828636,6.5630841255
728,6.0664239999996425,-18.705062865,12.42318821,8.72773740000001,-0.8481301815000001,-2.484099865,6.5957205295,-27.19784546,24.93445301,2.362109721
729,6.074757000000318,-18.851559635,12.6152935,8.704421999999994,-2.5646151305,0.865456581,0.865875661,-17.074264525,22.11997795,4.358354568499999
730,6.083090000000084,-19.06291962,12.710482124999999,8.674881,2.90598917,0.8713537155,-1.2382917705,-24.687746045,11.4217927475,-0.005807876500000031
731,6.09142299999985,-19.254834175,12.866989610000001,8.641487150000003,-2.966317296,-1.368298054,7.319235207999999,-22.254418375,18.468298915,2.0095276235
732,6.099755999999616,-19.353037835000002,12.93163586,8.638603200000006,1.523596883,-0.7123674115,4.1923982205,-11.827306745000001,6.8949594475,1.7874963285
733,6.108089000000291,-19.370006565,12.967549325,8.625053399999999,-2.5857528445,0.43747843799999997,3.508964896,-1.774343073,4.037008554,-0.5300033909999999
734,6.116422000000057,-19.375903129999998,12.985055925000001,8.673820500000005,1.5992584225,0.07650315000000002,6.1087496285,-2.13462694,-0.44778728499999954,5.63777709
735,6.124754999999823,-19.358672140000003,12.909416194999999,8.682273850000001,-1.5778755545000003,-1.187867969,0.9816486834999999,1.7239021064999998,-9.4732398995,-2.5519272089999996
736,6.133087999999589,-19.23888683,12.857828614999999,8.744621250000009,0.1632652284999998,-0.2965984345,12.802638049999999,12.609576224,-8.7653787115,4.4073203805
737,6.141421000000264,-19.072140695,12.738277435,8.778205900000003,-2.039387524,-0.4415042994999999,0.015261620000000031,18.990846635,-15.3940837375,-1.4315354825
738,6.14975400000003,-18.8843689,12.53983641,8.864669800000001,1.6913201810000003,-0.410706818,11.384351727999999,20.16735506,-26.352662085,1.360924266
739,6.158086999999796,-18.672774314999998,12.412009715,8.89141085,-3.194385484,-1.481438696,-2.617708027,24.571993825,-16.08372712,-2.3851805329999998
740,6.166419999999562,-18.416296959999997,12.145843984999999,8.999847399999993,0.328908682,-0.39030954249999994,13.975411892499999,27.904533385,-34.863973619999996,1.4473413229999998
741,6.174753000000237,-18.110554695,11.989451410000001,9.024238549999993,-3.5801854730000002,-1.2443903685,3.9948177339999997,35.95085144,-19.294160845,-3.6486952305
742,6.183086000000003,-17.792368885000002,11.690682885000001,9.136054999999999,0.824286282,-2.05740577,8.3519082095,35.326227185,-38.668619155,1.0684743375
743,6.191418999999769,-17.437828064999998,11.49166727,9.176170350000007,-4.4885914325,-0.26357805549999996,6.057440253,41.46747017,-24.746108055500002,-3.2892525195
744,6.199751999999535,-17.069590570000003,11.271397115,9.252105749999998,0.946742857,-1.7256999610000001,3.507112354,42.27289963,-28.427776815,0.35566096
745,6.20808500000021,-16.710435865,10.971146585,9.335220299999989,-3.6000891925,-2.0231851935,12.630583285,41.05881119,-37.876155855,-1.6428949830000001
746,6.216417999999976,-16.32790184,10.80615568,9.371681199999998,-2.8002089265,-1.8026597500000001,4.502352059,44.96357346,-20.739281655,-1.9365618825
747,6.224750999999742,-15.937166215000001,10.577300545,9.44302365,-0.840385556,-2.477458239,7.9045714145,45.16877556,-29.306225775,-0.047181323
748,6.233083999999508,-15.58925867,10.333529949999999,9.514236450000013,-2.6087172035,-2.046350628,8.143557547499999,40.100694655,-30.944916725,-0.311860442
749,6.241417000000183,-15.252362725,10.22769499,9.535995499999999,-3.9574249385,-2.584457457,3.1182159485,39.84407234,-13.486051561499998,-1.3961378930000001
750,6.249749999999949,-14.9604187,10.026974199000001,9.6025238,-0.280260265,-3.0548250675,9.3301069735,33.515712735,-25.844156265000002,0.9026280044999999
751,6.258082999999715,-14.67777538,9.923987867000001,9.60935210000001,-5.386712313,-2.486872494,10.698505641,33.668827055,-12.715752662,-2.9150892495000003
752,6.266415999999481,-14.414635655000001,9.866669653999999,9.641296400000002,-0.257290222,-3.5317688585,4.792638063,30.80152607,-8.142611979,1.49718529
753,6.274749000000156,-14.220234395,9.6972541805,9.65988920000001,-2.8616710899999998,-3.0056238775,6.358880997,22.82737446,-20.84475517,-3.3864541055000004
