,time,Euler_X,Euler_Y,Euler_Z,Acc_X,Acc_Y,Acc_Z,Gyr_X,Gyr_Y,Gyr_Z
0,0.0,-17.67561531,12.25701046,172.48686215,-1.9751172064999998,-0.577801228,7.696598291500001,13.4296183585,-14.634920595,1.0402905345
1,0.0041664999998829,-17.593621255000002,12.210739610000001,172.50984955,-2.19550042,-2.2261384725,-1.3264127075,8.054390969,-6.300801754,0.3749732525
2,0.0083330000002206,-17.535411835,12.145133495,172.5633621,-0.5590150655000001,-1.5483010855000001,-2.7481769325,4.4362391235,-9.595242022,3.09250319
3,0.01249950000010355,-17.508099559999998,12.13437462,172.5863266,-2.8075132965,-1.7065965535,2.1812275645,1.5103818180000002,-2.2390877005,1.676291704
4,0.0166659999999865,-17.494827270000002,12.139009949999998,172.63199615000002,-1.21749267,-3.760087252,3.9713953735,-0.759282708,-1.2756209969999999,4.763203859
5,0.02083249999986945,-17.48930931,12.169374465,172.6470947,-1.9879927560000001,0.5510577635,1.4319103955,-0.9137623314999999,2.74898988,2.2713101505
6,0.02499900000020715,-17.52291584,12.216287139999999,172.69116209999999,-0.933011651,-2.892649651,4.1506370304999995,-6.319539069999999,3.6122927665,6.115098238
7,0.0291655000000901,-17.56472492,12.30147982,172.70037079999997,-2.6425762809999997,-2.644106567,2.411960542,-6.470944166000001,9.2304170135,3.5925056934999997
8,0.03333199999997305,-17.63015938,12.370448589999999,172.71762845,-0.8394351600000001,-0.48470371949999996,4.0331430435,-9.420384884,7.071213844,3.9250677229999997
9,0.03749849999985595,-17.72790241,12.50134611,172.7155151,-1.86141929,-2.864343286,0.8853942159999997,-12.917860035,14.851234909999999,4.018458604499999
10,0.04166500000019365,-17.853775974999998,12.581923965,172.685997,-0.7484963835,-2.1237764955,-0.5606419,-15.45135069,10.057030319499999,-0.8493684529999999
11,0.0458315000000766,-17.986516950000002,12.732684135,172.65693664999998,-2.3177371625,-1.5137999655,2.1496058700000003,-16.38655424,18.064160345,1.8173244595
12,0.04999799999995955,-18.13753605,12.854639055,172.58763885000002,-0.8369644430000001,-1.108873606,4.581852436,-17.43020916,16.22576332,-3.6824644805
13,0.0541644999998425,-18.27496433,13.012483594999999,172.55941775000002,-1.7463121414999998,-2.3680805865,6.510676384,-16.927350045,18.825031279999997,2.272502303
14,0.0583310000001802,-18.437334059999998,13.15469599,172.4783936,-1.546672225,-0.7422803345,4.74167645,-18.47260761,18.9809618,-4.126577854
15,0.06249750000006315,-18.594172479999997,13.318709850000001,172.46579739999999,-0.279169172,-0.538130432,4.5074801445,-19.652965545,18.930413245,4.3418529029999995
16,0.0666639999999461,-18.77133942,13.473278045,172.3880539,-2.00951685,-1.6169694215,-1.168553412,-20.335629464999997,20.286386489999998,-3.171365142
17,0.07083050000028375,-18.942121505,13.60586214,172.39390565,-0.27509343649999995,-1.535909593,1.229995847,-21.79412174,14.62490988,5.2889267205
18,0.0749970000001667,-19.098800660000002,13.777470115,172.32460785,-1.6627758740000003,0.2535080310000001,0.3886753915,-18.09027767,21.918174739999998,-1.4537369015000001
19,0.07916350000004965,-19.27341461,13.89128923,172.31758115000002,-0.17556381200000004,-2.6486555935,1.891871154,-21.85972023,12.951723099999999,3.2208120525
20,0.0833299999999326,-19.412970545,14.00284481,172.28346255000002,-0.29919964050000003,-0.3676835894999999,4.812016368,-17.03432512,13.762718204999999,0.1542619464999999
21,0.0874965000002703,-19.5480814,14.100979330000001,172.2552414,-1.2627762855,-1.0775403975,7.7474167345,-16.492482185,11.984412195,0.34287214300000013
22,0.09166300000015325,-19.63330269,14.180625435,172.23316955,-0.7609721535,-1.71585992,9.753626108,-10.832448007,9.6736984255,0.26187956300000015
23,0.0958295000000362,-19.716575624999997,14.221807004999999,172.21471405,-0.4314431375,-0.009502366000000012,5.122494221,-10.608887075999998,5.1719185115,-0.8618165849999999
24,0.09999599999991915,-19.822232245000002,14.245714190000001,172.19802855,-1.0586365165,-0.6081085205000001,-3.199790299,-13.409229993499999,3.160388887,-1.359559119
25,0.1041625000002568,-19.891197204999997,14.265605449999999,172.20184325000002,1.0954319240000001,-2.041844815,-1.4592719969999999,-9.582209468,1.89587605,0.712293521
26,0.10832900000013974,-19.912430765,14.24603796,172.18450165,-4.6550235744999995,-0.690054357,13.32517099,-3.1926674835,-1.7235498725,-3.2056982515000003
27,0.1124955000000227,-19.90758419,14.19005537,172.22652435,3.4204653505,-0.7236666679999999,9.286635876,-1.834011551,-8.181603193,1.796320021
28,0.11666199999990565,-19.886509895,14.15704775,172.21567535,-4.4057130815,-0.5683712885000001,7.5526316165,1.6096113925000002,-3.48758328,-3.0465124845
29,0.12082850000024335,-19.810213085,14.073612215,172.2590561,1.259205606,-0.10887183600000001,4.099047184,6.7464770665,-11.33627963,0.8347616529999999
30,0.1249950000001263,-19.765920639999997,13.984378815,172.26656344999998,-3.1969810725,-1.9364440964999998,0.31858843550000004,3.8500059845,-10.5652543285,-3.298608303
31,0.12916150000000926,-19.635790825,13.894973754999999,172.31784055,1.3376973865,-0.6605080965,13.330992225,13.013287543499999,-12.320974708,1.4758610129999998
32,0.1333279999998922,-19.501670840000003,13.726762775000001,172.34918975,-3.1188508275,-0.45684285449999995,6.0106556415,13.934915065,-20.432331565000002,-3.8200259205
33,0.1374945000002299,-19.3164072,13.654591085,172.40383150000002,-0.013405635999999999,-1.288607836,11.3584766385,19.567677019999998,-10.495699761500001,2.609329879
34,0.1416610000001128,-19.15938473,13.452312469999999,172.44649505,-1.4397640225,-1.1968557835,1.2489955689999999,16.349957465,-24.736516,-3.8013784885
35,0.14582749999999575,-18.951828955,13.30158758,172.5198212,-2.5916019675,-1.2164718805,13.406416418,21.809918405,-20.1127219185,1.6612908245
36,0.1499939999998787,-18.739444735,13.227203370000002,172.5319519,-2.2353446485,-2.3315178155,9.5909783815,23.885653495,-9.087648152,-2.0515735
37,0.1541605000002164,-18.520153999999998,12.9316144,172.6296997,1.866171956,-1.5340983270000002,2.9117671255,22.50424957,-37.472541809999996,-1.004003167
38,0.15832700000009936,-18.307632445,12.85104513,172.63961795,-6.062352896,-0.3263537365,19.594647405,24.056014060000003,-9.729272129,-2.4922089130000002
39,0.1624934999999823,-18.07954693,12.67997694,172.68367769999998,0.6994743350000001,-3.059837103,3.3101472855000003,24.984067915,-21.3164525,-1.9949866385
40,0.16665999999986525,-17.86218071,12.452326775,172.73772430000002,-3.251099497,-2.102151632,11.6364972585,23.529808045,-28.137843135,-2.9428293705
41,0.17082650000020294,-17.644474985,12.355870245,172.7434921,-1.269904554,-1.8404150755000002,10.2087898275,24.803541185,-11.434247017,-3.3808060290000004
42,0.17499300000008586,-17.43538952,12.139549729999999,172.79548645,-2.5636198820000002,-2.3971441985,9.555468559,22.535830500000003,-26.77301979,-2.5351202935
43,0.1791594999999688,-17.236683845,12.14154148,172.778656,-4.7680310015,-1.493563473,16.5593915,23.14998436,0.6026386019999999,-2.321111739
44,0.18332599999985175,-17.053807255000002,11.92686653,172.8330841,2.1353456375,-3.119487166,-3.4773185255,19.288048744999998,-26.680057525000002,-1.99132213
45,0.18749250000018944,-16.89955616,11.835654734999999,172.83641815,-6.7420973775,-3.5851799250000003,20.572375299999997,17.392121314999997,-10.797809362,-3.360633269
46,0.1916590000000724,-16.75217438,11.882373335,172.82058715,-1.0991197080000001,-0.9166154559999999,10.691573619,16.760008815,5.721647502500001,-0.6444290875
47,0.19582549999995535,-16.652362824999997,11.693352220000001,172.85565945000002,-1.3244262334999999,-4.077255011,1.8624064925,9.984370233,-23.11403084,-3.097979188
48,0.1999919999998383,-16.59451866,11.783469199999999,172.82769775,-3.869668007,-2.7058092355000003,11.8641734135,6.4352254865,11.1062889085,-0.568373531
49,0.204158500000176,-16.547648430000002,11.73264408,172.83630369999997,-2.2883309125,-1.7352068274999999,11.91840887,4.2018553015,-6.3289129729999996,-1.2883130315
50,0.2083250000000589,-16.51535416,11.827334405,172.82453155000002,-1.8657452465,-2.404881537,4.6458675865,2.9844557640000002,11.084477424,1.4052035135
51,0.21249149999994185,-16.451369285,11.800914285000001,172.82515715,-2.0502034425,-1.6150990425,7.0233429675,6.4805114265,-3.2519328570000003,-1.3676594495
52,0.21665800000027954,-16.500208855,12.007633685,172.7768097,-3.6055521965,-4.5526109935,11.442546306999999,-5.856562497500001,25.191758630000002,1.1114042999999998
53,0.2208245000001625,-16.567819595,11.92671967,172.8007965,1.0932322739999998,-1.0828833279999999,8.012279273,-9.9121541955,-10.3001598105,-0.599232912
54,0.22499100000004546,-16.613020900000002,12.239347455,172.70804595,-7.8065696965,-3.750777245,15.096613405,-4.2501828669999995,38.85626793,-0.2093958855
55,0.2291574999999284,-16.755719184999997,12.20888567,172.7187729,3.8196902875,-3.2905442715,-5.857097148499999,-18.66875458,-4.044648647500001,-0.37490236749999983
56,0.2333240000002661,-16.928126335,12.505255224999999,172.61240385000002,-9.453577756,-2.0645817665000004,26.300006869999997,-19.026905059999997,37.437537195000004,-2.1278944015
57,0.23749050000014904,-17.139208795000002,12.59772444,172.61595155,6.269793987,-2.8275090155,-6.5363792185,-26.75618553,10.304155467000001,3.1352938415000002
58,0.24165700000003196,-17.278608325,12.77201891,172.5383072,-8.436902523,-1.176867038,19.4961586,-15.731398585,22.459228278999998,-3.010297716
59,0.2458234999999149,-17.49864292,13.00484419,172.5102997,4.4265939595,-1.7973267,0.19617843599999985,-27.00718403,27.4582009305,4.7134926319999995
60,0.2499900000002526,-17.685133935,13.05142212,172.45513915,-7.951181176,-1.6581875905,16.0081651195,-21.909533500000002,7.065647124999999,-4.96794343
61,0.25415650000013557,-17.892452239999997,13.417654035,172.39453125,3.006151706,-3.3988951445,4.135066033999999,-24.560993189999998,43.822660445,6.181440115
62,0.2583230000000185,-18.116034505000002,13.359751225,172.3689575,-2.5716535745,0.016782581500000004,6.1698856365,-27.24582577,-5.887323140500001,-5.5045228005
63,0.26248949999990145,-18.267121315,13.718664645,172.30799865,-2.6387113925,-2.431271791,14.754320860500002,-17.639066695,42.94145012,6.190467119
64,0.26665600000023915,-18.47503376,13.6787138,172.2832947,0.026424646000000163,-1.4731900095000001,-4.075673521,-25.49511433,-3.8317963485,-4.7615798715
65,0.2708225000001221,-18.62923336,13.970888615,172.22885135,-4.734838724,-0.15012028800000005,24.213961599999998,-18.02355099,35.04951668,4.630924821
66,0.27498900000000503,-18.793967245,13.989228245,172.19657135,2.8733463285000003,-2.517811954,-7.119267969,-20.2055645,3.1155500400000005,-3.371225592
67,0.279155499999888,-18.8516798,14.072041035,172.20973205,-4.6149914265,0.004041272999999998,20.48559952,-8.2915031885,8.692196845,4.1570499835
68,0.28332200000022567,-18.950835230000003,14.26462412,172.1350708,0.22823536399999989,-1.889847696,6.6620367174999995,-11.109921455,24.507665874,-1.2519773245
69,0.2874885000001086,-19.02260399,14.16451979,172.18896485,-0.18991398800000003,-1.593776822,2.9946908965,-11.257635118500001,-13.6128175855,1.5157883764999998
70,0.29165499999999156,-19.05462742,14.36569166,172.1168213,-4.221196294,-0.2924849985000001,11.730768619500001,-2.9997427465,25.376495365,-0.5748357775000001
71,0.2958214999998745,-19.083580015,14.268483165,172.16381075,2.194452554,-2.7956164475,2.0291860105,-6.0222978000000005,-13.01533079,0.8508153555000001
72,0.2999880000002122,-19.080480575,14.303960325,172.1452484,-4.177389383,-0.667862188,18.600518225000002,-0.2811930180000002,4.5398160215,-1.173067987
73,0.30415450000009514,-19.04238987,14.344034194999999,172.15256499999998,-0.30812023600000005,-1.454140544,7.693792582,3.157774329,4.067655921,1.876588598
74,0.3083209999999781,-19.02993965,14.262104035,172.17042544999998,0.449448228,-1.2967873215,-0.04286950849999993,-0.29743277999999984,-10.1559123975,-1.756111905
75,0.31248749999986103,-18.966487885,14.18685675,172.19605255,-3.978460193,-1.2829460799999999,16.881541249999998,5.762915611,-9.716602476,-0.6320693490000001
76,0.3166540000001987,-18.8520689,14.22236633,172.1857986,-0.665433317,-0.6587733325,10.527696607500001,12.752235890000001,4.234571935,-0.25383710849999996
77,0.32082050000008167,-18.75316334,14.02927065,172.2417984,-0.17384231100000003,-2.8847630019999997,2.8410601615,9.078029392,-24.236133575,-1.8118172585
78,0.3249869999999646,-18.649496075000002,14.05050516,172.22538755,-4.189352035500001,-1.0392311215,12.668473959,11.73943472,2.831167668,-1.5087106225
79,0.32915349999984755,-18.535315515,13.923906805,172.26130675,-0.1155532745,-2.355025768,9.271130801,11.4339618705,-15.921987529999999,-1.3906678555
80,0.33332000000018525,-18.41118145,13.84747839,172.27072905,-1.4450626375,-1.161062658,10.354241369,13.438441275,-9.2420599475,-2.376021743
81,0.3374865000000682,-18.239067075,13.678483485000001,172.3297424,-0.995027035,-1.3307923375000001,3.3332418199999996,17.748019695,-21.60260582,-0.363126829
82,0.34165299999995113,-18.103668215,13.68233347,172.3087845,-4.6540571449999995,-1.0681503415,16.050462485,15.6874876,1.0045773985000004,-2.7028981445
83,0.3458194999998341,-17.984486575,13.498979089999999,172.37096405,1.504492462,-4.455106497,0.46966814999999995,11.282009599999999,-23.35672903,-0.406357735
84,0.34998600000017177,-17.829916005,13.4098382,172.39318085,-4.3865165715,-0.6808608175,19.333468915,16.847063065,-11.1777477275,-1.3682684895
85,0.3541525000000547,-17.663186070000002,13.372843265,172.39199065000003,-1.6601510045,-1.6222772,8.514659523999999,18.74934292,-4.372879505000001,-1.9675009845
86,0.35831899999993766,-17.55158615,13.216623785,172.43331145000002,-1.1695277689999999,-3.4497662785000003,6.6103226555,11.109328269999999,-19.52620983,-1.6005893945
87,0.36248550000027535,-17.452534675,13.16977549,172.42410280000001,-2.2966626735,-1.766886145,7.5769343365,10.8936915405,-5.224427700000001,-3.2229690555
88,0.3666520000001583,-17.33215046,13.07663298,172.44207,-3.9498960975,-1.992129892,13.92969656,12.84167433,-11.498951914,-1.8557068270000001
89,0.37081850000004124,-17.236605645,13.07505369,172.43265530000002,0.8307875395,-3.33788383,5.9944366215,10.443430423999999,-0.035257816500000594,-1.609272033
90,0.3749849999999242,-17.11529541,12.85350752,172.47763824999998,-2.5491064934999996,0.6797247790000001,9.902977652499999,12.214982034999998,-27.156638145000002,-3.3489930625
91,0.3791515000002619,-16.998824120000002,12.986702919999999,172.4322052,-3.4231236430000003,-2.5308137239999997,14.893985747,13.966070649999999,16.651712420000003,-0.9032415894999999
92,0.3833180000001448,-16.92407131,12.769975185,172.47905730000002,1.1784951095,-4.06566906,-1.868897676,6.493846774,-26.668644905,-2.8474020959999997
93,0.38748450000002777,-16.852520945000002,12.80841827,172.45951839999998,-6.0068039895,-0.5929979904999999,17.96937895,7.9800970575,4.8808071615,-1.3786160945
94,0.3916509999999107,-16.771411895,12.758409499999999,172.4692764,-0.10894042300000001,-3.4858154055000004,6.7876069545,8.2120203975,-6.262655975,-1.1446807234999998
95,0.3958175000002484,-16.742058755000002,12.709843634999999,172.47766875000002,-1.9638475810000002,-3.386086464,8.853232145,2.1465501785,-6.0597336870000005,-1.2637102155
96,0.39998400000013135,-16.71119118,12.677814004999998,172.49773405000002,-1.965955317,0.4291696325,13.058467385,1.9607571959999999,-4.5476990935,0.6338435115
97,0.4041505000000143,-16.671554565,12.73440933,172.47408295,-2.7075607180000003,-3.2129507065,10.7208781235,4.182388544,7.1096734999999995,-1.2207937835
98,0.40831699999989723,-16.606416699999997,12.60346317,172.5320053,1.7291790245,-2.026439652,-5.144203782,5.067963600500001,-17.19086742,1.4992336035
99,0.4124835000002349,-16.58060455,12.675135135000001,172.5083771,-6.0056467055,-0.4421287775,21.978568555000003,2.5788412245,8.842705252,-0.7420955
100,0.41665000000011787,-16.5739336,12.606414319999999,172.53826145,0.7327840925,-5.503680467500001,3.7619439365,-1.248444557,-9.09896517,0.5311365725
101,0.4208165000000008,-16.55423546,12.558631895,172.56050875,-2.720671862,0.3807670995,12.829025148500001,0.643231228,-6.426231383999999,0.312980115
102,0.42498299999988376,-16.52843857,12.626867295,172.54550935,-2.7346442344999997,-1.7486245635,9.8217190505,2.250402257,8.155228375,0.15947431350000002
103,0.42914950000022145,-16.551508905,12.57143164,172.57219694999998,-0.6086120605,-3.9595680235,5.594576061000001,-4.661720455,-7.456323621999999,0.584433563
104,0.4333160000001044,-16.54945469,12.524901865,172.57888029999998,-1.9188612699999998,-0.368224919,8.569655895,-1.1261747405,-5.769203186,-1.349441171
105,0.43748249999998734,-16.5234127,12.5859375,172.56298825,-3.2539675235,-1.7997888925,16.235088825,2.3858187795,7.353225944,-0.21393013
106,0.4416489999998703,-16.514928814999998,12.48165369,172.59577945,1.863871813,-2.4864006045,1.132716656,-1.1114909645000002,-13.278355299000001,-0.36555996199999996
107,0.445815500000208,-16.496673585,12.43716097,172.6042023,-4.6957952975,-0.24551349849999998,16.131631374999998,0.8614448305000001,-5.59827709,-1.1097305419999999
108,0.4499820000000909,-16.462942124999998,12.47443199,172.59438325,-0.7886232135000002,-3.1543883084999997,5.8000447155,3.0246893765,4.4250783899999995,-0.3077422605
109,0.4541484999999738,-16.44362545,12.34165335,172.6322174,-1.5761054755000001,-1.210086137,10.3891199835,0.19967675200000023,-16.725750209,-0.8115938005000001
110,0.4583149999998568,-16.39668846,12.356036185,172.61373905,-1.7763841749999998,-1.3066414595,10.284946440999999,4.882041216,2.0762649775,-2.0912805795
111,0.4624815000001945,-16.32227802,12.250676630000001,172.6639328,-2.3872745185,-1.6870575545,9.686436652,6.451337695,-13.97658348,1.557851762
112,0.4666480000000774,-16.2701664,12.325912474999999,172.63743595,-3.1558147965,-0.7275910975000001,18.311356545,5.7461767195,9.343068837,-0.960220188
113,0.4708144999999604,-16.179525375,12.145918850000001,172.69355015000002,2.3149760959999997,-3.1653503179999998,1.9023113264999996,8.2091691495,-22.768875595,-0.2083593455
114,0.4749809999998434,-16.077053069999998,12.128517630000001,172.69745634999998,-6.215749979,-1.631773472,15.571374895,11.085556028,-2.33363676,-0.6799236535
115,0.479147500000181,-15.975838659999999,12.10069275,172.70435335,0.930737317,-0.9438849095,8.593834879,10.709563970000001,-3.6198053375,-0.6317945125
116,0.483314000000064,-15.860847475,11.9760437,172.73122404999998,-3.2746686935000002,-1.7831553814999999,15.574751854999999,11.955634593,-15.443836689000001,-1.596632063
117,0.4874804999999469,-15.72351789,12.017442705,172.71267699999999,-2.9375576975,-2.3780692815,11.063999176,15.73712778,5.1640167235,-1.1899288595
118,0.4916470000002846,-15.61480904,11.859319209999999,172.7430115,1.7295690030000002,-2.4928023815,-0.16257953600000002,11.0513877885,-19.422047615,-2.1920608285
119,0.4958135000001676,-15.509626390000001,11.78215456,172.7587967,-4.8888401985000005,-2.7327141165000004,19.32322216,11.077064516,-9.614542243999999,-1.216951847
120,0.4999800000000505,-15.381490705000001,11.83401537,172.7251053,-3.1122623684999997,0.535120815,12.347771645,15.01946783,6.8527505415,-2.6519514325
121,0.5041464999999334,-15.229404925,11.70704126,172.7531204,1.408590317,-2.87937057,3.4022927285,16.311825755,-15.74966955,-1.3527653365
122,0.5083130000002712,-15.121993065000002,11.59662437,172.7558899,-3.170352221,-4.6072933675000005,13.04887247,11.698287485,-13.0767056965,-3.674792111
123,0.5124795000001541,-15.03717661,11.586551665,172.75121305,-1.5826026945,-0.694503501,13.115515235,9.054894924500001,-1.2092993854999998,-1.3614798785
124,0.516646000000037,-14.95301199,11.48413515,172.7616043,-2.646354914,-2.558372736,9.303216694,8.646580696000001,-12.378216745,-2.5132116074999997
125,0.52081249999992,-14.878667355,11.516180515,172.74523929999998,-3.4145293235,-3.8847163915,12.8380117405,8.1372394575,4.0189442635,-1.3914485575
126,0.5249790000002575,-14.85996914,11.38879967,172.77234645,1.451102508,-2.0009347795,1.7479406370000001,0.361288816,-15.7832460425,-1.3402842285
127,0.5291455000001406,-14.82915592,11.410839554999999,172.7660904,-6.1091866495,-1.0068932625,19.805443765,2.6872543095,2.5603370650000006,-0.5911636355
128,0.5333120000000235,-14.81841421,11.497581480000001,172.75011445,-0.26704263699999986,-3.823103905,2.788903408,0.4370051625,10.3428421005,0.3876463175
129,0.5374784999999065,-14.833086015,11.29811573,172.801857,-0.8805727955000002,-1.884885788,8.3495565635,-4.1581326125,-24.880350115,-0.8002669215000001
130,0.5416450000002442,-14.811001775,11.4456048,172.76145175,-5.4707742335,-1.2698480785,22.676539895,2.449099183,18.12674332,-0.572862506
131,0.5458115000001272,-14.81558132,11.376907825,172.8056488,2.8441123965,-3.2146990300000002,0.9781073929999999,-2.8801739215,-9.4847875835,2.427826643
132,0.54997800000001,-14.86032772,11.375306605,172.782959,-6.2193589209999995,-1.667865783,15.224992755,-5.9572508335,0.30122423000000076,-3.1694352625
133,0.554144499999893,-14.877688885000001,11.34971094,172.80062865,1.728007123,-2.093750417,3.18323195,-3.7753529545,-3.6896166815000004,0.73293221
134,0.5583110000002307,-14.854958530000001,11.338838580000001,172.81793215,-5.5637415645,-0.9055921735000001,18.111821655,1.1913886665,-1.9795465449999998,1.0939265790000001
135,0.5624775000001137,-14.88472986,11.45100069,172.7971344,-0.2539275885000001,-1.724393487,8.7625036855,-4.319553733,13.4454488775,0.6015570165
136,0.5666439999999966,-14.896814345,11.26305008,172.8577957,0.45365524300000004,-3.7894381285,4.3291635500000005,-4.0886166095,-23.82361221,0.5860220155
137,0.5708104999998795,-14.856706615,11.348489285,172.845253,-4.723688245,-0.679825738,21.110733035,3.974004865,10.090493497999999,0.67921254
138,0.5749770000002172,-14.848136425,11.290564535000001,172.86249544999998,0.978302289,-0.4787565915,5.765638827,-0.6566339730000001,-7.4215723725,-0.31769329300000004
139,0.5791435000001002,-14.810040955,11.19124317,172.903244,-3.5160301925,-2.7918764355,19.070693495,2.452684879,-12.945992945,1.070355177
140,0.5833099999999831,-14.74294996,11.211286545,172.93026730000003,-2.8465800285,-1.9102563259999998,12.381947993499999,6.210523367,1.322981596,3.1793221235000004
141,0.587476499999866,-14.687491895,11.111935138,172.96898655,0.22694349299999994,-2.72379148,4.531496048,4.5539227725,-12.88020277,0.8719790574999999
142,0.5916430000002038,-14.643043995,11.037944314499999,173.02511594999999,-1.8500905040000002,-2.41568774,12.137434958,2.825999737,-10.450678827499999,3.6252024174999997
143,0.5958095000000867,-14.563785554999999,10.923190116499999,173.0884399,-1.5431061984999999,-0.906577632,13.1245446195,6.8837442395,-15.400390625,3.231921673
144,0.5999759999999696,-14.450861934999999,10.927899838,173.11561585,-4.9929890635,-2.0645778774999997,16.305081845,11.750127315,-0.448761344,2.72191596
145,0.6041424999998526,-14.34168959,10.835641384999999,173.1386566,0.9583827255,-2.0249660615000002,11.075933455000001,11.381476401499999,-11.591922759,-0.625217933
146,0.6083090000001903,-14.22588158,10.7761826525,173.15820309999998,-3.4087201355,-0.971243113,17.75408173,12.27408218,-7.6749160275,-0.050408809999999984
147,0.6124755000000732,-14.072249889999998,10.632961748,173.17756655,0.10148724949999999,-3.1251827480000003,11.35554743,16.77644348,-17.41500711,-2.477083564
148,0.6166419999999562,-13.9080081,10.5342426305,173.2027359,-4.3916921615,-2.1337524055,15.96409416,17.993950845,-12.408329488500002,-0.5073477685000001
149,0.6208084999998391,-13.74576664,10.445795058,173.20601655000002,-1.4311539235000001,-1.458430052,15.2007746675,18.16657686,-10.587631344999998,-2.6453175545
150,0.6249750000001768,-13.589484214999999,10.329777239,173.22521204999998,-2.7103217429999997,-1.229938954,13.68009472,17.15607071,-14.255360604,-1.6229635475
151,0.6291415000000598,-13.370960714999999,10.2809743875,173.22185515,-3.2332107724999997,-2.4991929529999997,13.1082811365,25.085041044999997,-5.793860197000001,-2.2471188900000003
152,0.6333079999999427,-13.176332475,10.1160387985,173.2581482,-0.25702869900000014,-1.856084347,10.461922644,21.42173481,-20.446138855,-0.8985158055
153,0.6374745000002804,-12.98390341,10.092593670500001,173.25257115,-3.8814691305,-2.1930167675,18.891323565,22.00841904,-2.7797539235,-1.7875093815
154,0.6416410000001634,-12.807436465,9.9228224765,173.2892914,0.9855107369999999,-3.509147406,11.920623778500001,19.191550255000003,-21.01948643,-0.8186379675000001
155,0.6458075000000463,-12.61643791,9.867668626,173.29164889999998,-4.7267597915,-2.416549325,18.42947197,21.687782285,-6.7048690745,-1.725843251
156,0.6499739999999292,-12.448464395,9.761230948,173.29063415000002,-1.3158025145,-2.833719313,9.343059064,18.97593689,-12.642176151500001,-3.3698173165000003
157,0.6541405000002669,-12.32909727,9.714831354000001,173.2919083,-4.192141652,-2.8076450824999997,15.000615597,13.123630045,-5.6561107625,-1.597515434
158,0.6583070000001497,-12.227825639999999,9.674371245,173.26753235,-2.6667400600000004,-3.599701047,12.21732283,11.444064141,-4.3279417605,-4.3416196105000004
159,0.6624735000000328,-12.132846355000002,9.6425085045,173.26424409999998,-2.9715980885000004,0.283917919,16.45972395,10.276516913,-3.841945172,-1.7314009965000001
160,0.6666399999999159,-12.04252386,9.603222847,173.23471834999998,-1.539547384,-4.7970256805,13.299252035,10.224505901499999,-4.0756866935,-4.889943719
161,0.6708065000002534,-11.958742144999999,9.571038247,173.23516845,-1.8363284465,-2.311968565,16.32853937,8.8574604985,-3.9777690509999997,-1.273226142
162,0.6749730000001364,-11.925170900000001,9.518098832500002,173.19445035,-1.7829795480000001,-1.8731712099999998,15.276901245,3.6358708144999996,-5.4145106675,-6.5215063095
163,0.6791395000000193,-11.883100985,9.4712672245,173.1903534,-2.1487922075,-3.035823464,12.447429655,3.921962712,-5.580266522,-2.169737458
164,0.6833059999999022,-11.826572895,9.4278879185,173.16337585,-2.7764722105,-2.7320242224999998,9.61207628,6.1241726875,-4.640269698,-4.674074054
165,0.68747250000024,-11.80807304,9.3741192805,173.15772245,-2.6062700745,0.18681288150000003,15.81071472,1.1324441435000001,-6.362398057,-2.506820738
166,0.6916390000001229,-11.778647424999999,9.361514569499999,173.123497,-2.896976471,-5.982882023,17.36806774,2.9937537014999998,-0.8510966304999998,-4.762602687
167,0.6958055000000058,-11.739834304999999,9.281685827,173.12645725,-1.8865035175,-1.309490919,17.1121912,3.4172656535,-9.639245868,-2.135119498
168,0.6999719999998888,-11.711239335,9.308432101,173.07939149999999,-2.7378319505000004,0.186845243,15.2689094555,3.126505643,4.0806169535,-5.2963387965
169,0.7041385000002265,-11.683096410000001,9.191569805,173.08352660000003,-1.0101114955,-5.0011060235,11.144199372500001,2.1155053379999997,-14.022149559999999,-2.8879733085000003
170,0.7083050000001094,-11.61287355,9.2532172185,173.02923585000002,-3.234465122,-0.4860021475,10.191801070499999,8.267578125,8.352899313,-5.3192255500000005
171,0.7124714999999924,-11.568056105,9.121589423500001,173.02114865,-0.2598003895,-2.336394191,10.780623912,4.349010348,-15.479500295000001,-4.6080344915
172,0.7166379999998753,-11.50494957,9.129856823,172.9696045,-2.9130530954999996,-4.2729308605,20.785942075,7.361667633,2.0059659484999997,-6.328824043
173,0.720804500000213,-11.382286075,9.071134566000001,172.93502045000002,-2.599347979,0.10994404550000003,10.3643867975,14.15113449,-6.286340474,-5.893204212500001
174,0.724971000000096,-11.284334184999999,8.9901955135,172.89424135,-0.8249542715,-1.607530564,15.670849805,11.351098537999999,-8.7700409875,-7.1784102915
175,0.7291374999999789,-11.177722455000001,9.0158147795,172.8538132,-3.9962324705000003,-5.6412415505,14.704540255,12.342381,3.760509491,-4.6031672955000005
176,0.7333039999998618,-11.04796171,8.9224834465,172.83007809999998,0.02521693699999994,-0.200205512,9.7880606665,14.81838274,-10.64294195,-5.429713249000001
177,0.7374705000001995,-10.94955635,8.8808345785,172.80466465,-4.5084996225000005,-1.9213123319999998,21.528744695,11.081724167,-4.5171926025,-4.442936778
178,0.7416370000000825,-10.830300335,8.8516869545,172.77547455,-0.2814542055,-4.9006352425,11.541027068,13.650000095,-2.978269875,-4.549709915999999
179,0.7458034999999654,-10.71066475,8.735877752,172.76026915,-2.296694964,-0.5963964315000001,14.763269900000001,13.427030564999999,-13.50246382,-4.891967773499999
180,0.7499699999998484,-10.63232565,8.69107151,172.7392807,-1.434763104,-3.241502881,14.531041625,8.6256771085,-5.0239828825,-3.951911807
181,0.754136500000186,-10.54384327,8.5913121705,172.71997829999998,-1.7623567580000001,-3.3308024405000003,12.110283854999999,9.712658406,-11.527350187,-4.9552476405
182,0.758303000000069,-10.4669466,8.474420309000001,172.70368960000002,-1.41342327,-1.8044358495,13.2378578195,8.3835225105,-13.644009591,-4.9834747315
183,0.762469499999952,-10.379977225000001,8.3790254595,172.6744156,-2.0607372225000002,-2.982994914,10.604791163,9.705561874499999,-10.8120718025,-6.003664255
184,0.7666359999998349,-10.30498886,8.207784176,172.6783447,-0.732067935,-3.272495866,14.942789079999999,7.757369995,-20.501329425,-3.7214878199999997
185,0.7708025000001726,-10.255349635,8.111621856500001,172.6478653,-3.6464208365,-2.0631154179999998,18.76064873,5.271710991499999,-10.8931019285,-6.152354240499999
186,0.7749690000000555,-10.160335066,7.989567279999999,172.6387863,-0.236138344,-3.384696722,4.6952910425,10.3478531815,-14.420966147000001,-4.1449291705
187,0.7791354999999385,-10.113862517,7.7945055965,172.63954165,-3.216077745,-2.8307641745,15.103159905,4.3848214745,-23.245491025,-4.5672705175
188,0.7833020000002762,-10.0908331855,7.7416906354999995,172.59880065,-3.5336095094999997,-2.3623179195,18.204660415,2.2496346275,-5.589045763,-6.3883635995
189,0.7874685000001591,-10.0360779765,7.535060167499999,172.59449005,-0.7218818665,-2.8742473725,11.45182228,5.4183039665,-24.513139725,-5.341858387
190,0.791635000000042,-10.018796442500001,7.441952467,172.55268095000002,-3.6977261305,-3.048222661,18.97049665,1.5804688335000001,-10.338758228,-7.364868164
191,0.795801499999925,-9.99423313,7.314623117,172.52263645,-1.5595221225,-1.9566426875,12.780385254,2.166875884,-14.611216783500002,-6.668930292
192,0.7999680000002627,-10.006701944,7.1229219435,172.50169369999998,-0.5989012715,-3.324131012,10.0718684175,-2.340047181,-22.42050457,-6.981233120000001
193,0.8041345000001456,-9.9941487315,7.036861419499999,172.46450045,-4.1230324505,-2.3283861875,15.424722195000001,0.844347715,-9.587940692499998,-6.666534662
194,0.8083010000000286,-9.9885740275,6.8099246025,172.46006775,0.950083509,-1.6229914425,10.127035615499999,-0.47228908550000015,-26.925209045,-5.7408387665
195,0.8124674999999115,-10.009989739,6.7005403045000005,172.4318619,-5.6749739645,-5.0067245965,21.824848175,-3.344893217,-12.535922529,-6.115803242
196,0.8166340000002492,-9.9921498315,6.583415985,172.41984555,-0.9148972630000001,-0.635046482,12.956919195000001,1.0697026250000001,-13.784054040000001,-4.3446036575
197,0.8208005000001322,-10.030251981,6.434673071000001,172.41100315,-3.7235771415,-1.7414391635,13.69478369,-5.611792803,-17.589921955,-4.664014101
198,0.8249670000000151,-10.047639847,6.401234865499999,172.3719635,-4.472897887,-3.156071901,15.019713875,-2.7898449895,-3.3272697929999997,-5.8006446365
199,0.829133499999898,-10.0368113525,6.259412289,172.36677555,0.01453971850000002,-1.937703311,7.129483702,0.20531058299999994,-16.852372165,-4.0781012775
200,0.8333000000002359,-10.066847325,6.2103273869999995,172.33680725,-3.4020192625,-2.3665330410000003,17.4949474315,-4.429746307499999,-5.3654077055,-5.0771193505
201,0.8374665000001187,-10.07946968,6.1249992845,172.32798765,-0.2700811645,-3.0393161775,14.533420085,-2.592231393,-10.097382666,-3.3076757194999997
202,0.8416330000000016,-10.090013980999998,6.0132386685,172.3062439,-3.4510284665000004,-1.5539987085,13.204497813,-2.2058608535,-12.9359949835,-5.4522036315
203,0.8457994999998846,-10.105772973,6.034403085999999,172.26511385,-4.5113049745,-2.868786931,11.1221648455,-2.541156173,3.1579408644999996,-4.868990779
204,0.8499660000002222,-10.145946502,5.9243700505,172.26253509999998,-0.3704068665000002,-3.6008303164999997,13.671017410000001,-6.0144608024999995,-13.13361931,-3.152620256
205,0.8541325000001052,-10.178537370499999,5.997039794999999,172.210289,-5.5272569659999995,-2.0000039634999998,15.554100515,-4.3910808564999995,9.478402613,-5.1046048405
206,0.8582989999999882,-10.214323045,5.9095990655,172.22521975,2.1905566755,-2.0085526705000003,11.292709825,-5.762864947500001,-10.829540016,-0.6058148145000002
207,0.8624654999998711,-10.275711059999999,5.917813063,172.18001555,-5.005825043,-4.194724679,14.8358259205,-7.930456399,1.7290239334999997,-5.666362524
208,0.8666320000002088,-10.29901838,5.931103945,172.191597,0.3352986575,-0.7590723930000001,6.8112738125000005,-4.2221033575,1.1368234155000003,1.1477739815
209,0.8707985000000918,-10.391380784999999,5.9064612385,172.15402985,-5.6128013135,-4.889346122999999,11.89982891,-11.69781208,-2.3133747579999997,-5.4678782225
210,0.8749649999999747,-10.479084969999999,6.0223326685,172.14405825,-1.541304529,-3.299608469,15.538067341,-11.685916899999999,13.704101563,0.8429263834999998
211,0.8791314999998576,-10.585491659999999,6.0181787015,172.10556029999998,-3.523288131,-1.2459308955,14.782779215000001,-13.415797229999999,0.14491254099999995,-5.11175096
212,0.8832980000001953,-10.675934795,6.195972681,172.0721054,-3.1627391575,-2.8666425945,15.90138721,-11.681153772,21.518280985,-0.5148080584999999
213,0.8874645000000781,-10.78241968,6.237151384000001,172.0292053,-1.063333143,-3.0716035364999996,6.6202731135,-13.39484453,5.6044721905,-4.590372801
214,0.8916309999999612,-10.92088699,6.3851783275,172.0219803,-3.3504298925000002,-1.349052608,14.62571907,-17.694829939999998,17.4121406095,1.954924822
215,0.8957974999998441,-11.055052755,6.4985735415,171.95409395000001,-3.2262923715,-3.9624648095,11.92628002,-16.400809765,14.701408146999999,-5.833305597500001
216,0.8999640000001818,-11.205529689999999,6.6476216315,171.94822695,-2.745377153,-1.4109915494999998,16.149464130000002,-19.15821171,17.487717389500002,2.228510797
217,0.9041305000000648,-11.343328,6.861975908,171.8533249,-3.845664382,-2.1679208875,12.484275815,-16.40905094,27.23692131,-6.549251795
218,0.9082969999999478,-11.484731195,7.002713680499999,171.84750365,0.9797401430000001,-3.235932469,7.8594436665,-18.067824365,16.493471145,2.134429097
219,0.9124635000002854,-11.623372555,7.183116674499999,171.76140594999998,-2.5421569945,-2.3769667745,5.951162398,-16.572722435,23.065349580000003,-6.200807333
220,0.9166300000001684,-11.79301739,7.2583725455,171.7578659,-0.6246479305,-1.9529228805,10.727238415,-21.468678474999997,8.72728072,0.8858624395
221,0.9207965000000512,-11.908236505000001,7.501002550499999,171.6441803,-5.4714781045,-1.990611017,14.479364870000001,-13.272355555,31.078030585,-7.7706427575
222,0.9249629999999343,-12.02447081,7.6424040795,171.60417935,-0.39220380750000006,-1.936451852,10.684455395,-14.475117685,17.38107824,-1.652381688
223,0.929129500000272,-12.15996647,7.8607497214999995,171.4941254,-2.1409532430000002,-1.472807951,15.9021747135,-15.70494175,28.165690425,-7.8086161615
224,0.9332960000001548,-12.29539919,7.9118590355,171.47548675000002,-0.3262733815,-4.8772652145,10.4480433475,-17.160267830000002,6.2643020155,-1.3773738145
225,0.937462500000038,-12.408789155000001,8.053273201,171.38938904999998,-3.203614116,0.13679510350000001,12.510201455,-13.374325275,18.568164825,-6.868294000500001
226,0.9416289999999208,-12.546138285000001,8.1296446325,171.35520935,-0.18530815850000004,-3.0811620355000002,5.5007680655,-17.086013795,9.619064806,-2.48403725
227,0.9457955000002585,-12.659254075,8.2407484055,171.2891617,-2.0907950995,-2.8108974395,8.5541841965,-13.68646574,14.533106805,-5.2661164995
228,0.9499620000001414,-12.78471184,8.304292679,171.2707672,-1.300020635,-1.0080683825,13.297783855,-15.900444030000001,7.7128264904999995,-0.9611873774999999
229,0.9541285000000244,-12.88034439,8.4510688785,171.21893315,-4.8141179085,-1.5906551185,14.036530975,-11.7962122,18.35270357,-2.6155023575
230,0.9582949999999072,-12.98906231,8.5247220995,171.19997410000002,0.67377758,-5.414800405499999,5.4278296235,-13.87561226,8.905707836000001,-0.7032897469999999
231,0.962461500000245,-13.10973358,8.537312030999999,171.18764495,-1.4270303845,0.5314691215,7.854279997000001,-15.50383377,1.613902032,-1.6156183480000001
232,0.966628000000128,-13.195716855,8.5720427035,171.17669675,-1.8964266775,-2.3097394110000002,12.053841590000001,-11.269452095,4.143071294,-0.8190666435
233,0.9707945000000108,-13.242231845,8.7051763535,171.13092039999998,-5.2771788835,-2.1470183135,15.683090685,-5.964052200499999,16.604990008,-2.1686870755000003
234,0.974960999999894,-13.27443552,8.769047737000001,171.0975418,1.691614896,0.025548904999999997,5.5501824614999995,-4.4389796855,8.157407281500001,-2.5799044225
235,0.9791275000002315,-13.36175394,8.743566513000001,171.09202575,-1.3447778635,-4.7265816925,8.1285367015,-11.604012489999999,-3.0149111375,-1.8676875529999997
236,0.9832940000001145,-13.409936905,8.787713051999999,171.06095885000002,-1.9953012465,-2.5000069440000003,12.820836065,-6.391629219,5.802373409,-2.8643184305
237,0.9874604999999974,-13.461538315,8.7878479955,171.0600891,-2.0354845075,0.0288850665,11.8159024705,-7.387907266500001,-0.1521487235000003,-0.6202230455
238,0.9916269999998804,-13.468961714999999,8.8170156465,171.03665925,-2.224025905,-3.7073345184999997,9.7223062525,-1.653456539,3.844696641,-2.3826039435
239,0.995793500000218,-13.484961985,8.7986414445,171.06947325,-3.0311543345,-2.2624989155,12.046387671,-3.7171571255,-3.244926274,2.744136214
240,0.999960000000101,-13.542521,8.862017391,171.04064945,-1.7887378335,-1.4637534025,11.000883343,-7.567912101499999,7.9857699855,-2.0421013835
241,1.004126499999984,-13.610198019999999,8.7936878205,171.07881165,0.31976449500000004,-3.9146538975,3.0558221344999996,-10.046832086999999,-9.224653720500001,1.959085703
242,1.0082929999998669,-13.616184234999999,8.787833215500001,171.076149,-2.7732148765,-1.22679092,8.832289219,-1.833114624,-0.8144046064999997,-0.9892793595
243,1.0124595000002046,-13.62856913,8.81762576,171.08829500000002,-4.3310893775,-0.4189019945,15.333207130000002,-2.896656275,2.9390416595,1.7205274105
244,1.0166260000000875,-13.64023495,8.913630722,171.05836490000002,-1.0278802660000002,-2.8510643245000002,11.54067731,-2.0451624395000003,11.827969552999999,-1.2358165085000001
245,1.0207924999999705,-13.667296409999999,8.8407103995,171.09561159999998,-0.720917851,-4.132247448,4.6923046704999996,-5.168152094,-9.739165783999999,1.7193363905
246,1.0249589999998534,-13.689637184999999,8.869411469500001,171.07878875,-3.6650823355,-0.43198847799999995,12.319260595,-3.538036823,3.61393182,-1.6424680349999998
247,1.029125500000191,-13.707354070000001,8.880000831,171.09160615000002,-1.5077300965,-3.0128196474999998,8.442952632,-3.5471809505,0.6743844005,1.267770201
248,1.033292000000074,-13.68316364,8.8887982375,171.08325194999998,-1.9823178055,-2.3708645109999997,8.7117807885,1.8239704374999999,1.063029118,-1.2262302189999998
249,1.037458499999957,-13.68076849,8.90101671,171.0982361,-3.054053545,-1.6794756204999999,12.938323975,-1.1298502385,0.7984980344999997,1.5542461055
250,1.04162499999984,-13.680396555000002,8.98404026,171.07444765000002,-2.3564383385,-1.8839699925,10.4527645085,-0.7574065625,10.153938295500001,-0.9037086965000001
251,1.0457915000001776,-13.704899785,8.9596750755,171.0898514,0.0517026335,-4.7248883245,0.9257640839999999,-4.3800663945,-3.4843811990000004,0.5899214745000001
252,1.0499580000000606,-13.71274376,8.9546434865,171.098175,-1.3123432700000002,-0.3625518005,11.802473545000002,-2.3238835335,-1.014643431,0.2827302214999998
253,1.0541244999999435,-13.71399021,9.006221533,171.08927914999998,-5.203438759,-1.5890227555,16.23343515,-1.1083023105,6.0541422365,-0.06045603750000006
254,1.0582910000002812,-13.694178104999999,9.1035983545,171.07405089999997,-0.237166427,-2.1222476365,10.444432735,1.4096091685,11.584557531,0.5009376409999999
255,1.0624575000001641,-13.701497555,9.060651062,171.08419800000001,-2.111557782,-4.405632734,5.163360059,-2.223706245,-5.499792814,-0.552601457
256,1.066624000000047,-13.720892424999999,9.1016554855,171.07939145,-1.203459263,-0.8400643019999999,11.362266539,-3.4697623254999996,4.720249355,0.08692216900000016
257,1.07079049999993,-13.759057044999999,9.1003618215,171.0677795,-2.2196176055,-3.247397423,8.784081461,-5.515032649,-0.030634626499999998,-1.877881904
258,1.0749570000002677,-13.733810425,9.117799996,171.0644989,-1.659914434,-1.7220947144999998,10.2045631385,1.8575763105,1.9277081485000003,-0.39863455299999995
259,1.0791235000001507,-13.72863388,9.1313662505,171.0566864,-4.9722795484999995,-2.2237324715,10.59244108,-0.3794492445,1.594582081,-1.0212779045
260,1.0832900000000336,-13.753397464999999,9.2321205145,171.04775235,-0.5747889429999999,-2.540605426,11.8762373905,-4.038424015,11.796976088000001,1.3306339605000002
261,1.0874564999999166,-13.805299285,9.201066493999999,171.0508194,-0.6364999914999999,-2.9010198115000003,3.0214490900000004,-7.470000982,-3.9085212945,-1.0404182675
262,1.0916230000002543,-13.8032732,9.2074780465,171.0723419,-0.8933682439999999,-1.554975927,6.326227426500001,-1.3625428825,-0.06302380549999986,2.1360416415
263,1.0957895000001372,-13.813069344999999,9.2631888415,171.0515442,-5.4249780175,-2.0125317574999997,15.053197381499999,-1.930026352,6.8758406645,-1.312595308
264,1.0999560000000201,-13.83064413,9.355677604,171.04372405,0.43891328549999997,-2.1938133835,11.778703452,-3.1930903195,10.798163415,1.2491616305
265,1.104122499999903,-13.88705778,9.282907008,171.0485916,-1.244453013,-3.676458597,4.7090952695,-8.0703229905,-8.813916684,-2.045072734
266,1.1082890000002408,-13.91175938,9.297098639,171.057106,-2.199896246,-1.31319619,10.0108928675,-4.306092024,1.204125136,0.871184915
267,1.1124555000001237,-13.947811125,9.293180463999999,171.04787445,-2.5374559165,-2.255352199,9.221699714,-5.3396584984999995,-0.3938316705,-1.6880037190000001
268,1.1166220000000067,-13.96240282,9.286389826,171.0596466,-1.2340794205,-2.6996212005,9.9549353125,-3.1968551874999998,-1.329430163,0.647150092
269,1.1207884999998896,-13.990814685,9.2731714265,171.05831145,-3.5314605235,-2.0317147075,12.4413499815,-4.56470716,-1.7000299689999998,-1.0601157245
270,1.1249550000002273,-13.99454689,9.313746453,171.05824280000002,-1.432622194,-1.991742432,7.675305605,-1.646335721,4.520573378,0.6632101684999999
271,1.1291215000001102,-14.040256975,9.239469530000001,171.0802536,-0.30591171949999996,-4.0065814255,2.7842754945,-7.1118638515,-9.4791440955,-0.143522974
272,1.1332879999999932,-14.046257494999999,9.209599016,171.11611175000002,-2.4513679745,0.13603605349999998,12.841207025,-2.5967136025,-4.7122572065,2.7279479505
273,1.1374544999998761,-14.039264679999999,9.266473768,171.11385345,-4.596199989,-2.1095896365,13.329533575,-0.29318052549999996,6.4845449925,0.880611032
274,1.141621000000214,-14.00587416,9.295764448,171.13385010000002,0.5670843720000001,-1.864698231,7.1068069949999995,2.4016483575,2.63331002,2.6396814585
275,1.1457875000000965,-14.012868399999999,9.222874166499999,171.1628113,-2.1187617185,-3.490266681,4.8292051554999995,-2.5862115625,-9.5195875145,0.6993326320000001
276,1.1499539999999797,-14.02680969,9.2620434775,171.1661453,-1.902811617,-2.40194881,14.29588079,-2.9223600629999997,4.2597180905,1.001087576
277,1.1541204999998627,-14.04756403,9.2325162895,171.16271210000002,-1.6681924465,-1.649594128,6.15965271,-3.624254465,-3.5398938655000003,-1.761164248
278,1.1582870000002004,-14.0188508,9.221754073,171.1789856,-2.4460238815,-2.1092189550000002,9.5866832715,1.9415911435000002,-1.9274774789999998,1.042723477
279,1.1624535000000833,-14.029137135,9.281254293,171.15978245,-4.440315722999999,-2.9505003690000002,11.5501766225,-2.0288015305,7.274040461,-0.991533637
280,1.1666199999999662,-14.068764685000001,9.29555893,171.1654968,1.200476311,-3.2089180945,7.206830501500001,-6.0994735955,1.2981677055,0.5653574615
281,1.1707864999998492,-14.1058712,9.2344317425,171.18264010000001,-2.8556542995000003,-1.7955454585,8.186793447500001,-5.9523965125,-7.8119137275,-0.3395871595
282,1.1749530000001869,-14.079689025,9.314661982,171.18003844999998,-3.0183146,-1.0355041325,12.404356005,2.0087899565,9.2070436495,1.5267044305
283,1.17911950000007,-14.09713936,9.390468122,171.16695405000002,-3.264687419,-3.3755214215000002,9.486182570499999,-3.0384055375,8.997416496,0.20476019399999998
284,1.1832859999999525,-14.131271365,9.354744435,171.20542145000002,0.813127324,-2.870661974,5.853798747,-6.086295366,-5.468415737,2.8594774005000003
285,1.1874524999998357,-14.170297145,9.389259816,171.1975708,-4.273385286,-1.530285895,11.673846723,-5.6723691225,4.034838393,-0.3971102835
286,1.1916190000001734,-14.191257,9.411256315,171.21061709999998,0.03984588350000001,-3.5149173735,5.0474538805,-3.978934765,1.9747295530000002,1.6333238479999999
287,1.1957855000000563,-14.200560565,9.404754639499998,171.2217331,-3.6409064535,-0.9770248530000001,10.456393958,-2.545408368,-1.2776574045,0.571748108
288,1.1999519999999393,-14.252536775,9.483245370999999,171.23257445000002,-2.3065279719999996,-2.581974387,13.65599966,-7.6150171755,8.605250837,3.0379959345
289,1.204118500000277,-14.27815294,9.506603239499999,171.22708895,-0.5382092,-2.345671415,3.7946372035000002,-4.1998186115,2.6764314175,-0.442319408
290,1.20828500000016,-14.313821315,9.445878981,171.2629242,-1.566378817,-2.552468896,3.5508838889999996,-6.1435689925,-8.3228664405,1.7976007685
291,1.2124515000000429,-14.32428646,9.5287561435,171.25585934999998,-3.593629003,-1.3184213040000001,16.804525375,-2.322897673,9.646725894500001,1.1203411815
292,1.216617999999926,-14.339968205,9.596344472999998,171.2556534,-1.9660674930000002,-1.44003436,9.360741379,-3.0545489789999998,7.6513698075,1.48102171
293,1.2207845000002635,-14.325212475,9.5593609835,171.27499390000003,0.10307824600000004,-2.0862457450000003,5.3044309615000005,0.14346532550000002,-5.0624868275,0.6030679049999998
294,1.2249510000001465,-14.349916935,9.579575060500002,171.27700045,-3.3074887989999997,-4.6113309860000005,8.2028512955,-4.1433781385,2.0755342839999997,0.3161949515
295,1.2291175000000294,-14.377468584999999,9.6073193565,171.268219,-0.3144437670000001,-0.6365680775,9.5532858375,-4.3757761715,3.2901675999999997,-0.701304853
296,1.2332839999999123,-14.403396605000001,9.570551872,171.2796097,-2.827713847,-1.5280373694999998,9.096039772,-4.5103790759999995,-4.8211435080000005,-0.30445084
297,1.23745050000025,-14.380547525,9.617123604500001,171.27065275,-3.6930384634999998,-2.8293342590000004,11.818216325,1.7244080305,5.4760994915,-0.156618234
298,1.241617000000133,-14.396591189999999,9.660593512,171.2638397,-1.43632105,-1.688864112,6.7515065675,-2.9623953105,5.038621067999999,0.009823024000000014
299,1.245783500000016,-14.43711567,9.6068668355,171.27891545,0.428424358,-4.1473375555,5.66295135,-6.3910400865,-6.886829376,-0.3926661014999999
300,1.2499499999998989,-14.43186712,9.631408692,171.2779007,-4.1773605345,-1.0553842705,12.3186354655,-0.5000282530000001,2.6707966329999997,0.09091769150000001
301,1.2541165000002366,-14.41365862,9.6926641455,171.2599487,-2.1250411275000003,-0.8743828385,10.3380117395,1.3473023175,7.4435544015,-0.7371456925
302,1.2582830000001195,-14.421448705,9.729748726,171.2536392,-1.713959281,-3.7837078575,8.170715334499999,-2.0199705365,4.288418829499999,-0.12166121999999999
303,1.2624495000000024,-14.43915367,9.704056739999999,171.26538084999999,-1.200485498,-2.7683901785,8.088155033,-3.5670832394999996,-3.532709241,0.05395638950000001
304,1.2666159999998854,-14.445709704999999,9.733682154,171.254837,-3.187531829,-1.1118638515,9.98413992,-1.7437275049999998,3.5428904295000003,-0.8351521065
305,1.270782500000223,-14.460621835,9.7441678045,171.2526474,-0.10209304099999994,-3.496556878,5.6654069425,-2.9538272325,1.083379805,-0.45451822900000005
306,1.274949000000106,-14.444067480000001,9.734668731500001,171.26755525,-3.3347274065,-1.3551988005,11.672885415,0.48403224350000007,-1.7502462564999999,0.9008206835
307,1.279115499999989,-14.45497894,9.815880297,171.24952695000002,-3.232628107,-2.526941419,12.71201849,-2.105048269,9.761118171,-0.151111275
308,1.283281999999872,-14.47048092,9.8321743025,171.24955749999998,-0.030290007499999994,-2.3821510669999997,3.515759349,-3.1008530855,1.6880167725000002,-0.01454895749999996
309,1.2874485000002096,-14.514158725000001,9.792783736499999,171.2598343,-1.4829834515,-3.421785474,4.9172533155,-6.6043682095000005,-5.0893502235,-0.5240288969999999
310,1.2916150000000926,-14.508280755,9.8168277755,171.2659607,-2.9573841095,-0.9974952045000001,14.459649084999999,-0.6190319585,2.405407071,0.8990212824999999
311,1.2957814999999755,-14.515830990000001,9.913986208,171.23783875,-3.317512274,-1.093085304,10.262587429,-1.5076670345,11.91582727,-0.813905235
312,1.2999479999998584,-14.52424812,9.866046904000001,171.2616348,1.016284674,-3.278543353,5.5211586950000004,-2.734172463,-6.483379425500001,0.7749139220000001
313,1.3041145000001961,-14.558300495,9.8621869085,171.25774385,-3.1930814385,-3.417281866,7.638335464499999,-5.159840822,-0.5414085385000003,-1.0778406415
314,1.308281000000079,-14.583369255000001,9.8956809065,171.2438965,-1.082793355,-1.2999047634999998,10.8044395465,-3.9504384995,4.097758889,-1.0907694695
315,1.312447499999962,-14.590303895,9.877167704,171.24578094999998,-2.406758666,-1.572675109,7.7471778395,-2.0492604670000003,-2.413161993,-0.859658579
316,1.316613999999845,-14.60021496,9.899453638,171.24134825,-3.3514409064999997,-2.8049240115,10.647095199999999,-2.2866276505,2.509202659,-0.35134406399999996
317,1.3207805000001827,-14.639957429999999,9.933249474,171.2355423,0.2365434465,-2.4157265425,4.3079828025,-5.850374221999999,3.8905395565,-0.14222301550000002
318,1.3249470000000656,-14.68804455,9.863330363500001,171.26385499999998,-2.04186368,-2.69768858,7.4038917445,-7.559343815,-9.1689305315,0.5803415775
319,1.3291134999999485,-14.682646755,9.965835572,171.25540919999997,-4.5233350990000005,-1.2644682525,17.291354655,-0.32521756,11.941850901,1.6319276989999998
320,1.3332800000002862,-14.72131443,9.9929218285,171.26140594999998,0.608643614,-2.6304252740000003,-0.6549901965000002,-6.0333633424999995,2.7571299075,1.0119481605
321,1.3374465000001692,-14.799893860000001,9.9040174465,171.2886505,-2.1460897919999997,-3.764592886,7.1825188385,-11.1369752895,-11.341095925,-0.1419156345
322,1.341613000000052,-14.851152895,10.049285888499998,171.2600937,-5.0010011195,-1.429016888,16.476108075,-6.7552120685,17.50483227,0.684342146
323,1.345779499999935,-14.917449955,10.016218184,171.2766037,1.555821657,-2.3300675149999996,-2.276136331,-9.5070905665,-4.546451626,0.36723127999999994
324,1.3499460000002725,-15.027766230000001,10.020689961999999,171.2827835,-3.2840401155,-3.4156420229999997,10.39484072,-14.538597110000001,0.11982345599999977,0.31214791500000005
325,1.3541125000001557,-15.12152338,10.0797443405,171.2643051,-1.5317578315000002,-0.9026507305,10.849146844,-12.062212944999999,7.2160764639999995,-0.8207954465
326,1.3582790000000386,-15.21304941,10.0889129635,171.2790985,-3.006643355,-1.9932087065,7.42592302,-12.4759984,0.3931403160000002,1.452116132
327,1.3624454999999216,-15.29953766,10.135933876500001,171.2788162,0.6084075125,-3.226226926,1.3084448575,-11.612016917,5.242696211,0.9626022875
328,1.3666120000002593,-15.374060155,10.1150398265,171.29275515,-3.776007891,0.12068247799999998,12.463644025,-10.385952951,-3.0677287589999995,0.39757787450000004
329,1.3707785000001422,-15.467314720000001,10.2661018375,171.26457975,-1.6810360549999999,-2.640895307,4.2770820855,-11.845659735,18.105858325,1.2807955445
330,1.3749450000000252,-15.54264116,10.153758524,171.31004330000002,-0.39820039249999994,-2.078786433,0.6141848564999997,-11.189614772999999,-14.638852595,1.0465146600000002
331,1.379111499999908,-15.59916639,10.354693413,171.26676179999998,-5.6126207115,-1.5550906655,19.48253393,-7.032295941999999,24.374973294999997,1.082976669
332,1.383278000000246,-15.69511652,10.320391654,171.29851530000002,2.443300754,-2.595835626,-1.8642270564999999,-13.448289395,-5.183220921,1.9888752699999999
333,1.3874445000001285,-15.748911855,10.4030737855,171.27787015,-5.5606091025,-1.1751850845,8.46774745,-7.086159706,10.071917595,-0.449715644
334,1.3916110000000117,-15.83527613,10.510705473,171.26512910000002,0.8139442204999999,-2.4822408555,1.398551941,-11.3376002325,12.624181166,1.57570529
335,1.3957774999998946,-15.913445,10.459210395500001,171.29196165,-2.6543219985,-2.2644832135,9.6942480825,-10.977323057500001,-6.812660696,0.08318212650000001
336,1.3999440000002323,-15.976632115000001,10.6853051195,171.23632815,-3.436467111,-1.0876525935,11.2240167865,-7.575652838,27.67825699,0.6378012895
337,1.4041105000001153,-16.072700025,10.6097931885,171.25683595,1.210519433,-2.1644517185,-6.448167086,-13.228666785,-9.670990466000001,-0.3924039305
338,1.4082769999999982,-16.14878464,10.801814078500001,171.21612545,-4.568202257499999,-1.960563928,17.460404395,-9.4075570105,23.26166725,1.2496171594999999
339,1.4124434999998812,-16.235040665,10.788329599,171.22088624999998,0.5313675405,-1.611861229,-1.6457681649999998,-11.736272334,-2.0020234580000005,-0.13250261549999998
340,1.4166100000002189,-16.249575615,10.940324305499999,171.20547485,-4.549185276,-1.3237481715000001,14.50190878,-2.5144791900000003,17.804041503,2.8203146455
341,1.420776500000102,-16.33052826,10.986968996,171.20690155,2.5909868475,-2.1561436655,-7.3795994065,-11.037159445,5.15264225,1.1275584099999998
342,1.4249429999999845,-16.36455822,11.0680546745,171.21217345,-5.760299325,-0.5170792790000001,17.06131649,-5.267959356,8.942094325,2.787207723
343,1.4291094999998677,-16.44557476,11.214942935,171.16732025,0.4091622825000001,-3.20630908,-3.7666354180000003,-9.997319223,18.191239715000002,-0.5564308800000001
344,1.4332760000002054,-16.475811955,11.2038335815,171.2054443,-2.160855174,-1.688614786,11.5906238555,-5.6095125675,-2.7712826749999993,3.3895521165
345,1.4374425000000883,-16.526458740000002,11.370776175,171.16210934999998,-1.3041177395,-1.1442751885,7.226530314,-6.3411331175,20.444276335,0.325531259
346,1.4416089999999713,-16.531594275,11.363903520000001,171.18632505,-1.9287292360000001,-1.3591027855,3.5259373195000006,-2.3225644675,-1.8213129049999996,1.9702789785000001
347,1.4457754999998542,-16.57962799,11.513652324999999,171.15669250000002,-0.08820259600000013,-2.825629115,2.1427130700000006,-6.303094864,18.0104594235,1.2813975215
348,1.449942000000192,-16.56731701,11.518968104999999,171.17638395,-2.780201152,0.335637286,8.2688725585,-0.1109480485,-0.2670149799999999,1.863980055
349,1.4541085000000749,-16.625803945,11.64058781,171.1295853,-0.8615959885000002,-3.9000061749999997,-3.1469154345,-7.1667566295,15.347987772,-1.5837220024999998
350,1.458274999999958,-16.639468190000002,11.668955805,171.1440811,-2.1772141455,-1.511082053,14.289115903499999,-3.1080587504999997,2.55770111,2.066525221
351,1.4624414999998405,-16.68240261,11.75635481,171.103508,-1.3691602944999999,-1.17414397,3.9986166955,-5.3974658845,11.203525035,-2.065359205
352,1.4666080000001784,-16.676460265,11.7825737,171.11762240000002,-0.12973135700000005,-2.0416049960000002,0.07915234600000032,-0.82270366,2.32394135,1.962338686
353,1.4707745000000614,-16.706267355,11.893232345000001,171.06562805,-4.231772422500001,-2.174761772,5.4870209695000005,-3.4479265215000003,14.254779815,-2.5386980625
354,1.4749409999999443,-16.795989034999998,11.8698802,171.10437009999998,2.9935883435,-1.936845839,2.3667416570000004,-12.972234247500001,-4.204724669,3.0267897245
355,1.479107500000282,-16.823100089999997,12.009394645,171.04270935,-5.656112552000001,-2.2277154325,8.5790891635,-2.8878713845,17.906487464999998,-2.5996086595
356,1.483274000000165,-16.857546805,11.997033115,171.09101105000002,2.0542206165,-0.906712465,2.6319119929999997,-6.5289599895,-3.2770086525,4.4661946295
357,1.487440500000048,-16.94698334,12.067951675,171.0450592,-4.5386031865,-1.449848205,5.748077035,-10.775854349,9.495116949,-3.1875187755
358,1.4916069999999308,-16.97911453,12.132524015,171.09976195000002,3.067322969,-1.9607656599999999,-3.093769431,-6.442755699,5.326486945,7.873080492
359,1.4957735000002685,-17.034605980000002,12.166450975,171.0642395,-6.788161039,-2.1930294034999998,8.953592301,-6.9431187515,4.900561094,-3.3079316615
360,1.4999400000001515,-17.111194615000002,12.2118392,171.12981415000002,4.2086615565,-1.7490158080000002,7.300317049,-12.00669289,2.7270838470000003,8.4356200695
361,1.5041065000000344,-17.180545809999998,12.251873015000001,171.09654999999998,-5.5729031565,-1.131788969,4.738847494,-8.743323800999999,5.5377476795,-2.8278312085
362,1.5082729999999174,-17.207504274999998,12.302681445000001,171.1426773,1.476885018,-0.8559357825,4.086155176,-5.507132649,3.9978580459999997,6.4501211645000005
363,1.512439500000255,-17.28077698,12.28907728,171.12186435,-3.086631775,-1.7636986080000001,0.37618237750000005,-9.573918106,-1.0349063849999993,-3.3303694425
364,1.516606000000138,-17.262882235,12.35851192,171.15652465,0.5161964889999999,-1.283945959,14.481710435,0.234248653,6.51445961,5.834161997
365,1.520772500000021,-17.288077355,12.260155675,171.15205385000002,-1.4719097615,-1.0623368025,-3.5084227324999997,-4.2889335155,-11.308480261500002,-4.510648012
366,1.524938999999904,-17.27664566,12.3306303,171.17615510000002,-2.5027664305,-1.7304342985,17.76973534,-0.22855567900000007,6.995483875,4.691376403
367,1.5291055000002416,-17.279479025,12.209517,171.18283839999998,0.8114069030000001,-1.0445137025,-3.199447513,-1.9211195705000002,-14.296400071,-4.082633555
368,1.5332720000001245,-17.17022514,12.166306015,171.2193298,-4.6634967325,-1.2600841520000001,15.486820695999999,11.207111359999999,-6.463451385,2.0295590165
369,1.5374385000000075,-17.114031795,12.182620530000001,171.2045441,0.37336400150000004,-1.0344581005,-0.6200642600000004,5.7303481099999996,2.194438459999999,-1.589505315
370,1.5416049999998904,-17.016036035,11.980688575,171.27419279999998,-1.4263032894999998,-1.0309597705,8.200213311,8.9873552305,-25.802244185,0.17426943800000005
371,1.545771500000228,-16.907212255,12.087577345,171.22893525,-4.4904499055,-1.451779425,11.9117693925,12.87701702,13.6266314965,-1.8577247860000001
372,1.549938000000111,-16.777159689999998,11.836423875,171.2936478,2.8302171675,-2.737204075,-3.4781703935,12.898207665000001,-31.286273955,-1.9624234440000001
373,1.554104499999994,-16.614032745000003,11.88950062,171.25975035,-6.350314856000001,0.2944193035,18.49339628,19.155656815,7.0507500195,-2.5183150765
374,1.558270999999877,-16.47865486,11.7338748,171.2895813,2.6865502594999997,-3.8820390700000003,-2.9513492584999996,14.3519001,-19.13341713,-2.4461106655
375,1.5624375000002146,-16.30098152,11.698695185,171.29426575,-6.129471540499999,0.5263771715000001,13.050785065,20.021575929999997,-4.403896809500001,-1.2288820745
376,1.5666040000000976,-16.194557189999998,11.635410310000001,171.26457215,1.0780833959999998,-4.955438137,-4.381984502,12.320701836,-6.554318429499999,-5.9313386755
377,1.5707704999999805,-16.03988171,11.5365386,171.2848053,-3.8973187209999995,0.1319562355,18.04923916,16.891736029999997,-12.252729414500001,-1.5839881895000003
378,1.5749369999998635,-15.95348835,11.564273355000001,171.19050595,-1.200056076,-3.8087973594999998,-3.1743580090000005,11.44624758,6.015801905000001,-10.191059471500001
379,1.5791035000002012,-15.80741167,11.479469775,171.2092743,-2.8247246740000005,-1.2023258805,8.7376914025,15.874412535,-10.584288119500002,-1.244739294
380,1.583270000000084,-15.78138018,11.568017955,171.11530305,-2.5938176515,-3.7116714715,3.5047926885,4.2320297955,12.996328113,-8.2204864
381,1.587436499999967,-15.71894741,11.540869235,171.13693999999998,-0.060361504499999996,-1.5486154555,3.881647475,5.708023845,-4.024681866,1.0169359445
382,1.59160299999985,-15.703183169999999,11.690740585,171.0525055,-5.5428943635,-3.4473410844999997,9.447487592,2.8528321385,19.76832819,-5.197932124
383,1.5957695000001877,-15.75073147,11.6939292,171.08985135,2.292003632,-2.2771767375,-4.8139730695,-7.9207491875,-1.0260152800000002,3.8147478104999997
384,1.5999360000000706,-15.813621525,11.903247835,171.02227019999998,-5.279925823499999,-1.8765774965,9.680466177,-7.013242127,26.10580063,-1.330334306
385,1.6041024999999536,-15.883570670000001,12.01078987,171.0527191,-0.07533729050000004,-3.9413988885,3.875096321,-10.400528431,11.226051093999999,6.438966036
386,1.6082689999998365,-15.984151845,12.171407219999999,171.0349655,-2.7694846395,-1.353774786,13.173113825,-12.728866575,18.881059408,2.767306328
387,1.6124355000001742,-16.15921879,12.35842371,171.0525055,-0.6281254294999999,-1.9140018225,-1.722077057,-22.763098714999998,20.786019803000002,7.669185877
388,1.6166020000000572,-16.315075874999998,12.57763147,171.0168991,-2.113997817,-3.071874231,0.5973868219999999,-18.88899803,26.197319505,2.8254766465000003
389,1.62076849999994,-16.483304975,12.776838305,171.03746795,-1.5214595195,-1.5305725630000002,5.296568618999999,-21.925569055,22.031750680000002,8.5463314055
390,1.624935000000278,-16.677352905,12.950597290000001,170.99666595,-1.537104517,-1.5673354270000002,9.3314559455,-23.38453102,21.126761440000003,0.853531301
391,1.6291015000001605,-16.859267235,13.14642763,171.0087357,0.27911254750000003,-2.1246786115,0.45990633950000026,-23.347649575,21.87324333,7.614704132
392,1.633268000000044,-17.027814865,13.34531212,170.94094085,-2.8411012589999998,-0.701016501,7.4129238410000005,-19.589405059999997,24.92210293,-1.1446242629999999
393,1.6374344999999266,-17.171152114999998,13.49162245,170.947464,0.3710370660000001,-2.201801896,6.559076786,-18.458724975,16.329092979000002,5.3842372895
394,1.6416010000002643,-17.354249000000003,13.613121034999999,170.90213775,-1.5877967475,-0.7873560039999999,3.1833890675000003,-22.012256620000002,15.2841897025,-1.251577616
395,1.6457675000001473,-17.48543358,13.7881546,170.88043975,0.26906430699999984,-1.125851512,1.5135598775,-16.229028705,20.567559244999998,3.373422116
396,1.6499340000000302,-17.602176665,13.86117506,170.84805295,-3.6926342845,-1.385899991,6.1546387675,-14.310234545,9.278356314,-1.487790167
397,1.6541004999999132,-17.72260666,13.946349145,170.84521485,2.9278370144999997,-1.7637723385,7.405433178,-15.548363685,9.61899984,2.2723293005
398,1.6582670000002508,-17.756337164999998,14.030605314999999,170.795105,-4.22803998,0.571777731,8.8602087505,-3.7950500845,11.191649913500001,-3.00362137
399,1.662433500000134,-17.77430725,14.01956844,170.82389834999998,2.2618091309999997,-1.803738177,0.22363829600000007,-4.140074253,-2.5071151255,2.278162573
400,1.6666000000000165,-17.834030155,14.06752157,170.77644345,-3.6009243724999997,-0.8806165755,5.5996139645000005,-7.064490794999999,6.9601580225,-4.019598186
401,1.6707664999999,-17.801114085000002,14.077569964999999,170.7966156,1.043527603,-1.9191547629999999,6.07555604,2.2959578035,0.19726848500000038,2.0900577604999997
402,1.6749330000002374,-17.75667286,14.02440262,170.78727725,-2.0872718690000003,-0.6258167324999999,2.3878247734999998,4.270745397,-5.944079042,-3.5193194749999996
403,1.6790995000001203,-17.73540783,14.05402088,170.78910059999998,-0.5316798015,-2.3339349030000003,12.1134769935,1.4689252005,3.0795098540000003,0.7902507784999999
404,1.6832660000000033,-17.674216270000002,13.942813395,170.8086853,-0.7913233935000001,-0.011422149999999992,4.490483286,5.4292659155,-13.5979423535,-2.4282293315000003
405,1.6874324999998862,-17.585344315,13.95715761,170.79882049999998,-1.5418372155,-2.8965591195,0.02413630500000008,9.878022192500001,1.747384131,-1.0629136565000001
406,1.691599000000224,-17.485795019999998,13.84454298,170.82351684999998,-2.100541942,0.2493595835,9.262935755500001,9.958785295,-13.953813555,-1.8736697435
407,1.6957655000001068,-17.429944035,13.790261749999999,170.8278809,-0.725049794,-3.2191185955,6.3035880945,5.4838609695,-6.605316639,-1.966392398
408,1.69993199999999,-17.26955414,13.715415955000001,170.86377715,-1.021755278,0.03209495550000008,8.004639865,16.925795555,-10.015111687000001,0.7675693034999997
409,1.7040984999998725,-17.135987280000002,13.578353405000001,170.8770294,-2.4551172255,-1.9025456905,2.2840235755,14.578701495,-16.40753317,-3.8780996785
410,1.7082650000002104,-17.01049042,13.562423225,170.9197464,-0.042915348000000006,-2.892101407,11.98558736,12.556593894999999,-3.4861811400000002,3.6607738140000006
411,1.7124315000000934,-16.90225792,13.346786975,170.93624115,-2.9582629205,-1.3744375375,4.019102575,11.447259899999999,-25.549724575,-6.2092983715
412,1.7165979999999763,-16.73708916,13.41285372,170.95645145,-0.9809081849999999,-1.900635641,8.003703893499999,18.024694445,6.6972801685,4.024382055
413,1.7207644999998593,-16.622310640000002,13.155085565,170.97721860000001,-1.716445148,-2.0038112845000002,-0.8702271355,12.00980282,-30.544883730000002,-7.06257534
414,1.724931000000197,-16.528872489999998,13.263792989999999,170.98945615,-2.284603387,-2.4815200865,19.231516835,9.728679657,11.8718745725,4.571751118
415,1.72909750000008,-16.38836098,13.028197765,170.9941101,-1.731496066,-0.8511706735,-0.3344988840000003,15.51119614,-27.4776268,-8.0079844
416,1.7332639999999628,-16.251994135,13.104920865,171.0250397,-1.659830857,-4.1514679195,7.8651374585000005,14.37876463,7.5911831855,5.5496519805
417,1.737430499999846,-16.17247105,12.941414835,171.0181732,-2.7125435025,-0.4800325634999999,7.7352290135,8.4831388005,-18.817348485,-6.785286071
418,1.7415970000001835,-16.10803652,13.0092268,171.04381560000002,-0.6145636440000001,-4.4483917955,8.3275442105,5.937155485,6.7445172075,4.657552839999999
419,1.7457635000000664,-16.00175333,12.85568571,171.05297085,-2.0276925265,0.17192327949999997,4.708970072,11.23682451,-18.195167065,-4.6209403275000005
420,1.7499299999999494,-15.941579820000001,12.94017124,171.05342865,-2.4714697374999997,-4.3659809825,7.153012872999999,6.105288386,9.490442039000001,2.3601858614999998
421,1.7540964999998323,-15.885868075000001,12.842449665,171.05088805,-1.6192693710000001,-0.09684562699999999,9.845670702500001,5.484348297,-11.389852881000001,-4.0584106465
422,1.75826300000017,-15.87977171,12.882837774999999,171.04766080000002,-1.6164607405,-4.785565614999999,4.3690605165,-0.291509092,4.5238540149999995,0.4900078775000001
423,1.762429500000053,-15.79643774,12.804294585000001,171.0654907,-1.3501408099999999,0.4668575005,13.910106896999999,8.2826936245,-9.8310251215,-1.1368784905000004
424,1.766595999999936,-15.812974454999999,12.86750889,171.0298462,-3.1563369635000003,-4.4483752249999995,0.24953651399999988,-2.1861435325,8.196538445,-2.4113233085
425,1.7707625000002736,-15.778614045000001,12.823614125,171.05973055,0.6664930580000001,-1.0154966710000002,11.786040306499999,2.1077389715,-6.218131545,1.3706424235000005
426,1.7749290000001565,-15.806009294999999,12.835100650000001,171.02602385,-4.090788126,-3.2815806865,3.8000320795,-3.5410730834999997,2.1672725699999997,-3.8962975764999994
427,1.7790955000000395,-15.804412365000001,12.88616848,171.0473022,-0.03693217000000004,-1.118894041,13.68572998,-1.5930269330000002,5.016783235,3.5107532740000003
428,1.7832619999999224,-15.870584015,12.866647245,171.0061493,-3.5851854085,-3.626475692,-1.9522566795,-8.011168717,-1.1703433999999993,-5.7552200085
429,1.78742850000026,-15.881968975,12.940905095,171.04861449999999,0.5356131794999999,-1.1022370160000001,19.007327075,-3.710984826,7.006496907000001,6.667561652
430,1.791595000000143,-15.953015324999999,12.945497515,170.99356845,-4.908712983,-1.7257171420000001,1.4406843184999998,-8.2139809135,2.0676193219999996,-6.5252603275
431,1.795761500000026,-15.948705194999999,13.061998845000002,171.02314760000002,2.0580301285,-2.3881388904999996,11.901717661,-1.464981884,12.2838843465,6.622262597
432,1.799927999999909,-15.99483824,12.97486067,170.98844150000002,-3.978888154,-1.72319147,-1.159111768,-5.834854126,-9.154455426,-7.2809963225
433,1.8040945000002464,-16.038481235,13.157280925,170.9939957,0.1272300185,-2.3278427419999996,17.796875,-6.511597633499999,20.6434307085,6.1379106045
434,1.8082610000001296,-16.096865655,13.053569795,170.95568085000002,-2.7260324359999997,-2.001589358,0.9601510760000003,-7.2137451175,-10.934330879,-8.2581019405
435,1.8124275000000125,-16.113398075,13.205965045,170.98394009999998,0.581536144,-2.2291190624999997,11.092842819,-3.911660075,16.43484831,7.7223804
436,1.8165939999998955,-16.175395965,13.124185565,170.9395981,-4.7830001115,-0.3202987315,5.774256753,-7.4727041715,-8.1938471795,-8.232128379999999
437,1.8207605000002327,-16.223872185,13.29634523,170.9544983,1.3265184985,-4.8631772995,10.125030874,-7.333966732,19.12446022,6.932309984
438,1.824927000000116,-16.247068405,13.170207025,170.93825529999998,-3.2403867245000004,1.3312337695,3.7977945825000003,-3.6229361295,-14.201067925,-6.5977235445
439,1.829093499999999,-16.28264427,13.360866545,170.93761445,-0.9072685835000001,-4.3592187165,10.372326313,-5.34559679,21.752098085,5.835291161
440,1.833259999999882,-16.313072204999997,13.248907565,170.91881560000002,-2.404194236,0.8901474475,6.2278420924999995,-4.426428914,-12.478507995000001,-6.4223546365
441,1.83742650000022,-16.34649181,13.395923135,170.91615295,-0.3509986399999998,-4.1212316755,8.845470189,-5.024137497,16.780167105,4.17794025
442,1.8415930000001024,-16.31798172,13.25811863,170.9324417,-1.017487049,1.0782802105,8.795626102,1.6759469654999999,-16.5971064575,-3.3851687904999994
443,1.8457594999999856,-16.320363999999998,13.41595459,170.9030838,-3.7187266325,-4.8310830595,11.30641061,-0.5663502515,18.9041061395,1.559642077
444,1.8499259999998685,-16.289875029999997,13.25102949,170.9476166,1.7272839544999998,1.0178923014999999,2.783753871,1.118229151,-20.648180485,-1.1297709935000002
445,1.8540925000002064,-16.26472473,13.360640530000001,170.90458675000002,-5.470050661999999,-4.4698338505,13.302001476500001,3.1579858625,13.793607714,-1.6148498055
446,1.8582590000000887,-16.26114082,13.237814905,170.96097559999998,2.9246170520000003,-0.145391876,3.2038552774999998,-2.4652616975,-16.18143129,1.6369793415
447,1.862425499999972,-16.241595269999998,13.338150025000001,170.9082565,-5.9664506600000005,-3.9207093715,13.3809561745,2.7392060755000003,13.044826985,-3.0214166654999994
448,1.866591999999855,-16.209749225,13.167392249999999,171.00082394999998,3.2750779385,0.491680369,-2.1852009295,-0.06625157599999998,-22.88929653,4.1176583765
449,1.8707585000001927,-16.19183731,13.29067898,170.9312973,-7.5539991255,-3.3038332465,22.24778795,3.0045312644999997,16.2422969335,-4.1826473454999995
450,1.8749250000000757,-16.144895555,13.125139715,171.02521515,3.4743311404999995,-1.059852004,-3.553726674,1.78236115,-22.342177395,4.4911067485
451,1.8790914999999584,-16.086111545,13.218870639999999,170.9656067,-6.5106111775,-2.051229775,17.546413424,7.5681185725,12.522587726500001,-4.1052142385
452,1.8832579999998416,-16.05478716,13.06136751,171.05330659999998,3.772923857,-2.6584782005000003,-2.0287884175,0.07965874700000009,-21.207012417,4.1045366525
453,1.8874245000001797,-16.008284565,13.12586975,171.0085602,-8.268201351,-1.3065078405000001,22.53741646,5.695961475000001,8.666824819,-3.4125151635
454,1.8915910000000624,-16.0096097,13.04921627,171.06471255,3.9514015915,-3.4680860045,-6.159915208999999,-2.955212295,-10.8667602565,3.279628873
455,1.8957574999999447,-15.958058355,13.02248764,171.0525055,-6.181988835,-0.454803683,21.352636335,5.4044584035,-2.9002523399999998,-2.810504332
456,1.8999240000002828,-15.943748,13.03624916,171.0758133,2.054503918,-2.7820048330000002,-2.5019233450000002,-0.20875644700000007,0.6256656649999996,2.594781086
457,1.904090500000166,-15.882798195,12.972943780000001,171.08023070000002,-5.2766888125,-0.869788542,17.721365927,6.118904829,-7.659490585,-2.137452155
458,1.9082570000000487,-15.881904599999999,13.06048298,171.06961059999998,0.6777000430000002,-3.800726652,2.4327847979999997,-0.913340755,10.232163905,1.2034480275000001
459,1.9124234999999317,-15.838898180000001,12.894289494999999,171.104805,-2.3234272,-0.3753697945,10.038523437,3.1102941040000003,-20.5197646625,-2.0457285195
460,1.9165900000002691,-15.77650261,13.000056265,171.0903244,-2.9036474224999997,-2.978787541,7.990389347,6.636157989499999,12.460194825999999,1.333426744
461,1.9207565000001523,-15.785419465,12.847540855,171.1227188,-1.2969961165,-2.025009781,4.7403106699999995,-3.114576742,-18.850978375,-1.8615987305
462,1.9249230000000357,-15.775259495,13.009311675,171.08853915,-2.89729923,-2.299063802,19.79987955,0.950506568,19.556122780000003,0.915177643
463,1.9290894999999184,-15.749302385,12.81047964,171.136055,0.8392704725,-1.9867491125,-7.036016942,0.605648443,-24.68249321,-1.6341705475
464,1.933256000000256,-15.70399284,12.96064949,171.1116562,-5.145382881,-1.169902042,26.127372740000002,4.9669026135,17.905353101000003,1.5979264375
465,1.9374225000001388,-15.699836255000001,12.82285547,171.13555145,1.29040432,-3.7820718290000004,-4.5185701819999995,-1.424248159,-16.8789652505,-2.282415271
466,1.941589000000022,-15.64980936,12.93981552,171.1352539,-4.971533774999999,-0.17964816099999997,20.109622,4.9173409935,13.306628463500001,3.2169773580000003
467,1.9457554999999047,-15.67301941,12.83759594,171.1519089,1.7558496000000001,-3.700379014,-5.261649846999999,-4.5356010499999995,-12.5428857785,-1.9304887055000002
468,1.9499220000002424,-15.616738315,12.861347675,171.19978335,-5.4278726575,-1.333674669,24.26416111,4.3936694265,1.0176944699999986,5.620578527499999
469,1.9540885000001251,-15.644766805,12.89984655,171.16683195000002,0.38945960999999985,-1.5424821975,-2.2844083310000003,-3.819256485,5.28626156,-2.959988952
470,1.9582550000000083,-15.603423115,12.8261528,171.23255154999998,-2.7135920525,-1.5003311634999998,15.138973711999999,2.1565393210000003,-10.810760495,4.4838836195
471,1.9624214999998917,-15.593729495000002,12.917921065000002,171.18948365,-0.8802499770000001,-3.2226420645,2.6258275484999998,0.970619604,11.7652864435,-2.3824138045
472,1.966588000000229,-15.568107605000002,12.768956185,171.2659988,-0.9300336835,-0.41874516,10.537137745999999,-0.018235087500000136,-19.851830838,3.290747762
473,1.970754500000112,-15.559094905,12.935708524999999,171.19730375,-5.025840045,-3.641490698,14.6143190845,1.5846315624999998,21.239064695499998,-2.8864969835
474,1.9749209999999948,-15.542573455,12.751882075000001,171.281044,2.0246255394999997,-1.2824028729999999,-3.6222028754999993,-1.363420382,-24.105473515,3.0180121360000003
475,1.979087499999878,-15.494881150000001,12.906767845000001,171.22990414999998,-5.7604151985,-0.805598546,21.4652161595,5.8285672665,19.318582055,-1.343837261
476,1.9832540000002155,-15.49879217,12.751002785,171.29543304999999,1.2174916265000002,-4.1985577345,-4.3967335215,-3.3567415475,-20.295003414500002,1.9233071804999997
477,1.9874205000000984,-15.44608784,12.871407510000001,171.26392364999998,-4.666949272,0.40550743050000004,24.392882345,5.928361177,14.720546008500001,-0.2638103964999998
478,1.9915869999999811,-15.43342209,12.737226005,171.3006668,1.9312784075,-4.0725462435,-9.0769825005,-0.6609526875,-16.894159796,-0.6003270144999999
479,1.9957534999998645,-15.383171555,12.775501255,171.30885315,-5.4552886485,-0.6140729785,24.43759823,4.6169121265,3.984520915000001,1.563701391
480,1.999920000000202,-15.396685125,12.81831312,171.2725067,-1.5814760925000002,-3.9091051815,1.3408389985,-1.7926191205000002,5.846840380000001,-3.193313596
481,2.004086500000085,-15.30273914,12.701062205,171.34120945,1.5054039955,1.4726240635,9.1409226675,8.1918148985,-15.87617278,3.444062708
482,2.008252999999968,-15.27148819,12.845533369999998,171.2632065,-6.9868046045,-4.441328764,10.2723712905,4.6536708475,18.8999255905,-4.6934235085
483,2.012419499999851,-15.225111485,12.64599323,171.37670135,4.2949235434999995,-0.8956181555,7.191645147500001,1.312148444,-26.78575945,5.956008778999999
484,2.0165860000001885,-15.162341115,12.83165216,171.27410129999998,-9.505093931000001,-1.724694371,18.1935377095,9.114810707,24.425152775,-6.2386386400000005
485,2.0207525000000714,-15.123537065,12.655837535,171.39736175000002,7.4463200585,-3.7959277035,-6.4081579465,0.10150891500000003,-24.326066015000002,7.8857767605
486,2.0249189999999544,-15.081309795,12.680983065,171.33033755,-10.174258948,1.0642935035,22.461404799999997,5.722048402,4.7385077465,-7.310758590999999
487,2.0290854999998373,-14.995900630000001,12.707588195,171.4236069,3.840361595,-3.6612015364999997,5.1123991015,6.513631462,0.049601074999999994,10.869039059999999
488,2.033252000000175,-14.898832800000001,12.54680014,171.409256,-4.397247940000001,-1.1043390035,4.3892512319999994,10.851612092,-18.417320253,-7.135995388
489,2.037418500000058,-14.8059659,12.68274164,171.44792174999998,-2.800299227,-2.176810123,23.133047101499997,8.9789578935,14.393374439999999,8.048776388
490,2.041584999999941,-14.73296356,12.512284755,171.44939425,1.2179601189999998,-2.8929063079999997,0.8713674520000003,7.4222917555,-20.021814345,-5.5640671255
491,2.0457515000002786,-14.60385418,12.483115675,171.50507355,-2.4468951519999997,-1.468935471,14.1178298,12.97657251,-5.259982347,4.899953663
492,2.0499180000001616,-14.48735523,12.442364215,171.4877548,-2.2437678575,-1.0597832205,6.1214629395,13.094339845,-4.416228534,-3.7042932285
493,2.0540845000000445,-14.4034214,12.387337684999999,171.538887,-1.6108509745,-3.374745846,13.834753035,7.6638383845,-8.1084440925,3.6314913985
494,2.0582509999999274,-14.300508975,12.250793455,171.53731535,-1.8196335435,-1.7903560845,2.8618713619999996,11.06648779,-16.0220782765,-4.756878256499999
495,2.062417500000265,-14.14080572,12.258745195,171.57262425,-4.3601887225,-0.9937021064999999,21.89196491,17.229147915,-0.31235361500000014,3.7216225269999996
496,2.066584000000148,-14.018074989999999,12.212061405,171.54860685,0.8689818235,-2.4346277709999997,5.785696149,13.952919484999999,-4.9381485000000005,-4.595483944
497,2.070750500000031,-13.9142313,12.059605595,171.60941315,-2.2247104345,-4.8480284215000005,9.278708013,9.8918263895,-19.702026367,1.977172375
498,2.074916999999914,-13.809490205,12.076001645000002,171.5637741,-2.4727508125,0.429225594,11.307486536499999,12.36949396,3.0095458035,-5.250721404
499,2.0790835000002517,-13.706876755,11.949831005,171.61315155,-2.9977027175,-4.1580849885,13.685380938000002,10.008310316500001,-16.3125515,1.530131817
500,2.0832500000001346,-13.597960950000001,11.97158194,171.5851059,-0.22025573249999997,-1.67483592,8.2392380235,12.436873673000001,3.1282737255,-3.1222615245
501,2.0874165000000175,-13.478221895,11.745343685,171.64385985,-0.468285501,-2.262111902,4.5128413435,11.812212944999999,-28.22979832,-0.14232611650000004
502,2.0915829999999005,-13.381268025,11.8513093,171.6152725,-5.421515465,-1.4175654205,25.287469865000002,11.0679225945,12.9593183985,-0.8669383525000001
503,2.095749500000238,-13.295325755,11.684326169999999,171.65079500000002,1.3091304304999998,-4.969596505,-1.6254954335,8.2681853775,-20.682347298,-1.0183367730000001
504,2.099916000000121,-13.236630439999999,11.579521655,171.66407775,-4.4891186725,0.04675497149999999,12.5183401125,5.507286549,-12.786174478,-1.9302392005000002
505,2.104082500000004,-13.167732715,11.574901579999999,171.6454468,-0.21440815950000003,-3.510470271,11.256837844000001,7.5341134055,-0.25149297699999984,-2.747632347
506,2.108248999999887,-13.082662105,11.416735175,171.67971805000002,-3.6937550905000003,-2.514477134,15.307751654,8.117775439999999,-19.58022785,-0.9183992145
507,2.1124155000002247,-13.041779994999999,11.471822265,171.63607025,-2.3917863665,-2.7335112095,11.6722149845,4.7884473204999995,7.390098095,-4.004292905
508,2.1165820000001077,-13.005716325,11.240690709999999,171.69137575,1.1348011494999999,-2.564157009,-0.914934635,1.7028291224999998,-28.666185374999998,-0.4323039055000002
509,2.1207484999999906,-12.98054695,11.356537345,171.63938905,-8.383931875,-1.2355452775,26.11468315,3.181103587,14.7085173875,-3.369260192
510,2.1249149999998735,-12.94743061,11.305380345,171.65921020000002,3.0523626805,-2.7272502480000003,4.314635277,2.1316424605,-6.678838016,0.3905791045000002
511,2.1290815000002117,-12.928282735,11.159504890000001,171.65152740000002,-4.833035349999999,-4.661416173,10.6986805185,1.4187215715000001,-17.0659422855,-5.3520313505
512,2.133248000000094,-12.924510475,11.238231655,171.6424408,-0.14313802099999995,-0.465914011,14.305429099000001,-0.6681730149999999,9.274563907000001,0.5511028764999999
513,2.137414499999977,-12.94665766,11.121958735,171.6431198,-3.05302757,-2.949933052,13.464526175,-3.8417963385,-13.816621784999999,-3.574985981
514,2.14158099999986,-12.936065195000001,11.253828525,171.63773344999998,-4.247322679,-1.8630856574999999,14.620299817,0.1681831405,15.37829733,2.405849576
515,2.145747500000198,-12.958186625,11.083868978,171.65951539999998,2.927238226,-3.2428574560000003,-8.4599189745,-4.4144116385,-20.64776611,-2.5691535475
516,2.1499140000000807,-12.983476164999999,11.116053578999999,171.6658707,-7.590462923,-2.6366361975,26.080978395000002,-4.3251369,3.4050426500000004,1.0604613875
517,2.1540804999999636,-12.999500274999999,11.20292902,171.62953185,1.1528955694999998,-0.51511845,12.383182525,-2.371641636,10.924144385,-2.3219503164999997
518,2.1582469999998466,-13.026843549999999,11.035407541,171.67137150000002,-1.197826356,-5.005813599,2.9921464930000004,-5.440318346,-20.88844967,-0.2442956865
519,2.1624135000001843,-13.085814475,11.102046488,171.62795255,-4.5030536654999995,-1.5861405135,15.677365780499999,-7.2727210525,8.747909546,-3.6930286885
520,2.1665800000000677,-13.12568617,10.9890103365,171.6730194,1.6008536815,-1.7811224165,11.465198042499999,-7.0839447975,-14.600277425000002,1.581071168
521,2.17074649999995,-13.10477352,11.045534609499999,171.65520475,-6.7593853475,-1.1642219125,21.39528179,1.7492480275,6.891191600999999,-1.053276688
522,2.174912999999833,-13.11587572,11.076743126,171.66702275,1.305164367,-2.9185739755,-0.0952522754999996,-2.8707731965,3.139256475,1.725279063
523,2.179079500000171,-13.168393615,10.914531709,171.69548795,-1.6846532225,-2.4269914625,8.7191067325,-8.1583738335,-19.907518865,-1.70366813
524,2.183246000000054,-13.142174245,10.975414753999999,171.67771915,-4.5178641079999995,-2.1245319845,19.1620779,2.374420583,7.3945670125,-0.878401816
525,2.1874124999999367,-13.081912514999999,10.962909220499998,171.67331695000001,0.06612718099999992,0.356974736,4.6620835065,6.0695559975,-1.5333194734999998,-1.3675185445
526,2.1915790000002744,-13.05507803,10.8804574005,171.68831635,-2.624525547,-4.820897579,14.312302115,1.691282861,-10.229783294499999,-1.033374222
527,2.1957455000001573,-12.993962765,10.910721777500001,171.68862915,-3.4606444835000003,-1.6573600769999999,21.532987595,6.0904574395,3.340538502,0.324481189
528,2.1999120000000403,-12.94595432,10.898861407,171.6818619,-2.4691362385,-1.643645525,10.5852038835,4.7372188565,-1.4099997285,-1.59426862
529,2.2040784999999232,-12.846485139999999,10.834117413,171.7017212,0.9923070965,-2.155009389,6.7377080915,10.2096104635,-8.276837587,0.02278387549999983
530,2.208245000000261,-12.76393843,10.774502276,171.7045517,-3.86282444,-2.8200238945000002,10.2029671645,8.6704773905,-7.2492715125,-1.774093181
531,2.212411500000144,-12.66204834,10.723076822,171.72440335,-0.8931829929999999,-2.4603458645,16.220737455000002,10.563933847,-6.727509737,0.410250381
532,2.216578000000027,-12.55953407,10.720373154,171.70572664999997,-3.7986259460000005,-2.5816955564999997,16.924391749999998,11.5391073225,-0.03201794599999985,-2.734915793
533,2.22074449999991,-12.44023132,10.6413254735,171.7123413,-0.6380243005,-2.3438328505,15.60687542,12.93992376,-9.621367933,-1.8037867545
534,2.2249110000002474,-12.332990644999999,10.594833850499999,171.69503785,-2.531134605,-1.9939723015,14.2921195025,12.026186465,-5.20028615,-3.7047219274999996
535,2.2290775000001304,-12.21857214,10.504617215,171.7313614,-0.14392530949999993,-3.042820573,12.27099609,11.70074558,-11.682393551,1.382138133
536,2.2332440000000133,-12.12058401,10.4627566335,171.7167511,-3.7111070154999997,-3.0318349005,11.982741358,10.892307521,-4.7409328815,-3.268101096
537,2.2374104999998963,-12.01700258,10.3898601545,171.76076505,-1.3893348575,-2.3397127985,10.699505328499999,10.2106361365,-9.822939158,2.73673445
538,2.241577000000234,-11.950938225,10.3663840305,171.73355105000002,-4.31657958,-3.070680141,16.347735405,7.3828618525,-2.2914879335,-4.255145788
539,2.245743500000117,-11.868191719999999,10.333528997,171.73693085,-2.932255745,-2.262620926,15.37162542,8.6006395825,-4.12598604,-0.9310392515000001
540,2.24991,-11.79578638,10.345442294000001,171.6915741,-2.2059324385,-2.1953184305,18.324455739999998,8.507659675,2.2958555225,-5.4613969325
541,2.254076499999883,-11.763078685,10.2909002285,171.67760470000002,-1.1127800345,-4.193506479,9.767340421,2.953519821,-6.254042623499999,-3.4664577244999997
542,2.2582430000002205,-11.715909005,10.2097935655,171.64953615000002,-0.576961279,-1.222468704,12.29514837,5.059957981,-9.0532946565,-5.7300395965
543,2.2624095000001034,-11.71686459,10.149108409,171.63145444999998,-3.3353438375,-4.3400856255,8.431429148,-0.9609055519999999,-6.883589506,-4.0765120985
544,2.2665759999999864,-11.728255275,10.130043027500001,171.59432985,-1.4471687375000002,-4.3364368675,12.7169089305,-1.784165896,-1.5446667674999999,-5.281636238
545,2.2707424999998693,-11.756450655,10.121048925,171.55682374999998,-3.9836719035000003,0.3984337535,17.182614805,-3.810905278,-0.3469191789999999,-5.05746007
546,2.274909000000207,-11.785155295,10.0642433155,171.53810885000001,0.01252193,-4.21073246,8.833082465499999,-4.267965555,-6.415513992499999,-4.074360371
547,2.27907550000009,-11.785009385,9.996348857000001,171.54631805,-3.543878198,-3.558056593,9.408751966499999,-1.3909164665,-8.3603515615,-1.225698769
548,2.283241999999973,-11.85980606,9.9424777045,171.5422287,-0.577121124,-0.919390317,13.3401465395,-10.074739457,-6.4241409885,-2.323960662
549,2.287408499999856,-11.97225046,9.888592719,171.55440525,-2.9165557619999998,-6.1438679695000005,13.5130901315,-14.974231245,-6.811524153000001,-0.441301316
550,2.2915750000001935,-12.037025455,9.836305616499999,171.56525425,0.13324255499999998,-0.7131234705,13.911881925,-9.1703128815,-6.6027938125,-0.566279486
551,2.2957415000000765,-12.143848895,9.7303347575,171.595726,-2.8647886515,-1.406339139,13.268739702,-14.721075055,-13.370284081,0.3530031444999999
552,2.2999079999999594,-12.212156295,9.6915540705,171.61396025,-2.3821280005,-4.344521165,17.891759395,-9.735005141,-5.2031680940000005,0.6104769705
553,2.3040744999998424,-12.254609585,9.6003370305,171.6340027,-3.7535215615000004,0.8415615860000001,11.961989403,-6.7461435795,-11.3843963135,-0.5031341255
554,2.30824100000018,-12.30407095,9.5965986245,171.658638,-1.522596955,-2.184700072,16.2226929655,-7.589005232,-1.2613468169999997,2.229277551
555,2.312407500000063,-12.342393874999999,9.499648095000001,171.66006470000002,-3.1431228515000003,-4.859462261,10.946808814,-5.886030674000001,-11.583687303000001,-2.819007039
556,2.316573999999946,-12.3589077,9.433372972,171.6747284,-1.678186715,1.606021225,15.408553598000001,-3.413013458,-8.3448500055,-0.5368870795
557,2.3207405000002836,-12.339895729999999,9.381919862,171.64841465,-1.879907787,-2.766541958,10.8921961795,1.5470356644999999,-5.5477685175,-4.872947931500001
558,2.3249070000001666,-12.29907417,9.2187805175,171.67009735,-0.600598879,-4.1927304265,14.29271889,3.301285684,-19.875213625,-2.187309086
559,2.3290735000000495,-12.275786875,9.183494567,171.6276474,-4.133268833,0.26137328149999994,19.550037385,2.3737353089999997,-3.2524895875,-6.321714878
560,2.3332399999999325,-12.181281564999999,9.0348558405,171.63729095,0.29773382249999997,-2.1596602794999997,10.6678507315,9.936593530500001,-17.876164915,-3.1626999375000002
561,2.33740650000027,-12.079557895,8.93309808,171.62509154999998,-4.246511936,-2.772607088,13.211225505,11.2175974855,-11.8098373395,-4.5225982665
562,2.341573000000153,-11.994263175,8.8736472145,171.6157913,-2.256208301,-1.8609024290000002,9.793927432,9.212922573,-6.953644037,-3.0645448565
563,2.345739500000036,-11.88237047,8.741862297,171.61442565,-2.1061754230000003,-2.377657652,14.732017514499999,12.214696881999998,-15.617240905,-3.9545640945
564,2.349905999999919,-11.744568825,8.675955057,171.62568664999998,-3.291025221,-3.1111252905,18.009578705,15.174995895,-8.224009515,-0.8283516169999999
565,2.3540725000002567,-11.61029482,8.603544235000001,171.61354065,-2.0061135885,-1.3884780705,15.062590124,15.052613255,-8.394934417,-3.679210305
566,2.3582390000001396,-11.473191735,8.4807064535,171.62590790000002,-1.3577290770000001,-2.5818971394999997,14.935977935,15.066652775,-14.945803640000001,-2.0262473375
567,2.3624055000000226,-11.358433725000001,8.4288897515,171.60479735,-2.765832305,-2.4544104935,11.019632815000001,12.88509655,-5.7752497195,-4.207158446
568,2.3665719999999055,-11.210902690000001,8.304762602,171.62999724999997,-0.460751772,-3.235345364,7.9391591550000005,16.09668779,-15.40601444,-0.48229080450000006
569,2.370738500000243,-11.09445238,8.180096149,171.6182709,-3.342556,-2.0115073325,16.01643944,12.93886423,-14.586051465,-4.7922013995
570,2.374905000000126,-10.9815979,8.1171607975,171.62015535,-2.211640328,-4.1795140505,16.31457615,12.324541092,-7.665694833,-1.7217249125
571,2.379071500000009,-10.860829355,7.951781988,171.62954715,-0.913326052,-2.9910720585000004,13.695553305,13.080869195,-19.875805855000003,-3.1756352779999997
572,2.383237999999892,-10.773424630000001,7.8935348985000005,171.6171036,-4.4409351345,-0.9434155825,18.216645240000002,9.5269479755,-6.797634959,-3.2865504025
573,2.38740450000023,-10.701712610000001,7.7915148735,171.621521,-1.102046549,-4.7857990265,7.9071145055,7.268251896000001,-12.3069829955,-2.2659060955
574,2.3915710000001127,-10.632680415,7.6604881285,171.63072205,-3.1731684805,-2.2182756660000003,13.749384882,6.9769425389999995,-15.864919187000002,-2.3719236255
575,2.3957374999999956,-10.591875075,7.631155014,171.62315365,-1.9210467935,-2.418291628,12.176848649,3.7949419620000002,-3.4825179575000003,-2.0342506765
576,2.3999039999998786,-10.557188035,7.461676359,171.6330719,-0.835849449,-4.0302181245,13.518948554,2.781143308,-20.412522315,-3.087534368
577,2.4040705000002163,-10.51810837,7.42525816,171.63871765,-3.218424916,-2.06458503,18.877753255000002,3.4019353540000004,-4.60581775,-0.6555899235
578,2.408237000000099,-10.456076625,7.316699266500001,171.6363907,-1.2763716875,-0.9766145420000001,4.0212628845000005,6.232617736,-12.963221071500001,-3.141618371
579,2.412403499999982,-10.43795824,7.2353913785,171.67031095,-3.191982627,-4.6834151745,11.311190841999998,0.5128360985000001,-10.520284870000001,1.663363814
580,2.416569999999865,-10.442995074999999,7.238965988,171.64862825,-3.7752380375,-2.7361145615,16.945661545,-1.5291633754999998,0.6870124340000001,-2.960832894
581,2.420736500000203,-10.415729995,7.1336677075,171.69218445,-0.248375475,-2.511505127,11.802858411499999,1.425381243,-13.56100416,2.298320949
582,2.424903000000086,-10.379380704999999,7.172080278499999,171.65084835,-5.7915089129999995,-2.2718687355,18.260306834999998,3.7676942349999996,5.2209561765,-4.5359164475
583,2.4290694999999687,-10.345046045,7.1356761455,171.66968535,-0.3348405365,-1.987164855,11.1065766795,2.63005054,-4.8970835205,0.925877899
584,2.4332359999998516,-10.364619730000001,7.095926285,171.64711764999998,-2.7132415775,-2.0780569315,13.541897295,-3.2201771734999998,-4.4141538165,-4.040178895
585,2.4374025000001893,-10.335713865,7.142914533499999,171.65016939999998,-2.763596475,-3.786694169,11.90853548,2.250421822,5.2807142735,0.8701415655000001
586,2.4415690000000723,-10.327288625,7.053580999499999,171.64499665,-0.23993396749999996,-2.0157102345,10.460113049,-0.1786334515000001,-10.637778755,-3.050835669
587,2.445735499999955,-10.360057829999999,7.088586807,171.6415863,-4.987200379,-3.4499474164999997,19.337162975,-5.028567314,4.005797863,-0.159935355
588,2.449901999999838,-10.379171849999999,7.076240063,171.62342835,-1.2423125505,-3.1011656524999998,12.82015848,-3.316205204,-1.2721955774999998,-2.8952669555
589,2.454068500000176,-10.41042137,7.0536768435,171.64019009999998,-3.0721542834999997,-1.9296104905,13.2254271505,-5.1164889334999994,-3.2283550500000002,0.9535286425000002
590,2.458235000000059,-10.46162462,7.138068198999999,171.59731295,-4.303253293,-2.365902543,14.1299934385,-6.777636766500001,10.679901601000001,-3.7020964025
591,2.462401499999942,-10.52073908,7.092368364,171.6172409,0.25362241249999995,-3.1392331120000003,11.8336029035,-8.5467851165,-6.028074026,0.822140098
592,2.4665680000002794,-10.57711029,7.1625332835,171.5911484,-4.5776724815000005,-1.7744112015,14.62962055,-7.6200375555,8.6422500595,-2.0440928935000002
593,2.4707345000001624,-10.63343811,7.182405472,171.6063766,0.388227999,-3.7245423795,8.570216656,-8.180528402,1.8063797945000002,1.7320218084999999
594,2.4749010000000453,-10.726888655,7.2010993955,171.59786225,-3.5902764795,-2.6566382055,15.927764652,-12.3035759935,2.183894398,-1.121558368
595,2.4790674999999283,-10.77356672,7.310865879,171.60202025,-1.3004140254999998,-2.489963889,4.105521858,-6.860703945,12.648997784499999,2.4378163815
596,2.483234000000266,-10.872074605,7.293017626,171.62106319999998,-2.6141489745,-2.5724028944999997,12.069023607,-13.326008319,-2.7419140339999997,1.289920509
597,2.487400500000149,-10.974584105000002,7.470289707,171.59863280000002,-3.9837770465,-3.2712416650000002,19.224010465,-13.10463953,21.18985462,0.8947822455000001
598,2.491567000000032,-11.049790385,7.493214369,171.60730745,-1.3297188875,-2.585198045,9.081969497,-10.42056942,2.2903228994999996,1.0324458185
599,2.495733499999915,-11.175231935,7.643890857500001,171.57547,-3.367106676,-3.0744563344999998,16.230835915,-15.68418789,18.270501138500002,-0.765584946
600,2.4999000000002525,-11.299185275,7.7367761134999995,171.56857295,-0.44355058700000005,-2.5803806785,8.983496905,-16.03227043,10.8791475885,0.8729588685
601,2.5040665000001354,-11.470610615,7.783079862499999,171.54999544999998,-2.3976154330000004,-3.60582006,10.1489877695,-21.427809715000002,5.6812028895,-1.601896018
602,2.5082330000000184,-11.62150335,7.940357923500001,171.52257535,-3.5514488220000002,-2.1107798815,15.3373360615,-18.890274050000002,18.92697954,0.08071053049999999
603,2.5123994999999013,-11.788599014999999,7.9617378715000005,171.5053711,-0.9678021669999999,-2.149784684,13.128605841,-20.956980705,2.7275781035,-2.0011323095
604,2.516566000000239,-11.939676765,8.119300842,171.46445465,-4.745408416,-3.0110117195,17.31531429,-18.63632202,19.282788275,-1.384367108
605,2.520732500000122,-12.09718466,8.158813715,171.43762205000002,2.074742891,-2.1982470155,6.444315195,-19.686527249999997,5.1038560865,-2.6327540875000004
606,2.524899000000005,-12.267935755,8.2188472745,171.41812895,-2.8314551115,-2.346093774,10.9443204405,-21.347622875,7.313193517,-1.272374995
607,2.529065499999888,-12.381884575,8.264345169,171.39912414999998,-0.306886703,-2.993837416,2.795139074,-14.585985185,5.618190052,-1.535759449
608,2.5332320000002255,-12.51896095,8.3084714415,171.39907835,-5.1225771904999995,-0.312766075,13.55070734,-17.59535122,4.950529574000001,0.5988929869999999
609,2.5373985000001085,-12.640161035,8.4517047405,171.3452835,-2.2948665915,-2.8875820635,14.4199991225,-14.84295082,17.967760085000002,-2.9964380265
610,2.5415649999999914,-12.733159065,8.456250906000001,171.35105894999998,-0.9259102345000001,-1.1795774105,8.436035872,-12.45104885,0.15947449199999997,0.2633656265
611,2.5457314999998744,-12.801432134999999,8.548528433,171.3137283,-1.5961354375,-0.9834611715,9.080302237,-8.7528405165,11.5818691235,-2.384820223
612,2.549898000000212,-12.905332564999998,8.5219449995,171.3236389,-2.2050693035,-5.405652761500001,10.9139316065,-13.810590739999999,-3.6002417205,-0.08026227399999997
613,2.554064500000095,-12.98626947,8.6366267205,171.27737424999998,-3.0747338534999997,-0.5808685575000001,16.021412375,-10.097088812500001,14.445490839999998,-2.788487911
614,2.558230999999978,-13.081363199999998,8.576836824499999,171.29861449999999,1.5103192925000002,-2.260023266,4.312004387,-12.997798445,-7.7827007775,0.3258195145
615,2.562397499999861,-13.13672924,8.6264796255,171.27742765,-4.778967261,-3.0825067754999997,13.536807540000002,-7.482501387499999,6.177648099,-1.633964278
616,2.5665640000001986,-13.16235924,8.656489134000001,171.29748535,-2.3673191664999997,-1.111675784,10.646764280500001,-4.6263730525,2.7378677725,2.6326762435
617,2.5707305000000815,-13.2127161,8.742657900000001,171.26736449999999,-2.957108378,-0.4247368575000001,13.892121315,-6.7089006905,10.6868171675,-1.6520736515
618,2.5748969999999645,-13.252259255,8.733580827499999,171.2960739,1.293031037,-4.8062663075,3.972963691,-6.481881618499999,-2.0706548695,2.5781562925
619,2.5790634999998474,-13.304620265,8.6982159615,171.29501345,-2.8894267675,-2.8925459979999997,8.6994614625,-7.4988434315,-4.2885547865,-1.637928605
620,2.583230000000185,-13.33618641,8.742112398,171.3113785,-2.906116843,-0.579828888,14.847995755,-5.23059988,4.4420343635,2.6093102095000003
621,2.587396500000068,-13.350413795,8.726726532,171.29027555,-1.8204424830000001,-2.2174133659999997,8.0057995335,-2.5598546265,-1.4131499530000002,-3.4008594155000003
622,2.591562999999951,-13.32479906,8.754174709,171.29703519999998,-2.2201781865,-2.4808602335,10.324547887500001,1.7712180615,2.790210247,1.041270077
623,2.595729499999834,-13.330608845,8.6979031565,171.29979705,-1.3564719555,-1.638838485,10.2861494995,-1.9841747880000002,-6.8385089035,-1.778576061
624,2.5998960000001716,-13.309932235,8.7760813235,171.292511,-3.8878303169999997,-2.0267540215,13.039824005,1.4703148605,9.095225575,0.8048891125
625,2.6040625000000546,-13.319566725000001,8.737662315,171.29080965,0.6310495735000001,-4.8132705685,1.908371925,-2.370527446,-4.6374896765,-1.777788013
626,2.6082289999999375,-13.327307224999998,8.744035959,171.303627,-3.4106799365000002,-1.46239683,13.032932281499999,-2.3179409505,0.16558361050000014,1.134870559
627,2.612395500000275,-13.31892681,8.745625495999999,171.3203049,-2.064595513,-0.2882627095,15.24655199,-0.5476066470000001,-0.46566677099999987,1.437496722
628,2.616562000000158,-13.279351235,8.860931394000001,171.30736539999998,-5.678535223,-3.4736558200000003,15.26946783,3.85146606,13.582982065,1.1786777970000002
629,2.620728500000041,-13.22219944,8.861160994,171.31944275,1.5575407444999998,-2.622802019,0.8668322865,5.3474656345,-0.4947130679999998,0.8890829084999999
630,2.624894999999924,-13.225805285,8.858782055499999,171.3304367,-2.065239966,-1.5421063305,9.576018095,-1.780797578,-0.812445037,0.6905983095
631,2.629061500000262,-13.228230955,8.85317731,171.3359146,-1.055031836,-3.9337648155,11.623084786,-1.6547757385000001,-0.9971045555,-0.046707510999999924
632,2.6332280000001447,-13.202347280000001,8.888323543999999,171.3180771,-3.8421330455,-1.9479153155000002,11.1731424315,2.3023420270000003,4.3546316325,-1.613594532
633,2.6373945000000276,-13.174583434999999,8.8733227275,171.33186345000001,0.044589311000000006,-0.7562911215,7.474851369,1.7926443815,-2.321802139,0.6619870664999999
634,2.6415609999999106,-13.184006215,8.877280236,171.3300781,-4.716175795,-5.62484622,12.971996309,-2.2301739455,0.2751480340000001,-0.6181740165
635,2.6457275000002483,-13.20317507,8.8876826755,171.34431455,-0.012037515500000096,-2.0527758595,10.1155652995,-3.8229632374999998,0.6319608095,1.4074960125
636,2.649894000000131,-13.23609972,8.8602862355,171.33774565,-2.881475687,-1.542187899,6.927600621,-4.970640898,-3.257868111,-2.0270273835
637,2.654060500000014,-13.242843149999999,8.824356317,171.35967255,0.6160769165,-3.6121878625,5.5287393335,-2.4773765804999996,-4.988583207,1.0184860525000001
638,2.658226999999897,-13.248309615,8.831626892,171.36022185,-5.8424346445,-2.1357907655,15.814753055,-1.777109444,0.5984373095,-0.2651711105
639,2.662393500000235,-13.25188351,8.8995833415,171.34986874999998,-0.99845551,-0.784550786,11.7651910765,-1.509779513,8.0224103905,0.15655398350000005
640,2.6665600000001177,-13.301374435,8.9089682115,171.3414688,-2.18132633,-3.3310989739999997,10.35591316,-6.9404268259999995,1.0907950995,-1.229989253
641,2.6707265000000007,-13.33156252,8.876327516,171.35670475,0.255919695,-3.563223958,4.408893495999999,-5.1630938055,-4.429854393,0.3484432995000001
642,2.6748929999998836,-13.361866475,8.8663258575,171.35082245,-4.377566099,-1.2377534510000001,12.37484646,-4.662129879,-1.239972115,-1.481981963
643,2.6790595000002213,-13.375987055,8.9177308105,171.34786225,-1.8964895609999999,-2.2146931734999997,15.520869255000001,-2.8980008364999996,5.8804971875000005,0.5718505229999999
644,2.6832260000001042,-13.381606099999999,8.915106058500001,171.3388214,-2.7689560054999998,-1.9920323789999999,10.4589002155,-1.6642530595,-0.2914390565,-1.635295838
645,2.687392499999987,-13.355362415,8.921236279,171.3468933,0.18373674149999997,-0.4020106215,6.188055992,1.7362416685,0.2918360234999997,0.5883973835
646,2.69155899999987,-13.371949195,8.846778155500001,171.34467315,-2.9765778185,-4.9376294615,6.244705798,-3.0836658475,-8.8718819615,-2.8431992530000003
647,2.695725500000208,-13.36697006,8.898893835500001,171.34526825,-1.252787799,-2.789752483,12.872581482,-0.6483539045,5.8667931555,0.9860839585
648,2.6998920000000908,-13.401830675,8.817460538999999,171.33008575000002,-1.3923870175,-0.924973026,8.5262100715,-5.065695643,-9.324242116,-4.530575514
649,2.7040584999999737,-13.41167545,8.848642824,171.3307419,-2.884582996,-3.1766781805,13.734854219999999,-2.444091201,3.422068596,0.41013520949999993
650,2.7082249999998567,-13.397753715,8.786748171,171.3354187,-2.7040680650000004,-3.4420130254999997,8.1939632895,0.40469214299999995,-7.589402199,-1.6903666855
651,2.7123915000001944,-13.428827290000001,8.846551658500001,171.33719635,-2.948213935,-0.936112091,12.548264502,-4.971486509,6.7261767384999995,1.336083412
652,2.7165580000000773,-13.486017705,8.8025889395,171.33109280000002,0.7379437385,-4.0729027985,6.346457004,-7.969658611,-5.193997637,-2.441312075
653,2.7207244999999602,-13.519903185,8.7613732815,171.35173035,-1.7871976495,-3.1334375145,8.347295999,-5.622421026,-5.5854409915000005,0.67253381
654,2.724890999999843,-13.52167225,8.743782282,171.3395691,-3.0474854705,0.042773932000000014,9.320796250999999,-1.2058348355000001,-1.945004225,-2.406130612
655,2.729057500000181,-13.561148164999999,8.7831904905,171.3530426,-3.66336894,-2.7989491225,16.219396109999998,-6.146322012,4.0130469785,2.1252963545
656,2.733224000000064,-13.59536648,8.8253765105,171.33008575,-1.4187433125,-3.5940637585,11.02514172,-4.926802397,5.33168116,-1.9674487115
657,2.7373904999999468,-13.6348505,8.740316868,171.3726196,-0.14170193649999996,-2.1808835859999998,4.5985043035,-6.6979634765,-11.322677137500001,1.974736214
658,2.7415570000002845,-13.65031052,8.7092592715,171.36648559999998,-2.3594788015,-0.798375238,9.167166233,-2.9638935325,-3.6769810915,-2.1063418985
659,2.7457235000001674,-13.667941095,8.679089546,171.38214875,-3.4237111805,-3.6711043119999998,12.300498485,-3.5447345975,-4.174845099,0.4242360594999999
660,2.7498900000000503,-13.66491747,8.729195118,171.35642239999999,-1.6985966115,-0.22847419999999996,11.848350287999999,-0.421559036,6.3409392835,-2.0655192135
661,2.7540564999999333,-13.70596981,8.623646498,171.3784866,0.11721256400000002,-3.490253508,6.0560632945,-6.5113008025,-13.143301485,-0.9588053225
662,2.758223000000271,-13.728671550000001,8.5937776565,171.3723526,-3.0420236585,-3.4367538090000003,10.540242674,-3.831460357,-3.5320237280000004,-2.0959745795
663,2.762389500000154,-13.754488945,8.5300416945,171.3815079,-1.3140631765000002,-1.472410679,4.416281461500001,-4.4514286515000006,-7.9075070615000005,-1.2624239325
664,2.766556000000037,-13.79348612,8.507708788,171.3799057,-2.7979516985000004,-2.6785401105,13.1312294005,-5.850234031499999,-2.783921361,-1.357515976
665,2.77072249999992,-13.817782875,8.444597721000001,171.39739225,-1.5059356095,-3.4939206835,10.92220211,-4.452388525,-8.065187453,-0.293487951
666,2.7748890000002575,-13.85808897,8.4277441505,171.41075899999998,-4.334201932,-0.8819776475000001,12.638504505,-6.246857405,-2.576562345,0.5266350655
667,2.7790555000001405,-13.915379999999999,8.4042241575,171.4176025,0.402599752,-4.0071377755,4.1211618185,-8.220972776,-3.1515889165,-0.39672610150000004
668,2.7832220000000234,-13.970294475,8.2939724925,171.46270755,-0.582201913,-2.2567570210000003,3.6752230525,-8.561194897,-14.361566064,1.471787475
669,2.7873884999999063,-14.000154015,8.297226905999999,171.4682312,-4.3602864745000005,-0.8151632695,15.546783925,-4.8678383825000004,0.00764584549999997,0.19379738000000002
670,2.791555000000244,-14.033649445,8.304027557,171.4796295,-2.966297388,-1.6028306485,14.729338644999999,-5.410155535,0.23460149749999992,0.9708821774999999
671,2.795721500000127,-14.06183672,8.324622631,171.46995545,-0.7863542885000001,-3.3681384325000003,6.4657812120000004,-4.4131470915,2.4569041730000003,-1.03072983
672,2.79988800000001,-14.10739994,8.2287170885,171.51213074999998,-1.213846341,-3.5939577815000003,5.6542470455,-7.43032527,-12.60826969,1.523086548
673,2.804054499999893,-14.161709309999999,8.248315572500001,171.50762939999998,-3.3796342609999996,-0.918555483,15.396828655,-7.5937302115000005,2.1902027725,-0.470725775
674,2.8082210000002306,-14.198518275000001,8.207139969,171.5260849,-1.5198033675,-1.905897111,8.549142243,-5.9686989785,-5.555106163,0.3843414785000001
675,2.8123875000001135,-14.185596465,8.2108979225,171.5196228,-2.5611133125,-2.593883574,8.395935058500001,0.48190617550000003,0.4045896535,-1.1619897485000001
676,2.8165539999999964,-14.200056074999999,8.1565504075,171.5535736,-2.022783756,-1.249574214,8.48567152,-3.5378063915,-7.543193817000001,1.7849855275000002
677,2.8207204999998794,-14.210433485,8.2178058625,171.53869625,-2.893780589,-1.8904702665,12.10197306,-2.165036917,7.337000011500001,-0.438246936
678,2.824887000000217,-14.234359265,8.1564564705,171.5711746,0.6556407605000001,-4.0934120415,1.2089246509999998,-4.669814825,-8.316757681,1.420482561
679,2.8290535000001,-14.25545502,8.1469962595,171.580925,-3.6873283385000004,-1.7423497735,12.86654377,-3.8616083860000003,-1.6064603330000002,0.30297795699999996
680,2.833219999999983,-14.236587525000001,8.1803224085,171.5962448,-3.2774881125,-0.295808032,14.112958429999999,0.8029165715,3.1893884540000004,2.2351429465
681,2.837386499999866,-14.206137655,8.276251078,171.5823212,-2.4894354345,-2.8774540425,10.782548191,2.702590108,11.342516421500001,0.697206676
682,2.8415530000002036,-14.19619703,8.2478392125,171.6010971,0.41579665250000003,-4.361264825,3.5217299465,-0.37202110850000003,-4.088518855499999,0.8219800294999999
683,2.8457195000000866,-14.192531585000001,8.2412080765,171.60124969999998,-2.678561211,-0.1121070385,10.1433320025,-0.7506506740000001,-0.9954850675000002,-0.7162957640000001
684,2.8498859999999695,-14.172691345,8.260944604999999,171.59980769999999,-1.6530802844999999,-3.9847378730000003,8.230357647,1.2246935215,2.0958528665,-0.09761577799999999
685,2.8540524999998524,-14.143936635,8.264903784,171.5963974,-2.4151297805,-2.200469017,9.859570025,2.278354287,0.34361493600000015,-0.8157622070000001
686,2.85821900000019,-14.12371731,8.2741837505,171.60686495,-2.1771083475,-1.1243520975,12.906604765,1.058309674,0.5340057615000001,0.9643054830000001
687,2.862385500000073,-14.125644685,8.313358068500001,171.60617065000002,-2.852558136,-3.0641052725,9.025032997,-1.439065337,4.3608431815,0.5319948795
688,2.866551999999956,-14.12954712,8.310754299000001,171.61175535,0.4576085805,-3.3555169105,3.725986958,-1.7512965795,-0.7127034665000003,0.06380504350000005
689,2.870718499999839,-14.122080324999999,8.269495487499999,171.63023375,-1.1442984345,-0.977099389,6.1498577595,-0.633997194,-5.553403392,0.3757736984999999
690,2.8748850000001767,-14.100718024999999,8.302517414,171.63590240000002,-4.4010124205,-2.720768809,17.478784085,1.2906820475,3.439172402,1.0883425475
691,2.8790515000000596,-14.0885849,8.3813073635,171.62895205,-1.9863416555,-1.876148999,10.5620846735,0.35113281,9.150167702000001,0.9825941619999999
692,2.8832179999999425,-14.11450386,8.312960148,171.65099335,0.843289524,-3.6279280185000005,0.23951357600000012,-4.6974784135,-8.837456705,0.03236353400000003
693,2.8873845000002802,-14.139041899999999,8.2910313605,171.6696625,-2.8545152545,-2.5007606745,11.100476024999999,-4.475082158999999,-3.3163650035,0.98436141
694,2.891551000000163,-14.16637087,8.3650267125,171.6576462,-3.774062753,-0.33693879849999997,13.93309164,-4.239072919,8.715339659,0.266055107
695,2.895717500000046,-14.164458275,8.350844383,171.66633604999998,0.3947598375,-3.4027725460000005,3.748856127,-1.1720242015,-2.1258152719999996,0.06713490949999999
696,2.899883999999929,-14.198833465,8.2975287435,171.68468475,-2.5061679485,-3.7791264059999996,5.921830893,-5.5814256669999995,-6.984932186,0.013626873500000025
697,2.9040505000002668,-14.238356589999999,8.3376338485,171.6762314,-1.6339499355,-0.556280315,13.4772648835,-5.842037916,4.691548586,-0.3205109235
698,2.9082170000001497,-14.286681175,8.3210465905,171.68022155,-2.243409673,-2.977844417,6.9923467640000005,-7.052207470000001,-2.291526079,-0.5396150645
699,2.9123835000000327,-14.324133400000001,8.3312313555,171.6987686,-2.7803722619999998,-3.2169331315,10.1230421065,-6.0303025245,0.41883146800000004,1.893922925
700,2.9165499999999156,-14.397538185,8.3581860065,171.67536165,-1.2080489994999999,-1.913682699,4.794765353,-9.5969178665,3.575530171,-2.3974348305
701,2.9207165000002533,-14.469694615,8.295688629,171.71704864999998,-0.284556389,-2.3631178735000002,6.188594817999999,-10.6019062995,-8.7131253465,2.3569644690000002
702,2.9248830000001362,-14.51045847,8.402004719,171.6738739,-6.5148074625,-1.9793498515,16.329062465,-5.279843807500001,13.385917185,-2.294043243
703,2.929049500000019,-14.593935015,8.3906888965,171.69763945,2.7339336875,-2.6336392164999998,-0.43818861249999996,-11.70215368,-2.2519409639999997,1.8912724255
704,2.933215999999902,-14.661362650000001,8.319098711,171.70119475,-3.952658534,-1.6058585045,10.121068955499998,-9.3055577285,-8.662174048,-2.3089637755
705,2.93738250000024,-14.68750906,8.4795291425,171.67877195,-2.69752422,-1.5368352534999998,13.9907093025,-3.9457781315,19.067914965,1.7711289824999998
706,2.9415490000001228,-14.743544105000002,8.399395704,171.7042389,0.26658040299999997,-3.1435536145,-3.120679617,-8.430369853999998,-10.310147881499999,-0.026689886999999968
707,2.9457155000000057,-14.823840619999999,8.4159154895,171.70442965,-3.48763743,-2.384496689,12.08464527,-10.7737526895,1.6793980620000006,-0.028393387500000034
708,2.9498819999998886,-14.870027065,8.4893188475,171.6754837,-2.7596926095,-1.2812122555,10.859322312,-6.290108919,9.155498931499999,-1.570082694
709,2.9540485000002263,-14.950591085,8.486444711499999,171.68129729999998,-1.1704199909999997,-3.7640646694999997,1.5103292465,-10.902373314999998,-0.7572462559999997,0.06137168400000004
710,2.9582150000001093,-15.02832031,8.527799368,171.66339115,-1.9067791105,-0.30731269699999997,7.1463845985,-10.2783603685,5.1119937895,-1.300972581
711,2.9623814999999922,-15.10891199,8.623624563,171.6533203,-2.234672427,-4.0744612215,10.3290052425,-10.6321387285,11.165491580000001,1.3218289615
712,2.966547999999875,-15.16546011,8.5768568515,171.6697769,-0.0067696569999999845,-0.7713234274999999,-1.026072979,-8.3391697405,-6.1620235445,-0.11399614800000002
713,2.970714500000213,-15.273402690000001,8.764588594500001,171.6053238,-5.681861162000001,-3.221301794,11.384444119000001,-12.905287264999998,23.498215675,-1.9946594835
714,2.974881000000096,-15.432640074999998,8.7551703455,171.60510255,2.4896770120000005,-2.3626332285,-0.34341096900000023,-20.351612095,-1.321195573,-0.8600622414999999
715,2.9790474999999788,-15.57275057,8.914441586,171.53522494999999,-5.212675095,-3.2869461775,3.620812772,-16.71760702,20.38962841,-3.384071052
716,2.9832139999998617,-15.760136605,9.031774759,171.52392575,-2.2046892639999998,-1.9049167035,6.1153526305,-23.4537611,13.672859193,1.969647043
717,2.9873805000001994,-16.018339155,9.196970938500002,171.4796753,-0.8603994845,-2.5895303490000003,3.4143363835000002,-31.400022505000003,20.26775789,-0.1523856895
718,2.9915470000000823,-16.206998825,9.382239343,171.49804684999998,-2.0497830065,-1.6731820700000002,5.585045099,-24.158325195,20.50602865,7.7310688495
719,2.9957134999999653,-16.4309454,9.6235938095,171.45277405000002,-3.2653476595,-2.454445839,5.5959746835,-27.181949615,29.066337585,2.453085065
720,2.999879999999848,-16.711250305,9.7710952775,171.49062345,1.3173902035,-1.870942891,-0.42911577199999984,-35.577508925000004,15.436023235,8.818039417000001
721,3.004046500000186,-17.007092475,10.066449643,171.4299011,-3.8009648995,-2.7842453419999997,-1.6305661199999997,-35.52436638,35.76499271,2.886352241
722,3.008213000000069,-17.301234245,10.2931971555,171.43841555,0.43383228799999995,-1.4072787165,1.4269189835,-36.57394505,25.44311428,8.465460775
723,3.012379499999952,-17.591350560000002,10.546594143,171.38858795,-3.522382617,-1.9317203610000002,13.799063205,-34.992114064999996,30.53520298,2.958014939
724,3.0165459999998347,-17.82158184,10.777560711500001,171.38539125,0.3926109485,-0.2874217665,2.1580474375,-28.67580986,26.261317249999998,7.5536940095
725,3.0207125000001724,-18.1278429,11.0186047565,171.3535614,-1.822820395,-0.601331174,-4.8598694205,-37.311134339999995,28.43813801,4.8193583485
726,3.0248790000000554,-18.438661574999998,11.245449064999999,171.3318405,0.271059811,-3.353954077,-1.3049538135,-37.970301625000005,26.397008895,5.594075441
727,3.0290454999999383,-18.685375215,11.473028185,171.30335995000002,-1.6423268915,-0.7623429000000002,9.151172639,-30.107896805000003,26.708344455000002,4.981406212
728,3.033212000000276,-18.890227314999997,11.64170456,171.26631925,-1.6427052764999999,-0.19708728799999997,9.724131582,-24.865023615,20.315981864999998,1.8725752235000002
729,3.037378500000159,-19.10179138,11.83016443,171.23106385,0.7666506764999999,-0.490635753,-1.1583821775,-25.75125408,22.492411615,2.905277908
730,3.041545000000042,-19.297864914999998,11.933223250000001,171.19129185,-0.512520313,-0.33250075599999995,-1.814117998,-23.7608366,12.9692456725,-0.861836284
731,3.045711499999925,-19.402662275,12.065429685,171.18022919999999,-0.9699130655,-0.8377352360000001,8.9093556425,-13.4574494375,15.150678634999998,3.498630166
732,3.0498780000002625,-19.466794965,12.06241751,171.1797714,0.5132538675,0.2425339705,3.7392980160000002,-8.947866439999999,-0.557660222,-0.707042694
733,3.0540445000001455,-19.495800975,12.149471285,171.18321225,-1.483694702,-0.5968980190000001,3.898216009,-4.7052142025,9.457180022,3.3430809455
734,3.0582110000000284,-19.461488725000002,12.05511713,171.23435975,1.1568936705,0.09918493750000001,2.9684968,1.578176543,-12.903806685,1.336576581
735,3.0623774999999114,-19.382759095,12.05030632,171.2514038,-1.1048019525,-1.5758832095000002,5.4834817650000005,7.822875738,-1.4615352159999997,1.1811236145000001
736,3.066544000000249,-19.239146230000003,11.890357015,171.32258605,-1.243842423,1.003755301,9.658731935,14.30342531,-21.11843538,0.9867627919999999
737,3.070710500000132,-19.089379309999998,11.796518325000001,171.36220550000002,0.7881351375000001,-2.2847615479999996,1.6903437374999999,15.736863135,-12.4079370195,0.18925035
738,3.074877000000015,-18.860196115,11.54394865,171.44570925,-2.074121177,0.2601272315,8.524731335999999,24.338599205,-32.0939188,-1.138548829
739,3.079043499999898,-18.607256884999998,11.427461625,171.48832705,-1.1710205820000001,-1.764703393,4.4134163834999995,28.102691649999997,-15.095325111000001,-0.24100542050000007
740,3.0832100000002356,-18.34188652,11.1016612055,171.58960725,-0.4608983995,-0.556803256,3.6888091565,28.275004385,-41.091632845,-1.6412112710000002
741,3.0873765000001185,-18.0310688,10.987086775,171.6204834,-3.5637221935000003,-1.602024317,14.412773131,35.406171795000006,-14.448246479999998,-1.360425472
742,3.0915430000000015,-17.69886875,10.641855238000002,171.73153685,0.7640383834999999,-1.4426882865000001,-0.796026468,36.116996764999996,-43.682161335,-0.7645355615
743,3.0957094999998844,-17.336900710000002,10.4686446175,171.77108765,-4.536936283,-0.6331559995,14.47673655,41.46111107,-21.4786520005,-2.3836716410000003
744,3.099876000000222,-16.95786667,10.220059397,171.85388949999998,0.6766395270000001,-2.1422573325,0.9834816155,42.42381287,-31.625330925,0.06580975650000001
745,3.104042500000105,-16.58911705,9.9300885195,171.923645,-2.582915276,-1.7283369304999998,8.4909516555,41.62374115,-35.93441582,-2.7259584665
746,3.108208999999988,-16.199079515,9.760330674999999,171.97214505,-4.5190128089999995,-2.2012510295,12.844419001999999,44.6175499,-21.407738684999998,-0.765329566
747,3.112375499999871,-15.849743844999999,9.562048433000001,172.0338974,0.338111937,-3.0162363055,1.476731971,39.46567345,-25.13238239,-0.08017273250000001
748,3.1165420000002086,-15.50325918,9.302688124500001,172.10640715,-2.848687947,-1.4669637975,6.871331214,38.970899579999994,-32.52672863,-0.6909392325000001
749,3.1207085000000916,-15.166280745,9.231701375,172.1248474,-3.758955538,-3.257410526,12.2181124665,38.8965435,-9.04614687,-0.6844258455000001
750,3.1248749999999745,-14.883871075,8.998800990500001,172.1884384,-0.4893644455,-3.2619986535,1.4339537025,31.450256345,-29.18701363,-0.4860438705000001
751,3.1290414999998575,-14.632399079999999,8.9407837405,172.19071960000002,-5.4445528985,-2.6223428845,15.041497710000002,28.996060370000002,-7.057676377,-2.0741590260000002
752,3.133208000000195,-14.40597391,8.8880665295,172.2168808,-0.326934226,-3.744969964,5.742731571,25.442399975,-7.1418490395,0.903222591
753,3.137374500000078,-14.243375780000001,8.756170511,172.22429655000002,-2.8944751025,-2.903700173,2.8894591929999995,18.20112133,-15.810760495,-3.6018306015
754,3.141540999999961,-14.086410045000001,8.8343796735,172.22882844999998,-3.901525259,-1.9139847159999999,18.638045310000003,17.592048645,8.720056058,2.2707732915
755,3.145707499999844,-13.98009014,8.791569948500001,172.2097931,-0.39287087299999995,-4.0934079885,-4.0691256225,11.8274331095,-4.68248892,-3.9509263040000002
756,3.1498740000001817,-13.881492139999999,8.842475650999999,172.22724154999997,-5.2503089905,-2.4545483590000003,15.57241917,10.4255800235,5.177884580000001,2.896631479
757,3.1540405000000646,-13.894235609999999,8.980153801,172.15976715,-1.5742034914999998,-3.8890548945,4.0748720185,-1.5622364285,17.7074801935,-4.3137533665
758,3.1582069999999476,-13.9095993,8.9915714265,172.1498032,-1.261342168,-2.943870306,8.260128737,-2.725515485,1.3539190300000001,-1.3829386705
759,3.1623735000002853,-13.93468666,9.222739697,172.04644775000003,-2.9442179205,-2.974086046,1.0320234299999997,-2.351477325,29.643537995,-5.8081252575
760,3.166540000000168,-14.054974075,9.249709608,172.0104523,-2.9413552285,-3.003608823,8.258544327,-14.830762865,3.9100108129999995,-3.8962215185
761,3.170706500000051,-14.255206105,9.5626115785,171.881958,-3.806505516,-4.044431686499999,10.239233491499999,-22.789240839999998,39.87380981,-6.1012659075
762,3.174872999999934,-14.393671035,9.676612852,171.8455887,1.1315201520000002,-1.7785969375,2.0181035990000007,-17.009991645,14.059846879,-1.3172384769999999
763,3.179039500000272,-14.638978005,9.938269617,171.7384262,-5.8935682775,-2.460578382,4.054505198999999,-28.50935268,33.332958225,-4.9922041895
764,3.1832060000001547,-14.925140855,10.229297637,171.68234255,2.6923609975,-4.633907795,3.940739393,-34.335761070000004,35.202211379999994,1.9866761715
765,3.1873725000000377,-15.214238645,10.437829019,171.6045532,-5.97074914,-0.5646788475,11.925977232000001,-34.20366764,26.276666164999998,-2.858775899
766,3.1915389999999206,-15.523802755,10.806001185,171.52618404999998,-0.293529928,-4.1444687845,1.3414435395000002,-36.5860405,44.79369545,2.281743042
767,3.1957055000002583,-15.93853283,11.017540934,171.4848099,-0.2843536135,-1.361324735,-1.9195438624999999,-50.084905625000005,25.499011995,1.6380601675
