,time,Euler_X,Euler_Y,Euler_Z,Acc_X,Acc_Y,Acc_Z,Gyr_X,Gyr_Y,Gyr_Z
0,0.0,-23.078558599999997,8.788059551666668,-48.4793803,-1.5077346163333332,-0.7248248543333334,10.021924971666667,91.59488932666666,-3.1479161579999997,7.395221869333333
1,0.0083329999999932,-22.232545849999998,8.792971928999998,-48.38735963333334,-3.0100418726666667,0.5371121759999999,10.876862208333334,97.72878773999999,-3.961064378333333,9.860817272666667
2,0.0166659999999865,-21.33336194,8.819182715333334,-48.3117574,-2.39765354,-0.4581499896666667,10.806493757333334,104.84140525333333,-0.5762186846666667,8.940368970333333
3,0.0249989999999797,-20.387894313333334,8.824627559333335,-48.209849033333334,-2.0738062463333335,-0.31405126533333333,7.934559345333334,109.46082815333334,-4.013485590666666,11.063227656666667
4,0.033331999999973,-19.39763832,8.854899405,-48.131078099999996,-2.0699835616666666,0.31673146533333335,13.232488316666666,115.70405326666666,0.05433334900000005,9.448825837333333
5,0.0416649999999663,-18.39776166333333,8.846766472333334,-48.0297038,-2.1907821893333335,-0.9414259393333332,10.709037141666665,116.0170339,-5.1172552903333335,10.659006757333334
6,0.0499979999999595,-17.340411186666667,8.859483401,-47.93858843333334,-2.2052899203333336,-0.09672708299999999,11.02063306,123.53884126666668,-2.043536861666667,10.209611891
7,0.0583309999999528,-16.25945346,8.854677519333334,-47.8259023,-1.7416074276666667,-1.1962696709999998,8.155750194666666,125.56792956666668,-4.654976288333334,12.139215787333333
8,0.0666639999999461,-15.12101491,8.847537993333333,-47.716929099999994,-1.215855082,0.3201036053333333,10.954922678,132.9685084,-4.492656469666667,11.752694766666666
9,0.0749969999999393,-13.967093150000002,8.806681474666666,-47.592610666666666,-2.0999194383333335,-0.46136627599999996,10.610440571,134.13873293333333,-8.663023631333333,12.567338941666668
10,0.0833299999999326,-12.755387623333334,8.770750362666666,-47.4627482,-2.1264597176666666,-0.09254966166666667,12.830027896666666,141.40757243333334,-7.91430386,13.538589796666665
11,0.0916629999999258,-11.526825587666666,8.721149921666667,-47.33092753333333,-1.6427220506666667,-0.09557290833333333,8.418001651666666,142.98052976666665,-9.325320404000001,13.485060376666667
12,0.0999959999999191,-10.232633273,8.664931615666667,-47.18783573333332,-0.9654239963333332,-0.3452820083333333,11.523438773333334,151.08377076666667,-10.010209084333335,14.930401169999998
13,0.1083290000001397,-8.917225995666668,8.575905798333332,-47.046051033333335,-1.580145538,-0.310513099,11.346417586666666,153.2585551,-13.579788523666666,14.300500553333334
14,0.116662000000133,-7.572869620333333,8.462701163333334,-46.89548746666667,-1.4149772723333334,-0.921616738,11.351858454666667,157.04619853333332,-16.15485414,15.252215386666668
15,0.1249950000001263,-6.172265529666667,8.356662431333334,-46.74966940000001,-2.247947732666667,0.542108178,13.366330146666668,163.47567746666667,-14.964455603333334,15.105586053333333
16,0.1333280000001195,-4.784222920666667,8.207648118333333,-46.60399883333333,-2.025774240666667,-1.3730689486666667,11.521378516666667,162.43510946666666,-19.637116430000003,15.013457936666669
17,0.1416610000001128,-3.369153022666667,8.050129573,-46.44990033333334,-1.015425543,-1.600635906,7.183772563666667,165.19128926666664,-20.384475073333334,16.397428193333333
18,0.1499940000001061,-1.9499440439999998,7.854549248666667,-46.310160333333336,-0.05090272433333339,-0.6692597073333334,10.661996206,166.34895833333334,-24.457928973333335,14.938037236666666
19,0.1583270000000993,-0.5305909713333333,7.648283958333333,-46.18000793333334,-2.7477879919999997,-0.716170311,12.967803633333332,166.17465719999998,-25.388184229999997,14.371128716666668
20,0.1666600000000926,0.9083597660000001,7.4377945263333345,-46.0432027,-2.0536793073333333,-1.4041439693333333,10.476929666666667,168.91036986666666,-25.423353833333334,15.984656970000001
21,0.1749930000000858,2.346039692666666,7.175529320999999,-45.93603513333333,-0.628126583,-1.4191486439999998,15.7309796,168.8451996,-31.4362971,13.074500719999998
22,0.1833260000000791,3.772872597333333,6.919858455666667,-45.83621216666666,-2.5942376456666665,-1.4207016033333335,16.970164616666665,168.09133913333332,-30.304896036666666,13.104275066666666
23,0.1916590000000724,5.155431986,6.6808277763333335,-45.75683083333333,-1.2704297203333335,-1.8540710136666665,9.964392343666667,162.76512146666664,-28.199768063333334,11.02412033
24,0.1999920000000656,6.509090423333333,6.354353904999999,-45.70779926666666,0.280736634,-2.983381192,5.5071446103333335,160.0651753666667,-38.76191966,9.383499305333332
25,0.2083250000000589,7.8602058093333325,6.047211487999999,-45.66933696666666,-3.373466253333333,-1.6997057793333334,10.634534677333333,159.5521291,-36.43616295,8.508032958666666
26,0.2166580000000522,9.196204979000001,5.728721777666666,-45.65933226666667,-0.28614234433333335,-1.8481701216666666,15.878170646666668,158.53006996666667,-37.97203318,6.366557757333333
27,0.2249910000000454,10.464142959999998,5.413638989333333,-45.66229760000001,-3.4896519976666664,-3.0707028706666666,13.127562840000001,150.15439353333332,-37.66510137,5.688903808666667
28,0.2333240000000387,11.659968694,5.1295008656666665,-45.67482503333333,-0.13138535633333334,-1.0545594493333332,14.655103366666667,142.0418345,-34.07445398666667,4.310631434333334
29,0.2416570000000319,12.787985803333333,4.830939849333333,-45.70105486666666,-3.0325233143333334,-3.748727480666666,10.550529002,133.68963369999997,-35.933516186666665,4.247915148666666
30,0.2499900000000252,13.891238526666667,4.538234869666667,-45.7144216,0.5813641346666667,-2.8960658313333334,11.303945063333332,130.97413633333335,-34.83274905,5.7447430289999994
31,0.2583230000000185,14.910302163333332,4.262746652,-45.75845336666668,-2.9128628173333335,-2.590664387,11.549508572666667,120.84599303333334,-33.57073275333333,2.645403921666667
32,0.2666560000000118,15.856146813333332,4.001199484,-45.76359556666666,-1.6974729303333334,-3.7920664153333328,15.629648526333334,111.94160206666668,-30.740296683333337,7.112787246666667
33,0.274989000000005,16.675148646666667,3.7967112063333333,-45.793696100000005,-3.921580752,-3.6911764146666663,11.472459791,96.82272846333335,-24.767323493333333,2.7334454853333328
34,0.2833219999999983,17.451611516666667,3.640199065333333,-45.7724406,-2.7461353539999998,-3.570206006333333,10.923421302333333,91.41025797333333,-17.537438076666668,7.370414575000001
35,0.2916549999999915,18.147953036666667,3.461609165,-45.789291399999996,-1.6920584070000002,-2.4113079306666667,8.131919144333333,82.00009409666666,-21.261714458666667,4.011191050333333
36,0.2999879999999848,18.77894465,3.3603007,-45.75553383333334,-1.5383324426666667,-2.8547257579999994,11.408680756333332,73.93019485333333,-10.548284371666666,7.151000340666667
37,0.3083209999999781,19.301824569999997,3.197876095666667,-45.77716063333333,-2.694215099333333,-4.034292936333334,10.100807111,61.19462585333334,-19.541622796000002,3.2928934296666665
38,0.3166539999999713,19.732209523333335,3.1915793813333337,-45.697464000000004,-0.8297693803333335,-3.075850169,16.02628263,49.654561363333336,2.1912781396666667,8.636905193333334
39,0.3249869999999646,20.09793409,3.1572555703333336,-45.666839599999996,-3.8006327153333337,-2.9623700779999997,12.546068826666668,41.99547958,-2.9043137216666666,4.334608833
40,0.3333199999999578,20.412615456666668,3.118509014666667,-45.59454343333334,0.1474606393333333,-1.5747516179999999,6.107971905666666,35.797085446666664,-1.6293474833333332,9.272997538
41,0.3416529999999511,20.684108096666666,3.167707800666667,-45.51163736666667,-2.4831848539999997,-2.0434995893333334,8.808757783333332,30.37485631333333,8.733148574333333,6.771256764333333
42,0.3499859999999444,20.880481720000002,3.15156428,-45.43859353333334,-1.459875591333333,-3.1000713510000004,11.03731282466667,21.64645926,1.028760194666667,8.313463211
43,0.3583189999999376,21.041715623333335,3.178302765,-45.34354146666667,-1.4504087566666666,-1.8065508306666664,12.530305226000001,17.008480706666667,6.776749450333334,9.121373015333335
44,0.3666519999999309,21.17295328666667,3.282151619666667,-45.23390703333333,-2.717501402,-1.2441866400000001,11.226536273,13.555356502333334,16.052138170666666,7.172173658666668
45,0.3749849999999242,21.299463906666663,3.3081876833333332,-45.144256600000006,0.8168848353333332,-1.3673820793333331,6.8314311409999995,12.84295146,6.500472386666668,8.521009445333332
46,0.3833179999999174,21.397958123333336,3.3155382873333337,-45.072682699999994,-1.4456712803333331,0.493950327,7.572329680666666,9.803961593666667,3.6464654603333333,7.100958983333332
47,0.3916510000001381,21.506352743333327,3.3764038883333334,-44.992579166666665,1.0206974746666666,-1.5809475979999998,12.666302359999998,10.782041868999999,9.999305566333334,5.894297917666667
48,0.3999840000001313,21.627585730000003,3.3291579483333336,-44.94878643333334,-3.393966853666667,-1.126362125,12.508159636666667,12.713893889666666,-3.628283898666666,6.406548818
49,0.4083170000001246,21.715052283333335,3.359041929,-44.89793396666667,2.3265626826666668,-0.9491835633333333,15.537279763333336,8.450649419666666,5.270248850333334,3.9731696446666667
50,0.4166500000001178,21.844588599999998,3.3362557490000007,-44.85773723333333,-3.846890608666667,0.398881485,8.032528958333334,13.761912663333334,-1.022003333,4.988616864
51,0.4249830000001111,21.980798086666667,3.2833129566666663,-44.84456886666667,2.3602917193333335,-1.7215540806666667,7.205386637666668,14.534698805333333,-5.616345763666666,3.417673826
52,0.4333160000001044,22.098255156666667,3.219162225333333,-44.849929833333334,-2.420944194,-0.15255978700000003,8.256766885333333,12.627968151666666,-7.641500155333335,1.8675091266666666
53,0.4416490000000976,22.25054677,3.1427960793333334,-44.84459433333333,1.0147288046666667,-0.55530941,9.590718269666667,16.527471223333333,-8.552721062666668,3.6153220333333334
54,0.4499820000000909,22.393466313333334,2.994302074,-44.896057133333336,-2.2938268186666666,0.6637458390000001,14.734098116666667,16.070329666666666,-19.07970174333333,0.6173848706666668
55,0.4583150000000842,22.572554269999998,2.8804611763333328,-44.91023256666667,1.6794822563333334,-1.3519054253333334,8.083729425666666,19.807638803333333,-13.580670994999998,3.2918406726666665
56,0.4666480000000774,22.78702863,2.728795687333333,-44.957127899999996,-2.7492571573333335,0.02681207733333335,11.020506859333333,24.69170474666667,-19.19536367666667,1.3456922773333335
57,0.4749810000000707,23.038107550000003,2.5066546400000003,-45.04001873333333,1.8175513746666665,0.19523835199999995,7.075068950333333,28.74771309,-28.734950006666665,0.9373568046666666
58,0.4833140000000639,23.25848198,2.3795573116666664,-45.0687103,-2.9704045256666665,-1.244931683,14.307837167333332,25.314050039999998,-15.584514298666667,2.365489403666667
59,0.4916470000000572,23.510088603333333,2.0664183096666666,-45.18753053333333,0.6424366633333333,1.0167374313333333,7.741802453000001,28.95092964,-40.45946566333333,1.5557121040000002
60,0.4999800000000505,23.757972083333332,1.9349362103333334,-45.22965493333333,-2.2009110303333332,-1.6144180296666668,8.946403661,28.640603383333332,-16.700147947666668,1.1656574803333333
61,0.5083130000000438,24.027469,1.6763986050000002,-45.32019043333333,-0.14123305666666663,-1.1053033570000002,11.250314395666669,31.010647456666664,-33.08978208,2.315858841
62,0.516646000000037,24.302174886666666,1.4649504323333336,-45.4175059,-1.8765174946666665,-0.36316290500000004,5.6039981736666675,31.914346060000003,-28.133614223333336,-0.7376095800000001
63,0.5249790000000303,24.57464536333333,1.2726875643333333,-45.47060139999999,-1.5039305490000003,-0.9475451086666666,15.710959433333334,31.28542455,-23.97742271333333,3.3399873973333336
64,0.5333120000000235,24.823788323333332,1.060345133,-45.571884133333334,-0.413771709,-0.6314092626666666,10.389681022333333,28.77969297,-28.422404606666664,-0.7952756883333333
65,0.5416450000000168,25.02995682,0.8573253353333333,-45.64405826666667,-1.0478188196666665,-1.117950797,8.910422485,23.363255183333333,-26.069265366666666,1.9898557266666668
66,0.5499780000000101,25.279872256666664,0.6861404973333333,-45.71082053333333,-1.3995610870000001,-1.1805190046666667,16.147088370000002,28.732333503333333,-22.19632117,1.0572677456666668
67,0.5583110000000033,25.464072546666667,0.4862863023333333,-45.8007202,-1.360295931333333,-1.5373358726666666,12.365770657,20.703525226666667,-26.61300341333333,0.13902779399999984
68,0.5666439999999966,25.637833279999995,0.36266960699999995,-45.835230499999994,-1.3275581993333334,-2.4577397506666667,14.360723816666665,19.539431893333333,-15.38066069,2.230935970666667
69,0.5749769999999899,25.750443776666668,0.17056005933333332,-45.922963433333344,-2.215188721666667,-0.08380532,6.279302597,12.102227687000001,-25.650295893333332,0.12173771866666676
70,0.5833099999999831,25.850959776666667,0.1540288103333333,-45.91135153333334,-2.9005906980000002,-3.048257748333333,11.798832891333333,10.709304650666667,-1.401389122,1.6725629169999998
71,0.5916429999999764,25.932235083333335,0.026919890333333345,-45.95451863333333,-2.0684352716666665,-0.678203816,9.339003564,8.319575626666667,-16.299938199666666,1.6182616253333333
72,0.5999759999999696,25.959538143333333,0.04331274699999995,-45.93236796666667,-0.3246433933333333,-1.005362302,9.790109316,2.0076318583333332,2.704478979333333,1.1097620326666666
73,0.6083089999999629,26.02209282,-0.03964448733333333,-45.93983459999999,-2.019469539333333,0.155217897,9.373370011666667,6.086635748666666,-9.656131268333333,3.170992374333333
74,0.6166419999999562,26.05553627,-0.013451573666666642,-45.917271899999996,-0.5216628313333334,-1.920525610333333,11.116915383333335,2.7027801673333336,3.790509859333333,0.6485054093333332
75,0.6249749999999494,26.088347753333334,-0.010740441666666692,-45.8785197,-2.093676845333334,0.4869065483333333,18.766420363333335,2.4940878946666665,2.015238523666667,3.6515569683333333
76,0.6333079999999427,26.070294696666668,-0.020742751666666726,-45.89368186666667,-0.8906727236666666,-1.6502277156666665,8.351859571333334,-3.519131660333334,-2.111569007,-1.5034277443333337
77,0.641640999999936,26.09111849333333,0.014657422999999984,-45.8273824,-0.5375751056666668,-0.7431634663333332,12.209651469999999,1.0617401603333334,6.990868251333333,4.895068923666667
78,0.6499739999999292,26.0750974,0.04739706200000001,-45.84676106666666,-3.0588049193333333,-0.9076570570000001,11.254825752333332,-3.3117156026666663,2.264909068666667,-4.276911338000001
79,0.6583069999999225,26.02055931,0.08429893833333331,-45.77893576666667,1.504809141,-2.3064932823333333,11.003432590000001,-8.010276714666666,7.231048862666667,5.040506601333333
80,0.6666399999999157,26.003353753333332,0.10188938166666668,-45.809138,-3.0526516240000006,0.8844138683333332,6.491279284333333,-3.4188216923333337,0.06060306233333327,-4.662495295
81,0.6749730000001364,25.965557733333338,0.13003357266666668,-45.7470042,1.2549684246666668,-0.7929538786666668,7.129688102333333,-5.972053528,5.9845490456666655,4.880720535999999
82,0.6833060000001296,25.912619270000004,0.1760860483333333,-45.75736493333334,-1.4089711753333332,-1.478614986,10.938123066000001,-7.721868357000001,4.1761195896666665,-3.9837781983333334
83,0.6916390000001229,25.887145359999995,0.12488632433333328,-45.7417908,-1.459051132,-0.11015379433333328,10.395601431333334,-4.4645483493333336,-5.024706760666667,3.967790524
84,0.6999720000001162,25.842623393333337,0.17585575600000003,-45.74447123333334,0.724311749,0.48739515699999997,13.627071383333336,-6.710758685999999,5.113886197333334,-3.3738473256666666
85,0.7083050000001094,25.817445120000002,0.12755788866666662,-45.725392666666664,-1.999236703,-1.698569238,10.275829793333335,-4.403309424666666,-4.5305183730000005,4.212112108666667
86,0.7166380000001027,25.80086008666667,0.07427679533333335,-45.78176879999999,1.8298015096666667,1.8562221823333331,6.931764205,-3.4122051096666666,-8.921260871,-3.7054416736666664
87,0.724971000000096,25.80815760333333,0.06895478066666667,-45.752827999999994,-3.413131194,-1.807781656666667,14.867946624333333,-0.5025855103333333,0.6260803889999998,3.0394960243333333
88,0.7333040000000892,25.817276640000003,-0.04329378166666668,-45.82931010000001,2.459543069,0.44893047733333336,9.359963179,-0.3192256886666667,-16.376103717666666,-2.841443419333333
89,0.7416370000000825,25.811697006666666,-0.07927331433333344,-45.843124366666665,-3.281227906666667,-0.4576888483333333,8.631655056333335,-2.004364977333333,-4.910381158333333,0.026933282666666686
90,0.7499700000000757,25.854466119999998,-0.19040655599999998,-45.88858033333333,1.343911965666667,0.05289962866666661,13.432759919666665,3.692545414,-14.619120121,0.45566462
91,0.758303000000069,25.880881626666667,-0.24374949899999998,-45.9443156,-2.8622095583333333,-0.6976000366666667,12.626669882666667,1.8276909786666666,-8.980274676333332,-3.552242279
92,0.7666360000000623,25.929131826666666,-0.35601761933333337,-45.980209333333335,1.8740642866666668,0.5972099493333333,10.970813273666666,4.352469921,-14.249877931333332,1.5569402973333333
93,0.7749690000000555,25.95350329,-0.44167399433333326,-46.05506896666666,-3.941258728333333,-1.1963409183333333,7.219859123333333,1.6180640063333334,-13.472191174333332,-3.921835025
94,0.7833020000000488,26.03017234666667,-0.5320223966666666,-46.0766754,1.4762471513333333,0.24169229500000003,14.980715116333334,7.706001996666667,-11.140241780000002,1.9279241363333333
95,0.791635000000042,26.06617864,-0.6167448160000001,-46.16389973333333,-3.2842175166666667,-1.5571981323333335,9.950136980666665,3.008879423333333,-14.030763150333334,-5.265728791333333
96,0.7999680000000353,26.114413576666664,-0.7178584136666667,-46.18069966666667,1.7043684126666667,-0.7651470699999999,13.23328145,4.338006298,-12.036669732666667,3.061392466333333
97,0.8083010000000286,26.117045083333334,-0.7823964160000001,-46.285364799999996,-4.080834825999999,0.018687961000000017,9.024630387666667,-1.06916368,-12.782531580666666,-8.207738717333333
98,0.8166340000000218,26.1444664,-0.8665803470000001,-46.27437336666667,-0.12963555266666668,-1.9676242273333333,16.38294442333333,1.8541765313333334,-8.740677676333332,5.146571159666666
99,0.8249670000000151,26.111880616666667,-0.9058097203333334,-46.362487766666675,-2.9262949226666666,-1.0278587043333334,7.721820195,-5.241992076333334,-9.192640066,-7.737404187666667
100,0.8333000000000084,26.08966128,-0.9471536476666667,-46.34350586666667,0.09621859600000009,-0.5976968603333334,9.198761779333333,-4.036803801666667,-3.7031274086666666,3.7309695880000002
101,0.8416330000000016,26.01960882,-0.9768041573333335,-46.410191833333336,-0.798203369,-1.6041904686666666,7.748080253333334,-9.676399549333333,-7.0244019820000005,-5.9351917903333336
102,0.8499659999999949,25.989964803333333,-1.0222850443333333,-46.4071757,-2.5037698743333334,-0.05591866866666669,14.149974186666668,-5.005261734,-4.9844978666666675,2.232690811
103,0.8582989999999882,25.917478560000003,-1.006810735,-46.43509926666667,-0.9784407813333335,0.8050313793333334,9.401394683333333,-9.873569011666667,-0.11041935099999971,-4.105070749999999
104,0.8666319999999814,25.855786006666666,-1.0322886406666665,-46.4315389,-2.230122407,-1.094403684,10.892752012999999,-8.809748172,-2.828837473333333,1.190746218
105,0.8749649999999747,25.76856359,-0.9518266816666667,-46.43306476666667,-0.2004024483333334,-1.178507487,12.631173771,-11.621420858333332,8.296642623333334,-4.680157899666667
106,0.8832979999999679,25.70268185666667,-0.9905980626666667,-46.431472766666666,-2.276706457,0.5496767563333335,13.725177764333333,-9.320155383,-4.368423938666666,1.6734209856666666
107,0.8916309999999612,25.605567930000003,-0.8820569913333333,-46.41056316666667,0.09626273333333331,-0.40755407000000005,11.626797754999998,-12.750896772333334,12.510723112666668,-3.6736935773333337
108,0.8999639999999545,25.50739161333333,-0.8686678513333334,-46.40782676666666,-3.4750937123333334,-1.1819490793333334,9.822088955333333,-13.165683745,1.3105053503333333,-0.938672185
109,0.9082969999999476,25.390817639999998,-0.7262068890000001,-46.35273743333334,-0.7133992113333333,-0.8476491520000001,12.480936846666665,-15.081657090000002,17.959841410333333,-1.7275232870000001
110,0.916629999999941,25.278925580000003,-0.669484973,-46.34906513333333,-3.0700233776666668,-0.4972441843333333,13.45068105,-14.798384667,6.117984097666667,-2.9084333973333334
111,0.9249629999999344,25.14944331,-0.5183023016666667,-46.27552793333333,0.4649623653333333,-0.43065860699999997,8.976530433999999,-16.668972970000002,19.861061413333335,-0.11771497133333327
112,0.9332959999999276,24.996125539999998,-0.4471340976666666,-46.2599233,-1.1995187900000002,-0.261293501,7.252156812666667,-19.669371923333333,8.228833835666668,-2.407324870666667
113,0.9416289999999208,24.85840161666667,-0.28026794866666677,-46.18582153333333,-1.1243117056666667,-1.427979787,10.479210377666666,-17.753182093333333,21.607159296666666,-0.7866050403333334
114,0.9499620000001414,24.717560446666667,-0.20978974966666664,-46.158986433333325,-1.360604783,-0.042097146333333335,11.308247883999998,-18.170475006666667,8.796998183,-0.9658064246666666
115,0.9582950000001348,24.607784909999996,-0.06347265333333334,-46.10134886666666,-1.8554640413333334,0.275312498,11.867836635333333,-14.481125833333335,18.539635183,-1.4923327763333336
116,0.966628000000128,24.46487172666667,0.037148550333333384,-46.0579885,0.544759887,-0.3096236586666667,8.272031467,-18.404122033333334,12.842291474,-0.7499081396666667
117,0.9749610000001212,24.338829039999997,0.1442859373333333,-46.023391733333334,-1.6614628433333332,-1.0757475446666664,9.37989982,-16.465662956666666,13.130140622333334,-1.9724926156666667
118,0.9832940000001144,24.221664426666667,0.2563811936666666,-45.98940533333334,-0.22284154100000006,0.226073921,10.822390556666667,-15.356486636666666,13.63189284,-2.3359890580000005
119,0.9916270000001076,24.147960030000004,0.32265961166666673,-45.965255766666665,-2.299106121,0.14547479633333335,13.244825997666666,-10.224604287,8.148334981,-1.0660383703333334
120,0.999960000000101,24.028594336666668,0.4357168873333334,-45.93778483333333,1.3492192826666667,-0.462774853,8.778304913,-15.601078353333335,13.424564997,-3.0324147936666663
121,1.0082930000000945,23.933844886666662,0.450691362,-45.94412739999999,-1.4582227606666667,0.44724711833333336,7.538271189,-12.705452916666667,1.0471873293333331,-1.8392985663333332
122,1.0166260000000875,23.812499366666668,0.561904013,-45.910024,-0.40328677500000004,-1.4243405860000002,10.910039425999999,-15.85938899,13.556980132000001,-2.197523047333333
123,1.0249590000000808,23.745079039999997,0.5507914226666667,-45.94263713333333,-1.7672191313333332,-0.15790414166666664,11.953439713,-9.406967163,-3.0861701966666666,-3.4494574073333335
124,1.033292000000074,23.66701444,0.6299622256666667,-45.9192098,-0.5475608506666666,-0.4360528190000001,11.936119556,-10.689424515,9.535097677,-1.7984182636666664
125,1.0416250000000673,23.563946406666663,0.6148066120000001,-45.955368066666665,-0.809383134,-0.5179094276666666,7.852864505333334,-13.570429167666667,-3.693838866,-3.5730079213333332
126,1.0499580000000606,23.451378503333334,0.6864903569999999,-45.94947306666666,-0.28572803266666674,-0.9437233063333332,8.824126324,-14.881451923333332,7.8790268103333325,-3.3948133786666665
127,1.0582910000000538,23.31789462,0.6949608923333334,-45.96617126666666,-1.9375144246666671,-1.0500973563333333,14.974437076666668,-17.187113126666667,-0.14836184166666685,-2.5529032946666668
128,1.066624000000047,23.171067553333334,0.6888916296666666,-45.99740599999999,1.676383217333333,-1.1803361076666667,11.167840641666666,-19.009559633333335,-2.4513107946666666,-3.8067682583333338
129,1.0749570000000404,23.018875123333334,0.754083693,-45.9989319,-6.5858091519999995,-0.9219536733333333,11.526501019333333,-19.393323579999997,6.852614086666666,-3.5179173553333336
130,1.0832900000000336,22.86183739,0.7413514256666667,-46.0256551,4.568032781333334,0.12757007,10.397032896333334,-20.22686831333333,-2.884863216666665,-2.8078896206666664
131,1.0916230000000269,22.635933559999998,0.7746899329999999,-46.04784646666667,-6.679545401333333,-1.6200551983333333,15.024856567333332,-28.26193809666667,2.389304163,-4.359764019666667
132,1.09995600000002,22.418596903333334,0.8218513926666665,-46.0342814,2.9185271260000003,-0.8878046573333332,10.419003805000001,-27.444921493333336,5.568498451333333,-1.155335024
133,1.1082890000000134,22.169487,0.8179483416666665,-46.06222026666668,-3.694859802666667,-1.0910806656666667,5.562917709333334,-31.040236153333336,-1.9889590740000003,-3.3019507726666664
134,1.1166220000000069,21.90727933333333,0.839966337,-46.05373636666666,1.4657069446666666,-1.0264719323333333,14.148533979,-32.832944866666665,2.5469067096666667,-0.6009873496666667
135,1.124955,21.63551139666667,0.9123759370000001,-46.04195146666667,-5.099335590666667,-0.6650900843333334,9.505789996666666,-33.816841763333336,8.306403002000001,-2.240845978
136,1.1332879999999932,21.348927816666663,0.8853316703333333,-46.0446167,4.064809640333333,-1.802416126,5.8389612836666664,-35.73116556666667,-3.446573664666667,0.2794813813333334
137,1.1416209999999865,21.032356263333334,0.985447566,-46.01400246666666,-7.6094477970000005,-0.4892255263333333,17.07397111,-39.23063914,12.244674367666667,-1.268247803
138,1.1499539999999795,20.708745323333332,0.9883698023333333,-45.977589900000005,4.386363029666667,-0.493647754,10.273683227333333,-40.28751373,1.6030872270000003,3.386206945
139,1.158286999999973,20.341826756666666,1.0427752733333333,-45.9669647,-4.249309222,-2.005992691,4.932262380666667,-45.187903086666665,6.266410828333334,-1.369300037333333
140,1.1666199999999662,19.984032950000003,1.0588274896666665,-45.92735293333333,0.9106355909999998,-0.501408915,8.754299004,-44.436017356666675,3.1765724816666663,3.1607123416666667
141,1.1749529999999595,19.622104006666664,1.1618005286666666,-45.87962339999999,-5.236276149666668,-0.241215845,14.886480333333333,-44.709092459999994,13.264591536666666,0.8664293290000001
142,1.1832859999999528,19.229750316666667,1.1600970873333332,-45.84232073333334,3.107365528666666,-1.2273988976666665,11.275759698333333,-48.54028828666667,1.0148715973333333,3.7140074569999997
143,1.191618999999946,18.819271723333333,1.2788627256666667,-45.801050800000006,-5.525584379666667,-1.4922600783333333,7.086152633333334,-50.54147593333334,14.803565821333335,-0.2643043050000002
144,1.1999519999999393,18.433860780000003,1.3257137873333333,-45.72680663333335,0.8116591376666666,0.507107859,12.755570093333333,-47.83786392333334,7.897295238333332,6.017598867333334
145,1.2082849999999326,18.027341843333335,1.4798798513333333,-45.676630666666675,-5.218514760333334,-0.547050337,14.080329576666665,-50.11513519333334,19.159369786666666,-0.39085230233333323
146,1.2166179999999258,17.61813227,1.5435588159999998,-45.58253986666667,1.4721321066666666,-0.5877700843333332,5.984453519333333,-50.73729451333333,10.459694107333332,7.930092333
147,1.224950999999919,17.214419046666666,1.7091656126666666,-45.52993266666667,-4.644608577333333,-0.31903554966666664,4.880297979000001,-49.80716959666666,20.548014006666666,-0.2350586253333331
148,1.2332840000001395,16.853523893333335,1.800042371,-45.4306183,1.6051537593333334,0.119779984,9.925218902333334,-45.06847635666667,13.658761976666668,7.569152514
149,1.241617000000133,16.505020776666665,1.994383216,-45.3678945,-5.033847888666666,-0.11881699400000001,13.64165783,-43.28248850666666,24.211228053333333,0.17057391999999996
150,1.2499500000001262,16.181190173333334,2.1250474453333332,-45.25169880000001,1.8594058850000001,0.6382997383333334,7.647291660333333,-40.72020213,18.69852352,8.396306356333334
151,1.2582830000001195,15.879654883333332,2.351600051,-45.206354766666664,-4.858425299333333,0.509643078,12.046464603333334,-37.64780108,27.368268966666665,-2.6380748746666667
152,1.2666160000001128,15.598817826666666,2.5043648480000003,-45.07173666666666,1.0301856249999999,0.28792907800000006,12.275615376666666,-35.75073751,21.744820916666665,9.946969191333332
153,1.274949000000106,15.346288683333333,2.7511626083333334,-45.04271953333333,-3.831299901,0.48486461266666664,10.907115619333332,-31.71605873333333,29.207937240000003,-4.900719960333333
154,1.2832820000000993,15.144601189999998,2.9008114336666666,-44.919779466666675,-0.20455304799999988,-0.11809092266666665,6.570863962,-26.313028970000005,20.932641983333333,8.857882659666666
155,1.2916150000000926,14.965175946666667,3.113168915333334,-44.903493266666665,-1.5172963736666667,0.08537304400000001,11.479546548,-22.90613492,24.85364024,-5.113481839333333
156,1.2999480000000858,14.827444076666666,3.286621412,-44.79879256666666,-0.9245631693333335,-0.17170548433333332,10.550963718333334,-18.593914350000002,23.060386660000002,6.1404035886666675
157,1.308281000000079,14.678834276666668,3.4864928723333333,-44.789505,-0.3569646676666666,0.5943130653333334,9.037287872,-19.184485116666668,23.222618736666664,-5.399711370666666
158,1.3166140000000723,14.53700447,3.687596639,-44.71094766666667,-2.5122016273333334,-0.765635679,11.372343700000002,-18.9850022,25.456643423333333,2.3929096656666666
159,1.3249470000000656,14.389767966666668,3.8866447606666665,-44.6934306,-1.6953859429999998,-0.2897324563333332,9.957225164,-19.09359677666667,23.391980489999998,-4.317286968333334
160,1.3332800000000589,14.253590583333335,4.060531457333333,-44.6469574,-0.7082768283333335,-2.242074211333333,9.971797942,-18.080880803333333,21.319046656666668,-0.3761709233333333
161,1.341613000000052,14.12461058,4.221560319333333,-44.638493833333335,-1.6166582526666666,-0.6156555416666667,10.448759236333332,-16.863440833333335,18.729836466666665,-4.156680206333333
162,1.3499460000000454,13.960603079999998,4.393098275,-44.61386616666667,-0.774238825,-0.8289541996666666,11.354975223666665,-21.232090953333334,20.400844576666668,-2.743926485333333
163,1.3582790000000386,13.757029533333332,4.542920430666666,-44.6075236,-1.6207898456666667,-1.433269739,11.712828,-25.80527878,17.387053806666668,-3.999534329
164,1.366612000000032,13.516569456666666,4.730970303,-44.575449633333335,-1.3165106773333333,-1.2042180103333333,12.146171250000002,-30.507644653333333,22.558164596666668,-2.1992965143333336
165,1.3749450000000252,13.209549266666668,4.8375036719999995,-44.60098776666666,-0.5016009806666665,-2.337449789,10.253146332,-37.89994367,11.487116017,-6.340388218666667
166,1.3832780000000184,12.87866656,4.990723848666667,-44.58486936666666,-2.1098378499999995,-2.8884096943333333,9.449018478333334,-41.22833569666667,18.07612419,-2.905538956333333
167,1.3916110000000117,12.475451786666667,5.097341537666666,-44.60939023333333,0.01826993633333333,-1.6107216079999997,13.381429356666667,-49.43531481666667,11.606077673666666,-6.05710872
168,1.399944000000005,12.031837779999998,5.239906628666667,-44.602773033333335,-3.7686296699999997,-2.745909770333333,9.411513091,-54.662965140000004,16.609168688666667,-3.5350727243333337
169,1.4082769999999982,11.496077536666668,5.345206101666666,-44.63765973333333,2.5069761273333335,-2.7936279773333332,10.168122449,-65.19497426666668,11.308596769666666,-6.891044061
170,1.4166099999999917,10.872890153333335,5.424641927000001,-44.67821756666666,-5.083749373666667,-2.020057062333333,8.632208346333334,-75.72233072666667,8.155714988666666,-7.440979639666666
171,1.4249429999999847,10.190364200333333,5.608833789666666,-44.6998037,0.48012125466666666,-2.3324506283333335,14.221294561333332,-82.94194666333333,21.048617442333335,-6.925587156
172,1.433275999999978,9.420090992666667,5.738076845666666,-44.76524860000001,-4.887221813333333,-2.834729214333334,13.396050292,-93.04266103666667,13.709517697999999,-11.149592400333333
173,1.4416089999999713,8.592692533666666,5.878679593333334,-44.79703266666667,2.3840742906666663,-2.5069410603333333,8.659955420666666,-100.18964128666666,15.868751426000001,-6.742812036
174,1.4499419999999643,7.680530707,6.03279527,-44.889144933333334,-5.278507073666667,-3.1419523953333335,11.151682775666666,-109.67483775666666,16.506623587666667,-14.140500706666666
175,1.4582749999999578,6.743270079333333,6.203278700333333,-44.90578206666667,1.7330184776666666,-0.37375665199999997,10.850829244333333,-113.56006368333333,19.823428470666666,-5.289539337
176,1.466607999999951,5.708085934333333,6.3929111160000005,-45.018300366666665,-4.959178288666666,-2.762979428,13.306625363666667,-124.07809703333335,20.92554489566667,-15.971193946666668
177,1.4749409999999443,4.6187559763333335,6.491504669,-45.03075156666666,3.7577402793333334,-1.7208370563333333,6.033488005,-131.8234965,11.379395723000002,-3.9356814226666663
178,1.4832739999999376,3.4895940223333333,6.679118474666667,-45.1625468,-5.827095429,-1.820288082,10.784293654333334,-135.04520926666666,21.158585070666664,-17.266160966666664
179,1.4916069999999308,2.3398564853333332,6.840514024,-45.15645346666667,0.6492089433333331,-0.89784348,11.502254009,-139.3217824,19.113196692333332,-1.7838666043333333
180,1.499939999999924,1.15209803,7.035770575333334,-45.3057963,-2.8170783516666664,-1.4150848190000003,13.060425598666667,-141.76456706666667,22.716719705333333,-18.230012893333335
181,1.5082729999999174,-0.09411219766666672,7.107614517333334,-45.320963533333334,1.2553293703333335,-2.373843829,11.162723818000002,-150.57526143333334,8.331171513,-3.1887493133333336
182,1.516606000000138,-1.359543204333333,7.303667068333334,-45.47227986666667,-3.482540855666667,-0.09246204299999998,10.651203472,-150.9923655,23.68947347,-18.06212521
183,1.5249390000001313,-2.6582408743333334,7.414216200333333,-45.50424193333333,-1.16039448,-1.4103693416666667,13.833615939333333,-156.62717183333334,13.149991272666666,-4.306464354
184,1.5332720000001243,-3.984921257,7.561186313666667,-45.63904316666666,0.31543663633333335,-0.6190980873333334,5.861509302000001,-158.50779216666666,18.471440633333334,-15.542865753333336
185,1.5416050000001178,-5.335066159666667,7.546550750666666,-45.70142619999999,-1.410296301,-1.6430244643333334,10.734825054,-162.30750020000002,-1.4289431970000006,-8.330356916
186,1.549938000000111,-6.648594617666667,7.697734197,-45.82832846666667,-2.3079622983333334,0.5032745996666667,11.779924868,-157.03126016666667,19.587914466666664,-13.817187625666667
187,1.5582710000001043,-7.975684643,7.687312603,-45.914220199999995,-0.8043377276666668,-0.12711170800000002,11.915434521,-159.1720326666667,-0.19035085099999982,-10.876009625
188,1.5666040000000976,-9.311615467000001,7.7760396,-46.02957153333333,-0.9641895890000001,-0.2766411106666667,10.562135693666667,-159.86618553333335,12.531021753333334,-12.584310848666666
189,1.5749370000000908,-10.657426991000001,7.73087279,-46.119944266666664,0.06165162733333333,-0.27519080533333334,10.088415465333332,-161.35755413333334,-3.8240414250000003,-11.748292922
190,1.583270000000084,-11.962338130333334,7.774193445666666,-46.2249349,-1.6301641566666667,1.1861044763333333,10.568601289666667,-156.29129536666667,7.496588270666667,-12.114617346000001
191,1.5916030000000774,-13.216767626666666,7.7449156446666665,-46.31990556666668,-4.154310107333333,0.5847219626666667,11.172066370000001,-150.34396360000002,-1.3090958693333334,-11.886365889666665
192,1.5999360000000706,-14.468625066666666,7.754734357333334,-46.41059873333334,0.5649341543333334,0.5561594963333334,13.124853770000001,-150.1545817,3.577357212666667,-10.69027106
193,1.608269000000064,-15.705063183333332,7.697032928666666,-46.51029966666667,-1.8505165973333335,-0.18279301866666667,6.403209527333334,-148.13516236666666,-3.9252363843333336,-13.384255090000002
194,1.6166020000000572,-16.890789983333335,7.635520776333333,-46.56965636666666,0.5747253103333332,1.0858115056666666,8.464578630333333,-142.73471576666665,-5.2375215676666675,-9.425515176666666
195,1.6249350000000504,-18.0271368,7.570918719000001,-46.67070006666666,-1.330167547,1.212714672,11.295332906333334,-136.11459349999998,-4.111917853333334,-14.077441213333332
196,1.6332680000000437,-19.11843618,7.461620172000001,-46.70057676666667,-1.8225880066666666,1.5260816016666665,11.900308608000001,-131.85043083333332,-11.522821585,-8.065935770333335
197,1.641601000000037,-20.174626666666665,7.408721765,-46.784825633333334,-2.0371360383333332,0.9471491523333332,9.937283515333334,-126.7537613,-2.8599491120000002,-12.096533776666666
198,1.6499340000000302,-21.146954216666668,7.2748627663333325,-46.80426026666667,-0.638912072,1.9780886816666667,10.901856105333332,-117.7524414,-14.481905936666665,-8.192118327000001
199,1.6582670000000237,-22.075642903333332,7.169502894,-46.8538208,-1.609135667333333,1.7299267846666666,10.608322143333334,-112.06142936666667,-9.941158135333334,-10.329469363
200,1.6666000000000167,-22.903045019999997,7.0439991950000005,-46.86046346666666,-1.6916134356666668,1.6676884096666669,10.344698111,-100.55027515333332,-13.88624573,-6.876127243
201,1.67493300000001,-23.681192396666663,6.883178234333333,-46.86811316666667,-0.8454660180000001,2.053348382333333,10.646321933000001,-94.59393819333333,-17.601966223333335,-8.952813784333335
202,1.6832660000000033,-24.37227058666667,6.789895057333333,-46.88772583333333,-1.7931992116666666,1.4686493476666669,11.279557548,-84.05736796333333,-9.529764811,-6.9965349833333335
203,1.6915989999999963,-25.00228564,6.575025876333332,-46.871709200000005,-1.3236002026666667,2.062254588,10.142351150666665,-77.19781494333334,-24.57306989,-9.243232410333333
204,1.6999319999999898,-25.56925265,6.470166524333334,-46.87588503333333,-1.735294819,1.565084378,11.315499943333334,-69.38400777,-11.4098533,-6.154419899
205,1.708264999999983,-26.05538686,6.255500793333333,-46.85805763333334,-1.96115764,2.1590259073333335,9.844227153666667,-59.99338658666667,-24.45327568,-9.474612553333333
206,1.7165979999999763,-26.486727396666666,6.138290405333333,-46.8536784,-1.9457863966666666,0.8767712710000001,10.747306505,-53.227480570000004,-13.110773723666666,-6.026945908999999
207,1.7249309999999696,-26.851843513333336,5.947143554666667,-46.845825199999986,-1.7771833639999999,1.8715636729999998,11.018338205,-45.316458386666675,-21.28306262,-9.628106435666666
208,1.7332639999999628,-27.155454000000002,5.809933503333333,-46.82607016666666,-1.3775787553333332,1.128344337,9.581068834666667,-38.114014309999995,-16.007620812000003,-5.619738737666666
209,1.741596999999956,-27.406379700000002,5.656147003333333,-46.83293660000001,-2.2318727573333335,1.306472043,10.988466896666667,-31.46487490333334,-16.38234075,-9.3559529
210,1.7499299999999494,-27.604998909999996,5.510408878333333,-46.80492146666666,-1.0633991163333334,0.9978552660000001,10.740846474333333,-25.58340009,-17.336570421,-5.348881641999999
211,1.7582629999999426,-27.77577909,5.391959349,-46.8149516,-2.5328561466666666,1.6090192796666667,11.538740155666666,-21.79009310666667,-12.389520326333333,-7.85673666
212,1.766595999999936,-27.890708286666666,5.241651535,-46.78566993333334,-1.0031232833333334,0.33955189599999996,10.460373401,-15.545614878333334,-17.85386022,-5.589712858333333
213,1.7749289999999291,-27.967782976666665,5.156540552666667,-46.797612533333336,-3.576744318,0.848837892,10.504998685333334,-10.547180016,-8.723997276333334,-6.210386594
214,1.7832619999999224,-28.007148110000003,5.016873836666666,-46.7656301,0.056478550000000016,0.18057968733333332,12.384796459999999,-6.463516036666667,-16.85571003,-4.778559128333334
215,1.7915949999999157,-28.02004242,4.956889152666666,-46.7797292,-3.6822872956666663,0.905863593,11.272607483666667,-2.8579942373333336,-5.927638252333334,-5.037039756666666
216,1.7999280000001363,-28.01425806666667,4.842481295,-46.7552541,-0.6516129573333332,-0.26565744,10.572148321666667,-0.9615886406666666,-13.766486487,-4.136725982000001
217,1.8082610000001296,-27.975188573333337,4.819118817666666,-46.7775828,-3.7112480003333332,1.3620623153333333,11.378049532666665,3.427466471666667,-1.5910580159999999,-3.8374907173333335
218,1.8165940000001228,-27.94380061,4.7333881060000005,-46.759114566666675,-0.07688217366666668,-1.2185636956666668,11.083033878666667,2.1793065863333334,-10.386544226333333,-3.1574118136666667
219,1.824927000000116,-27.88052241,4.735588391666667,-46.7754313,-3.9786751270000003,0.36272622433333335,11.474403379666667,6.279347102,0.7809267240000001,-1.772441188666667
220,1.8332600000001091,-27.82817332,4.697726805666666,-46.7731018,-0.33205952266666666,-0.597034698,10.748523553333333,4.840223948333334,-4.423625787,-2.1398817
221,1.8415930000001024,-27.758410769999998,4.70983696,-46.7926534,-3.165326754,-0.36710012866666664,10.894098918666666,7.096461773000001,2.005637507,-1.5547840993333333
222,1.849926000000096,-27.69809341333333,4.7216558456666675,-46.80662026666667,-1.5936128299999999,-0.544356505,13.146382650333335,5.9419010483333325,1.7710451683333333,-1.1042424243333333
223,1.8582590000000887,-27.646549860000004,4.742831707,-46.81911723333334,-2.756921370666667,-0.25071007500000003,9.868069170333333,4.859776179000001,2.573607802333333,-0.31183198100000004
224,1.8665920000000824,-27.57593409333333,4.787316799333333,-46.85091653333333,-0.4448887606666667,-1.059945484,11.740330379666666,7.328570842666667,6.224234739666667,-1.1728161773333332
225,1.874925000000076,-27.543119433333334,4.809806347,-46.864440933333334,-3.1100391943333334,-0.39271725733333335,10.521759985666668,2.6318369706666664,2.7884897389999996,-0.37033913533333335
226,1.883258000000069,-27.501043319999997,4.8739163083333334,-46.91069033333333,-1.0418846606666667,-1.3263143006666667,10.667836348333333,4.0548320213333335,9.128061782666668,-1.678415537
227,1.8915910000000624,-27.48412832,4.916698138,-46.92342123333333,-1.774850827,-0.7258154153333333,12.539845149333333,0.741741518,4.911816160333333,0.8462217650000001
228,1.8999240000000557,-27.470172883333333,4.965358416333334,-46.9599101,-1.1975475949999999,-0.6960212393333333,9.883454641,0.5911723773333333,6.945791660666667,-1.5453496773333333
229,1.9082570000000487,-27.47171656333333,5.0281577109999995,-46.98821006666666,-2.061991234666667,-1.123795569,11.417430084333333,-1.3267960946666668,7.912207167666668,0.3120667636666667
230,1.916590000000042,-27.493020376666664,5.090363025666666,-47.01972453333334,-1.7750402289999998,-0.6674252150000001,9.421441556333333,-3.646485328666667,8.128682374999999,-0.3117593326666667
231,1.9249230000000352,-27.531871796666668,5.163070519666666,-47.05931596666667,-1.454679965666667,-1.52478534,12.668477376666665,-5.723006646666668,9.598480383333333,-0.3475638343333333
232,1.9332560000000285,-27.560171126666663,5.219042937,-47.076004033333334,-2.3329135180000002,-0.17658835400000003,10.193515142,-4.5828221639999995,6.637742359000001,0.944076697
233,1.9415890000000215,-27.606134413333336,5.316672484333334,-47.116353333333336,-2.070237994333333,-0.794090986,11.096107166666668,-6.6003040476666675,12.296469132333334,0.9515009126666666
234,1.949922000000015,-27.655693056666667,5.352899233333332,-47.13626096666667,-0.37469275799999996,-0.839250962,9.435641765,-7.078964629999999,4.708978055333333,-0.4495682616666666
235,1.9582550000000083,-27.70629692,5.4681572916666665,-47.18213906666667,-2.8740307586666667,-0.057046929999999975,11.712881801999998,-7.080979506333333,14.479530970333336,1.335377097
236,1.9665880000000016,-27.787144343333335,5.521914004999999,-47.19869483333333,-0.5610809126666667,-1.2362801126666667,11.312072952333333,-10.892088255333334,6.392017046666666,0.9101208646666666
237,1.9749209999999948,-27.825911203333334,5.5882495243333326,-47.226923633333335,-1.325265246,-0.20412687,8.255318641666667,-5.776932716666667,8.298906009333335,0.45449048266666664
238,1.983253999999988,-27.882225036666668,5.667425950333334,-47.243830366666664,-1.436821471,-0.35000749433333334,12.233709334666665,-8.010281085999999,9.114806014666668,2.316496293
239,1.9915869999999811,-27.94130325333333,5.691608588,-47.26286313333333,-1.375551184,-1.1615524096666667,7.111282746333333,-8.235661824333334,3.316120526666667,-0.9419553153333333
240,1.9999199999999744,-27.986603416666668,5.771248817333333,-47.283482899999996,-1.3333915670000003,-0.643604125,14.346489586999999,-6.696266810333334,9.371110518,1.9389296773333335
241,2.008252999999968,-28.078893660000002,5.785977681333333,-47.306289666666665,-2.099007033,-1.1484413543333332,12.767230669,-12.192651114333335,2.5390601939999997,-1.8399476213333334
242,2.016585999999961,-28.14231236666667,5.837298393,-47.299957266666674,-2.280306697,-0.8338164093333335,8.192102035666666,-9.148697217,4.857800960333334,3.145962000333333
243,2.0249189999999544,-28.21819114666667,5.8907249770000005,-47.345926933333324,-1.0065858763333335,-0.277843555,13.543675106,-10.013638655666668,7.9465736993333325,-2.043145179666667
244,2.033251999999948,-28.318324406666665,5.8840217589999995,-47.32858786666666,-1.4734119176666667,-1.4915372133333333,8.095889567999999,-13.601314863333334,-1.9332309963333338,1.0310201296666668
245,2.041584999999941,-28.40635236,5.9517884253333335,-47.37396243333333,-2.9236298400000003,-0.6542071503333333,13.712024053333332,-11.566733356666667,9.439635279,-1.135056913
246,2.049917999999934,-28.52191607,5.970555464333334,-47.3735962,-0.17953505899999997,-0.842610518,10.457094115333334,-15.211828233333334,1.710062306,0.7540576853333333
247,2.0582509999999274,-28.615048723333334,6.004924297333333,-47.39921569999999,-2.1194550223333333,-0.489853362,8.180159410333333,-12.405028023333335,4.7942530303333335,-1.0060207446666667
248,2.0665839999999207,-28.709821066666667,6.079750061000001,-47.42288206666666,-1.348503669,-1.428239743,11.631072363333333,-12.471011163333335,9.006624995000001,1.4793718159999998
249,2.0749170000001413,-28.819901149999996,6.077158610000001,-47.43159993333333,-1.414348453,0.40593318133333334,7.915842374,-14.564684233333333,-0.06949154533333335,-1.3794634739999998
250,2.0832500000001346,-28.91101519,6.154476801666667,-47.463648500000005,-1.6933885613333333,-1.5055891670000001,13.1683286,-12.020243963,9.753119152333333,0.775885294
251,2.091583000000128,-29.006045656666668,6.193764368666667,-47.48083496666667,-1.4444611070000002,0.28528083366666673,10.365474858,-12.575234413333334,4.816917509,0.19661920966666668
252,2.099916000000121,-29.081950503333335,6.237207571666667,-47.48791503333334,-2.8701096773333337,-0.910898134,8.508552869333332,-10.498252234,4.7429464643333334,1.3838606076666666
253,2.1082490000001144,-29.13948377,6.312177975666667,-47.5198924,0.024863719999999923,-0.09547278266666664,12.522546766666665,-7.941908043333334,9.410979947,0.8138840056666666
254,2.116582000000108,-29.213449479999998,6.316551049666667,-47.52005513333334,-2.5643000206666664,-0.606254359,7.469628652,-10.265444120666666,0.23882830133333321,-0.17733162633333333
255,2.124915000000101,-29.248140969999998,6.394704023999999,-47.545562733333334,-1.7518624763333335,-0.073452314,14.000842095666668,-5.381833632,9.369416953,1.6631881793333332
256,2.133248000000094,-29.29021136,6.425626119,-47.565633166666665,-1.6228372556666668,-0.43390695266666673,11.016564529333332,-6.133671283666668,4.165217596666667,-0.6164963693333334
257,2.1415810000000874,-29.314842863333336,6.437451362666667,-47.56187946666666,-1.1416021786666668,-0.6029832066666666,7.796658197666666,-4.545024156666666,0.7273635070000001,0.7731186449999999
258,2.1499140000000807,-29.316834133333334,6.508476257333332,-47.60391743333333,-2.16598655,-0.9555162660000001,11.925673803333334,-1.0956873893333334,9.659466107,-0.552592973
259,2.158247000000074,-29.344242093333335,6.511166413999999,-47.60217286666667,-0.01775666833333328,-0.9835960463333334,7.796021542666668,-4.7648026943333335,-0.12773370733333334,0.0656791626666667
260,2.1665800000000672,-29.334284463333333,6.514679909000001,-47.61810303333334,-1.9499540726666666,-0.24842287666666665,12.496666910000002,-0.07433247566666672,1.069172382666667,-1.8368737296666664
261,2.1749130000000605,-29.331125259999997,6.582533200666667,-47.65521239999999,-2.052596907,-0.78104498,13.059587796666667,-0.5648878860000001,8.961998700333334,-0.12151819433333333
262,2.1832460000000538,-29.33242289333333,6.5617469150000005,-47.658843999999995,-1.6638546386666668,-1.1510944166666666,8.410214902,-1.5287429393333334,-2.1836564143333335,-1.9985080556666668
263,2.191579000000047,-29.30527559666667,6.609317143666668,-47.674947100000004,-2.1720797616666663,-0.49525847033333337,11.841753005333333,1.9759249686666667,5.612493197333333,0.8384350736666666
264,2.1999120000000403,-29.297489803333335,6.625362237333333,-47.711176566666666,-1.4612737100000002,-0.9496767323333333,11.353679336999997,0.014015183000000006,3.5534802476666663,-3.176233291666667
265,2.208245000000033,-29.272654216666666,6.612744172333334,-47.69530743333333,-0.5697787103333333,-0.813757956,10.144422849333333,1.298441087,-2.555169622333333,0.653863152
266,2.216578000000027,-29.26239331666667,6.603664875,-47.7216797,-3.1622712609999994,-0.657642593,13.329661369999998,0.12310628099999998,0.3607122900000002,-3.680620432
267,2.22491100000002,-29.24533780333333,6.637906074333333,-47.74208576666666,-1.050361077,-1.1169456443333334,12.830531756666668,0.8798149823333333,4.45884943,-0.3441400626666667
268,2.2332440000000133,-29.233286539999998,6.604582786666666,-47.7524058,-1.405296127,-0.6771938753333333,9.167853672666666,0.14949322733333334,-3.098443024,-3.4323331913333335
269,2.2415770000000066,-29.214809416666668,6.598360855999999,-47.7484029,-2.1228673456666667,-1.6144303083333333,9.900989058333334,0.6685913006666667,-1.1983151436666666,-0.2161414026666666
270,2.24991,-29.1904068,6.6132577260000005,-47.788380933333336,-0.4153094886666668,-0.7838855583333334,10.821412404666667,2.021795769666667,3.6555788516666667,-3.6399451493333337
271,2.258242999999993,-29.19768969,6.574167887333334,-47.77271016666666,-1.3234099843333333,-1.6435270113333333,9.788064481,-2.552544117,-5.325003782666667,-0.9043917656666668
272,2.2665759999999864,-29.19344711333333,6.565080960666667,-47.79685973333334,-3.234915653666667,-0.633780857,11.477775733000001,-0.6701239726666667,0.23009335966666633,-3.456496119666667
273,2.27490899999998,-29.192450206666667,6.611241976666666,-47.83565266666667,-1.446798374,-0.9744124016666666,13.290335656666668,-0.8150790833333333,6.765859764000001,-1.5372211413333332
274,2.283241999999973,-29.224458056666666,6.566317240666667,-47.8462575,-2.013144374,-1.6283000706666666,9.533865611333335,-5.165802558,-4.293928066666667,-4.164730032333334
275,2.291574999999966,-29.22822761666667,6.600860595666667,-47.86508686666667,-2.2881762586666667,-1.8301119806666664,9.301388262333333,-1.7020148836666664,4.384175459666667,-0.16095970066666668
276,2.2999079999999594,-29.259424206666665,6.6320085523333345,-47.90878803333334,-0.5042063196666665,-0.4611606756666667,11.170357706666666,-4.588576833333334,5.568696975999999,-3.051210403666667
277,2.3082409999999527,-29.31471061666667,6.589424133333334,-47.90442403333333,-0.916502987,-2.092218319666667,6.899738232333334,-8.152439356333334,-5.049291612,-2.276985844
278,2.316573999999946,-29.3448925,6.644784609333333,-47.9500936,-2.8835896653333335,-0.4145816963333333,13.261747676666667,-4.493241151333333,8.240711211333332,-1.8926020909999999
279,2.324906999999939,-29.411255519999997,6.673127492333333,-47.98405963333334,-1.4754503966666668,-1.212311953333333,12.680147173,-8.932248591333332,4.597875496,-2.033365061
280,2.3332399999999325,-29.46745555,6.66833814,-47.985539733333326,-1.860339979,-1.8819434243333333,9.721676827333333,-8.193371296,-0.6369279226666666,-0.8451374970000001
281,2.3415729999999257,-29.515267693333332,6.748480161000001,-48.0388285,-2.4818098643333335,-0.8879189096666668,12.750120163,-6.499442577666666,11.148030122000002,-0.9640047253333334
282,2.349905999999919,-29.598260879999998,6.732864221,-48.03892516666667,0.029851774333333376,-1.2720698713333334,6.609353025,-11.358661012666667,-1.8756333193333334,-1.2758196990000001
283,2.35823900000014,-29.649059296666668,6.746257782000001,-48.06277466666666,-1.1294117033333335,-1.448293964,9.395853520333334,-7.291890303333333,2.4477818806666662,-1.8733952446666666
284,2.366572000000133,-29.7117068,6.7976946830000005,-48.09816486666667,-2.5291295446666666,-0.34259525900000004,13.721660613333333,-8.472993850666667,7.232970237666667,-0.9885772863333333
285,2.374905000000126,-29.779283520000003,6.775921662666666,-48.10385639999999,-1.616530597333333,-1.268525064,8.565193971333334,-9.499066351333333,-2.3044746713333333,-2.0461508333333334
286,2.3832380000001194,-29.832370123333334,6.820473989,-48.12341816666666,-1.2908628979999999,-1.5922863283333335,10.537834644,-7.605575719333333,5.572753907666667,0.25336746400000004
287,2.3915710000001127,-29.919334409999994,6.8157293,-48.1489207,-0.8785543493333333,-1.1640045443333333,8.603750528333334,-11.530737242999999,0.6228612676666666,-3.0022025106666668
288,2.399904000000106,-29.973142626666668,6.784307639000001,-48.12364706666667,-0.6437317503333334,-0.5607810936666666,6.958015282999999,-8.251258850333334,-5.001188040333333,0.31620345499999997
289,2.408237000000099,-30.026351293333335,6.814188003333332,-48.181706733333336,-3.2481984296666666,-1.002795428,13.701847710000001,-7.116604328333334,6.174559902333333,-4.312613725666666
290,2.4165700000000925,-30.07892545333333,6.8076127369999995,-48.17581176666667,-0.696757468,-1.194990317,11.414893784666667,-7.784166336000001,-1.2756697320000001,-0.1374246676666666
291,2.4249030000000857,-30.12116623,6.7838071189999996,-48.1952006,-2.869541724333333,-0.412093858,11.027733484666667,-6.364181677666667,-1.695359389,-3.587384859666667
292,2.433236000000079,-30.168614706666663,6.815944353666666,-48.21229046666667,-1.5579111576666669,-1.5833826459999998,11.097284952,-6.883416176,4.1330444533333335,-0.189519664
293,2.4415690000000723,-30.20391782333333,6.7639908790000005,-48.22249346666666,0.9307868379999998,-0.8893946009999999,6.529318888666666,-5.562515894666666,-5.176479814666667,-4.292135238666666
294,2.449902000000065,-30.245735166666666,6.736620426333334,-48.21659853333333,-2.818818052333333,-1.2722544869999999,11.391411144666668,-6.5851216316666665,-3.4153297743333333,-1.461770395
295,2.458235000000059,-30.276791256666666,6.748134454333333,-48.25183613333334,-1.3263957103333333,-0.8611539380000001,12.018730163333332,-4.732708056666667,2.9131408533333336,-3.020370801
296,2.466568000000052,-30.312520343333333,6.709798018333333,-48.235137933333334,-1.7307863733333333,-1.1498784896666667,8.371897538333334,-5.9324282010000005,-5.195301692,-1.0154809256666666
297,2.4749010000000453,-30.31433423333333,6.706013361666666,-48.23875426666667,-1.6817762156666667,-0.9121191006666667,10.911883829333334,-1.7436164319999998,-0.5645803609999996,-0.7233117816666667
298,2.4832340000000386,-30.3280042,6.704194068666666,-48.25099693333334,-1.7005559156666668,-1.1545976993333333,9.427755516333333,-2.849131450333333,0.2830755810000003,-1.6703299906666667
299,2.491567000000032,-30.330570856666668,6.638512611333333,-48.2193095,-0.5070595313333334,-0.6141858896666667,7.745438893666666,-2.281353414,-9.098689238666667,-0.8475153049999999
300,2.499900000000025,-30.31697209666667,6.6704613366666665,-48.24153140000001,-2.7890165249999996,-1.0920992293333334,12.215053240000001,0.4681771196666668,4.412829439,-0.7373228370000001
301,2.5082330000000184,-30.301534653333334,6.670456409333333,-48.23841350000001,-1.015993764,-0.6845934043333334,11.028883937333333,0.31080754599999993,-0.5816140569999998,0.22683540500000002
302,2.516566000000012,-30.25215276,6.674696286333333,-48.220993033333336,-2.879183292333334,-0.24988524133333334,10.163223427,4.2437965669999995,-0.8285992146666668,1.629577597
303,2.524899000000005,-30.17964109,6.732929070666667,-48.23481243333333,-2.2277869183333334,-0.6753001213333333,10.938745183333333,7.348499278666666,6.479719718333334,1.9693338476666666
304,2.533231999999998,-30.086481093333333,6.768899917666666,-48.227661133333335,-1.406642616,-0.259372413,10.218020281333333,9.689331691,3.0854819816666663,2.525538196
305,2.5415649999999914,-29.96284230666667,6.804589589333333,-48.221272766666665,-1.8827686579999998,-0.209051537,9.378018696,13.171677192999999,2.9395681210000006,2.6357269286666667
306,2.5498979999999847,-29.79985364,6.893518447999999,-48.23235573333333,-2.765772064666667,0.2886234623333333,11.914100967333333,18.29651769133333,9.691777707333335,3.812693635666667
307,2.558230999999978,-29.593150453333333,6.927631060333333,-48.217173233333334,-0.7087653376666667,-0.15187308933333332,8.312394460333332,23.077171643333333,2.2680986720000003,3.4793159166666663
308,2.566563999999971,-29.335401536666666,7.033322493333333,-48.22064209999999,-2.081316391666667,0.034956485,9.823431333333334,29.484295526666667,11.000316780333334,5.485665956999999
309,2.5748969999999645,-29.041947046666667,7.095906575333333,-48.21282446666667,-0.5767980863333332,-0.01557480299999999,10.591363588666667,33.63042322666667,5.722625097000001,4.412436723666667
310,2.5832299999999577,-28.690847396666666,7.164842129,-48.203445433333336,-1.7022439243333334,1.0739630910000002,7.229755241666667,40.526750566666664,6.476756492333334,4.537104686
311,2.591562999999951,-28.27379417666667,7.262394587333333,-48.20503233333333,-2.478630304333333,-0.03274726899999999,13.020366668,48.556492490000004,10.008850891666667,5.315235932666667
312,2.5998959999999443,-27.791135153333332,7.328549067333333,-48.17013550000001,-0.9172687109999998,0.5696324706666668,7.2778897286666675,55.98949814,4.846086422666667,7.027701854333333
313,2.608228999999937,-27.25304158333333,7.432224273666667,-48.165980033333334,-2.177635471,0.9203973313333332,10.295072555333334,62.94843419333333,10.438253245666667,5.974957624999999
314,2.6165619999999308,-26.652866363333334,7.520384152666668,-48.13437906666667,-0.8270654926666666,-0.233327528,11.219962439666666,70.15238444,7.512196382333333,7.8969036736666665
315,2.624894999999924,-25.991149903333337,7.589332262666666,-48.10772196666667,-2.224460601666667,1.595958551,9.733511288,77.44377009,5.660991332666666,6.285250981666667
316,2.6332279999999173,-25.26849556,7.698374430333334,-48.074020399999995,-2.3432359693333336,0.0018226303333333342,12.002200446666668,84.7846756,9.895222027666668,8.889505068666667
317,2.641561000000138,-24.470532736666666,7.780291875333333,-48.03471376666667,-1.159619997,0.24634465933333335,8.973498346,93.62455240999999,6.6255685490000005,8.251910845333333
318,2.649894000000131,-23.617439906666664,7.876395861333333,-47.97768656666667,-2.5562028089999997,1.3622231486666667,10.473868690000002,100.01644133333333,7.594073615,10.434018451
319,2.6582270000001245,-22.710722606666668,7.987180074000001,-47.943033833333324,-0.9598097406666667,-0.1693716443333333,12.1770401,106.74151104000002,10.309277218666667,8.871914544666666
320,2.6665600000001177,-21.746407826666665,8.055693626666667,-47.861750300000004,-1.9130381343333334,-0.092701204,9.005826951333333,112.97789763333333,3.8290028570000003,11.634046238333333
321,2.674893000000111,-20.72592925666667,8.182585716333334,-47.813247700000005,-2.090846777,1.6561766863333334,11.760027886666668,120.12826536666667,11.856875738333335,10.504759153666667
322,2.683226000000104,-19.667315799999997,8.254447778000001,-47.71873983333333,-1.3682971296666668,-0.7781638503333334,7.019535780999999,124.05576833333333,4.1011393069999995,13.226017316333333
323,2.691559000000097,-18.53512764,8.380575498333334,-47.64962766666667,-2.017275254,0.5001610516666667,12.994515421000001,133.16919196666666,11.398245094666668,12.222727140000002
324,2.6998920000000908,-17.380505563333333,8.443580944999999,-47.54159036666666,-0.8279522856666667,0.39213543133333334,10.226754667666667,135.31106566666665,3.142514467666667,14.252559660000001
325,2.708225000000084,-16.14564419,8.546189784666666,-47.449117,-1.9320623673333335,0.09091138866666669,10.574527423000001,145.07903543333333,8.422033706666666,13.60435899
326,2.7165580000000773,-14.862775166666665,8.602921804,-47.32865396666667,-1.292960147,0.5613389810000001,9.817028679666667,150.4174957,2.6502853336666665,15.129380543333335
327,2.7248910000000706,-13.523341813333333,8.677658558,-47.21128336666667,-1.404976984,1.1836275059999999,11.912182491000001,157.19273886666667,5.118175982333333,15.385077476666666
328,2.733224000000064,-12.15241909,8.695013205,-47.07947286666666,-0.5720541203333334,-1.113469521,12.428945223333335,160.74567666666664,-1.5557351510000001,15.213639256666667
329,2.741557000000057,-10.718492824999998,8.728143531999999,-46.94078573333334,-2.2906703156666666,1.639344414,11.584382377333332,168.1507212666667,0.4799276576666666,16.570854823333335
330,2.7498900000000503,-9.264699460000001,8.721394538333334,-46.8137563,-2.1470599173333333,-1.1707075240000002,9.603129861333334,170.75473023333333,-3.5325172743333333,14.016702333333335
331,2.758223000000044,-7.770358087000001,8.737096785,-46.652760833333325,-0.488637944,-1.127400756,11.084196727333333,175.01873779999997,-1.0613083046666667,18.602512360000002
332,2.766556000000037,-6.296675523333334,8.679075399,-46.529876699999996,-0.5789580543333334,-0.45057410000000003,8.136442502333333,173.18818666666667,-8.925083954666666,13.015233673333332
333,2.77488900000003,-4.770574887666666,8.640747548,-46.37161256666667,-1.658641974,-0.715590318,11.385314624666668,178.871699,-6.561600645333333,17.620872496666667
334,2.7832220000000234,-3.2628865240000002,8.614104111333333,-46.25205486666667,-3.080264409,-1.083084027,15.634882293333334,177.37175496666666,-4.350189686,13.306621873333333
335,2.7915550000000167,-1.7588508526666666,8.523796082333334,-46.099268566666666,-0.5650446266666668,-1.3094402153333333,11.548001289333333,176.35930886666668,-11.798686982333335,17.080120083333334
336,2.79988800000001,-0.2630922,8.461197216,-45.98914083333333,-2.250395616,-1.5307630103333334,12.23196697,176.12865703333333,-7.965176782333334,12.478924116666667
337,2.808221000000003,1.2182175316666666,8.386513392,-45.83845010000001,-0.9160428820000001,-1.6003674669999999,14.832748409999999,173.72284443333334,-8.964702924666666,17.153714816666668
338,2.8165539999999964,2.6544493636666666,8.267995993333335,-45.744832366666664,-0.5236615613333333,-1.7422500449999998,8.258209547000002,169.30575563333335,-14.065938634,11.208367663333334
339,2.8248869999999897,4.074013491333333,8.121490001666666,-45.60135906666667,-0.9769802689999999,-3.1052277086666664,6.1577671370000004,166.46224976666667,-16.761104903333337,17.489672343333336
340,2.833219999999983,5.488691409333334,7.978602409333334,-45.52189633333334,-1.0796010693333333,-0.8198328913333333,14.264948526666666,166.9887492,-16.58749389666667,10.248853049333333
341,2.841552999999976,6.868315617333334,7.810988902999999,-45.40794880000001,-1.756333515,-1.7798641923333332,15.991727830000002,162.2292735,-18.77317842,15.178019203333333
342,2.849885999999969,8.176335653333332,7.654032230666668,-45.334376,-1.4865073119999999,-1.846441706,12.880543390333335,154.32898456666666,-17.821659406666665,10.575940447333332
343,2.8582189999999628,9.427145483333334,7.483656882999999,-45.26670836666667,-1.9282158513333332,-2.8864917756666664,12.969368616666666,147.55611163333333,-19.195009866666666,10.676346778666668
344,2.866551999999956,10.64367358,7.293371677666666,-45.216176333333344,-0.887447834,-3.045385838,7.739444972,143.68620810000002,-21.813615163333335,9.485636553
345,2.8748849999999493,11.840587298666668,7.086076577333333,-45.1850637,-2.1444755793333337,-2.5163997413333337,12.568785031333334,141.72110496666667,-23.877030689999998,7.898467064000001
346,2.8832179999999425,12.978348416666668,6.925334135666667,-45.148803699999995,-0.8694173696666666,-2.4747729696666667,9.222237111,134.5125478,-18.285425503333332,7.809050082
347,2.891550999999936,14.038504920000001,6.700393517666666,-45.151112899999994,-0.47252670933333335,-2.289168318,11.657230534666667,125.77091473333333,-26.545822146666666,5.571678161666667
348,2.899883999999929,15.008514086666667,6.601763884333333,-45.1208445,-3.3569349843333334,-3.367693424,15.633584656666665,114.59187823333332,-10.859417039666667,5.620708147666666
349,2.9082169999999223,15.921443940000001,6.376229126999999,-45.140904766666665,1.2965298689999998,-2.380230943,9.546120405333333,108.33171589,-26.926621436666668,4.728912671333333
350,2.916549999999916,16.76848793,6.288504759333333,-45.111089066666665,-4.800616264333333,-3.4669523236666664,15.23568376,99.9145228,-9.36261169,5.452853997666668
351,2.924883000000136,17.563170116666665,6.103013038666667,-45.1294047,1.4666036366666664,-2.6629950203333332,9.874784708333333,94.11636607999999,-22.133224486666666,4.269523302666666
352,2.933216000000129,18.281309126666667,6.00778834,-45.09363303333333,-5.399424473333333,-3.1012000243333335,16.200735091000002,84.4080887,-9.756597836,6.768364509
353,2.9415490000001228,18.88747279,5.863169193333333,-45.09843446666667,1.3933780193333334,-3.313976605666667,10.293411475666668,71.37050883,-16.858004253333334,4.672499736333333
354,2.949882000000116,19.463874819999997,5.838325182666666,-45.04817203333334,-6.215001424,-2.957243363,8.901449879333335,67.1856753,-1.0602494863333334,5.9433610439999995
355,2.9582150000001093,19.94755554,5.729350885,-45.02706906666666,1.612402459,-2.8905874889999996,6.258036244333334,56.39953995,-11.712061604666667,6.323067029333333
356,2.9665480000001025,20.394630433333337,5.770132382666667,-44.9711151,-4.091405789333333,-3.0830102763333334,9.721656959,51.58035532666667,6.677553694666667,3.99866724
357,2.974881000000096,20.76971562333333,5.662595112999999,-44.941630033333325,1.73259906,-1.7434955836666666,6.039573509666667,43.278841656666664,-11.098988373666666,7.3459038733333335
358,2.983214000000089,21.129713693333333,5.713537851999999,-44.894836433333346,-4.006163517666667,-1.455406954,17.914939243333336,41.211868286666665,7.499774215666666,2.554907779
359,2.9915470000000823,21.383267086666667,5.655228773666667,-44.8449656,1.213602682,-2.7060577076666665,13.13603592,28.49767112666667,-4.591465155666667,7.6385070483333335
360,2.999880000000076,21.626684186666665,5.741610209333333,-44.7887675,-5.332099279,-2.2240416206666667,14.063395740999999,27.075539273333334,11.877140502333333,1.949214518
361,3.008213000000069,21.787427903333334,5.725358009333333,-44.71727496666667,0.8261557220000001,-2.2231663266666666,7.950929402666667,17.095105806666666,1.1320416519999998,8.264687379
362,3.016546000000062,21.955171583333335,5.820731322,-44.66257223333333,-3.543314258,-1.9010171496666668,7.226691326,17.987374623333334,12.779584686333335,1.2078869143333333
363,3.0248790000000554,22.066592533333335,5.816436291,-44.591969799999994,1.8310602606666666,-1.5815120736666668,-0.3610449236666667,11.186051368000001,2.464936098333333,7.6243054070000005
364,3.0332120000000486,22.189043046666665,5.877364317666667,-44.54389953333333,-3.071955164,-0.7783324720000001,15.891400333333332,12.604468026666666,8.649847985000001,1.9513062636666667
365,3.041545000000042,22.250942230000003,5.868297100333334,-44.475387600000005,1.9722992803333337,-1.0956599513333334,11.793840091666667,5.302177906333333,1.878400284666667,7.631793022
366,3.049878000000035,22.350595473333332,5.879346053,-44.45342,-4.399857441333333,-0.14046125600000003,13.58498319133333,10.131787457666666,1.9408539930000004,1.3093921726666666
367,3.0582110000000284,22.41820780666667,5.894677321,-44.38256836666667,1.252343456,-2.045078357,13.319033306333333,5.942909161333333,4.7122702599999995,6.752293268666667
368,3.0665440000000217,22.476954776666663,5.8726186753333325,-44.3729248,-2.431800008,-0.5786915123333335,9.832100865333333,5.385997671999999,-2.275494576666668,1.5224978976666668
369,3.074877000000015,22.543960573333333,5.886805534333334,-44.3116455,0.6787917216666667,-1.060749471,6.054572104000001,5.979316234666666,4.163860323333333,5.709376335333332
370,3.083210000000008,22.610342663333338,5.794844944999999,-44.31691489999999,-1.6556206146666668,-0.2473736803333333,10.763501882333331,6.519102573666667,-10.6942447,3.1519649826666662
371,3.091543000000001,22.66686121666667,5.79307429,-44.27632143333333,-0.45801454799999997,-1.318102618,11.351042982333334,4.917528152333333,1.4567713740000003,4.105164051
372,3.0998759999999947,22.735433576666665,5.749595642,-44.27374270000001,-2.7677820526666665,-0.354964892,9.695087126333334,6.777159849666667,-4.952726701333333,1.8261329929999999
373,3.108208999999988,22.801163990000003,5.6460014979999995,-44.2687683,1.6850297453333336,-0.5379876436666667,11.284967582999998,6.3394738833333335,-11.449941109333333,4.897272427666667
374,3.1165419999999813,22.85058784333333,5.646536668,-44.25383503333333,-4.891422112666667,-1.1259736616666667,13.84639867,4.458392858333333,0.5045020403333336,1.1582928179999998
375,3.1248749999999745,22.954138439999998,5.512063026666667,-44.26628113333334,4.025536378,-0.02998798099999996,4.129589557333333,11.003227869333335,-15.668630598666667,4.5014005500000005
376,3.133207999999968,23.03367360333333,5.442045688666667,-44.286890666666665,-6.843128363000001,-0.8732374909999999,14.624388217000002,8.468243143,-8.914161362666666,0.5166092116666666
377,3.141540999999961,23.13091341666667,5.361152251666667,-44.27756246666667,3.221697489333333,-0.541953325,10.966529527333334,10.089868227333334,-8.71752739,4.4924988746666665
378,3.1498739999999543,23.24137497,5.255255142666667,-44.33679706666667,-3.5928079020000006,-0.7385812500000001,4.478868087,12.518078806666665,-14.693936665333334,-1.990721940666667
379,3.158206999999948,23.336842216666668,5.135466814,-44.341578166666665,1.6285532513333332,-0.224749161,18.49074173,10.088349342666666,-13.648664473333334,4.7551559606666665
380,3.166539999999941,23.420663196666666,5.085207224,-44.3804067,-5.119974375,-1.1537149746666666,11.220971427333334,9.067739486666667,-7.5939252386666665,-2.272704661
381,3.174872999999934,23.529507956666667,4.913110812666666,-44.41812643333333,3.9843238193333335,-0.1423600116666667,5.777880191666665,12.021251996666669,-20.96287473,3.6766349873333333
382,3.183205999999928,23.624243416666662,4.854236285,-44.464162166666675,-7.1902473769999995,-1.2493432363333332,14.574696543333333,10.475114504000002,-8.885875064333334,-2.677191913
383,3.1915389999999206,23.72346305666667,4.732561270333334,-44.480153433333335,3.687433481,-0.594070514,10.586012839666667,10.633659362333333,-14.366479079000001,3.7414040169999994
384,3.1998720000001413,23.811275480000003,4.665379206,-44.54327903333333,-4.557200829,-1.1194571853333333,8.083990893000001,9.816701572666666,-10.626347065666666,-4.090214411333334
385,3.2082050000001345,23.88283475333333,4.546452284,-44.54733279999999,0.49011637766666655,-1.1294822096666668,14.739329016666668,7.202716350666667,-13.467512450000001,4.898937384333333
386,3.216538000000128,23.940319693333333,4.5479777656666664,-44.58185319999999,-3.990490516,-0.36790940166666664,13.012848536666667,5.881161211666666,-1.7153390250000002,-4.244142214333333
387,3.224871000000121,23.99250666333333,4.430535713666667,-44.5956777,1.70366776,-1.111031552,4.392289787666667,4.990845124,-13.770104093333332,3.8133240936666666
388,3.2332040000001143,24.03382492,4.405936559,-44.63233439999999,-4.6346031026666665,-1.0419667363333331,10.395994185333333,3.9499496423333333,-4.689305383333333,-3.247236470666666
389,3.241537000000108,24.071876526666667,4.358018319,-44.63624063333334,-0.871110757,-0.09426481999999999,12.80362034,3.155708511333333,-5.6641233563333335,1.51373744
390,3.249870000000101,24.102650323333336,4.363755146666667,-44.657933566666664,-1.8817201853333332,-1.2255181273333335,7.961689630333333,2.562939286,-0.6521386776666667,-3.0747029383333335
391,3.258203000000094,24.13185310333333,4.311290423,-44.67174273333333,-1.054300944,-1.6322253943333334,10.350447655000002,2.244793231,-6.641746362666666,0.6386653483333333
392,3.266536000000088,24.156841916666664,4.386311372333333,-44.66810610000001,-1.488005924,1.2774597306666666,15.668837863333332,1.6247405209999999,8.179172434,-3.6977267663333335
393,3.2748690000000806,24.170824686666666,4.378320376333334,-44.6553294,-0.826084534,-1.4528970716666667,11.230640727666668,0.2056312560000002,-0.4615510493333333,1.4150840390000001
394,3.283202000000074,24.16310692,4.423753738333333,-44.66782123333332,-0.3875165780000002,-0.0938016,8.458139736,-2.145947814,4.138991276333333,-4.0204660096666665
395,3.291535000000067,24.171537400000002,4.489501476,-44.63880413333334,-4.534978787,-0.11261226733333335,14.090023043333334,-0.6216957863333333,8.407754540666668,-0.4736244476666666
396,3.2998680000000604,24.189460119999996,4.579129696,-44.6127065,0.7701374689999998,-0.9626780149999999,14.769744556666666,0.516114012,10.876292864666667,-1.9439371823333333
397,3.3082010000000537,24.177859623333333,4.641836404666667,-44.592666633333344,-2.796239038333333,-1.1599242686666666,8.964266459000001,-2.931951306666667,7.632949807999999,-1.3070476456666666
398,3.316534000000047,24.186478930000003,4.781694015,-44.53779093333333,-0.37297844899999993,0.22759942733333335,9.646719613666667,-0.8973694246666667,17.775037766666667,-1.324047049
399,3.32486700000004,24.189385096666665,4.867460092,-44.4938558,-1.090095997,-1.833132744,7.065444310666667,-1.4447110890000001,11.326248487666666,0.18736388299999995
400,3.333200000000033,24.173472720000003,4.927056153666666,-44.47524516666667,0.9951435306666667,-0.11679475,8.638903776,-3.5149396260000003,7.182331324333333,-1.4048299789999998
401,3.3415330000000267,24.173587163333337,5.040300449,-44.41490683333333,-4.40256381,-0.18824205799999993,10.891306876666667,-1.946157058,15.143462976333334,0.6241977813333333
402,3.34986600000002,24.178974786666668,5.097029447666666,-44.37701926666666,1.8163059153333334,-0.4380397993333333,9.138357957333334,-1.170673271,7.801115115666666,0.8390455346666666
403,3.3581990000000133,24.152437210000002,5.145685911,-44.349746700000004,-2.780085802,-1.1725802223333333,14.057231586666667,-4.8475582600000005,6.4493910130000005,0.1494291626666667
404,3.3665320000000065,24.126326246666665,5.218413273666667,-44.288762433333325,-0.05628932499999997,-0.13061896966666664,12.898607570000001,-5.180428345999999,10.682563465333333,2.5862183573333337
405,3.374865,24.07700665666667,5.2305456003333335,-44.26627606666667,0.6360186339999999,-1.695187092,3.3318314153333333,-7.519977051999999,2.2090788480000003,1.4625258446666667
406,3.383197999999993,24.036661783333333,5.2038717273333335,-44.25973509999999,-0.7900079089999998,-0.173262328,10.480853082666666,-6.356194575666667,-2.8663012086666666,1.4577660559999999
407,3.3915309999999863,24.006481806666667,5.225537618,-44.21699523333333,-2.012575586666667,0.153460473,14.144254686666669,-5.4410658676666666,4.241132736666667,3.2290762663333337
408,3.39986399999998,23.97396532666667,5.162289301666667,-44.2309367,0.4992070046666666,-1.0445062120000002,7.501540342999999,-5.180458704666667,-7.876553536666667,1.0319845776666667
409,3.408196999999973,23.92634264666667,5.1189893086666665,-44.22033183333334,-1.5061352546666666,-0.8012319603333333,11.477309863666667,-7.187197048333334,-4.446951786666667,2.847867787
410,3.416529999999966,23.888667423333334,5.046735525333333,-44.235473600000006,-1.232716878,0.5096830826666666,14.425433156666665,-5.840571880333333,-8.925949177,1.3127723036666668
411,3.42486299999996,23.828988393333333,4.979947249333333,-44.23282369999999,0.6211287976666667,-1.343776425,8.327721754333334,-8.504532973333333,-7.4163802463333335,3.150952716666667
412,3.4331959999999526,23.773698173333333,4.838172435666667,-44.293594366666674,-0.9239662289999998,-0.19801059866666668,5.837219873666666,-7.473757583333334,-18.76532809,-0.3357474006666668
413,3.441528999999946,23.717107773333336,4.732231299333333,-44.295786533333334,-0.68549333,-0.6340487699999999,12.470406213333334,-8.122582913,-11.956037639666668,4.4711454113333335
414,3.449861999999939,23.671577453333338,4.611141046,-44.348999033333335,-2.530238171333333,0.08425733466666667,12.92219194,-6.389677206666666,-16.094701133333334,-0.4521722793333332
415,3.4581949999999324,23.639400483333333,4.516710519666667,-44.346522,-1.545303197,-1.0201159716666666,10.108723322666668,-5.156329631666666,-10.472778321666668,4.427817702333333
416,3.4665279999999257,23.60022036333333,4.357153812666667,-44.409423833333335,-1.5439312756666668,0.21922028066666668,14.27138138,-5.5617962663333325,-20.786408743333332,0.3329936266666665
417,3.474860999999919,23.549376806666668,4.292938788666667,-44.39383443333333,-1.356097142,-1.0563720963333334,10.731348993,-7.480958461666667,-6.5310542583333335,4.420953353333333
418,3.48319400000014,23.52841949333333,4.158537228666667,-44.45085143333333,-0.8274631796666666,0.4181716146666667,5.676487128000001,-3.4621702829999994,-17.74655056,-0.2866059939999997
419,3.491527000000133,23.50125313,4.079278787,-44.43222553333333,-1.8806047043333336,-2.0298171443333337,11.463331856666665,-4.6830682753333335,-8.044271469,5.446713805333334
420,3.499860000000126,23.46535492,3.974315881666667,-44.48101806666668,0.17337453366666666,0.5831611863333334,10.587615014333332,-5.330229362,-14.121746060000001,-0.7952360313333333
421,3.50819300000012,23.444805143333337,3.93662254,-44.45249430000001,-4.918642998,-1.2933561206666664,8.670456091666667,-3.9470299879999993,-2.997002424,4.533399422666667
422,3.5165260000001126,23.409633636666666,3.8495449226666665,-44.47591653333333,0.9025559626666667,-0.21830937266666664,12.23886171733333,-5.447546323,-10.948348999333334,1.1157732506666667
423,3.524859000000106,23.367554983333335,3.859999259333333,-44.44613136666666,-4.855310281,-0.9179880616666667,11.266709009000001,-6.539831002333333,2.3586661019999995,2.390419165
424,3.533192000000099,23.351908366666667,3.830143372333333,-44.434168500000006,0.02414005999999998,0.2908542553333333,10.149216971333333,-3.3810239633333334,-2.950799385,2.304863482333333
425,3.5415250000000924,23.331060410000003,3.851479928,-44.407653833333335,-4.449744542333334,-0.8342705169999999,10.428304033666667,-3.9803880853333333,3.400836308666667,1.512747446666667
426,3.5498580000000857,23.302356083333336,3.883677005666667,-44.35727946666666,0.7519666353333335,-0.347295334,11.814108849999998,-5.243819634333334,5.644647718000001,3.4585071393333333
427,3.558191000000079,23.290468219999998,3.9576063156666663,-44.3316447,-5.152383486333334,-0.7251064079999999,8.504021963333335,-2.9156816006666664,9.157303690666668,-1.082935363
428,3.566524000000072,23.27984619333333,3.9838999906666666,-44.2615255,1.539595599,0.1441144543333333,11.433795294000001,-3.2406791846666665,5.896187861666667,5.8394869563333325
429,3.574857000000065,23.251419069999997,4.1303743520000005,-44.22313943333333,-5.004536628666667,-1.2638907730000002,11.630836488333332,-5.020754894,17.75557931333333,-3.1037803096666665
430,3.5831900000000587,23.24608802666667,4.167965094333333,-44.14040119999999,1.6175156036666667,0.20164865266666668,8.478897411333334,-2.7518529493333332,7.727482794666666,6.661708515333333
431,3.591523000000052,23.221707660000003,4.330469847,-44.11024476666666,-4.839536666666667,-1.2967462593333334,11.700169244666666,-4.498753865333334,19.13700993666667,-4.749517952666667
432,3.599856000000045,23.208998363333336,4.408224185333333,-44.00258383333334,2.057555437,-0.5218883753333333,10.489938101,-3.8962206046666665,13.330547966666666,7.512656449999999
433,3.6081890000000394,23.184782029999997,4.551838238666666,-44.0032196,-4.360345999333333,-0.6590340383333334,10.582750001666668,-4.239280621,15.605339686666667,-7.240227540333334
434,3.616522000000032,23.16001129,4.670389572666667,-43.8692576,2.195712546333333,-0.487354239,11.639593759999999,-5.646391709666666,19.06580925,8.498354276
435,3.624855000000025,23.130152383333336,4.788484017000001,-43.88831583333334,-4.385813315666667,-1.033134838,10.500415324333334,-4.7416955629999995,11.925896963333335,-8.065365474666667
436,3.6331880000000174,23.08589299666666,4.912982305,-43.74172976666666,2.2627907196666666,-0.8407257596666667,11.59787718,-8.154295603333333,20.295625686666668,9.618973892333333
437,3.641521000000012,23.043045683333332,5.016718467,-43.77900693333333,-4.220647255666667,-0.5038256646666667,10.101193111666667,-6.137171904333333,9.498959381333334,-9.392886478666666
438,3.649854000000005,23.00140381,5.129659573333334,-43.63406883333334,0.9056868156666665,-2.072717984666667,11.065657619999998,-7.863244694,18.929089226666665,10.019063631666667
439,3.658186999999998,22.95103772666667,5.215445359666667,-43.67815653333333,-3.236946344333333,0.15281585866666667,10.646122931999999,-6.970791816666666,7.209606867333332,-9.299374264
440,3.6665199999999913,22.90727551666667,5.289731582,-43.561218233333335,0.6675763686666666,-1.583344817333333,11.090505282666667,-7.865181922333334,13.340835886666667,8.786145528333334
441,3.6748529999999846,22.847469966666665,5.398177384999999,-43.588048333333326,-2.676317234666667,0.9413263399999999,12.754844030000001,-8.280823230666666,10.532259783666666,-8.436165170999999
442,3.683185999999978,22.786231996666668,5.456560611666667,-43.49353026666666,-0.593290607,-1.8640962046666667,11.478372890666668,-9.723862328666668,10.523423511333334,7.085787455333333
443,3.691518999999971,22.707871120000004,5.589555263666667,-43.486623133333325,-1.5143961710000002,1.0441976586666666,11.811293283333335,-10.878791171666668,14.82133929,-5.826842387666666
444,3.699851999999965,22.63977432333333,5.631778717,-43.4341685,-1.6672013603333333,-1.5381579996666666,11.053660393333333,-10.113244057666668,6.779879252000001,3.202706496
445,3.7081849999999577,22.585885366666663,5.7800893779999996,-43.400263466666665,-1.7204695716666667,0.146579067,9.250880400666667,-8.261421679666666,17.773241043333332,-3.5146451793333333
446,3.716517999999951,22.53837204,5.812984466333333,-43.37954713333334,-1.3918031849999999,-0.833478262,11.93609651,-7.276117007,4.279691139666666,0.12905313566666665
447,3.724850999999944,22.496815363333337,5.937856197666666,-43.34539286666666,-1.287606664,-0.8207084733333335,9.128702322333334,-6.800124168,15.190439856666666,-2.3790423076666665
448,3.7331839999999374,22.470362346666665,5.990000565666667,-43.33885193333333,-1.255820448,0.33219088599999996,11.432234126666666,-4.585733731333334,5.769252141333333,-2.308581493666667
449,3.7415169999999303,22.44793892,6.112717787333334,-43.30126443333333,-1.5286056003333333,-0.17807256166666666,12.580366772333333,-4.538279692333333,15.110467909999999,-1.8670608203333334
450,3.749849999999924,22.416135153333332,6.20144097,-43.2791799,-1.4815843103333333,-0.7566967556666668,12.08839194,-5.414141496,10.535106977666665,-2.2664208413333333
451,3.758182999999917,22.386531193333337,6.313890615999999,-43.248967533333335,-1.0900865593333333,0.5796895723333334,12.283806166666666,-5.306536515333334,13.63487466,-2.187981446666667
452,3.766516000000138,22.363045373333335,6.445785999333334,-43.21371966666667,-3.124227523666667,-1.3681609633333334,10.649201236666668,-4.622140725666667,15.935485523333334,-2.7710423470000003
453,3.774849000000131,22.343469620000004,6.532145976999999,-43.20214336666667,-0.17160768533333334,-0.31306712433333334,11.330375036333335,-3.861090024333333,9.893580755666667,-3.038279891
454,3.783182000000125,22.32813898666667,6.674278100333333,-43.16611223333334,-3.3201520443333337,-1.3954099016666668,10.692967733666668,-3.6867775123333337,17.101686476666668,-3.165228764
455,3.7915150000001177,22.302165983333335,6.736585458,-43.1698761,1.004153634,-0.2971586486666667,10.956793146999999,-4.430849016,6.5319465,-3.6330806016666664
456,3.799848000000111,22.274452210000003,6.8951698939999995,-43.144175233333335,-3.5680577756666665,-1.6221971113333336,11.83693409,-5.042057116666666,18.462934493333332,-5.038069566
457,3.808181000000104,22.224192936666668,6.952001571666666,-43.13470459999999,1.6177878676666666,0.08772740766666665,10.912475111333334,-7.508856217999999,6.521098693333333,-1.9116290903333333
458,3.8165140000000974,22.147085826666668,7.113626957,-43.1301727,-3.309667349,-1.2208814423333334,11.002424558666666,-10.673789025666666,17.85760784,-7.477498531333334
459,3.8248470000000903,22.043050766666667,7.174947102666667,-43.11088563333334,1.4543561440000001,-1.8553182679999998,10.677000838666666,-14.116828602666667,7.4672127559999995,-1.0111008883333334
460,3.833180000000084,21.922233583333334,7.332448641333333,-43.13557943333333,-3.7344305516666663,-0.5318396193333333,11.495391845333335,-15.49997584,16.124455133333335,-10.470029196666665
461,3.841513000000077,21.75915018666667,7.400749683666667,-43.106374100000004,0.12215350566666668,-2.0890633263333336,12.017324447666667,-21.351116183333332,8.687384287333332,-0.18630539366666668
462,3.8498460000000714,21.575429279999998,7.553021907666667,-43.151026433333335,-3.1481670936666664,-1.669965148,11.214084785000002,-22.740480106666666,14.725611370666668,-12.36441644
463,3.858179000000064,21.340117773333333,7.637835661666666,-43.11905923333334,-0.5572835106666667,-1.610584696,11.970096903333333,-30.06155459333333,10.655432226,-0.516742607
464,3.866512000000057,21.06344985666667,7.797668457,-43.18540446666666,-2.889052152666667,-1.1973186110000003,10.353971798000002,-33.52657699666667,14.745060284666666,-14.96718343
465,3.8748450000000494,20.735179266666666,7.906427383666666,-43.1581777,-0.719364623,-3.1239712236666666,11.458124161666667,-41.12942632,13.134529748666665,-1.9158239760000002
466,3.883178000000044,20.336334863333335,8.045204480666667,-43.23773703333333,-0.9272569216666667,-1.1521163383333335,8.86954689,-47.96756871333333,12.013208229,-15.444827076666664
467,3.891511000000037,19.879364013333333,8.180956204666666,-43.22751363333333,-1.7147715093333336,-4.342466513666667,11.212402979666665,-56.29316711333334,15.496216454999997,-4.711504777
468,3.89984400000003,19.347115196666667,8.298080285333333,-43.3214264,-0.31025024233333326,-0.794533521,10.556424776,-63.709801993333336,9.259045681,-16.065966924666665
469,3.9081770000000233,18.73848661,8.493365128999999,-43.32226563333334,-4.062805057,-3.910639206666667,13.484794141,-74.28811264000001,21.885818006333334,-7.8781420403333335
470,3.9165100000000166,18.02874565,8.606395721333334,-43.414855933333335,0.18704213700000002,-2.3123205503333333,12.551394776666667,-84.96167755333333,9.212983192666666,-15.546576182
471,3.92484300000001,17.257519723333335,8.849423726333333,-43.432708733333335,-3.927110513,-2.526210665333333,12.335789838666665,-93.48973083666665,26.91002114433334,-10.868448893666667
472,3.933176000000003,16.352185886666664,8.947720527666666,-43.53925580000001,2.198195298666666,-2.894340992,9.102624967666666,-108.09635924333334,7.502165955,-16.421486219666665
473,3.941508999999997,15.390367506666669,9.212171235666666,-43.5983124,-5.21848613,-4.240691344,10.111642200666667,-115.61560061333334,28.36782582666667,-15.549350106666665
474,3.9498419999999896,14.317335126666668,9.344811122000001,-43.68826803333332,1.607548395666667,-1.5765214563333334,12.416802406333332,-128.4266459,12.565352527000002,-15.121775310333334
475,3.958174999999983,13.20246728,9.655176797333333,-43.755895,-6.831694085666668,-1.7831855616666665,10.306816179666667,-133.76871236666668,33.98056729666667,-16.84200509333333
476,3.966507999999976,11.976581576666666,9.823623974666665,-43.83374023333332,2.503756006333333,-3.1272486049999997,11.190783025333333,-146.87135826666668,17.624669553,-13.682468253333333
477,3.9748409999999694,10.713315010333332,10.134838741333335,-43.934651699999996,-4.631432295000001,-1.355330939,8.515200616333333,-150.81975806666665,33.904271443333336,-19.532328923333335
478,3.9831739999999622,9.380195617333333,10.312186559333334,-43.9903717,2.427537639666667,-1.8875044186666667,12.538900058666668,-160.14203899999998,19.722002028666665,-10.313817819666667
479,3.991506999999956,8.030923365333333,10.625188192000001,-44.10606383333334,-3.9599977136666666,-0.855194827,8.790864468333334,-160.74409486666664,34.738862356666665,-20.054699896666666
480,3.999839999999949,6.6462216383333335,10.838733991,-44.165288266666664,-1.1449005606666667,-1.0654095113333335,12.852671624666668,-166.21931453333332,24.46819369066667,-10.251645725666666
481,4.008172999999943,5.229208151666667,11.20296955,-44.28823343333334,-3.580256819666667,-0.0719807346666667,12.884186425666668,-168.52927146666664,41.706303913333336,-19.91664124
482,4.016505999999936,3.7978668609999997,11.399902026666666,-44.37606303333333,-0.7690232196666669,-1.0617231776666667,9.435772759,-171.08575946666667,22.718262671999998,-12.234462900000002
483,4.024838999999929,2.3508246766666665,11.76573372,-44.5108846,-1.4002853953333334,-0.09435286600000002,11.744455972333332,-171.70061236666666,42.777961733333335,-19.03320567
484,4.033171999999922,0.8996598423333332,11.959118206666668,-44.64361573333334,-0.01580044666666665,-0.8604219653333333,8.516837597333334,-172.29823303333333,22.81299909333333,-16.511598270666664
485,4.041504999999916,-0.5644946493333335,12.31038666,-44.79434203333333,-1.0057925036666666,0.077927977,10.577661194666666,-173.19524126666667,41.904218039999996,-18.624654133333337
486,4.049838000000136,-2.006986737,12.49747626,-44.95437113333333,-1.6224017143333331,0.47467076766666666,10.673871679,-170.4021352,22.89165878333333,-18.894743603333335
487,4.058171000000129,-3.47155023,12.811445876666667,-45.1400248,-1.802360535,-0.9109551113333333,13.433854419,-172.22153726666667,38.51935959,-20.31427256
488,4.066504000000123,-4.926135977,13.014037449999998,-45.32136533333334,-1.378420631,0.5026668383333334,10.785880087,-171.11201476666668,25.764481226666664,-19.995907466666665
489,4.074837000000116,-6.378591458,13.269237836666667,-45.5372874,-1.258757641,-0.7576704823333333,10.946885746,-169.77937826666667,32.78148333000001,-22.330764133333332
490,4.083170000000109,-7.806990305999999,13.444226266666666,-45.727472966666674,0.37776652966666674,-0.20596295599999995,6.468045633333333,-167.55533856666668,23.51015536,-20.19421832
491,4.091503000000103,-9.189667066333334,13.615445456666668,-45.965103133333336,-0.22263326233333333,0.8228642146666667,11.131934483333334,-160.69585673333333,24.226079306666666,-24.49228350333333
492,4.099836000000096,-10.536955038,13.741849263333334,-46.13964333333334,-1.8868182796666666,1.661462088666667,9.784571169333333,-158.14974976666667,18.339987277333332,-18.272496540000002
493,4.108169000000089,-11.886730831,13.905447959999998,-46.395792666666665,-0.30339493366666664,0.046744004,12.643627167666667,-156.06070453333334,24.737516406666668,-25.443649926666666
494,4.116502000000082,-13.200922966666667,13.987401326666665,-46.571482333333336,-2.4241551556666665,1.0285623073333334,10.961332479333334,-154.0306244,13.882650057666666,-18.527812323333333
495,4.124835000000076,-14.471637723333332,14.089351016666669,-46.80645753333334,0.35475407033333334,1.2562127113333332,9.496530058333333,-147.1265157,18.135025979999998,-23.56587283
496,4.133168000000069,-15.686291376666665,14.134652773333334,-46.97618103333334,-1.701785743333333,0.763314247,13.919338226666667,-142.17896016666668,10.132126171666666,-18.203135173333337
497,4.141501000000062,-16.860826810000002,14.1559302,-47.180384333333336,0.5599732796666667,1.4435835280000002,9.499987763,-136.44397990000002,8.772921262666665,-22.112708413333333
498,4.149834000000055,-17.97139645,14.132929166666665,-47.334355666666674,-0.686126776,1.9385574656666666,9.226492247000001,-130.1073481,2.465373197666667,-18.606700893333333
499,4.158167000000049,-19.013192496666665,14.089217823333334,-47.505467733333326,0.6238592416666666,1.0645568173333333,9.291700203,-121.52378846666666,0.9700142940000002,-20.48017947
500,4.166500000000042,-19.975487393333335,13.993384676666665,-47.62845866666667,-1.1461716296666666,2.617070198,10.448087693,-113.24750773333334,-6.312868753333333,-17.93286704666667
501,4.174833000000035,-20.89462026,13.884149549999998,-47.7691091,0.12841177000000004,1.6396309536666667,10.641880669666667,-107.74640654666666,-6.970816574,-19.816417696666665
502,4.183166000000028,-21.716537476666662,13.726455056666666,-47.8618266,-1.5727816719999999,1.2753142116666667,9.721445083,-97.28500874333334,-14.019521693333333,-17.426220576666665
503,4.191499000000022,-22.45766957666667,13.539092696666666,-47.952870666666676,0.7973362803333334,2.543662627666667,9.589380266666668,-87.81978100333333,-17.130693436666668,-18.442332583333332
504,4.199832000000015,-23.12459119,13.342859586666668,-48.0304006,-2.8146638073333334,1.146259427,11.450728894333333,-79.14282733666668,-18.451754408333333,-18.02932103666667
505,4.208165000000008,-23.712359746666664,13.11126264,-48.08378603333333,0.512397647,1.8860204616666667,10.958017350333334,-70.51049423,-23.34723409,-16.904063859999997
506,4.216498000000001,-24.225294113333334,12.876627923333333,-48.13455706666667,-2.652436693333333,2.1472966673333334,11.189985277,-61.45842616000001,-23.577612559999995,-17.329672176666666
507,4.224830999999995,-24.66372108,12.614780426666664,-48.15774533333334,0.6321436963333334,1.4253050886666667,9.667219481666665,-53.47510782999999,-27.83592923333333,-15.520393053333335
508,4.233163999999988,-25.03736050666667,12.370046933333334,-48.195343,-2.9348152476666667,1.491483152,11.797248523999999,-45.20496622666667,-25.09800529333333,-16.632397966666666
509,4.241496999999981,-25.362338383333334,12.084288916666667,-48.19433086666667,0.3784474136666667,1.6257922846666666,10.392890929,-40.49813524666666,-31.454886756666664,-14.504666013333335
510,4.249829999999975,-25.614604313333334,11.833022436666667,-48.210739133333334,-3.130431572666667,1.1603043476666668,10.505848087666665,-31.20513216666667,-26.697978340000002,-14.975768726666667
511,4.258162999999968,-25.80634308,11.550505636666665,-48.19134520000001,0.7208596073333333,1.4930605093333333,10.085207146333333,-24.98059399666667,-31.91441091,-12.652300199999999
512,4.266495999999961,-25.9526221,11.313113213333333,-48.198918633333335,-3.8334973656666667,1.3531175853333333,11.668286007,-18.702952703333334,-25.46821276333333,-13.643807409999999
513,4.274828999999954,-26.067018509999997,11.053215661666664,-48.172129299999995,0.48221369566666666,0.11148895833333332,11.788994471,-15.843424478666668,-29.791465123333335,-10.848008156666666
514,4.283161999999948,-26.13834572,10.829097110666666,-48.16767883333333,-4.013833999333333,1.5043288466666667,11.483866851666667,-9.99406902,-24.600109736666667,-11.774327277000003
515,4.291494999999941,-26.185951869999997,10.597394307333333,-48.13701373333333,0.21078612433333332,0.025767663999999968,9.447151026,-7.922379095666667,-26.93049431,-9.018514951
516,4.299827999999934,-26.196582793333334,10.401718457,-48.13367206666666,-3.416472514666667,0.17750524,12.25600084,-2.714922945666667,-21.455818176666668,-10.420841215666668
517,4.308160999999927,-26.212273916666664,10.198257446,-48.10090640000001,-0.4026040596666667,0.06734285266666666,11.023869670666668,-4.092901428333334,-23.994807559999998,-7.327348550333333
518,4.316493999999921,-26.20416323666667,10.018248556333335,-48.093938200000004,-2.8843614263333333,0.5595600456666666,12.273299535333331,-0.5472568673333335,-19.986369453333335,-9.137617589
519,4.324827000000141,-26.192239123333334,9.862672488,-48.065607699999994,-0.8405242266666667,-0.3505675606666667,9.559032758999999,-0.669522196,-18.612472216666667,-5.262643178333334
520,4.333160000000135,-26.1735274,9.692080499333333,-48.06393943333333,-2.1557936073333335,0.06976889100000001,10.407601513666668,0.7915228606666666,-18.714903513333333,-9.150066375666666
521,4.341493000000128,-26.14981397,9.585540137,-48.046788533333334,-1.621994098,-0.674168706,11.461125850666667,0.9994673330000001,-12.719673950999999,-3.9130450883333334
522,4.349826000000121,-26.129812243333333,9.426843326666669,-48.036483733333334,-2.036575397,-0.47227149199999996,11.243141492,0.7980799906666666,-17.869477586666665,-7.624156156999999
523,4.358159000000114,-26.09550921,9.365684826333334,-48.03271990000001,-1.5603077013333333,-0.5076212186666667,11.143179574000001,2.5376667183333335,-7.1288319813333345,-2.9633541503333327
524,4.366492000000108,-26.09461530333333,9.228173574000001,-48.027521766666666,-1.3333343166666667,-0.7587059413333334,10.092598041666667,-1.4217140676666666,-15.322891556666667,-7.027479966333334
525,4.374825000000101,-26.07748731,9.18437926,-48.03038533333333,-2.473187983,-0.5592522023333334,11.428054651666669,0.6486848493333334,-4.899717569666667,-2.779101967666667
526,4.383158000000094,-26.105383553333336,9.098075866333332,-48.03759256666666,-1.5456142496666667,-1.1758547673333335,12.593200367,-4.666308085,-9.155264217000001,-5.647837320666667
527,4.391491000000087,-26.112286883333336,9.050108274666666,-48.032470700000005,-2.0060223043333334,-0.852898578,10.206450937333335,-2.32480371,-5.7545547883333334,-2.1865592103333333
528,4.399824000000081,-26.1343263,9.007141112999998,-48.051432299999995,-1.8381971316666668,-0.316014379,13.067961056000001,-3.792366862,-3.8440526310000003,-4.656480471333333
529,4.408157000000074,-26.18424988,8.962681134333335,-48.05031839999999,-2.843772173,-1.1224659286666665,9.942894299,-7.382808526333334,-5.160623867999999,-2.44640325
530,4.416490000000067,-26.231441496666665,8.953851701,-48.07598876666666,-0.3646455406666666,-0.6271296366666667,12.267570496666666,-6.708274761666668,0.19066405433333364,-3.5531214873333337
531,4.42482300000006,-26.309872310000003,8.913017273333333,-48.07037863333334,-2.1583657266666667,-0.94355464,12.473152479,-10.885487557666666,-4.992296218666667,-1.8023672103333332
532,4.433156000000054,-26.38997968,8.921524047,-48.08840433333334,-0.77112932,-1.3630832233333334,8.195502282333335,-10.767329850333333,1.6523747446666668,-1.8364471990000002
533,4.441489000000047,-26.476913453333335,8.893509546666666,-48.08618673333333,-1.385596792,-0.33211365333333337,11.055191199666666,-11.854628565666667,-3.4275398253333336,-1.48108763
534,4.44982200000004,-26.57777659,8.902739207666668,-48.10629783333332,-1.8558098673333332,-0.10050766699999998,10.641263166,-13.218425429999998,1.8546155686666665,-2.0479140426666667
535,4.458155000000033,-26.698024750000002,8.889287313333332,-48.1093445,-2.681097825666667,-1.5831596056666666,12.307771047666668,-15.789777756666666,-1.5626479786666667,-1.271059513
536,4.466488000000027,-26.804692586666665,8.923332532666665,-48.127980533333336,-1.0284660660000002,-0.023470918333333368,9.793940701333332,-13.91474851,4.422968587333333,-0.5277087886666667
537,4.47482100000002,-26.932071686666664,8.913078624666666,-48.14544166666667,-1.968540748,-0.7950101593333333,11.270993074333333,-16.446050959999997,-0.43295343733333347,-2.617186308
538,4.483154000000013,-27.03889592666667,8.942034404666666,-48.15864056666666,-0.8358565486666668,-0.47082229200000003,7.4074687956666665,-13.978886286666667,3.5957442126666663,-0.24530325300000003
539,4.4914870000000064,-27.151518503333335,8.964106877,-48.18778989999999,-2.218157808,-0.6741369566666666,12.22321987,-14.465401966666667,3.6605989143333333,-2.0823010703333336
540,4.49982,-27.262496313333333,8.982177099666666,-48.19806416666666,-0.7278049790000001,0.2532329743333333,9.258635678666666,-14.510790823333332,2.274519386666667,-0.5337537526666667
541,4.508152999999993,-27.36153475333333,9.028354007333334,-48.24346923333334,-2.283626496666667,-1.3772395896666667,8.721014182333334,-12.531434056666667,7.124609865333333,-2.4827796220000002
542,4.516485999999986,-27.467445373333334,9.054619787666667,-48.24377440000001,-1.0725401266666668,0.006418068999999971,13.63865757,-14.090665816666666,2.5973092639999997,1.005269319
543,4.52481899999998,-27.578082403333337,9.099097887666668,-48.2939148,-2.692494129,-0.6929073383333333,11.610504944666665,-13.821299873333333,7.216719189666667,-3.0728549163333336
544,4.533151999999973,-27.681561786666666,9.138149578333334,-48.290252699999996,-0.6930720606666666,-0.6160187819999999,11.416418393666666,-13.862836199999998,3.7257537860000003,2.187733451333333
545,4.541484999999966,-27.785786310000002,9.186696052666667,-48.34190876666667,-2.5846578680000003,-0.8927740060000001,9.195276578,-12.998534836666666,7.739935836,-3.010893980666667
546,4.549817999999959,-27.88980039,9.219342548,-48.3361969,0.8618965149999999,-1.083221217,9.691676693666667,-14.01513036,2.938516140333333,2.0657755933333335
547,4.5581509999999525,-27.994704566666666,9.253621420666667,-48.38681030000001,-2.855212976666667,0.07742424066666666,10.022375900333333,-13.066284813333333,6.181109229666667,-3.699327945666667
548,4.566483999999946,-28.11809730666667,9.314476965999999,-48.39037066666666,-1.185070455,-1.4483647943333333,11.673007964666667,-16.22289276,6.430422463666667,2.7235838573333333
549,4.574816999999939,-28.22664388,9.330088297666666,-48.42781576666667,-1.74401929,-0.11387917799999998,9.926801680333334,-13.697513896666665,3.481535067333333,-3.358283122333333
550,4.583149999999932,-28.33245913,9.413091660666666,-48.4486389,-1.823573847666667,-0.4194358686666666,11.048156736666668,-13.799596786666667,9.738219578333334,2.1736118790000005
551,4.591482999999926,-28.448814393333333,9.411143303333334,-48.47633363333333,-1.3392279546666668,-0.8219583629999999,8.377038300333334,-14.813117976666668,1.0919569320000004,-3.3047578336666668
552,4.599815999999919,-28.532417929999998,9.480912526333334,-48.494730633333326,-1.4537667833333334,-0.4104116933333333,10.645396313666668,-11.152936298333335,8.178618987999998,1.689707597
553,4.60814900000014,-28.64403724666667,9.490419069333333,-48.525639866666666,-0.9823102353333334,-0.3498398063333334,12.013679663333335,-14.224911373333335,2.495406945666667,-2.9345210789999996
554,4.616482000000133,-28.715188979999997,9.506895384666668,-48.51911926666667,-1.2141690653333332,-0.42331373666666666,7.914697010666667,-10.040140788333334,1.1480048496666668,1.1836082639999999
555,4.624815000000126,-28.793048220000003,9.538509368333333,-48.54942830000001,-1.4199654510000002,-0.29448062933333335,9.990673383666666,-10.263488769666667,4.797376156000001,-1.606764118
556,4.633148000000119,-28.863218306666667,9.523066203,-48.53765363333333,-0.19620798033333334,-1.0405328473333333,9.502062080333333,-9.971896328333335,-2.5127770103333327,-0.07207423800000001
557,4.6414810000001125,-28.92628987666667,9.509356816666667,-48.54148353333333,-2.177404031,-0.08240696766666666,11.242389837333333,-9.030163448000001,-1.4707910220000002,-1.531829705
558,4.649814000000106,-28.985150020000003,9.523503305,-48.56047566666667,-2.4708664816666666,-0.8758413593333333,13.97609997,-8.076288859333333,2.3535218236666666,-1.5007639380000002
559,4.658147000000099,-29.034873963333336,9.486378352000001,-48.54706316666667,-0.32510104,-0.25521952433333334,9.133209545333335,-7.689863522666666,-4.923111698333333,-1.1012884576666666
560,4.666480000000092,-29.073696773333335,9.472605069,-48.550979600000005,-2.740234216333333,-1.0069133239999999,10.757496359333333,-6.060849031,-1.4294534523333333,-1.5943837963333334
561,4.674813000000086,-29.102754593333334,9.465122540333333,-48.55916343333334,-0.10028522200000005,-0.556277526,10.458384670333333,-4.759236097333333,-0.5738319559999999,-1.5769190586666666
562,4.683146000000079,-29.142637886666666,9.394150417333334,-48.539972966666674,-1.8328178326666666,-0.7913946916666666,9.423749445,-6.5896898906666665,-8.755040405333334,-2.5769291123333335
563,4.691479000000072,-29.16658592,9.403730709,-48.54969789999999,-1.095329046,-0.49946141233333324,14.583663623333335,-4.205012162666667,1.3066504396666667,-0.7440380456666666
564,4.699812000000065,-29.21979713,9.363488832333333,-48.550715133333334,-1.7272238336666668,-1.1182341673333334,9.318622907666667,-7.734441121666666,-4.3739859260000005,-2.8358461656666667
565,4.708145000000059,-29.233893076666664,9.334033964333333,-48.52604676666667,-1.1078745103333334,-0.248611613,9.029565016666666,-3.681918223666667,-4.769357860333334,0.5012406806666666
566,4.716478000000052,-29.251378376666665,9.330314953,-48.54174296666667,-2.593258142666667,-0.7692214846666667,10.416425384999998,-3.215405901,0.30359695866666664,-2.2289420763333334
567,4.724811000000045,-29.26361465333333,9.309634844333333,-48.51881410000001,0.306614518,-1.1873995463333333,10.745078563333335,-3.3919650020000005,-3.7573696376666668,0.8784017413333333
568,4.733144000000038,-29.287202833333335,9.248492241,-48.507888799999996,-2.6063685616666667,-0.6252858316666666,11.183305739666666,-4.477249463333333,-7.238327422666667,-2.88879927
569,4.741477000000032,-29.29204941,9.269888877,-48.50543723333333,-2.2491478523333335,-0.44147856533333335,13.54812209,-2.131454448,1.8379921513333333,1.2140251400000002
570,4.749810000000025,-29.316838583333332,9.236837385666666,-48.50920613333333,-1.2630433239999999,-0.7307153693333333,9.508746146666667,-4.305368741333333,-3.454451322666667,-2.7132562796666666
571,4.758143000000018,-29.3141009,9.203926405999999,-48.47386676666667,-1.3830078840000002,-1.3366813266666666,9.492429098333332,-1.8462059499999999,-5.755698442666667,1.403553406333333
572,4.766476000000012,-29.322083153333335,9.206940650666667,-48.4892629,-2.1507265766666666,-0.14337361233333334,12.260844863333332,-2.1124527056666667,1.0010254783333334,-1.8017521900000002
573,4.774809000000005,-29.34228706333333,9.164746285333335,-48.46523539999999,-0.5327296023333333,-1.5271372196666666,7.817367791333333,-4.336874803,-6.079146781666666,-0.26772850766666667
574,4.783141999999998,-29.353413900000003,9.138756435666666,-48.45735166666666,-1.607987563,-0.42265216499999997,11.830384254666667,-2.977433045666667,-3.3847544193333334,-1.1384204823333333
575,4.791474999999991,-29.37559827,9.138285001,-48.4624227,-1.8787244163333334,-1.010047674,12.284505209999999,-4.032858610333333,-0.023496608000000013,-0.825602308
576,4.7998079999999845,-29.39356549333333,9.117825506666668,-48.450541166666675,-1.2311287919999998,-0.7910063166666667,9.805811724666667,-3.8194924196666666,-3.0355001686666667,-0.3735707896666666
577,4.808140999999978,-29.404436113333333,9.090079943333333,-48.43680826666667,-2.5297263466666666,-1.1387640523333333,9.200406233333334,-3.0556331476666667,-3.972072204,-0.5250322519999999
578,4.816473999999971,-29.395190553333336,9.126957893333334,-48.45454916666667,-1.2830533586666666,-0.5599303046666667,12.32818699,-0.015244819333333362,4.668604294666667,-0.025076270333333373
579,4.824806999999964,-29.416699726666668,9.084973018333335,-48.44211323333334,-1.2859994966666666,-1.561881403,9.377322198,-4.288890679333334,-5.391642809,-1.4583891233333333
580,4.833139999999958,-29.413672763333334,9.088138581333332,-48.43939716666667,-2.483738978666667,-0.31313416833333335,13.067479133333334,-1.181166192,-0.03695686666666672,0.05338432900000001
581,4.841472999999951,-29.42851702333333,9.127000172333334,-48.471364333333334,-2.7032326063333336,-0.6627655003333334,12.480387686666667,-2.6708050966666668,5.63966163,-1.2635589043333333
582,4.849805999999944,-29.438524883333333,9.113615991333333,-48.47411093333333,-0.4114690423333333,-1.3379884956666668,10.548485757333333,-2.597240726,-1.450508371,-1.4468713453333335
583,4.858138999999937,-29.448250453333333,9.133199057666667,-48.493891399999995,-2.739784916,-0.7900860706666667,10.405581157,-2.3309466439999995,2.9150366783333332,-1.1750786603333334
584,4.866471999999931,-29.449483236666666,9.171874681,-48.5253652,-0.766496718,-0.9568588136666666,10.882561366333334,-1.002989332,5.646176815333334,-1.3060614266666668
585,4.874804999999924,-29.460285186666667,9.164694466666667,-48.529129000000005,-0.6775923373333335,-1.3419469793333334,7.535249711,-2.7105535666666665,-0.8226608436666668,-1.0624569553333334
586,4.883137999999917,-29.46217409666667,9.160490037333334,-48.54059856666667,-1.3098933099999999,-1.0348810156666666,12.262614566666668,-1.4787569073333333,0.01495444800000012,-1.8410402536666666
587,4.891471000000138,-29.46399498,9.210377374333333,-48.582341500000005,-2.6010727086666665,-0.21029800199999996,12.591441793333333,-0.89452173,7.348566691666666,-1.5961939989999998
588,4.899804000000131,-29.480355583333335,9.192911148333334,-48.578058899999995,-1.0614909133333335,-1.8943721056666665,9.225591502,-3.4885903993333334,-2.2854728696666666,-0.9791041213333332
589,4.908137000000124,-29.474485399999995,9.233610789333333,-48.602569566666666,-2.4562354483333335,-0.570977832,11.476844787333334,-0.3482810456666667,5.376330096666667,-0.3738056373333334
590,4.916470000000118,-29.486482620000004,9.268432299,-48.621521,-1.1845366406666666,-0.931182563,9.754228590666665,-2.5257941086666666,4.518534938666666,-0.2524581153333333
591,4.924803000000111,-29.488694506666672,9.260755539666667,-48.624643966666675,-0.9351663789999999,-0.9353032310000001,9.132054964,-1.695175702,-0.9312353133333335,-0.9855119586666667
592,4.933136000000104,-29.495718003333334,9.270954130666667,-48.6273702,-2.026036779,-1.2283678453333333,10.504256885333334,-2.2727596759999997,0.9988742720000001,-0.06890656533333334
593,4.941469000000097,-29.497554143333332,9.312994639666666,-48.665639266666666,-1.5400757963333334,-1.4893206853333334,12.488282203333334,-0.9813325453333333,6.300919373666666,-1.643947403
594,4.949802000000091,-29.525792436666666,9.301628747999999,-48.657028200000006,-0.9686859349999999,-0.8855609296666666,8.658218544333332,-4.988935947333333,-1.8960982956666668,-0.18380350866666664
595,4.958135000000084,-29.53039233,9.312855083666667,-48.67082723333334,-2.3001651366666667,-0.9044738613333333,10.640261015333332,-1.8241902390000002,1.6514993506666664,-0.9708051086666666
596,4.966468000000077,-29.552930193333328,9.363775572333333,-48.70069883333334,-2.0281234583333334,-1.0697710513333334,10.70679887,-3.5689684550000003,6.841046333333334,-0.4391817053333333
597,4.97480100000007,-29.57960065333333,9.332611721333333,-48.69922383333333,-0.11445628633333332,-1.1249333620000002,10.321593443,-4.751056591666667,-3.6817903120000004,-1.8482805889999998
598,4.983134000000064,-29.612665176666667,9.337571143,-48.713974,-2.9214874109999998,-0.902395447,12.16000716,-5.148743311333334,1.1753046313333335,-1.649838467333333
599,4.991467000000057,-29.633404413333334,9.357719739333334,-48.7404785,-1.4871924519999997,-1.3341066240000001,13.262646356666666,-3.4973077376666666,3.2923385599999997,-1.6560626826666667
600,4.99980000000005,-29.664273580000003,9.344868343,-48.747726433333334,-0.6941868713333333,-0.815612187,7.526148635999999,-4.995766639666667,-1.1274407706666667,-1.8934641680000002
601,5.008133000000044,-29.67747243333333,9.316954295,-48.74120073333333,-0.8934550483333332,-0.6286880176666667,10.961524326666668,-3.2501902576666666,-3.652521769333333,-1.1348301173333333
602,5.016466000000037,-29.699067436666667,9.327562967666667,-48.76350909999999,-2.1726962726666668,-1.2653675476666668,9.06061395,-3.5917988616666663,2.197342813,-2.0530066093333335
603,5.02479900000003,-29.722046533333337,9.284591992000001,-48.7553711,-0.4455941816666667,-1.3582297959999998,10.111569246666667,-4.455331484666666,-5.340858221333334,-1.7959250613333335
604,5.033132000000023,-29.75229772,9.240804038,-48.74565630000001,-1.833700498,-0.7617016633333332,10.046711285333334,-5.271751244666667,-5.339347243333333,-2.0291341939999996
605,5.0414650000000165,-29.766202293333336,9.226888339333334,-48.760147133333334,-2.3667015233333335,-1.6496529979999999,13.479468343333332,-2.964096029666667,-1.005503754,-2.364518165333333
606,5.04979800000001,-29.788634616666666,9.188195863999999,-48.76068116666667,-0.9594024123333332,-0.37235641966666666,10.722457567666666,-4.109974861,-4.229051470999999,-2.7117194333333337
607,5.058131000000003,-29.7965641,9.119734762666667,-48.74776203333332,-1.4191383123333334,-1.075656056,8.414196332333335,-2.7631613413333334,-8.295904795333334,-2.802846273
608,5.066463999999996,-29.804660163333335,9.086429914,-48.74421183333333,-1.8656938473333333,-1.324268818,9.475545566666666,-2.4913517236666665,-3.920301625999999,-1.975745717666667
609,5.07479699999999,-29.804732639999997,9.044527054,-48.754496266666656,-0.3723652396666666,-0.8728938700000001,10.667679469666666,-1.3634586733333334,-4.162561456666666,-3.5956068833333332
610,5.083129999999983,-29.824024836666666,8.947319983666667,-48.72099813333333,-0.7800288200000001,-1.1653581063333334,9.060305596,-4.368824720666667,-12.305652617000002,-2.7660731473333335
611,5.091462999999976,-29.820043563333332,8.880658466666667,-48.719080600000005,-2.66011099,-1.4387240409999997,13.821201006666668,-1.1269152363333335,-7.456636589666666,-3.8496143816666666
612,5.099795999999969,-29.81947581,8.843241849666667,-48.71596783333334,-2.1998880703333334,-0.84683303,12.56504345,-1.4119421043333336,-4.299042423666667,-2.3072365523333334
613,5.108128999999963,-29.82141748666667,8.775371073,-48.717193599999995,-1.0422169566666666,-1.1982326506666665,11.205571812333332,-1.7760741113333334,-7.402736346,-4.203867991666667
614,5.116461999999956,-29.822021483333334,8.678830622333335,-48.6814321,-1.3253419793333332,-1.7611681616666666,8.022502263333333,-2.1472073396666667,-12.369636535333333,-2.489123424
615,5.124794999999949,-29.796726859999996,8.623150029666666,-48.68610636666666,-2.1343637306666667,-0.09641557199999999,12.147574426666665,1.5572216713333333,-5.932205835666667,-3.8585370383333335
616,5.133127999999942,-29.792950946666668,8.534338950333334,-48.654953000000006,0.13784841700000003,-2.148293574333333,8.359681128666667,-1.5280429523333332,-11.304938793,-2.4603074389999997
617,5.141460999999936,-29.783516566666666,8.418044568666668,-48.630111666666664,-0.8063445189999999,-1.5205908616666666,11.058597565,-0.8687581123333334,-13.982659976666667,-4.428616523666666
618,5.149793999999929,-29.796363833333334,8.304440817666666,-48.59569296666667,-2.372177998,-0.8837233430000001,11.4590861,-3.571854273333333,-14.085611027,-3.6125810146666666
619,5.158126999999922,-29.79670842333333,8.229949951,-48.59213256666666,-2.5588521959999997,-1.4277429183333332,13.184796333333333,-1.6685028076666668,-8.374403793333334,-4.130935907333334
620,5.166459999999916,-29.814214070000002,8.108595689,-48.5633545,-0.9987185993333334,-1.9680054586666664,9.313047407666668,-4.044454495,-14.558929446666667,-4.624557018333333
621,5.174793000000136,-29.811178206666664,7.973157405666666,-48.52521769999999,-0.7704895066666667,-0.9411742883333334,8.713089306666667,-1.838060727,-16.76608149333333,-4.1972261269999995
622,5.183126000000129,-29.82288615,7.837769826333333,-48.4924011,-2.090673049333333,-1.2770798803333332,9.376276969666666,-3.3695964020000004,-16.25000795,-5.094228744333333
623,5.191459000000123,-29.82635307,7.721939722666666,-48.46831256666667,-0.837777853,-1.1455882986666668,10.340379396666668,-2.334054748333333,-13.888612110333334,-4.485710780000001
624,5.199792000000116,-29.850364049999996,7.549266815,-48.4186147,-1.4800112026666667,-1.897336682,10.376961388333333,-5.1211757659999995,-21.124973296666667,-5.578765709999999
625,5.208125000000109,-29.86022631666667,7.421309471000001,-48.37714640000001,-2.1898655893333334,-0.9750430583333333,14.974057516666667,-3.368750612,-16.17989254,-3.437943140666667
626,5.216458000000102,-29.896331149999998,7.2920762696666666,-48.35932416666666,-2.310760259333333,-1.2096827426666668,12.064552623333334,-6.04549853,-14.734795890000001,-6.249370892666668
627,5.224791000000096,-29.925921119999998,7.156582196333333,-48.31290183333334,-0.9577150146666668,-1.805065274333333,9.600588321,-5.7781294186666665,-17.255146659999998,-3.345578591
628,5.233124000000089,-29.96361541666667,6.9923704466666665,-48.2601827,-1.5500945446666667,-1.5936965546666666,7.204397996,-6.750267029,-20.434362413333332,-4.797266483333333
629,5.241457000000082,-29.98445701333333,6.900927861333333,-48.23553976666667,-1.787574212,-1.0509408316666666,12.028798106666665,-4.41942962,-11.378390946666668,-2.9915893076666666
630,5.249790000000076,-30.03053156333333,6.751135349333334,-48.196075433333334,-0.8469646173333333,-1.3674699863333333,8.143609046666667,-7.537238597666668,-18.13066673333333,-5.300483306333333
631,5.258123000000069,-30.064056393333335,6.5974623359999995,-48.1427256,-2.701836645666667,-1.8625095686666668,11.154908500333335,-6.340969086,-19.547810553333335,-3.8014872866666667
632,5.266456000000062,-30.112124126666668,6.51026392,-48.125320466666665,-2.1197163463333335,-0.949094961,12.57846037666667,-7.496621131666667,-10.312437058666667,-3.838950952
633,5.274789000000055,-30.16253598333334,6.3905557,-48.106750500000004,-1.2139430046666666,-1.406304757,8.946881690666666,-7.816677252333334,-13.935877480333334,-5.325316111333334
634,5.2831220000000485,-30.209086736666666,6.255326907,-48.0586599,-1.6608134110000001,-1.4744567473333332,8.626156330333332,-7.702647686,-17.174240746666666,-3.5333059626666667
635,5.291455000000042,-30.22960917,6.175580660333334,-48.0528361,-3.0737236340000003,-0.8664809216666667,11.137228329666668,-4.097586631666666,-9.033902963000001,-4.270559549333334
636,5.299788000000035,-30.267898560000003,6.1010217670000015,-48.04347736666667,-0.8409274716666667,-1.6379104853333333,10.229262987666667,-6.158089478666667,-8.549724896666667,-3.849333206666667
637,5.308121000000028,-30.301914216666663,5.978136062666667,-48.0092926,-2.576583047666667,-1.4592296086666667,11.699912707333334,-6.092159748333333,-15.193984983333332,-3.9885645706666666
638,5.3164540000000216,-30.328196206666664,5.949934164666668,-48.0272166,-3.188904444,-0.7997888176666667,13.926170663333332,-4.425892273666666,-2.095035434,-3.888036092
639,5.324787000000015,-30.372570673333332,5.8900790213333325,-48.02434793333333,-1.1401106516666666,-1.48531429,10.245662212333334,-6.873628298333334,-6.782808816,-3.3507308166666667
640,5.333120000000008,-30.391223906666667,5.824679692666667,-48.00201416666666,-1.1254727146666668,-1.3391545016666668,7.377546151333333,-3.99977835,-8.381495238,-2.0126173893333337
641,5.341453000000001,-30.401271183333336,5.819859504333333,-48.01716106666667,-2.4347712596666664,-0.509758963,10.546848296,-2.5716524223333335,0.007581432666666703,-1.904410064333333
642,5.349785999999995,-30.394358953333334,5.786930879,-47.99914553333334,-0.366135488,-0.449117,7.213099319666667,-0.7903613846666665,-4.736230174666666,-0.5022439856666666
643,5.358118999999988,-30.355721793333334,5.738178412,-47.99040730000001,-3.3412662746666673,-0.8878826396666667,10.966291427333333,2.953354517333333,-5.983891884333333,-2.14149565
644,5.366451999999981,-30.28989092666667,5.776470502,-47.99047339999999,-1.609311064,0.040892452,12.84384505,6.435577710333334,3.7061114313333334,2.010576725
645,5.374784999999974,-30.19893583,5.732402642333334,-47.982391400000004,-1.1440366903333334,-0.19950473300000002,7.710243542,9.324069619666668,-5.467188398,-1.8666119376666668
646,5.383117999999968,-30.048217773333334,5.745506445666666,-47.953343733333334,-1.4724636873333334,-0.08807952199999998,8.161125659,16.25314712766667,-0.6251873173333332,3.405341148333333
647,5.391450999999961,-29.846225736666668,5.738749981000001,-47.957173666666655,-1.2874161303333334,0.24779868633333332,9.686653296333333,22.803561846999997,-0.8788263403333332,-0.8145710230000001
648,5.399783999999954,-29.59774844,5.691846688666668,-47.8984375,-0.4216874239999999,0.19740261633333334,7.80394427,27.694867453333334,-8.63352712,2.9697124956666663
649,5.408116999999947,-29.2861557,5.700122038666667,-47.90334573333334,-2.9898120563333332,-0.07292770833333333,13.763131143333332,35.88151804333334,0.7552911439999997,-0.12768663
650,5.416449999999941,-28.929084143333338,5.6533004443333335,-47.84830726666666,-0.4629228163333334,0.33671575066666665,9.784556547666666,40.846138636666666,-8.380355834000001,2.843095859
651,5.424782999999934,-28.497526803333333,5.597578684666668,-47.81345113333334,-1.990980357,0.997131149,8.816499073666666,49.80868276,-8.266084272999999,0.275199647
652,5.433115999999927,-28.00636100666667,5.575456619333333,-47.773381566666664,-1.1353219746666667,-0.8522548676666667,11.986537295333333,57.06576284000001,-4.820827802999999,2.662741343
653,5.4414489999999205,-27.462366740000004,5.463899135333333,-47.71284993333333,-0.7677497266666666,1.3433717090000001,8.218962510333332,63.117341360000005,-15.613366129,0.175748117
654,5.449782000000141,-26.86429913666667,5.423213164,-47.66222633333333,-2.6984668176666666,-0.48261233166666667,13.76133283,69.67994944,-7.317856738666666,2.652875105666667
