,time,Euler_X,Euler_Y,Euler_Z,Acc_X,Acc_Y,Acc_Z,Gyr_X,Gyr_Y,Gyr_Z
0,0.0,-0.8272637125,6.0236599445,5.161323550000006,-0.7844674385,-0.4926056415,5.4536807535000005,-134.25057220000002,15.68283701,-12.330443859999999
1,0.0083329999999932,-1.8760350940000001,6.163279295,5.104850799999994,-4.084626794,0.48874615099999996,7.4290277975,-125.9738388,16.44357586,-7.014430523
2,0.0166659999999865,-2.915156722,6.244113684,5.014312750000002,-0.0695543925,1.6616192459999999,18.75446892,-124.8511162,9.7961468705,-10.699854375000001
3,0.0249989999999797,-4.0223932265,6.3796937465,4.925910950000002,-2.0226528645,1.345195949,14.0353055,-132.57277679999999,16.42979765,-10.15238857
4,0.033331999999973,-5.1152863505,6.488692760499999,4.826507550000002,0.8873719945,-0.912898332,2.7355016175,-131.1433792,13.63612604,-11.078428745
5,0.0416649999999663,-6.1565225125000005,6.5260419845,4.727409350000002,-2.005565985,0.02001383899999999,8.232595682,-124.5078125,5.1814985275000005,-11.856685165
6,0.0499979999999595,-7.212800741000001,6.5857381825,4.621475250000003,-1.145692736,2.1148539785000002,17.800626755,-126.63572690000001,8.2411785125,-12.025660035
7,0.0583309999999528,-8.313555479,6.683238983,4.52544404999999,-3.6208381650000003,-0.266671576,9.9359817495,-131.7123108,12.709915639999998,-10.1913833635
8,0.0666639999999461,-9.391450882000001,6.6883552075,4.42282865,3.5008672475,-0.5717977879999999,4.8207550050000005,-129.24332425,2.1350082455,-12.29253149
9,0.0749970000001667,-10.461150167500001,6.655895233000001,4.323524500000005,-4.121040702,1.0220989585,12.431209565,-127.96327595,-2.2260119915,-12.69799471
10,0.08333000000016,-11.549252984999999,6.659900665,4.248138449999999,1.2612301705,0.7696418465,11.315768243499999,-130.85578915,1.8400455715,-9.034623146
11,0.0916630000001532,-12.611008165000001,6.6554112435,4.150306700000002,-4.1906987430000004,0.280708037,12.498026846999998,-127.0754242,1.4629650710000002,-11.767526625
12,0.0999960000001465,-13.651391505,6.570483446,4.082458500000001,1.408895612,1.643987894,13.201861860000001,-125.24069209999999,-8.4366974845,-10.486147405
13,0.1083290000001397,-14.722788335,6.4940018655,4.008605950000003,-2.324421406,-0.012722603999999998,8.931700228499999,-128.64525605,-7.244279982499999,-10.772359845
14,0.116662000000133,-15.75824308,6.3983473775,3.946113600000004,2.3417868015,0.17571205650000002,6.7332918645,-124.74336625000001,-9.4661092755,-10.521789072
15,0.1249950000001263,-16.758337025,6.276041269,3.8621520999999888,-5.306416273,1.9715408685,13.29285955,-120.0021515,-11.791543485,-13.753068925000001
16,0.1333280000001195,-17.75647354,6.1444196699999996,3.8324889999999954,0.8134333789999999,1.2784416675,13.220778464999999,-120.7250023,-14.378950595,-8.353199482
17,0.1416610000001128,-18.749773975,6.0752213005,3.740859999999998,-3.8223091365000004,0.038143988999999996,9.4551506025,-119.16354749999999,-4.9902354475,-12.967619895
18,0.1499940000001061,-19.675548555,5.8862776755,3.7200012499999957,1.6254866125,1.1441481185,7.5188963415,-112.1612015,-20.9396944,-10.127082826999999
19,0.1583270000000993,-20.585212705,5.742425442,3.6870116999999993,-2.9263397455,2.064163506,13.604728220000002,-109.88290025,-15.26297903,-9.938552856
20,0.1666600000000926,-21.492447855,5.604781866,3.67481995,1.854368269,0.8529266120000001,7.7863476275,-110.05294035,-15.244370935000001,-7.5994882585
21,0.1749930000000858,-22.287740704999997,5.4669623375,3.6360091999999895,-4.6544640065,1.1893118025,7.038838387,-96.169586185,-14.166103365,-10.43830395
22,0.1833260000000791,-23.009564400000002,5.2849252225,3.6806564500000007,1.1691072885,3.1558129785,14.098695755000001,-88.447597505,-22.563059805,-3.8107923269999997
23,0.1916590000000724,-23.730023385000003,5.13182497,3.643806450000014,-3.6037231685,2.6716064215,12.66022873,-87.2627182,-15.681393625,-11.273691655
24,0.1999920000000656,-24.35501194,4.998758793,3.687133799999998,-0.21415276449999998,1.6216129659999998,5.493501425,-76.783180235,-17.038471225000002,-2.0992710590000003
25,0.2083250000000589,-24.885767935,4.853952169,3.6609573499999897,-2.667330861,1.675931036,11.080617905,-64.64605522,-15.05534649,-10.071001053
26,0.2166580000000522,-25.34860039,4.6813139915,3.7147674499999965,-1.2945941685,3.250489473,11.7801651935,-57.39911461,-21.832860949999997,-3.3048813345
27,0.2249910000000454,-25.779873845,4.546928406,3.700599650000001,-2.3178956504999997,1.6030997035,11.5376806235,-52.86647224,-14.386010169999999,-8.450035810500001
28,0.2333240000000387,-26.17502117,4.402877569499999,3.7388992499999887,-1.0696217715,1.292844862,8.539349079499999,-49.098403935,-17.892926215,-3.7841857670000003
29,0.2416570000000319,-26.471196175,4.2908415795,3.707679749999997,-1.6797635555000001,0.8264725504999999,9.346671102,-36.491949085,-10.792514321999999,-9.6468009945
30,0.2499900000000252,-26.70502377,4.127430916,3.7592544500000002,-2.2577530145,2.6320247649999997,12.44170475,-29.833260539999998,-20.642131804999998,-3.596210718
31,0.2583230000000185,-26.921237945,4.0213434695,3.717323300000004,-1.67848891,2.6334351304999997,14.2696352,-26.869091984999997,-9.670464279499999,-10.2055582985
32,0.2666560000000118,-27.09850693,3.9044550659999997,3.7582092500000073,-3.6026449205,0.901519977,7.272950649,-22.931319235,-15.05950928,-2.3458877205
33,0.274989000000005,-27.195052145,3.860615611,3.7123717999999997,0.08324047899999998,0.14832353599999998,10.5465292905,-12.508079052500001,-2.754049182,-7.2901513575
34,0.2833219999999983,-27.260298730000002,3.7482651469999997,3.7269821499999978,-4.090072274,1.69190836,11.047475337,-9.263730526,-13.12816429,-4.956849098
35,0.2916549999999915,-27.303536415,3.7130417825,3.7107467499999984,0.12693749399999998,1.3045563100000002,13.498367785,-6.3735840325,-3.4499364495,-3.6442207095
36,0.2999879999999848,-27.355602265,3.6700830460000002,3.6927414000000027,-3.5947242975,0.38880751999999996,8.703249693,-7.427994012999999,-3.931727767,-4.6180100445
37,0.3083209999999781,-27.323039055,3.6598297355,3.665329,0.6346569955,0.034411400499999995,8.632496835,2.794519454,-0.1677668245,-3.483990312
38,0.3166539999999713,-27.28256607,3.5987497565,3.6658173000000005,-4.0833405255,1.6389344934999999,14.379992484999999,3.535872102,-6.880412817,-3.6431319715
39,0.3249869999999646,-27.268074035,3.610121727,3.6457367000000005,1.00297156,-0.0382351305,11.524480342,0.553946346,1.7398212215000002,-1.5069814325
40,0.3333199999999578,-27.20884705,3.6300379035,3.6012268000000063,-5.169106245,-0.100862436,8.3175952435,6.1274576185,4.222936213,-3.994111538
41,0.3416529999999511,-27.13883209,3.619074941,3.6181488,1.572017014,0.16592494600000002,12.457507135,6.929937601,-2.652258158,1.165838301
42,0.3499859999999444,-27.106224060000002,3.65442729,3.560852049999994,-3.4977808,-0.08741589649999999,14.713409899999998,3.031067371,6.562092066,-4.4952538010000005
43,0.358319000000165,-27.073394774999997,3.6931253670000004,3.5597839499999964,-0.772770945,-1.029790819,4.148749351499999,2.594562054,3.650931597,1.925992012
44,0.3666520000001583,-27.018227574999997,3.720912218,3.521110550000003,-2.250966549,0.5686617195,16.142402175,5.6033639905,4.730341196,-2.925485015
45,0.3749850000001515,-27.020147325,3.7792414425,3.506217950000007,-1.0089645385,-0.6955198495,10.3337039925,-1.4748870135,6.5269880295,1.4809318779999998
46,0.3833180000001448,-26.986714364999997,3.8212844135,3.459800699999988,-3.1417987345,-0.14033132799999998,9.41397786,3.063482046,6.673437357,-2.9953352215
47,0.3916510000001381,-26.978627205000002,3.923227191,3.4565048500000017,-1.652823687,0.30547124149999993,14.460639955,-0.3702217935,10.569977759499999,5.098507643
48,0.3999840000001313,-26.992432595,3.9677301645,3.403175349999998,-1.1386683880000001,-1.3482859729999999,7.915366888,-2.5331903995,7.3042385575,-3.598601699
49,0.4083170000001246,-26.98023224,4.040894031500001,3.3948746000000085,-1.9288509489999999,0.21877489999999997,11.72995615,0.159109231,7.7689967155,2.9906735419999997
50,0.4166500000001178,-27.01585865,4.1229918004999995,3.3445205499999986,-1.4220024945,-1.1905702355,8.9752867225,-5.1634008885,11.164714335,-1.220511973
51,0.4249830000001111,-27.031360624999998,4.1738083365000005,3.3447570499999983,-0.9853521885000001,-0.11783194550000001,10.81462574,-3.2411804794999997,4.9169666764999995,2.6689970494999997
52,0.4333160000001044,-27.083955765,4.2601041795,3.300003050000001,-1.367777288,-0.075027011,13.227082255,-7.234172344499999,11.30793762,-0.38699273
53,0.4416490000000976,-27.13164139,4.321876049,3.2881469500000122,-3.266348839,-1.1641301215,7.639820337,-7.00164485,6.759539604,1.9539117215
54,0.4499820000000909,-27.186678885,4.420085907,3.269912699999992,-0.19904418299999999,0.051541499500000004,16.91610718,-7.7560362815,11.1302003835,3.1304891105
55,0.4583150000000842,-27.27559376,4.479934454,3.243782050000007,-3.106188655,-0.9976911989999999,10.55503416,-11.81900549,7.3289699555,0.341591496
56,0.4666480000000774,-27.35997009,4.544647217,3.2413787999999926,-0.453969076,-0.2104080175,9.971650126,-11.42137051,6.6813013555000005,3.000599384
57,0.4749810000000707,-27.46188736,4.639328003,3.2028503499999914,-2.266925335,-0.7080135345,12.039986135,-13.25569677,11.729664325,0.9713753164999999
58,0.4833140000000639,-27.57933044,4.678270817,3.212783849999994,-0.10073719949999999,-0.7774325905,9.396715164500002,-15.509021279999999,3.247521043,2.885771155
59,0.4916470000000572,-27.68219852,4.766829252,3.1728286999999966,-1.9187761545000002,-0.1637514085,11.281365874999999,-13.348638535,11.1587224,0.5253801045000001
60,0.4999800000000505,-27.80151653,4.825847148499999,3.1722030500000074,-2.3448301555,0.382501811,8.973156452,-15.630226610000001,5.957187533499999,2.8816342355
61,0.5083130000000438,-27.907280919999998,4.892898321,3.1495895500000017,-0.521579251,-0.5843708219999999,13.35287666,-13.86522484,7.911130191,1.2078330815
62,0.516646000000037,-28.013999939999998,4.951134205,3.146789549999994,-2.54232347,0.293275766,10.9342203155,-14.09610033,5.981674314,2.6298589705
63,0.5249790000000303,-28.124032024999998,5.002538442500001,3.135292050000004,-1.035530627,-0.582436815,9.359680889,-14.49315834,5.620282888499999,1.5333004595
64,0.5333120000000235,-28.20841026,5.079766512,3.1259384499999925,-1.3676094415,0.26607274999999997,10.485240935,-11.343887330000001,8.350044010000001,3.0430932045
65,0.5416450000000168,-28.318218235000003,5.109892844999999,3.1268386499999963,-1.4436981085,-0.51806965,11.044091701,-14.598636630000001,2.6694520675,1.6423145534999999
66,0.5499780000000101,-28.38462162,5.161313057,3.1304779000000025,-0.4956549855,-0.2475577075,7.7197902205,-9.32737875,4.8764699695,2.9705531595
67,0.5583110000000033,-28.47599125,5.211247921,3.120262149999988,-2.4421864745,-0.13302314299999998,11.079769134500001,-12.266179560000001,5.385976553,1.600076735
68,0.5666439999999966,-28.533309935,5.247819185,3.120895400000009,-0.6564253345,-0.492042713,11.383019445,-8.20402956,3.4746162895,1.815684557
69,0.5749769999999899,-28.60598087,5.299981594,3.099418650000004,-3.1147671934999996,0.054461404500000005,14.775201795000001,-9.9007410985,6.2628283499999995,0.564006291
70,0.5833099999999831,-28.662759780000002,5.333194494000001,3.1123810000000134,-1.7226902245,-0.5549760165,8.3531968595,-8.2769396305,2.4119646550000002,2.9149708745
71,0.5916429999999764,-28.712237360000003,5.3881361485,3.081779449999999,-0.316165775,-0.03633202599999999,13.0979681,-7.0157198905,7.072237848,-0.19791480900000002
72,0.5999759999999696,-28.765859605,5.387707472,3.1083983999999987,-2.1323997375,-0.22454763949999998,9.3275485015,-8.0530195235,-1.9179813265,2.4058361049999997
73,0.6083089999999629,-28.808442115,5.445724010499999,3.0923614499999985,-1.247794986,-1.1366760135,14.173929215000001,-6.3524522779999995,6.560875416,1.518200636
74,0.6166419999999562,-28.8690176,5.440361738,3.134628300000003,-1.0923194885,-0.09287163600000001,9.3735470775,-9.068971157,-3.344265163,3.763775587
75,0.6249749999999494,-28.929881095,5.475816965,3.125877349999996,-0.414558273,-1.559450686,9.7045922295,-8.6312348835,3.762724638,0.9712598025
76,0.6333079999999427,-28.98295784,5.4549806115,3.169296250000002,-2.167768538,-0.051719919,10.446957112,-8.1837034225,-5.038851738,2.9998818634999997
77,0.6416410000001633,-29.05483818,5.5137221815,3.1529541000000023,-2.386649489,-0.944390565,11.013799668,-9.867507933,6.6430470945,1.5193534495
78,0.6499740000001566,-29.113891600000002,5.4990622995,3.186889650000012,-0.30364372549999996,-0.446286291,11.7610878955,-8.7957551475,-3.851324201,2.3893022535
79,0.6583070000001499,-29.173519135,5.5672180655,3.157249449999995,-3.8495104315,0.5696697685,11.206607820999999,-8.242027521,8.403384567,0.668128192
80,0.6666400000001431,-29.24776173,5.567301035,3.1831741499999993,-0.23196447650000002,-1.7061519619999999,8.332595112,-10.529059411,-1.8446861504999998,2.4222424030000003
81,0.6749730000001364,-29.27493954,5.6340813635,3.1668930000000017,-2.9015023705000003,1.0233755405,13.0067219735,-4.503475547,7.4692842975,2.0032061934999996
82,0.6833060000001296,-29.34686756,5.6566150185,3.1749038499999926,-0.25335247800000005,-1.6589354275,12.320403575499999,-10.044617174999999,1.5490334035000002,1.883946478
83,0.6916390000001229,-29.378825185,5.660381317000001,3.207565299999999,-2.1233046055,-0.112571649,9.11885357,-5.6573457715,-1.995745659,3.422426939
84,0.6999720000001162,-29.430041315,5.7446684835,3.1858139499999965,-1.833641261,-1.06226933,11.220163825,-7.2048561575,9.7435722355,2.3950145245
85,0.7083050000001094,-29.473832129999998,5.6746115685,3.240097000000006,0.8547658029999999,-0.2797553465,7.0330023755,-7.3397667405,-10.988476751,1.3661546709999999
86,0.7166380000001027,-29.500351905,5.7645430565,3.206130999999999,-4.132965922,-0.628762484,15.599361895,-4.0949289795,11.048170091,1.432162523
87,0.724971000000096,-29.570960045,5.7466516495,3.246025099999997,0.2493256365,-2.0522183775,8.1663120985,-10.3906140345,-4.699482769,2.9852179285
88,0.7333040000000892,-29.60587883,5.778470516,3.236289999999997,-2.675584793,0.573840052,11.286762477,-5.393852949499999,3.5515164135,0.49644876299999996
89,0.7416370000000825,-29.661167145,5.8312366010000005,3.233680700000008,-0.7667257265,-0.9410042169999999,10.55107498,-8.0436456205,5.1715848445,2.7604272365
90,0.7499700000000757,-29.698262215,5.77475667,3.2628097999999994,-1.690905899,-0.49078884749999996,7.436905384000001,-6.1229362485,-7.951101544,-0.683688834
91,0.758303000000069,-29.71681213,5.898077488,3.2193603500000023,-2.9642617104999998,-0.1217544895,16.04819775,-3.1350483895,14.929522040000002,2.693330884
92,0.7666360000000623,-29.770125389999997,5.839910507,3.2268676500000026,-0.509637073,-1.4339714049999999,9.519765615,-7.8087248805,-6.8473329555,-2.9818110465
93,0.7749690000000555,-29.7693491,5.918845177,3.217422499999998,-4.2347176075,-0.0688100155,11.309403894,-1.236111075,8.2725349645,3.5763176679999997
94,0.7833020000000488,-29.797968865,5.962150573500001,3.1739425500000067,0.03267386550000001,-0.260309428,9.826462746999999,-4.2113330365,6.7414304629999995,-2.1976439955
95,0.791635000000042,-29.799186705,5.9283516405,3.2118606499999913,-1.5027511789999999,-0.631530374,9.708749770499999,-2.0691756605,-6.2847411635,1.797165334
96,0.7999680000000353,-29.791330340000002,6.034635544,3.1275024500000086,-3.4134696724999998,-0.2850997745,17.95097208,0.6806408465,15.726381305,-2.7295495274999997
97,0.8083010000000286,-29.818927764999998,6.006687164000001,3.1578979499999917,-0.888652295,-1.5754387975000002,5.461931004,-5.1486729385,-5.24901706,1.4739649295000001
98,0.8166340000000218,-29.80392742,6.0683765415,3.105422950000005,-1.3859507445,-0.7639832645,11.6194362635,1.1435924769999999,9.1877562985,-2.1246176365
99,0.8249670000000151,-29.81029701,6.1206810475,3.087814300000005,-1.0205585365,-1.1112673874999999,11.232034682,-1.996405423,5.948131947,1.311685741
100,0.8333000000000084,-29.813305855,6.0756752495,3.0985412499999967,-0.6117454170000001,-0.2076284885,6.645750999500001,-1.8154539170000001,-5.6673734190000005,-1.92416054
101,0.8416330000000016,-29.798279765,6.1942203045,3.0396652000000017,-3.138659477,-1.4121550319999998,15.15707493,1.1013417545,15.289402485,0.9372314214999999
102,0.8499659999999949,-29.818675040000002,6.158410787499999,3.0354614000000026,0.895734966,-0.9098619219999999,7.6806498754999994,-3.709370673,-3.8238984345,-2.8577228784999997
103,0.8582989999999882,-29.80096245,6.194493055000001,3.036270150000007,-4.821310996999999,-0.9713039695000001,11.534967186,0.653668858,3.147157073,2.188704312
104,0.8666319999999814,-29.797966005,6.2658910755,2.9795226999999898,-0.39491067850000006,-0.183757499,11.177359585,-0.21913619,10.451921939,-1.9237380625
105,0.8749649999999747,-29.80178833,6.2230951784999995,3.0071411500000096,0.127408117,-1.700588405,8.314479589,-2.285078258,-6.681825995500001,0.3821067885
106,0.8832979999999679,-29.80432892,6.2393774985,2.9738007000000124,-3.3952519895,-0.6999847445,13.492938995,-1.189358622,3.3262139554999997,-2.854841113
107,0.8916309999999612,-29.821356774999998,6.281947136,2.9539794500000056,-2.1634172795,-1.917499721,11.361130715000002,-3.2506319285,5.0230219365,0.570441768
108,0.8999639999999545,-29.839966775,6.2350447175,2.9607162500000044,0.5634163915,-0.755930722,9.7463579195,-3.6396996974999998,-5.630706786999999,-2.41839993
109,0.9082969999999476,-29.856342315,6.247125626,2.9422760000000068,-4.0155386925,-0.9491391035000001,9.0537364485,-3.1902468205,1.7702510949999999,-1.1648266315
110,0.916629999999941,-29.86264515,6.245184183,2.927375800000007,1.3193146585000002,-1.607208848,10.2427659015,-1.879335657,0.3317939044999998,-1.9486862425
111,0.9249630000001616,-29.903460504999998,6.209195137,2.9327850000000097,-2.737334609,-0.775225863,8.408100844,-6.43375206,-4.655457735000001,-1.5319426655
112,0.9332960000001548,-29.917482375,6.2083346845,2.911979649999992,-0.990476996,-0.948772922,12.246288778,-2.731533885,0.7994203569999998,-2.5598671435
113,0.9416290000001482,-29.92341042,6.22480607,2.8778304999999875,-2.7883051635,-0.465713307,13.138733385,-1.726277649,3.1812941434999997,-2.5041052099999996
114,0.9499620000001414,-29.94957733,6.179117203,2.8966140499999966,-1.9334143400000001,-1.1948084235,9.258314372,-4.702805996,-6.214109898,-1.1313616635
115,0.9582950000001348,-29.934176445,6.225259304,2.850746149999992,-2.063201964,-0.8136265575,13.006048202999999,0.97813721,6.9370203015000005,-1.939734042
116,0.966628000000128,-29.94175148,6.2041106225,2.8526153500000078,-0.426525578,-0.9324233829999999,9.8684568385,-2.251587212,-2.6564011425,-1.373083055
117,0.9749610000001212,-29.939154625,6.1486213205,2.8600693000000064,-2.0294302699999998,-0.9984146505,10.334768295,-1.24747077,-6.794438124,-2.5135695934999998
118,0.9832940000001144,-29.93822098,6.1850979325,2.823852549999998,-1.9936800000000001,-1.40076077,13.55568695,-0.738964304,5.5987923145,-1.9013640884999998
119,0.9916270000001076,-29.953626635,6.130877018,2.810226450000002,0.1442449985,-1.4614333510000002,9.3134822835,-3.1365974545,-5.4095159175,-4.5677671435
120,0.999960000000101,-29.954068185,6.102656603,2.815277100000003,-3.078360558,-0.886648148,10.302447319999999,-1.4374518095000002,-3.5787505509999997,-1.5217610005
121,1.0082930000000945,-29.957346915000002,6.1369011405,2.760688799999997,-2.2472867965,-1.0626377465,10.2335481625,-1.1578723785,6.225456953,-3.543761611
122,1.0166260000000875,-29.951595304999998,6.130697250000001,2.7552948000000015,0.5109745115,-0.9727736115,9.4424800885,-0.558454424,-0.671208501,-1.224097818
123,1.0249590000000808,-29.956390385,6.096456766499999,2.7294311499999964,-3.4813338514999996,-1.163116939,10.799421312,-1.7051973345,-2.595375478,-4.7242319585
124,1.033292000000074,-29.946438790000002,6.1798710825,2.688316349999994,-2.4419751165,-0.8808759455,14.165523055000001,0.40283505650000007,10.7776565555,0.42850692600000007
125,1.0416250000000673,-29.96877289,6.1802487374999995,2.6579513500000047,-0.6334426405,-1.1513897775,10.3907654305,-3.7493286135000004,1.2623719575,-3.0415813925
126,1.0499580000000606,-29.97717476,6.1823215485,2.647109999999998,-1.725337446,-1.835961163,7.182605267,-2.1881664990000003,0.5173308255000001,-1.3423460125
127,1.0582910000000538,-29.970632555,6.2520520685,2.587600699999996,-1.0258612075,-0.622680657,12.409178735,0.098973412,10.2115831365,-1.9104056955
128,1.066624000000047,-30.003808975,6.237430810999999,2.58420559999999,-0.6774774195,-2.30577898,5.5361924485000005,-5.255151272,-1.660333976,-1.543097556
129,1.0749570000000404,-30.01246929,6.2702243325,2.540939299999991,-1.631583989,-0.3098885565,13.906974795,-1.9336506130000002,5.4074531795,-2.4944099189999998
130,1.0832900000000336,-30.029088975,6.3164312835,2.4998779499999983,-2.904537201,-0.7239720675000001,12.42573786,-2.7732852695,6.907999277,-1.7936175465
131,1.0916230000000269,-30.038042070000003,6.318888664,2.471023549999998,-0.684318617,-1.7531390189999998,11.729209900499999,-2.15700686,1.3864216805000003,-2.7441108224999997
132,1.09995600000002,-30.047425269999998,6.34146595,2.451858549999997,-2.3558086155,-1.4712984565,9.729050638,-2.191560447,3.1464143394999997,-0.9828118085
133,1.1082890000000134,-30.05250168,6.3546881675,2.411636349999995,1.4794040019999999,-0.5862696695,10.860004425,-1.537129499,3.185655698,-3.2736980915
134,1.1166220000000069,-30.070500375,6.310263395,2.4262924000000083,-1.198590644,-1.7512497305,8.04701686,-3.6724216939999996,-5.830830574,-1.4850684705
135,1.124955,-30.071444515,6.282807588500001,2.4195785500000113,-2.209535897,-0.966412872,11.357920646499998,-1.487489283,-3.0367469789999997,-2.3220393660000003
136,1.1332879999999932,-30.07128334,6.3196082115,2.382629350000002,-2.4940977695,0.034011304500000006,14.736529825,-0.811593503,5.685559988,-1.9130697845
137,1.1416209999999865,-30.089782715,6.2357869145,2.399665850000005,0.6549957989999999,-3.109561801,7.607812405000001,-3.905268073,-10.308749677,-3.202579856
138,1.1499539999999795,-30.082004545,6.213696718,2.394493099999991,-2.946274161,-0.20510937250000003,9.704585075499999,-0.31734758599999996,-2.3256445675,-2.21461314
139,1.158286999999973,-30.09084034,6.1922514435,2.395431500000001,-0.1831305865,-1.852818191,7.538001060500001,-2.53425318,-2.8699148295,-1.1284799875
140,1.1666199999999662,-30.093755725,6.1214060785,2.4114379499999927,-0.5492975715,-2.033595264,10.126452684,-1.8737007380000001,-8.657810926,-2.924998641
141,1.1749529999999595,-30.116650585000002,6.0947191714999995,2.4223479999999995,-3.915419817,-0.705988705,13.63941097,-4.3444629905,-4.0053887365,-0.47084101949999996
142,1.1832859999999528,-30.136017799999998,6.1269481185,2.3960799999999978,-2.0635353925,-1.429722905,15.378542425,-3.3061766625000004,4.570969224,-1.0679279865
143,1.191618999999946,-30.18933964,6.091639757499999,2.42795559999999,-0.652463883,-1.952635169,10.4756724815,-8.264592885999999,-6.1582195755,1.2307319639999998
144,1.1999520000001669,-30.23117638,6.0685236455,2.434455850000006,-0.9277706445,-0.971724272,9.7437286355,-6.4219691755,-3.1340489385,-1.0694007575
145,1.20828500000016,-30.274028780000002,6.0933101175,2.424469000000002,-2.5545376539999998,-1.7297497984999999,9.563638687000001,-6.473057032,2.589195967,0.5204364509999999
146,1.2166180000001532,-30.333698275,6.0573179725,2.4463425,-1.008113554,-1.9317141174999999,8.700306175,-8.756054163,-5.3876926895,-0.23932665600000003
147,1.2249510000001465,-30.370574949999998,6.086042881,2.4379348499999907,-2.8025571105,0.4119387045,12.007516861500001,-5.775273561500001,2.8975717425000003,0.8859515490000001
148,1.2332840000001395,-30.428892134999998,6.1073179245,2.4137725999999873,-0.7312810160000001,-2.617243648,10.897018908500002,-8.007862328,3.316966891,-1.479984105
149,1.241617000000133,-30.472322464999998,6.0661122800000005,2.459526050000008,-1.0790829065,-1.161509693,8.041330813,-7.2507953645,-7.619396448,2.2772401574999996
150,1.2499500000001262,-30.511259080000002,6.1171820165,2.423301699999996,-3.538740754,0.07780126849999999,8.217766047,-5.532515287500001,7.1292049295,-0.9915463625000001
151,1.2582830000001195,-30.53557873,6.1695232395,2.412048349999992,0.39500554099999996,-2.371287584,12.1254458425,-4.227226019,5.5064014035,2.1317639945
152,1.2666160000001128,-30.57648563,6.16836977,2.409645100000006,-3.4387748835,-0.04486766449999996,10.695251939999999,-6.1973586085,-0.31678426299999973,-0.6815116405
153,1.274949000000106,-30.594573975,6.33922863,2.352577199999999,-3.759012103,-1.5290421545,14.581579206499999,-2.880558729,20.52973175,4.621161461
154,1.2832820000000993,-30.630625725,6.3951575755,2.3403014999999954,0.7193725705,-1.6965422035,9.7458317275,-5.480376959,6.1721788664999995,1.873213887
155,1.2916150000000926,-30.637259485,6.4981758595,2.3210219999999993,-2.8352394105,-0.8960188330000001,6.6318376064999995,-1.9946898814999998,11.221196175,4.3362030985
156,1.2999480000000858,-30.628414155,6.696096182,2.249565149999995,-0.900509365,-1.031605333,12.166333675,0.7290776225,24.426548005,4.481129645999999
157,1.308281000000079,-30.629314425,6.7693858145,2.2586517499999985,-1.9916074315,-1.826408088,4.863530278000001,-1.695566505,6.4286677835,5.4561972615
158,1.3166140000000723,-30.59943199,7.0405714515,2.160469050000003,-3.7016141410000003,0.5024607255,17.819993975000003,3.6825305225,33.61125946,6.144098997
159,1.3249470000000656,-30.61158466,7.202254534,2.1238632499999994,-0.886845887,-2.3001968264999997,8.378954173,-2.3714819345,18.33969021,6.224229336
160,1.3332800000000589,-30.543890955000002,7.4329195025,2.079666099999997,-3.312849045,0.786513418,7.277071953,7.4776144030000005,26.15528393,9.185162544
161,1.341613000000052,-30.465308190000002,7.7210657595,1.9993133499999942,-1.183229763,-1.115528822,8.575211525,9.240020512000001,34.061471940000004,9.3828063015
162,1.3499460000000454,-30.32347393,7.9192256924999995,1.9998550500000079,1.0370553585,0.103654556,8.363909004,15.695268155,20.123088834999997,11.77253389
163,1.3582790000000386,-30.11554527,8.203657627,1.9252852999999988,-3.3746391535,1.9739705324999999,9.223975183,24.74020767,33.375102045,9.542939186
164,1.366612000000032,-29.854492184999998,8.477335929999999,1.9112319999999983,-0.70190829,0.11662757400000001,11.061152937500001,30.257592199999998,28.929606435000004,14.671801564999999
165,1.3749450000000252,-29.496966360000002,8.732620239,1.8761367500000006,-2.3092401025,0.720622003,7.817504169999999,42.07131958,28.125501630000002,11.512492179999999
166,1.3832780000000184,-29.095890994999998,9.0307569505,1.8450164500000028,-0.887942046,1.8455760479999999,10.091584682,47.3921299,32.65787983,13.973202705
167,1.3916110000000117,-28.601556780000003,9.270233154,1.8156509499999913,-1.809038997,0.3869535625,10.63977814,58.418109895,26.30395317,10.802261829999999
168,1.399944000000005,-28.02735519,9.533507824,1.811668400000002,-0.666941494,0.694593966,10.352687358,67.670848845,27.688771244999998,14.247954844999999
169,1.4082769999999982,-27.36874676,9.729519367,1.8127212500000098,-2.289623499,2.6438288685,7.396204948499999,77.55609131,20.256730079999997,10.975077630000001
170,1.4166099999999917,-26.609907149999998,9.9946041125,1.8287125000000088,-0.43964087949999997,0.53785789,11.916288380000001,89.42321396,27.139986995,15.794200895
171,1.4249429999999847,-25.782401085,10.11046791,1.8843460000000078,-0.133501172,0.6544280945000001,7.7979128375,96.686401365,9.0860538485,11.950044635
172,1.433275999999978,-24.86750889,10.337229725,1.9370956500000034,-2.521619916,1.4768415689999999,12.005108356000001,107.35838319999999,21.584639545,16.910001755000003
173,1.4416089999999713,-23.872337345,10.471716879999999,2.020362849999998,0.5001382010000001,0.9434451159999999,10.705103872,116.18537140000001,10.2086329465,15.46667004
174,1.4499419999999643,-22.770007135,10.58128452,2.1422729499999917,-0.8400472999999999,1.291035354,7.043091297,128.30405425,6.033540665,18.05713081
175,1.4582749999999578,-21.57839775,10.690912725,2.250885000000011,-0.8599896135,2.2282617095,9.074141979,139.17876435,6.956209897999999,16.57174301
176,1.466607999999951,-20.27611542,10.765407085,2.4020538500000015,-1.142397583,0.981224656,12.31889868,151.59664915,1.638076454,19.499692915
177,1.4749409999999443,-18.91411591,10.80559635,2.5679779000000025,-0.7878454775,0.6721033155,12.614269255,158.3374634,-2.3480087965000003,19.635002135
178,1.483274000000165,-17.483683585,10.84305191,2.7458343500000097,-2.3990193604999996,0.714533478,8.80326462,166.3469696,-2.621337533,20.96308708
179,1.4916070000001582,-15.994241235,10.90223074,2.9237442000000016,-0.25291892900000007,-0.034845289,12.054698944999998,173.35181425,0.4528841374999999,21.627209665000002
180,1.4999400000001517,-14.469717500000002,10.85115433,3.1188049499999977,-0.5810543,0.5454854594999999,6.999085426,177.23020935,-12.297036649999999,20.221829415000002
181,1.5082730000001447,-12.896883965,10.87818766,3.3096466000000078,-2.2582346795,-0.244034536,13.84404087,183.03211215,-2.530857742,22.310898785
182,1.516606000000138,-11.311997415,10.772489544999999,3.5106277499999976,0.7069286705000001,-0.9897637365,9.571931122999999,184.35736085,-17.713295935,20.181840895
183,1.5249390000001313,-9.6955409065,10.709169865,3.722038299999994,-2.8496494295000003,0.8730449975000001,10.081061841,187.87543490000002,-12.3571455485,22.717626575
184,1.5332720000001243,-8.0657608505,10.574483395,3.8972397,1.4409374595000002,-0.862489849,11.657140732,190.39541624999998,-19.504566195000002,17.59509182
185,1.5416050000001178,-6.4121506215,10.432290075000001,4.114639249999996,-3.9255416395000005,0.0466443825,12.99638462,192.32857515,-20.481262685,22.753526684999997
186,1.549938000000111,-4.778896332,10.2885894765,4.280761699999999,-0.1899252385,-1.0140447615000001,11.423369885,191.11219785,-19.42091274,17.499884605
187,1.5582710000001043,-3.1250498295,10.104296208000001,4.481353749999997,-0.1372297555,-1.9968371395,12.231733325,192.85513305,-24.02929211,21.592680934999997
188,1.5666040000000976,-1.5281398890000002,9.891532896000001,4.632995600000001,-1.2360369114999998,-0.35724318,12.34049225,187.1741333,-26.582539555,16.50807667
189,1.5749370000000908,0.078714475,9.6765899675,4.8029022000000055,-1.7213007805,-2.0224795935,13.638179780000002,188.0174713,-26.384200095,19.201467515
190,1.583270000000084,1.6326851845,9.400444984,4.951469450000005,0.5884530695,-1.9250472185,14.218992230000001,182.2264099,-33.216717720000005,17.731225965
191,1.5916030000000774,3.140584469,9.1088309285,5.091278099999997,-3.0354629754999998,-1.1558197735,9.450233458,176.92282104999998,-34.62700367,17.306822775
192,1.5999360000000706,4.6226775645,8.799075127,5.203796400000002,-0.307054557,-2.4177309275,10.83788681,174.4508591,-36.52627373,15.491053585
193,1.608269000000064,6.066000223,8.473091841,5.3022002999999955,-0.32741375250000004,-2.870784521,15.601812840000001,170.1003723,-38.232400895,14.604374885
194,1.6166020000000572,7.3941726684999995,8.1561841965,5.355857850000007,-2.207522154,-2.813632369,20.48617649,157.1418686,-37.36175919,10.435134411
195,1.6249350000000504,8.624177456,7.821892023,5.424552950000006,-1.2129224539999999,-3.940384507,8.090200901,145.08728029999997,-38.92694664,13.325636865
196,1.6332680000000437,9.813034058,7.4573388099999995,5.4352645999999964,-0.028827727000000025,-3.234864473,7.692781448,141.18322755000003,-43.321447375000005,7.9132223129999995
197,1.641601000000037,10.954292774999999,7.150324583,5.4732284499999935,-4.364461541,-2.7851415875,12.357459065,134.99988555,-35.761495589999996,10.731576442
198,1.6499340000000302,12.01122093,6.754435301,5.448570249999989,3.206911564,-3.0227297545000003,13.644079685000001,125.88928985000001,-47.487184525,6.2449014185
199,1.6582670000000237,12.976724625,6.484042883000001,5.467536899999999,-7.179231882,-4.0282846684999996,18.646391389999998,114.2236977,-31.524111745,8.868975162
200,1.6666000000000167,13.83054495,6.108551264,5.458389249999996,4.724549531999999,-1.5827720164999999,10.7990458015,101.2873993,-44.434906005,9.074030876
201,1.67493300000001,14.630329605,5.8752100469999995,5.45663454999999,-9.033116340500001,-2.6840086579999998,11.498679878,94.61204910000001,-27.525806425,6.295379877
202,1.6832660000000033,15.37228441,5.528297663,5.468795799999995,5.227502346,-3.509667277,9.9968163955,87.605991365,-40.184980395,11.885807995
203,1.6915989999999963,16.0504632,5.340415239,5.461250299999989,-7.6978092195,-2.254410267,14.772843599000002,80.082122805,-22.282013889999998,4.8432328700000005
204,1.6999319999999898,16.637367245,4.982878208,5.476074199999999,5.883063077999999,-2.6541284325,10.8964093915,68.99217987,-41.02493286000001,13.4935298
205,1.708264999999983,17.196537014999997,4.87720418,5.480392450000011,-8.29909873,-2.8310832975,12.823497056,65.67547226,-12.314577816,3.7997711895
206,1.7165979999999763,17.687744145,4.5341219905,5.4936905,3.6534526345000002,-2.2980333565,14.9797883,57.517066955000004,-39.149158475,13.543534755
207,1.7249309999999696,18.064273835,4.447755455999999,5.498245250000011,-3.7887948750000002,-3.8771903515,13.10049343,43.79350853,-10.03453588,3.3707112070000003
208,1.7332639999999628,18.426816940000002,4.2058531045,5.515533450000007,-2.1377334595,-2.6842355725,6.8948428635,42.02317238,-27.26816082,10.6900754
209,1.741596999999956,18.717982290000002,4.1202671525,5.531799300000003,-0.9106059595,-2.0388396380000002,9.0148475185,33.470220565000005,-9.455606935999999,4.820053339
210,1.7499299999999494,18.96855831,3.973329663,5.563613899999993,-2.400611162,-2.1035125255000002,10.88244152,28.476974485,-15.804639815,8.943910598999999
211,1.7582629999999426,19.181949619999997,3.8493096825,5.55710599999999,0.846927881,-1.24870643,6.245868088,24.331801415,-14.660856724999999,3.8215316535
212,1.7665960000001633,19.380824085,3.7579990624999997,5.60420225,-3.0922608375,-2.657465577,17.5460515,22.168082235,-8.83052516,8.583501339
213,1.7749290000001563,19.47231293,3.622961998,5.584571799999992,0.03875517849999999,-2.2790783049999996,18.417424675,9.799176693,-16.40310478,2.85907495
214,1.7832620000001498,19.49764538,3.601826787,5.652275099999997,-2.5743436815000003,-2.2713040710000003,7.9842665175,1.2139868040000001,-0.03385560950000001,8.1612725255
215,1.791595000000143,19.5769043,3.519604802,5.667572000000007,-2.8185356854999997,-0.8740609285000001,5.4451140165,8.051604747999999,-9.029377701,4.6647877695
216,1.7999280000001363,19.60905266,3.4497768879999997,5.720085150000003,3.18243742,-0.21069947449999998,4.680882335,2.1854195595,-6.1349171395,8.4516100885
217,1.8082610000001296,19.66718197,3.41394794,5.7424469000000045,-4.440661907000001,-1.431769788,9.048713207999999,5.4733326435,-3.4902021885,3.6157500745
218,1.8165940000001228,19.71535206,3.2616232634999998,5.771835300000006,3.7013539075,-0.23002299650000002,13.755328656500001,4.279691696,-16.371367454999998,9.1815786365
219,1.824927000000116,19.744107245000002,3.248195529,5.802970849999994,-6.381759882,-1.0153825285,18.05848694,1.8922773155,-0.601454258,3.676923871
220,1.8332600000001091,19.739591595,3.0941718815000003,5.8235930999999965,3.82498467,-1.083969593,12.9178764805,-1.9771631955,-16.906398775,8.280444622
221,1.8415930000001024,19.738269805,3.1010997295,5.876815800000003,-3.1239150765000003,-0.8974393009999999,7.091161607,-1.824297011,2.5906623005,5.3878519535
222,1.849926000000096,19.823814395,2.859144926,5.840126049999995,1.2992423325,0.9810863135000001,3.045442939,9.169390678500001,-29.15016079,5.3515858650000006
223,1.8582590000000887,19.90598011,2.8437310455,5.896263099999999,-2.533755064,-0.7034282384999999,15.448551655000001,8.2091708185,0.199041784,6.619615554999999
224,1.8665920000000824,19.957018855,2.573610902,5.820579550000005,1.9642120305000002,-0.208832234,8.505549612,5.241190195,-33.907390594999995,2.2080259325
225,1.874925000000076,20.03612423,2.5484896895,5.880546600000002,-2.8828910885,-1.5576446055,8.2440032945,7.8587288855,-0.71954228,7.4561884405
226,1.883258000000069,20.163616179999998,2.218927741,5.78050995000001,0.5186641215000001,0.6516866685,8.1014614105,14.475806235,-41.604999539999994,1.9825834035
227,1.8915910000000624,20.25393295,2.172852397,5.837654100000009,-1.5428528785000002,-1.455704868,16.483027935,9.2716112135,-3.167021513,8.02532506
228,1.8999240000000557,20.369312285,1.8382087945,5.708442700000006,1.2728080149999998,0.521544278,5.007050932,13.078267575,-43.382087705,-0.908448875
229,1.9082570000000487,20.51644802,1.7503702645,5.779830900000007,-3.8064628244999996,-1.146214038,14.459367035,16.052077295,-7.226202964,11.32994938
230,1.916590000000042,20.639678,1.3600702585,5.620315550000001,3.3337919715,0.361030532,5.9960184089999995,14.03225613,-50.92509651,-1.7208200695000002
231,1.9249230000000352,20.776950835,1.2570817175,5.672248850000003,-5.9603123665,-1.5597069860000001,13.965241908,14.977162365,-9.6895747195,9.800702570999999
232,1.9332560000000285,20.92542076,0.9567468685,5.536964400000002,4.382651329,-0.9932563305000001,7.789105774,16.875710965,-39.81610775,-2.5855702760000003
233,1.9415890000000215,21.080161095,0.6852548049999999,5.518585200000004,-5.501156330000001,-0.24254512800000005,14.105970379999999,17.23026943,-31.531218525,9.198556182499999
234,1.949922000000015,21.20668125,0.49608172500000003,5.4241028,0.23326742649999999,-0.6204934124999999,14.748797889999999,14.032601835000001,-25.618635175,-2.6495389935
235,1.9582550000000083,21.31727028,0.177516848,5.374305749999991,-0.26210965249999996,-2.23937124,1.7070177795,11.994255065,-38.12751198,7.96397686
236,1.9665880000000016,21.453767775,-0.010499358000000014,5.275611900000001,-3.726825595,0.065416217,16.925156592,15.066933155,-25.68331623,-3.189231157
237,1.9749209999999948,21.55483818,-0.24206075099999996,5.260459900000001,0.34796619399999995,-0.42195582350000005,10.574764254,10.847740175,-26.85091877,8.243398904
238,1.983253999999988,21.64138317,-0.4854186025,5.1423798000000005,-1.2555798289999998,-2.5434014795,6.7626173495,8.9764037135,-32.72922516,-2.8016746045
239,1.9915869999999811,21.727099420000002,-0.6113863065,5.149490350000008,-3.5019449,-0.6136601564999999,15.530200005000001,8.979686737,-14.060297485,6.0559495685
240,1.9999199999999744,21.780929565,-0.848089874,5.0573578000000055,-1.2771337630000001,-0.15079271800000005,9.055727243,5.0331504344999995,-30.83731079,-0.04451125850000004
241,2.008252999999968,21.82815075,-1.0001392215,5.04980470000001,0.723022401,-1.5212538389999999,3.9887836875,4.349567889999999,-17.61465931,5.6152188775
242,2.016585999999961,21.92624855,-1.1349775195,4.993659949999994,-5.118623495,0.23616522549999996,12.512016293999999,10.3263697605,-17.880574225,-0.5837166085000001
243,2.0249189999999544,21.997540475,-1.277592406,4.988395650000001,2.5898486975,-0.18237042449999996,14.519546985,7.2575013639999995,-16.447854995,5.521150112
244,2.033251999999948,22.017204285,-1.4090035555,4.941078200000007,-3.786068082,-1.5467437355,12.3399858475,0.9300529805000001,-17.10698223,0.323603779
245,2.041584999999941,22.027532575000002,-1.4692406354999998,4.939857450000005,1.0956805944999999,-1.059401557,13.19268894,-0.0711371005,-7.091724157,2.244652256
246,2.0499180000001616,22.056731225,-1.4954116044999999,4.95773315000001,-6.3733789925,-1.088634893,14.283356191,2.2490449845,-2.461605012,2.8286055919999997
247,2.058251000000155,22.084387775,-1.584419906,4.9231415,3.660454154,-0.25699186350000003,9.3819420315,1.9353224039999999,-11.8041563035,-0.12327489250000001
248,2.066584000000148,22.090351105,-1.5700784325,4.961242650000003,-5.9058315755,1.11557734,11.037246705000001,-0.484704583,2.9644895195000003,3.2373576164999998
249,2.0749170000001413,22.098605155,-1.5311175879999999,4.979682949999997,-0.0376529615,-2.5993101595,7.348926544,-0.2334032655,4.812556267,-0.03228032550000001
250,2.0832500000001346,22.142169000000003,-1.4488221104999999,5.042304999999999,-4.5397855045,0.023732751499999982,6.205623627,4.107064128,11.626610755,2.906255722
251,2.091583000000128,22.171777725,-1.4326310755,5.044029200000011,1.293400938,-1.043010533,8.9052705765,2.280064106,1.5219082235,-0.8643396195
252,2.099916000000121,22.17101669,-1.2938471585,5.125457799999992,-2.0868000985,0.1533545555,15.007126805,-1.177640408,18.759435654999997,2.4265270235000003
253,2.1082490000001144,22.173584935,-1.173599288,5.16111755,-0.7439110875,-0.886234194,11.140608310000001,-0.8628732859999999,14.62283611,-1.7750412225
254,2.116582000000108,22.21820927,-1.1383152010000002,5.216735849999992,1.2266038355,0.72789678,9.5431666365,4.1746462585,6.08984828,4.243356347
255,2.124915000000101,22.255400655,-1.066725597,5.22853090000001,-2.3792131545,0.443956241,16.42149544,3.2117053269999998,8.131368160000001,-2.2753514055
256,2.133248000000094,22.297774314999998,-0.9567634985,5.316787750000003,-0.964234263,-1.123287797,13.025016785,3.965494275,15.881110670000002,4.4976296425
257,2.1415810000000874,22.332432750000002,-0.9008909985,5.331466700000007,-0.257559821,-0.729007214,8.9905810355,2.910571128,6.508142233,-1.2635888755
258,2.1499140000000807,22.34793663,-0.8303913305,5.3803252999999955,-1.3202497365,-0.3771233035,13.89961529,0.6199286135,9.708526851,1.8594657780000001
259,2.158247000000074,22.369395255,-0.7226458545,5.423675500000002,-0.6955358985,-0.46391981849999997,8.540243149,1.3921084705,13.57964659,-0.398916222
260,2.1665800000000672,22.420301440000003,-0.7086384595,5.452621450000009,0.39889979349999993,-0.3716736585,2.866264224,4.83299613,2.5302765369999998,2.236199379
261,2.1749130000000605,22.489520069999998,-0.6839545075,5.464668250000003,-1.5824115870000002,0.2713401765,12.92486811,7.0431079865,2.9324205595,-0.14404164200000003
262,2.1832460000000538,22.544188499999997,-0.6521250230000001,5.492462149999994,-2.3771678805,-0.4143522605,12.259313105,5.283140659,4.4638053175,1.3024581670000002
263,2.191579000000047,22.583615305000002,-0.665382721,5.502845750000006,2.7554931639999998,-1.175491124,5.9923939705,3.4907208085,-1.3581179975,1.4376503225000001
264,2.1999120000000403,22.630093575,-0.6870782525,5.4799881,-3.6248192790000004,-1.809597373,12.733543395,4.206728339,-3.8007172495,-1.891624153
265,2.208245000000033,22.640028,-0.6915629435,5.509155249999992,1.437412262,0.5007877275,14.326010705,-0.018346198000000008,0.49482214449999995,3.1412910225
266,2.216578000000027,22.642767905,-0.7377097755,5.470680250000001,-2.7340843675,-1.912810743,5.211743354999999,-1.0437033175000001,-7.2346258165,-2.4552909135
267,2.22491100000002,22.665486335,-0.8412359525,5.457069399999995,3.0616960525000003,-0.2294750325,8.412670375000001,1.447684765,-12.454634665,2.957131743
268,2.2332440000000133,22.672263145,-0.895749699,5.404373200000009,-5.1452579494999995,-0.2325500775,12.988155365,-0.612558097,-8.812238931500001,-3.6468331815
269,2.2415770000000066,22.6725359,-0.987460345,5.417480449999999,2.301620185,-0.954476178,12.4599185,-1.1983109415,-9.912837984,5.363377809499999
270,2.24991,22.65570259,-1.0827753395,5.339256300000002,-4.3873462675,-0.503700229,14.71609831,-3.501030803,-14.514334675,-4.5661098955
271,2.258242999999993,22.59123516,-1.179409504,5.354331999999999,3.726611495,-1.5681649745000001,7.6211142515,-8.946964262,-10.369092464000001,5.825190544
272,2.2665759999999864,22.562857625,-1.2660694565000001,5.287803650000001,-6.041510582000001,-1.3606969715,9.913772346,-4.9153852465,-13.010279655,-3.7428165675000002
273,2.27490899999998,22.512627600000002,-1.3893703519999998,5.3034820499999995,2.9375121594999998,0.8540296555,14.172395705,-7.229529619,-13.30515051,7.1035842895
274,2.283241999999973,22.463310245,-1.429802656,5.249175999999991,-6.482973337000001,-1.0560322405,10.415579321500001,-7.4064600469999995,-7.3156316285,-4.497322321
275,2.291574999999966,22.407119755,-1.5586516854999999,5.285499549999997,4.385764241,-0.9917336999999999,10.3876228335,-7.871332883999999,-12.99313021,9.617135524999998
276,2.2999079999999594,22.341923715,-1.663697541,5.1988449499999945,-5.6114554405,-0.10236036400000001,11.548387524999999,-9.434418201,-15.957007885,-5.1390242575
277,2.3082409999999527,22.26138973,-1.762054354,5.247390749999994,4.5073643925,-1.9291954635000002,7.3875632289999995,-10.727794167999999,-9.0697841665,9.5762672425
278,2.316573999999946,22.212563515,-1.856681347,5.162635850000001,-6.7312021255,-0.7196694149999999,10.507254841,-7.514719725,-14.70363903,-5.472188710999999
279,2.3249070000001666,22.11434555,-1.9736559395,5.20709995,4.1011123655,-0.15096393249999995,12.06071639,-12.84344244,-11.3505287195,9.939439772
280,2.33324000000016,22.025678635,-1.9785698059999999,5.145805349999989,-8.136885166,-0.8471167085,9.6863718035,-12.222295765,-3.6501444575,-6.9279217719999995
281,2.341573000000153,21.94338894,-2.058509767,5.223327650000002,3.1451405285,-1.120274067,9.824847698,-10.8009738905,-5.778854132,11.87693882
282,2.3499060000001464,21.851565360000002,-2.057177663,5.152992249999997,-6.127433777,0.39167902649999997,15.229017735,-12.63273907,-3.3468463425,-8.2050220965
283,2.35823900000014,21.742834095,-2.066485107,5.250221249999996,0.911174595,-0.5814914405,8.3828647155,-13.886158945,2.9374281169999996,10.9251904495
284,2.366572000000133,21.66705418,-2.0064691900000002,5.210235600000004,-5.3929929735,-0.6694223285,12.888813495499999,-10.5820355425,4.5638552905,-7.4631819725
285,2.374905000000126,21.57024002,-2.0375875235,5.285217299999999,2.234428704,-0.09475195400000003,12.202724929999999,-12.546379564999999,-0.516492009,9.432251454
286,2.3832380000001194,21.482577325,-1.917160511,5.266670200000007,-5.716782093,0.45450592049999994,10.61908627,-11.914272785000001,12.279096124999999,-7.697899342
287,2.3915710000001127,21.40463543,-1.9045720099999999,5.366630550000011,1.6468920109999998,-1.805124044,10.053544996500001,-10.206250192999999,5.424583912,10.2769327145
288,2.399904000000106,21.341547965,-1.8187829254999999,5.3237152500000064,-3.692427039,0.66371464,12.1893816,-9.0435295105,7.3577156065,-8.8618478775
289,2.408237000000099,21.27127075,-1.755726308,5.436142000000004,0.6495763809999999,-0.22480350699999996,10.2594623555,-9.270844934500001,11.59282732,9.493944642999999
290,2.4165700000000925,21.224420549999998,-1.6599738595,5.409103350000009,-2.993839264,-1.020334851,11.757122037999999,-7.0285599229999995,9.17603183,-7.5252325535
291,2.4249030000000857,21.168831824999998,-1.641532868,5.483139049999991,1.4306319355000001,0.06202816950000001,10.629981516,-7.662178040000001,4.9168322085,7.1797854899999995
292,2.433236000000079,21.12049675,-1.4934452475,5.472480750000003,-4.0718638894999994,0.39331463349999995,11.975394245,-7.1514575485,15.75915003,-7.942157268500001
293,2.4415690000000723,21.07946682,-1.4785133005,5.544326800000007,1.6219927075,-2.011508763,9.3534817695,-5.9481387135,4.4117965695,7.0802879335
294,2.449902000000065,21.046189310000003,-1.3673606514999999,5.5139236500000095,-3.130053043,1.3091571035,11.90746927,-5.392245293,10.783018115,-8.5198464395
295,2.458235000000059,20.996500965,-1.2624765635,5.617759700000008,-0.6972416715,-1.330458194,11.81317997,-6.930227518000001,15.857622625000001,6.7960090635
296,2.466568000000052,20.9678545,-1.175076008,5.602203399999993,-2.0245603625,0.051738322,10.2799859025,-4.7867884635,8.769341469,-5.8287501335
297,2.4749010000000453,20.920150755,-1.0475497545,5.716033949999996,-1.4863462445,-1.1634915325,10.893589973000001,-6.703452825499999,18.812355994999997,6.9812393185
298,2.4832340000000386,20.876137735,-0.8789829275000001,5.735488900000007,-1.667088211,0.5257601439999999,11.591398715,-6.5568373205,19.37444878,-5.375469923
299,2.491567000000032,20.834992409999998,-0.768073034,5.845443750000001,-2.6278971435000003,-1.414287463,9.065392257,-5.998944998,16.776213645000002,7.284063339499999
300,2.499900000000025,20.7959013,-0.5394989845,5.8917464999999964,-0.454095859,-0.136588916,10.691735265,-5.930544138,27.25347519,-4.880911112
301,2.5082330000000184,20.771622655,-0.3968788085,5.978942899999993,-4.038017154,-0.500231374,10.703163149,-4.098676205,19.357658385,3.368926108
302,2.516566000000012,20.741514205,-0.1802931725,6.031150850000003,1.7090805175,0.20146009299999995,12.259516715,-4.868654251000001,26.165149685000003,-3.6434859035000002
303,2.524899000000005,20.710821154999998,0.017160326000000004,6.117965699999999,-4.3105683325,-2.3056724070000003,9.9936575885,-4.938376546,25.490764615,1.012909308
304,2.533231999999998,20.669838905,0.1953700485,6.169029249999994,3.5807827715,0.989893891,12.836484429999999,-6.216512918499999,21.80796814,-2.125867143
305,2.5415649999999914,20.62880516,0.42313250900000005,6.220748900000004,-5.506755352,-0.3413206489999999,9.8512420645,-6.2232518195,27.411554340000002,-4.156847477
306,2.5498979999999847,20.583540915,0.59645091,6.299453700000001,3.1639834645000002,-0.863474697,13.605829714999999,-6.8149132725,22.428358075,1.1919524225
307,2.558230999999978,20.526248934999998,0.7934094254999999,6.31607815000001,-3.7989848855000004,-0.7743538320000001,8.870730877,-8.154770136,22.47420979,-6.743475913999999
308,2.566563999999971,20.48361206,0.9369220955,6.401733399999998,0.43988938600000005,-0.8020408895,8.3154499535,-6.585639715,19.37119484,3.242187083
309,2.5748969999999645,20.43130875,1.1013920005,6.397995000000009,-1.988444388,-1.5558205244999999,13.256254195,-7.509814739,17.973503115,-7.6151411535
310,2.5832299999999577,20.36653423,1.235576585,6.488571150000013,-0.4583321735,0.5825479925,13.482892515,-9.3121356965,18.527731895,4.232946038
311,2.591562999999951,20.267758370000003,1.3860127925,6.466499349999992,-0.3336907175,0.349238455,13.467196465,-13.024478434999999,15.644330499999999,-9.039798737
312,2.5998959999999443,20.17823982,1.5582028625,6.561721800000001,-3.7476301195,-0.862271547,9.683327197,-12.36320448,22.987931250000003,3.2238862514999997
313,2.608229000000165,20.085383415,1.6554301980000001,6.542701749999992,0.355375856,-1.0251166525,9.4058179855,-12.315827845,9.8015713675,-6.464548348999999
314,2.616562000000158,20.01757431,1.790913701,6.628776550000012,-1.649386197,-0.7099338025,8.949744461,-9.7681973,18.46219635,3.784888625
315,2.6248950000001514,19.944107055,1.8533889055000001,6.595642049999995,0.9923862965,0.418670997,14.629827500000001,-9.922597887,5.319782734,-6.5990605355
316,2.6332280000001447,19.834191320000002,1.9922358395000002,6.689376800000005,-2.5376018285,-0.641904343,13.27147532,-14.886591435,19.14894295,4.585065603
317,2.641561000000138,19.70693016,2.0574153665,6.659462000000005,0.13770738200000004,0.631723091,10.187093259000001,-16.384663105,5.7748339175000005,-6.3524730205
318,2.649894000000131,19.60713863,2.1198359725,6.700386049999992,-2.4903987645,-1.565454185,6.763808727500001,-13.473807815,8.364509821,1.790525079
319,2.6582270000001245,19.552476884999997,2.2003010510000003,6.678886399999996,1.2037743330000001,0.9665516355,12.945094104999999,-7.692044735,7.857500076,-5.9880957605
320,2.6665600000001177,19.472345349999998,2.2436480524999998,6.701988200000002,-3.868743062,0.31173715,15.710223675000002,-11.04579449,5.4933321475,0.5686553715
321,2.674893000000111,19.367154120000002,2.3658186795000002,6.7097855000000095,0.7548842505,-0.5010294095,8.837037086,-13.8910532,13.757872105,-4.324555397
322,2.683226000000104,19.27534771,2.387948632,6.679931600000003,-2.951286197,-1.4191620944999999,7.5891146659999995,-12.196808815,0.9846625625000001,-4.579326271999999
323,2.691559000000097,19.19411087,2.4980379345,6.672081000000006,0.566865705,-0.6753866595,14.056506635,-10.936038495,11.789517400000001,-5.5512206555
324,2.6998920000000908,19.0463295,2.551148176,6.641662600000004,-2.5939946175,-0.642886676,13.744459155,-18.89698696,4.48821795,-5.8514335155
325,2.708225000000084,18.85128212,2.6652321815,6.6148529000000025,0.7951546015,-1.7101694345,10.597107886,-24.480731965,11.53079319,-7.785464525
326,2.7165580000000773,18.629789350000003,2.7528250215,6.571197499999997,-4.2239892485,-2.266951263,7.7714936735,-27.66919613,7.9346818925,-8.673550128999999
327,2.7248910000000706,18.37168312,2.863531351,6.535110450000005,1.3100029229999999,-1.9485554695,12.42007446,-31.97884178,10.852159974500001,-8.6061742305
328,2.733224000000064,18.047968865,2.9644201995,6.471878099999998,-4.904483556500001,-2.0063862805,12.721732135,-39.801651005,8.7960829735,-11.324532510000001
329,2.741557000000057,17.621879575,3.108442068,6.429008449999998,2.629822373,-1.7814848424999998,12.7906556135,-52.07305908,14.5029583,-10.463327885
330,2.7498900000000503,17.122410775,3.274804831,6.357246400000008,-7.047482014,-2.873462677,11.7353978145,-60.808773044999995,16.15217781,-14.52373457
331,2.758223000000044,16.524817945000002,3.4801256655,6.353683449999991,1.6512465180000002,-3.101244092,14.380229475,-72.89517593,23.084155085,-7.797743797500001
332,2.766556000000037,15.837771895,3.669080019,6.260032649999999,-5.08629179,-2.8377448320000003,10.3722014415,-83.085430145,18.311301229999998,-17.432700155
333,2.77488900000003,15.05574322,3.922882199,6.263420100000005,2.22314775,-2.8288103345,10.0335581325,-95.077613835,29.08882999,-7.958630084999999
334,2.7832220000000234,14.19153976,4.1335870025000006,6.131301899999997,-4.2988960745,-1.5682988165,8.952700615,-103.93820955000001,20.132496835,-22.050997735000003
335,2.7915550000000167,13.228044985,4.473519802,6.144722000000002,-1.0936763434999999,-3.431994319,15.86427355,-116.971035,39.642803195,-8.376903534
336,2.79988800000001,12.188340664999998,4.7483956815,6.011688249999992,-4.1301163435,-1.7156007885000002,11.866044043,-124.8199463,28.32834625,-23.135518075
337,2.808221000000003,11.04833317,5.1790447235,6.033302300000003,-0.6162205935,-2.557531476,14.422633170000001,-138.2488937,50.77127266,-8.098749161
338,2.8165539999999964,9.8062205335,5.4741196635,5.884956349999996,-0.6896401044999999,-2.7776024935,6.973430156499999,-148.73001864999998,31.263466835000003,-24.16963482
339,2.8248869999999897,8.4762120245,5.907490015,5.9084014499999995,-1.5193541945,-3.123420119,13.9345378875,-161.1246872,51.429616929999995,-5.7508871555
340,2.833219999999983,7.077610731,6.270173788499999,5.762664799999996,-2.6439197585,-0.010245948999999976,11.665324686,-167.3150101,40.417163849999994,-23.48259163
341,2.841552999999976,5.6002228259999995,6.7306244369999995,5.769577050000009,-1.1911049484999998,-1.923844576,18.324422835,-178.58061215,54.601947785,-5.938664198
342,2.849885999999969,4.0774739985,7.12403059,5.616584799999998,-0.27448642249999994,-0.9166075250000001,5.581448793,-181.84092715,45.14328766,-22.447546005
343,2.8582189999999628,2.494263649,7.46884656,5.597206099999994,1.065131962,-1.3072598130000002,10.8160579185,-190.8900757,40.79852104,-5.3786320685
344,2.866551999999956,0.8767071515,7.855617284499999,5.408645649999997,-1.5842405405000002,-0.5335932074999999,11.412382127499999,-192.42138670000003,45.37534523,-24.137534145
345,2.8748849999999493,-0.7921048254999999,8.2004089355,5.3434601000000015,-3.7840952870000004,-0.8412682115000001,17.964512825,-200.3745346,41.020639419999995,-8.457864046
346,2.8832179999999425,-2.5197556015,8.5908756255,5.143768300000005,2.42915833,-0.14643579699999998,12.96583271,-205.14982605,47.15874481,-22.628919605
347,2.891551000000163,-4.2802214625,8.8075857165,5.016967800000003,-0.814985335,-0.32749450199999997,6.598591447,-210.143219,26.536492350000003,-14.272845265
348,2.8998840000001564,-6.052719593000001,9.128918170999999,4.819335949999996,2.1654046775,-0.12036472549999999,9.546743633,-210.3371124,40.150730135,-20.153129579999998
349,2.9082170000001497,-7.757362842499999,9.2891278265,4.644088750000009,-4.118507683,2.147457451,9.564738988,-202.40644835,21.28448391,-18.973828315
350,2.916550000000143,-9.4454460145,9.5291280745,4.481277450000007,0.928875111,2.6337498425000003,16.683483600000002,-200.71389770000002,31.000514029999998,-15.032094955
351,2.924883000000136,-11.104750155,9.743824005499999,4.292266850000004,-2.8722481725,1.0957736375,10.228767393,-196.56438445,29.016093249999997,-17.875929835
352,2.933216000000129,-12.716572285,9.849124431,4.129730199999997,1.9384864565,3.2566969395000003,11.482110500000001,-191.43824005,15.974648,-16.485183235
353,2.9415490000001228,-14.24703598,9.995514393,3.927505499999995,-3.973183036,1.4441725315,10.011520385499999,-180.79766080000002,22.256346705,-19.194830895000003
354,2.949882000000116,-15.703351975,10.093114374999999,3.7769546500000075,2.15950799,2.815382302,9.662492751,-172.9402771,15.554267885000002,-14.48246479
355,2.9582150000001093,-17.11734867,10.0897469505,3.566238400000003,-0.756880358,1.849674225,11.159646748,-166.5681305,6.238099357499999,-24.05889511
356,2.9665480000001025,-18.430673595000002,10.16997385,3.4006729000000036,0.536728762,3.1152201890000004,8.211865902,-155.43953705,14.788819310000001,-16.008224965
357,2.974881000000096,-19.627895355,10.054558755999999,3.2361144999999993,-2.4282305534999997,3.3939459320000003,10.729575155,-141.53067015,-7.1983528135,-22.925151825
358,2.983214000000089,-20.765607835,10.06897974,3.1087722999999983,3.1193299295,2.320426345,10.562862394500002,-135.19106290000002,6.4684494725,-13.81302929
359,2.9915470000000823,-21.753396985000002,9.9405474665,2.931465149999994,-2.978283167,4.096217871,7.953725102,-116.18445205,-7.249116659,-25.101169585
360,2.999880000000076,-22.607667919999997,9.80839777,2.8918457000000046,1.2471179965,4.5386295315,13.898032664999999,-103.0290909,-13.2597270025,-10.618911745
361,3.008213000000069,-23.409293175000002,9.663241386500001,2.7456131,-0.6715853215,2.213112831,10.904500485,-94.590354915,-9.7951126085,-22.635930065
362,3.016546000000062,-24.029073715000003,9.5107340815,2.7235488999999973,-1.392263651,3.5993148085,4.3267412185,-75.25746154999999,-16.04525709,-10.091210364
363,3.0248790000000554,-24.53740883,9.2675404545,2.6562423999999965,0.24585232100000004,4.042325973500001,13.321555135,-61.039922715,-23.845627784999998,-19.187503815
364,3.0332120000000486,-24.982012750000003,9.104904175,2.652938849999998,-0.4345381855,1.41007337,8.9127516745,-54.613496785,-17.900488855,-8.853809357
365,3.041545000000042,-25.270355225,8.867594242500001,2.594161999999997,-2.339258373,3.6104433535,8.5523302565,-34.875198365,-23.40340519,-18.251051905
366,3.049878000000035,-25.494826315,8.6490068435,2.6404342499999984,-0.2395543605,2.2026227715,12.4381508825,-29.10473442,-26.387150765,-6.5794279575
367,3.0582110000000284,-25.672936435,8.4601459505,2.585571299999998,-2.496397972,1.7761282325,12.948557855,-21.76416111,-18.19887495,-15.55845213
368,3.0665440000000217,-25.75462246,8.2509698865,2.617217999999994,-0.7355050445,1.375041604,6.3380553719999995,-11.674598215,-24.585704800000002,-7.8138005735
369,3.074877000000015,-25.78262615,8.0527818205,2.584854100000001,-2.135152638,1.7463462349999999,11.745156765,-4.1896647215,-20.339935304999997,-13.630795475
370,3.083210000000008,-25.76891613,7.9057729245,2.590438849999998,-1.3553751405,0.212428238,9.750356197999999,0.2341783045,-16.51373863,-7.394927979
371,3.091543000000001,-25.720861435,7.712301254,2.5629043499999966,-1.628078371,1.451831758,10.141623020499999,4.8427256345,-20.06127739,-12.911456585
372,3.0998759999999947,-25.65054226,7.608996868,2.5478668500000055,-1.0388664305,-0.44535906550000004,11.118271351499999,7.360309601,-10.7344479555,-7.299347639
373,3.108208999999988,-25.573452,7.444504023,2.5292739499999897,-1.424233556,0.761544943,13.595736025,8.1738955975,-17.400530815,-10.437337397
374,3.1165419999999813,-25.52029324,7.347717762,2.52056125,-1.7140600085,-1.2803659440000001,8.340434313,5.1956882475,-10.3693027475,-6.266004800499999
375,3.1248749999999745,-25.431322095,7.2639796735,2.4783019999999993,-0.969045669,0.106816739,10.4000477785,9.954801082500001,-7.4449260235,-8.81326437
376,3.133207999999968,-25.370114325000003,7.161364317,2.4837188500000025,-1.466568053,-0.5125118945,12.032509324500001,5.9455583095,-11.736809730000001,-5.023483753
377,3.141540999999961,-25.30349827,7.095104933,2.4644775500000122,-1.3548807505,-0.3032449930000001,12.425149445,6.917259455,-6.7251143455,-5.4647657875
378,3.1498739999999543,-25.274131775,7.039541483,2.464996350000007,-1.334661782,-0.35089618,13.352239605000001,2.198143482,-6.3948824405,-3.1127638815
379,3.158206999999948,-25.25314331,6.998950004499999,2.4478988500000014,-1.9859540464999998,-0.7712522744999999,9.783144476,1.4070733045,-4.035055518,-3.949670553
380,3.166539999999941,-25.231158254999997,6.95481205,2.458145149999993,-1.102065742,-1.160221219,14.242319105,1.1686942574999999,-5.64971292,-1.4571105835
381,3.174873000000161,-25.254413605,6.9577748775,2.450576749999996,-2.2011190650000003,-1.1502191125,10.44842243,-4.042035222,0.21553099149999988,-0.725452742
382,3.1832060000001547,-25.296083449999998,6.9000263215,2.4512557999999984,0.7949270455,-1.529017806,10.281966923,-6.330450058,-6.6423549655,-3.1857517955
383,3.191539000000148,-25.348044395000002,6.9303708075,2.4271164000000027,-2.9586657284999998,-0.24701584849999997,13.145875929999999,-7.248451470999999,4.046736002,-1.1241128445
384,3.1998720000001413,-25.461462025,6.888066053499999,2.4207534500000065,-0.8054347335,-1.8573880795000002,10.4060463925,-14.839809895,-4.600349903,-3.1762236355
385,3.2082050000001345,-25.565322875,6.925469875,2.402427649999993,-2.0993700625,-0.5545475035,11.182366846499999,-13.56227255,4.5181916955,-0.1236911715
386,3.216538000000128,-25.715831755,6.896994114,2.3698348999999865,-0.7272961435,-0.508263163,12.612316135,-18.911757469999998,-1.740218848,-5.282777548
387,3.224871000000121,-25.876450535,6.9408371445,2.3560791000000023,-2.900797486,-1.453122437,6.490292072,-20.441928865,4.9837446215000005,0.7148744165
388,3.2332040000001143,-26.041684150000002,6.9126520155,2.331268300000005,1.2483010884999999,-0.9010966119999999,11.7260751725,-20.790129665,-2.0930812355,-4.432910204000001
389,3.241537000000108,-26.225058554999997,6.9560065269999996,2.3072738999999984,-2.994956136,-0.5218206194999999,10.7603573825,-23.025062560000002,5.470146477499999,-0.405966595
390,3.249870000000101,-26.434313775,6.9509322645000005,2.273834199999996,-0.427078418,-0.925392866,9.588839056,-25.94547367,0.876314521,-4.146800041500001
391,3.258203000000094,-26.619377135,7.020701408,2.247810400000006,-2.0660104155,0.25803157200000004,14.166599275,-23.19502735,8.426530597500001,0.822608024
392,3.266536000000088,-26.848558429999997,6.998232603,2.2244034,-0.018379970999999995,-0.669155784,13.044864175,-28.480801585000002,-1.4988180995000002,-4.0030658245
393,3.2748690000000806,-27.036268235,7.023963451,2.230186449999991,-2.05395931,-0.364567742,8.591315984,-23.980576515000003,1.9915527405,1.8671441075
394,3.283202000000074,-27.25075531,7.006476879,2.2112731999999937,1.1089612245,-0.614191055,11.419953825,-26.782550809999996,-1.185926974,-3.259138107
395,3.291535000000067,-27.443161965,6.977391243,2.225296,-1.615366459,-0.05358687799999999,8.605543613,-24.66694927,-4.3158278465,-0.2775623555
396,3.2998680000000604,-27.63875961,6.9611394405,2.2106933499999997,-0.43718525750000004,-0.8152976035,14.247672555000001,-24.581832885,-1.268494487,-2.7387584445
397,3.3082010000000537,-27.833913805,6.926342964,2.243713349999993,-2.7397032975,-0.09469127650000003,8.762476921000001,-25.27273178,-5.970676183499999,1.3694083094999998
398,3.316534000000047,-28.0232563,6.902443409,2.218536400000005,1.06438075,0.09081605099999995,12.235867500000001,-23.67826748,-1.478108883,-4.2829396724999995
399,3.32486700000004,-28.20208645,6.8456697465000005,2.263961800000004,-3.6673601865000003,-0.013139695000000007,10.495371342999999,-23.490054129999997,-8.9926450235,1.3790263829999998
400,3.333200000000033,-28.36579132,6.832477808,2.2530212500000033,-0.31951667349999996,-0.3698535635,11.729473115000001,-20.808300975,-1.122096002,-2.201781273
401,3.3415330000000267,-28.514183995,6.7548217775,2.3057555999999977,-1.564531624,0.3302286715,9.845169546000001,-19.93748188,-11.62829733,0.9374622104999999
402,3.34986600000002,-28.655713085000002,6.7305579185,2.302825949999999,-0.220800249,-0.9865799545,9.3878922445,-18.262000084999997,-2.7391678095,-2.01831907
403,3.3581990000000133,-28.763410565,6.6450641155,2.34664149999999,-1.771456182,0.7554214294999999,9.604988812,-14.91647339,-11.943607808,-0.4848007115
404,3.3665320000000065,-28.873005865,6.6519863605000005,2.338699349999999,-1.841982365,-0.3501958485,11.102033613,-14.361014364999999,0.8351521494999998,-0.7844297140000001
405,3.374865,-28.950671200000002,6.583063364,2.3752899000000127,-0.30506292749999997,-1.186327696,10.4306111315,-11.209924699,-9.787398813500001,-0.296433568
406,3.383197999999993,-29.005694390000002,6.5676980015,2.379089350000001,-2.426139891,1.688288569,9.8409900675,-7.974460840500001,-2.1795789005,-0.870852113
407,3.3915309999999863,-29.060396195,6.5361142155,2.394165000000001,-0.835788727,-1.3315858839999999,10.651905773500001,-8.157372474999999,-4.6271737965,-0.37500517450000004
408,3.39986399999998,-29.08213425,6.5170621875000005,2.414573649999994,-2.643058181,0.4421148895,11.8287487045,-4.2044296265,-3.5288609264999997,0.642437071
409,3.408196999999973,-29.132814404999998,6.506618023,2.402542150000002,-0.060006834499999995,-0.897572249,14.127021315,-7.308222532,-0.841133237,-1.9776560665
410,3.416529999999966,-29.155302045,6.449512243,2.453620900000004,-2.4411841035,-0.519817501,11.683750154999998,-4.7091326715,-9.2968859665,1.6281882525
411,3.42486299999996,-29.198581695,6.4905200005,2.4305572499999926,-2.0747231845,-0.532305628,10.2766475675,-6.2752513885,5.190551996,-0.138163157
412,3.4331959999999526,-29.22535896,6.398121595,2.482414250000005,0.865166068,-0.42425657800000005,9.362379076,-5.2304594515,-13.042813775,-0.3172515335
413,3.441528999999946,-29.248435025,6.4291665555,2.452140799999995,-3.900227189,-0.154236734,15.528328900000002,-3.7602915765000002,4.5674218385000005,-1.510273099
414,3.4498620000001665,-29.299075125,6.3829247955,2.4854430999999977,-0.2885966745,-1.4520964625,9.758607147,-7.8403451445,-7.1282954195,0.4733702835
415,3.45819500000016,-29.329006194999998,6.376329183499999,2.4794997999999993,-1.9352259040000002,0.2478575335,11.467782973,-4.9127149585000005,-0.7978456019999998,-1.1859455705
416,3.466528000000153,-29.38416386,6.3924028875,2.4720001499999995,-0.927807659,-1.4052072765,9.692666768,-7.838833332,1.773926258,-0.1197657585
417,3.4748610000001463,-29.405062675,6.326877356,2.50294495,-0.782656625,-0.036962431000000004,7.805699587,-4.323996663,-9.118713377,-0.7907307
418,3.48319400000014,-29.430042264999997,6.4165189265,2.4596176499999984,-3.3005895615,-0.278467469,15.260119915,-3.7381739615,11.5592765785,0.4426716715
419,3.491527000000133,-29.472922325,6.348195076,2.480384799999996,-0.012795060999999941,-1.535135508,9.196497443,-6.8323602674999995,-8.821677209499999,-1.9615573285
420,3.499860000000126,-29.479234695,6.432154179,2.4570922999999993,-4.864433289,0.435886949,11.336434604,-1.764968157,9.7918803695,2.1735024455
421,3.50819300000012,-29.522764205,6.452497721,2.43135070000001,0.836770892,-1.0342549085,9.293935299000001,-6.292604685000001,3.1585550904999997,-1.5252701640000002
422,3.5165260000001126,-29.526462555000002,6.4676847455,2.434608499999996,-2.2098070979999997,-0.9681040944999999,10.235653876,-1.8057205379999999,1.0473531485,0.8742843565
423,3.524859000000106,-29.546767235,6.5696668625,2.3652496499999955,-2.423889935,0.12018626950000001,15.79629707,-2.9080803394999997,14.248900889999998,-1.2410675285
424,3.533192000000099,-29.57426929,6.556299209500001,2.379821800000002,-1.1544460505,-1.540535331,4.916798651,-4.8189276455000005,-2.596534312,0.40523639349999996
425,3.5415250000000924,-29.567180635,6.690716028500001,2.297653199999999,-1.459121883,-0.27890729950000004,12.366032126,0.5645571355,18.36952972,-0.659829289
426,3.5498580000000857,-29.59741116,6.6916372775,2.290908799999997,0.23155635600000002,-1.38612169,7.1785092045,-4.851470828,0.14831900599999992,-0.9313400685000001
427,3.558191000000079,-29.58357811,6.736816168000001,2.2544632000000036,-2.3404785395000003,0.14981549249999998,11.5330629335,0.7466358245,6.366694534500001,-1.2333063485
428,3.566524000000072,-29.592598915,6.855699539,2.19364929999999,-1.3855883924999999,-0.987828195,14.312642575,-1.5382439495,15.63761473,0.44806349300000003
429,3.574857000000065,-29.60569954,6.8216955665,2.1916809000000086,-0.8340060710000001,-1.0005746185,8.854707958,-2.976777673,-3.939219594,-2.2738974095
430,3.5831900000000587,-29.586820605,6.939929724000001,2.1369933999999944,-3.4648747445000003,-0.208902479,13.1390390375,1.733065903,15.208116050000001,0.977727592
431,3.591523000000052,-29.59543514,6.9575798515,2.1140670999999998,0.466326386,-1.5093707445,7.928185702,-2.1437258999999997,2.662843704,-1.3038479685
432,3.599856000000045,-29.583876609999997,6.973086834,2.1171798499999994,-0.6228375885,-0.578582108,13.81553507,0.0245256295,1.086889088,0.896888822
433,3.6081890000000394,-29.59829426,7.0409150125,2.0581664999999987,-2.196888864,-0.6665717215,13.69293547,-2.3131895065,10.01937294,-2.108621478
434,3.616522000000032,-29.605093,7.0372827055,2.0799407999999886,-0.849027157,-1.5626764894999998,7.8470757005,-2.453529969,-2.002751291,1.7418127655000002
435,3.624855000000025,-29.606140134999997,7.0793910024999995,2.03851315,-2.3007215265,-0.38726614400000003,10.825383185500002,-0.9690121449999999,6.2730870865,-1.8031719924999998
436,3.6331880000000174,-29.607398035000003,7.1148979665,2.0258102500000064,0.238847293,-1.3602418305000001,10.043826105,-1.281838752,4.1071077885,0.4931572675
437,3.641521000000012,-29.601457595,7.080103159,2.019615149999993,-0.7286525405000001,-0.004566021500000003,9.6237859725,-0.654347643,-3.832293153,-2.6589561699999997
438,3.649854000000005,-29.606200215,7.108220339000001,2.0055236999999977,-4.271668672500001,-1.663765073,12.8231749525,-1.676842272,3.4209287765000003,-0.145604074
439,3.658186999999998,-29.59806633,7.1294898985,1.975746149999992,0.9934291095,-0.7905902265,13.006951805,-0.05098506800000002,3.3755084275,-1.6911606195
440,3.6665199999999913,-29.623317715,7.0851511955,1.9807891500000068,-2.799413681,-0.814927779,8.6991903765,-4.423161983,-5.261874198999999,-2.4418240785
441,3.6748529999999846,-29.61160469,7.1063566205,1.9720916499999959,-0.6492337005,-1.4087488650000002,10.370608332,0.058041856,2.1098380385,0.4730372875
442,3.683185999999978,-29.630526539999998,7.107167721,1.9552688500000102,-0.6916079225,-1.4920148850000001,9.184143067499999,-3.338911891,0.731388688,-1.9882090090000002
443,3.691518999999971,-29.649733544999997,7.0345361230000005,1.9847793999999936,-0.3738958835,-0.5587347595000001,8.378440858,-4.219874978,-9.936921833500001,-1.1231906415
444,3.699851999999965,-29.64756012,7.0727238655,1.937065099999998,-4.176464915,-1.156990975,15.049602029999999,-0.354565099,6.4511054755,-3.0251500609999997
445,3.7081849999999577,-29.666392325,7.063382863999999,1.9396895999999941,-0.8516782525,-1.22264874,11.122150898000001,-3.7840997575,-1.7662424445,-0.0809281915
446,3.716517999999951,-29.67746353,7.041344643,1.9341507000000036,-1.4043942095,-0.22087532850000002,12.732464315000001,-2.565528035,-2.3162758649999997,-2.2233476640000003
447,3.724850999999944,-29.692718505000002,7.0697574615,1.9255828499999978,-2.5106551645,-1.322087705,11.271890162,-3.1891065835,2.8404455785,0.9475025535
448,3.733184000000165,-29.704813955,7.0365703105,1.9342498500000005,0.9408107400000001,-1.6603809595,8.6651353825,-2.897847593,-4.3171260955,-1.356651604
449,3.741517000000158,-29.739072800000002,7.007486105,1.9518889999999942,-2.3161101935,-0.8386778385,10.553192615,-5.8587377069999995,-4.7062767145,0.227268711
450,3.7498500000001513,-29.764225959999997,7.012068986999999,1.9350814499999984,-0.594324544,-1.6035874485,11.776574615000001,-4.090958476,1.1237413585,-1.786163926
451,3.7581830000001446,-29.79606056,6.9905974865000005,1.9486923500000017,-2.2858873605000003,-0.2975704595,12.02041292,-5.508385897,-3.673497498,0.31627175949999997
452,3.766516000000138,-29.830327035,6.9694104195,1.956565850000004,-2.8508449795,-1.034737617,8.081331013,-5.5462183955,-3.0154356955000003,-0.8126308325
453,3.774849000000131,-29.837061885,7.0268690585,1.9320296999999869,-1.1888722775,-1.4147568345,12.873078825,-1.9400157335000001,6.7935676575,1.091095984
454,3.783182000000125,-29.890098575,6.9437987805,1.9475860499999982,0.2621005475,-1.0447942315,7.671223639500001,-7.909888506,-9.912076472,-3.6588594915
455,3.7915150000001177,-29.917017935,6.9419777395,1.9574585000000013,-2.6225954295,-1.3561237455,10.2285470975,-4.8609223365,-1.3967826965000003,1.0269451145
456,3.799848000000111,-29.963282585,6.9605584144999995,1.9258270000000124,-0.257387519,-1.1908730565,12.385600565,-6.411556959,3.4649851325,-2.455668807
457,3.808181000000104,-30.021104815,6.889588594499999,1.9539489999999944,-2.322867036,-1.166010022,9.2625007635,-8.839454653,-9.6888356205,-1.184741706
458,3.8165140000000974,-30.053595545,6.9264416695,1.9171905500000008,-3.0143330094999996,-0.8237957954999999,12.506274225,-4.688217997500001,5.6749045250000005,-1.935161769
459,3.8248470000000903,-30.098905565000003,6.938047886,1.8989791999999994,-1.658294976,-1.7301109435000002,10.5336537355,-6.663511037999999,1.6652840969999998,-1.001100391
460,3.833180000000084,-30.13958454,6.8975939749999995,1.908393849999996,1.084030032,0.0738649405,12.021289349,-6.3361871245,-5.112325907000001,-1.785369873
461,3.841513000000077,-30.191295625,6.8896815775,1.8867950500000035,-3.650190711,-1.991469264,11.747604372000001,-7.3872926235000005,-0.16366195699999997,-2.558625221
462,3.8498460000000714,-30.233719825,6.8935022355,1.8820113999999961,0.629053891,-1.4473569689999999,10.807322977,-6.339939832500001,0.33356118199999973,-0.546780713
463,3.858179000000064,-30.300786019999997,6.842278003500001,1.8898010500000026,-2.826877177,-0.8682404014999999,8.558175563499999,-9.654270172,-6.4120452404999995,-2.1553295255
464,3.866512000000057,-30.32819653,6.864970446,1.8767852999999945,-1.3810030219999998,-0.649084449,10.7814984325,-4.4219329355,2.7855032685000003,-0.299667336
465,3.8748450000000494,-30.34688568,6.847422123,1.8524856500000055,-1.132458061,-0.43958067900000003,10.0314307205,-3.3840949535,-0.9764401315,-3.408236265
466,3.883178000000044,-30.366169929999998,6.7914259435,1.884956399999993,-1.466720045,-0.9922549725,9.344655034999999,-4.095249176,-8.096871853,-0.385206096
467,3.891511000000037,-30.377916335000002,6.798727274,1.8501052999999956,-1.657679796,-1.5956230759999999,12.78164959,-2.40879482,2.211616367,-2.9889186624999997
468,3.89984400000003,-30.420983309999997,6.7681372164999996,1.855400099999997,-0.33481527099999997,-1.112811029,10.309120891,-6.562041044000001,-3.8288419249999994,-1.595734894
469,3.9081770000000233,-30.44790268,6.707184553499999,1.8745422499999904,-1.617842868,-1.1150113645,8.509834051,-4.9935269355,-8.104388,-1.594197929
470,3.9165100000000166,-30.458386419999997,6.733846426,1.857696500000003,-3.541529298,-0.6320094765,9.639144898,-2.3396618365000004,3.432928741,-0.456618592
471,3.92484300000001,-30.456417085,6.7161233425,1.8542862000000042,1.4204362035,-0.9681297985,11.9344277355,-1.208037791,-2.2655277254999997,-1.2435006795
472,3.933176000000003,-30.480952265,6.648450136,1.8691710999999884,-3.4734162095000003,-1.8184815945000001,11.63632631,-4.4694731235,-8.241450071500001,-2.9392272235
473,3.941508999999997,-30.474728585,6.6718587875,1.854553199999998,-1.7647426725000002,-0.6757896765,14.502059939999999,-0.5422341525000001,2.6602369550000002,0.0831566085
474,3.9498419999999896,-30.514483455,6.6546690465000005,1.8477630499999975,-0.9609460679999999,-1.220620334,11.2756338125,-5.9941222665,-1.7121832369999999,-2.0339048505
475,3.958174999999983,-30.532874105,6.6030755045,1.8732909999999947,-0.332708985,-1.8514779209999999,8.31813526,-4.053805232,-7.5180931090000005,-0.376548514
476,3.966507999999976,-30.52894402,6.6336677075,1.8543777499999976,-3.6698068380000004,-0.16371777650000002,9.553868530999999,-0.5864955334999999,3.96517992,-0.4283916505
477,3.9748409999999694,-30.521428105,6.6310596465,1.855285649999999,0.168941755,-1.656298816,9.620678188500001,-0.60139662,-0.9569605589999999,0.1179087385
478,3.9831739999999622,-30.52323818,6.626655578499999,1.8712921000000051,-2.693932772,-1.0018452405,10.19240904,-1.75721997,-1.7685991529999998,1.016379297
479,3.991506999999956,-30.50846481,6.7019982339999995,1.827362050000005,-2.8506349325,-1.023621142,13.690262794999999,0.8931173385000001,9.810464858,0.2243230825
480,3.999839999999949,-30.512415885,6.7586710455,1.8214797999999917,-1.9274144770000001,-0.689694315,11.744041918,-1.709026605,5.871442914999999,2.5658741
481,4.008172999999943,-30.49568939,6.826649666,1.806335450000006,-2.1161783935000003,-1.4723504185,4.692182779,0.727937356,7.312102675999999,2.6929847000000002
482,4.016506000000163,-30.451354025,7.0259482865,1.7402343999999914,-1.8127847125,-1.477572054,12.700984955,4.9592964644999995,24.256111145,5.0367667675
483,4.024839000000156,-30.442498205,7.097750187,1.7418442000000027,-0.098955393,-0.9782209694999999,4.6963833575,-0.45046472549999994,6.717262864499999,4.668572187500001
484,4.03317200000015,-30.37295532,7.3440358635,1.666137699999993,-5.2946197989999995,-0.7117476165,12.8094093795,8.1688275335,29.705348015,6.80927515
485,4.041505000000143,-30.33749771,7.593223333,1.6015930000000083,-0.8375727239999999,-1.398364127,11.739450931,3.7665572760000003,29.06040287,8.645060539500001
486,4.049838000000136,-30.23902321,7.8406624795,1.569679249999993,-3.5912511350000003,0.7295086235,11.3659210205,11.013854505000001,27.207572935,11.34316444
487,4.058171000000129,-30.107076645,8.194314479500001,1.4741897499999936,-1.2986109854999999,0.9514910875,11.089638229999998,15.936137679999998,41.788621905,11.6140089
488,4.066504000000123,-29.914944650000002,8.454518794999998,1.4591826999999995,-1.09143281,0.777530387,10.1189382095,22.00130653,27.583168030000003,13.76531887
489,4.074837000000116,-29.654389379999998,8.8267760275,1.3793029500000102,-2.8661887645,0.613978684,10.200655697,31.21330261,42.905565265,13.962337495
490,4.083170000000109,-29.31507492,9.149564742999999,1.342506450000002,-0.7395786645,1.180877,10.3694987315,40.093528750000004,35.517752645,14.976932999999999
491,4.091503000000103,-28.89043331,9.4701800345,1.2992553499999957,-0.522177927,0.799357444,5.8513154985,50.3119545,35.57455444,14.190559865
492,4.099836000000096,-28.38091946,9.793245792,1.2465438999999918,-2.6278500554999997,0.9106057734999999,10.173668860500001,60.887008664999996,36.672075275,12.77137375
493,4.108169000000089,-27.781027795,10.137093065,1.2140579499999973,-0.027794271500000023,1.5452058315,12.180900095,71.18753433,37.723722460000005,15.944308759999998
494,4.116502000000082,-27.13460159,10.40519762,1.1851959500000078,-1.7239782215,0.33913195150000003,8.6355118755,76.87842941,29.774752614999997,11.46987629
495,4.124835000000076,-26.392271995,10.781793595,1.1553116000000045,-1.518216789,0.451656595,10.1377673165,88.27360153000001,41.47966957,17.04547882
496,4.133168000000069,-25.591805455,11.030018805000001,1.1581345000000027,0.5434059205,1.108252257,7.0843095775,94.68327713,26.28144932,13.04530764
497,4.141501000000062,-24.697891239999997,11.34248495,1.1800690000000031,-2.5373096465,1.8003252745,8.376508951,105.32192995,32.46119499,17.95442486
498,4.149834000000055,-23.735506055000002,11.640759469999999,1.1819382000000047,-1.419244498,-0.4314680845,15.124002935,114.13407135,32.20740509,14.577570914999999
499,4.158167000000049,-22.70088673,11.860068795,1.2801589999999976,0.01912555100000002,1.1729480625,7.5619785785,120.35007475,19.316267015,20.534471515
500,4.166500000000042,-21.630075455,12.151688100000001,1.308807399999992,-2.9757272004999997,1.1098880174999999,11.691565988,126.47954555,30.79275131,15.968838689999998
501,4.174833000000035,-20.469304084999997,12.36415768,1.4269714499999964,0.865147993,0.0645813275,9.7575404635,134.9240341,18.571124079999997,21.489886284999997
502,4.183166000000028,-19.26231575,12.551837445,1.5270308999999997,-2.0409697895,0.6840411125,8.5828158855,140.9495468,16.849442485,18.32107258
503,4.191499000000022,-17.967812539999997,12.768074989999999,1.6861419499999926,-0.22753798999999997,1.2912833689999998,10.0601630205,149.81757355,18.405019760000002,25.26511383
504,4.199832000000015,-16.610342029999998,12.888329984999999,1.8544617000000017,0.42452949300000004,0.22154191899999998,6.516020536,157.1132126,7.5765705105,22.76134777
505,4.208165000000008,-15.19705677,13.05571413,2.044326749999996,-2.9591692685,0.7352482415,11.404123304999999,163.05994415,12.8801171775,26.517555235
506,4.216498000000001,-13.729426865,13.20083094,2.2394104000000112,-0.3084228485,0.46080852299999997,14.496825695000002,169.5005646,10.81893301,26.106903074999998
507,4.224830999999995,-12.21259832,13.2570734,2.4702072000000044,-1.8924664405,1.0317216515,8.910391807500002,174.26724245,0.17983555800000017,27.435327530000002
508,4.233163999999988,-10.65285826,13.410829544999999,2.6568908499999964,-2.7999261615,0.7553608715,15.976221559999999,180.70832825,13.416209219999999,24.689312935
509,4.241496999999981,-9.084218979,13.41029644,2.889976500000003,0.07957214099999999,-1.909690082,5.7367300985,180.34062195,-5.0669909715,26.438441275000002
510,4.249829999999975,-7.4774701595,13.514826775,3.092987100000002,-1.9505649804999998,-0.2973579615,17.524925709999998,185.84790040000001,8.653013586,24.90073109
511,4.258162999999968,-5.915070772,13.494769575,3.3065261999999933,-0.349175204,-1.035785466,9.333611487999999,180.07535554999998,-5.645695925,24.20026493
512,4.266495999999961,-4.312015772,13.503032685,3.5038986499999965,-1.0487870875,-1.7609372735,10.10228634,185.54483034999998,-1.411548853,22.684025765
513,4.274828999999954,-2.7522192005,13.472104550000001,3.7141876499999995,-0.962644279,0.027608811999999983,10.646763565499999,179.85328675,-5.5615233185,24.04909706
514,4.283161999999948,-1.205897719,13.372947215,3.9173431000000107,-0.299482316,-2.2897675040000003,11.77042675,178.6066055,-13.0585017185,22.9405508
515,4.291494999999941,0.33677318,13.33648157,4.116241450000004,-3.48863256,-1.529475987,18.9908638,178.2850418,-4.883543611,22.496700285000003
516,4.299828000000161,1.783965051,13.21499395,4.326400750000005,0.28019429749999997,-1.3023070395,11.15692711,166.57691955,-14.469666479999999,24.47077656
517,4.308161000000155,3.218855977,13.090323925,4.490806599999999,-1.712686092,-2.9433213470000004,10.2003579115,166.3008499,-14.442539691,19.47103024
518,4.316494000000148,4.6395962235,12.940907955,4.686920150000006,-1.085662041,-2.3739705085000002,16.24847174,163.88784025,-16.659789085,23.777388575
519,4.324827000000141,5.979795694,12.75009346,4.8301163,-0.06085801150000003,-0.7543580830000001,11.891882895,155.6154938,-21.586820605,18.427645685
520,4.333160000000135,7.24698925,12.554973125,4.970230100000009,-2.0041805505,-2.7432684895,9.4590058305,147.0730896,-21.712080005,18.64814663
521,4.341493000000128,8.496871947999999,12.386706830000001,5.086608900000002,-1.867952585,-2.539761186,7.908853054,145.58374785,-18.469305990000002,15.910470965
522,4.349826000000121,9.715854166,12.123312949999999,5.184677100000002,-0.25881195049999994,-2.444051027,14.848070145000001,142.4720001,-29.732452395000003,16.01397562
523,4.358159000000114,10.869255065,11.998954770000001,5.2647857999999985,-4.375080824,-3.4352709055000004,17.35426283,135.01103210000002,-13.33726883,11.551479335
524,4.366492000000108,11.9128809,11.715054035000001,5.332481400000006,3.9019432070000004,-1.290243238,9.8204001175,122.27165984999999,-32.17202568,14.218253610000001
525,4.374825000000101,12.910888195,11.61550665,5.390312199999997,-8.8838047985,-2.6512212755,14.68672991,116.953228,-10.5343417535,8.8008780475
526,4.383158000000094,13.83928871,11.415926930000001,5.478042600000009,5.0966136455,-3.4606119394999997,10.828645229,108.02248765,-21.262825965,15.285498145
527,4.391491000000087,14.680593015,11.260949615,5.50414275,-8.3177337645,-3.2314323189999996,13.710181235,98.943035125,-17.5978460305,7.157155513999999
528,4.399824000000081,15.458259585,11.17198944,5.628402700000009,4.245038271,-2.883630395,9.406830311,89.13322067499999,-6.854046942,16.601692675000002
529,4.408157000000074,16.165900705,10.967850684999998,5.6409302,-6.796459913500001,-2.7077726125,11.4358611085,83.23978424,-23.497813225,7.7104101185000005
530,4.416490000000067,16.837062835,10.96952915,5.803817749999993,3.5680775045,-2.0614876745,11.7210474,75.52328872999999,5.2950028184999995,18.028726579999997
531,4.42482300000006,17.42349052,10.77096796,5.792716999999996,-5.78073287,-2.463451862,9.1524369695,69.244693755,-23.485404969999998,5.398020506
532,4.433156000000054,17.969130515,10.761201385,5.944168050000002,4.243467450000001,-2.9958519934999996,17.82297802,60.784650805,3.9635861515,17.058371545
533,4.441489000000047,18.43183136,10.6097211845,5.9472351,-5.8344018460000004,-1.5558524725,9.879168511,54.092809675,-17.48555708,5.6662948135
534,4.44982200000004,18.871179580000003,10.59768772,6.071640000000002,1.594498545,-3.6975170375,15.48000717,48.67045975,2.9760352375,14.043714999999999
535,4.458155000000033,19.226606365000002,10.5422916415,6.097724900000003,-6.292717457,-0.845966607,13.82880688,40.71217346,-5.6053249835,4.7247191665
536,4.466488000000027,19.543046,10.559525489,6.231559750000002,1.768203676,-3.457879663,2.3626672025,33.72934723,6.8404812815,13.885415555000002
537,4.47482100000002,19.87429523,10.527518748,6.266235349999988,-3.145185471,0.11734807450000001,7.342435837,37.62553978,-2.5701548455,4.7765231135
538,4.483154000000013,20.15192318,10.564243791500001,6.392654399999998,0.47761365749999996,-1.934488654,10.494340658,29.244913099999998,8.900775673,12.214632510000001
539,4.4914870000000064,20.42982292,10.5351696005,6.431396500000005,-0.41349545099999996,-1.757361412,12.514875884999999,31.140782355,-2.0235590935,5.128307581
540,4.49982,20.634078979999998,10.507400512499999,6.519737250000006,-0.0750865715,-1.0569778385,16.246514795,21.281749724999997,0.1923053265000001,10.644666195
541,4.508152999999993,20.83446598,10.466959475,6.559364299999999,-3.081693828,-0.867674947,15.760556699999999,21.82034111,-3.2187186480000003,5.7015137675
542,4.516485999999986,21.002232550000002,10.4633460065,6.653030399999992,0.2239912155,-3.4141094685,6.9883072375,16.796103950000003,3.197317243,10.189051150000001
543,4.52481899999998,21.161987305,10.431860923999999,6.679885850000005,-1.6907921135000001,-0.654018261,13.144905568,17.226449010000003,-2.719585657,3.925984621
544,4.533151999999973,21.29750919,10.359932901,6.73612215,0.8000089825000001,0.1690516474999999,4.6813259705000005,13.761802195,-5.982072594,9.049114704499999
545,4.541484999999966,21.47660732,10.3329453475,6.755676300000005,-3.4504848714999996,-1.4131665825000002,9.468003033,19.706627845,-2.5082688310000005,2.9252620934999998
546,4.549817999999959,21.61083412,10.238081934,6.783355700000001,2.270092547,-0.5987259455,8.973198177499999,14.231105805,-9.731977103,6.947389126
547,4.5581509999999525,21.748758315000003,10.194815158,6.794441199999994,-4.6639020445,-0.9554991125,11.941065311500001,14.958396910000001,-4.672646522500001,2.7430803775
548,4.566483999999946,21.84960461,10.0927100185,6.8281173999999965,4.294133067000001,-2.2611414195,8.5666339985,10.120993137,-10.2417405825,7.9934620855
549,4.5748170000001664,22.00079632,9.991742132999999,6.802490249999991,-6.5981750485,0.344962463,12.985209705,17.308623315,-12.703093825,1.292225987
550,4.58315000000016,22.134669305,9.9252572085,6.856994599999993,3.0730019210000004,-0.11780852800000001,11.1264245515,13.664507865000001,-5.3148988500000005,8.7173347475
551,4.591483000000153,22.24496269,9.82590723,6.813400250000001,-4.7404328585,-2.6482423545,11.1923823375,12.777333255,-13.317974806,-0.6718232335
552,4.599816000000146,22.355091095,9.788610457,6.85575870000001,3.3043289180000004,-0.6893794835,9.257439612999999,11.078862189999999,-2.5829336635000004,6.0777335165
553,4.60814900000014,22.469314575,9.6260557195,6.812454200000005,-4.859813094,1.2353604135,12.0702686295,13.247623919999999,-20.31600523,2.324736178
554,4.616482000000133,22.608369824999997,9.6562771805,6.893547049999995,1.5428676010000002,-1.7782736420000003,13.51437664,13.767681119999999,6.6817181085,7.184845686
555,4.624815000000126,22.743279455,9.483541011,6.849426300000005,-2.9630608560000002,0.1860816105,5.3224573135,15.738879685,-21.467519760000002,2.800969243
556,4.633148000000119,22.87816906,9.482242108000001,6.933784500000002,1.3821089565,-2.0505831245,17.934650895,13.210620405,3.3803493975,8.9453492165
557,4.6414810000001125,22.9459362,9.292349337000001,6.897033649999997,-0.8913438614999999,-1.510428697,3.9572570335000004,7.5771172045,-23.009882925,4.572860717999999
558,4.649814000000106,23.07927036,9.285684584999998,6.966720600000002,-2.3613350395,0.10984291100000002,14.1750562175,13.295687675,2.1443405154999997,7.5247983935
559,4.658147000000099,23.17108154,9.127011776,6.952743550000008,-0.6380576935,-1.939271212,7.3860655589999995,10.0281953805,-18.48784018,5.683071375
560,4.666480000000092,23.24324036,9.038435458999999,6.969291650000002,-0.5182649635000001,-1.7484267355,17.113892555,6.978395462,-9.345519045,5.584122181
561,4.674813000000086,23.284092899999997,8.9871258735,6.993186950000009,-1.782195501,-1.8964523075,4.2491621375,3.2128834724999997,-4.862215877,4.784252644
562,4.683146000000079,23.33784294,8.7443523405,6.929588350000003,0.9442988634999998,0.9194386600000001,12.36722422,6.2707538605,-30.085392955,4.2178995605
563,4.691479000000072,23.378975869999998,8.7977342605,7.001182549999996,-5.0232656005,-1.954039514,14.15851116,2.36669147,8.923385856,4.977640151999999
564,4.699812000000065,23.423645970000003,8.4921684265,6.885383599999997,4.9003605845,-0.45071220399999995,3.2218685149999997,6.1255249979999995,-39.457681655,1.6074876785
565,4.708145000000059,23.46800804,8.505696535,6.9411621,-8.239365101,-0.867414057,20.053160665,3.010799885,3.803157583,5.0608226065
566,4.716478000000052,23.48166943,8.281607628,6.870910649999999,5.2324066165000005,-2.0336853864999997,4.890263796,1.609669611,-28.339049340000003,2.8002524375
567,4.724811000000045,23.50491619,8.1643691065,6.843841550000008,-5.0203351975,0.036853731,7.3056914805,1.9295589925,-14.504153726,2.283970505
568,4.733144000000038,23.5452652,8.007415533,6.800407399999997,1.3581439555,-0.35364837950000005,16.19354868,4.2763745779999995,-19.678629875,2.4752451774999997
569,4.741477000000032,23.59980488,7.926549673,6.796875,-5.4030702115,-1.4905263485,7.8662629125,5.316516399499999,-9.3812265395,3.1714909075
570,4.749810000000025,23.6569252,7.7113556865,6.716011050000006,4.1185871364999995,0.3431173265,12.203095910999998,6.880360126499999,-27.865965844999998,1.226794606
571,4.758143000000018,23.69569397,7.6730957035,6.7158356000000055,-7.300478696500001,-1.8226380535,11.372493265,3.3472175594999998,-4.5284178255,1.4759370985
572,4.766476000000012,23.77341843,7.5100169185,6.673194899999999,1.515889764,-0.4570081235,12.2486829745,8.699020863,-20.3112545,2.901902318
573,4.774809000000005,23.81179142,7.459980488,6.6565398999999985,-2.7764481305,-1.4146769195,8.483103751,3.605421424,-6.6126732845,0.3209656475
574,4.783141999999998,23.879102705,7.2971611025000005,6.598327650000002,2.0849136785,-0.6057189185,4.36504674,7.664525032,-21.0277071,1.21878355
575,4.791474999999991,23.9703989,7.2856099605,6.599929799999998,-7.0528678895,-1.33622697,15.79517603,9.625868797,-1.5059823095,0.3881646394999999
576,4.7998079999999845,24.028281215,7.187714815,6.592987050000005,3.52052474,0.0946519975,15.038015365,5.7729625705,-11.4269337665,3.721915126
577,4.808140999999978,24.081857685000003,7.179060697500001,6.580558800000006,-5.5178813935,-2.173454583,7.436783075499999,5.3282995225,-1.8702362774999999,-1.2627625615
578,4.816473999999971,24.11667633,7.0354127885,6.571945199999988,4.505112409500001,-1.4167326390000001,13.382124902,3.0206491945,-16.51117039,5.7937238215
579,4.824806999999964,24.138365745,7.074105263,6.569404599999999,-8.711302756999999,-0.980833046,11.4912285795,1.333041787,3.7991419885,-2.5318135765
580,4.833139999999958,24.155127525,6.9628453255,6.569648700000002,4.565667152,-0.4706924559999999,11.971571919999999,0.7271370884999999,-12.529013635,5.1863460539999995
581,4.841472999999951,24.149456975,6.9962689875,6.564086949999989,-5.7465372085,-2.8760094645,8.416458844,-1.858645767,3.0724731085,-2.54139331
582,4.849805999999944,24.15115261,6.8566708565,6.561202999999992,3.957377553,1.3937069775,8.140666485,-1.0694713889999998,-15.784826755,6.186249018
583,4.858139000000165,24.12482071,6.904823779999999,6.54224395,-6.6258001325,-2.6636682155,14.723789215,-4.157523632,4.0316935780000005,-4.7382371425
584,4.866472000000158,24.11950016,6.8333108424999995,6.58345030000001,1.540021062,-0.2549944225,12.8615260145,-2.5453895335,-6.1833666565000005,7.637769222
585,4.874805000000151,24.063506125,6.873038292,6.555137600000009,-5.4333024025,-1.028641082,13.979620455,-7.5599398615,2.6544095275000004,-5.314377904
586,4.8831380000001445,23.994374275,6.8206911085,6.6085357999999985,4.4683370589999996,-2.4902867674999998,6.678427696,-10.3551707255,-3.505628467,8.0460083485
587,4.891471000000138,23.93572712,6.862564325499999,6.559928900000003,-7.102537870000001,-0.654788479,9.647944927000001,-7.63265872,1.9202035665000001,-7.6845912935000005
588,4.899804000000131,23.874734875,6.8493740555,6.645843549999995,2.9882265329999997,0.0025879440000000087,14.36328316,-9.8414135,2.3459569215,9.691634179000001
589,4.908137000000124,23.793564795,6.923387527,6.612274200000002,-6.2098093035,-1.8803315165,12.4220948225,-10.52385426,6.182406902,-7.5839033125
590,4.916470000000118,23.689699169999997,6.874805212,6.69675445,5.394115448,-1.4883064030000002,8.998897554,-14.951827049999999,-1.6397026780000001,11.283317565
591,4.924803000000111,23.578475,6.939970732,6.6352310000000045,-4.616210580000001,-0.764149353,5.8819572925,-13.730104449999999,3.901138544,-10.1949286475
592,4.933136000000104,23.472598075,6.8879933355,6.743637100000001,0.8330841959999999,-1.123500377,14.144717215,-15.577877995,-0.9134039764999999,14.01374483
593,4.941469000000097,23.344083785000002,7.0085425375,6.683082549999995,-4.007773638,-0.23793952899999998,12.335148335,-15.798380850000001,10.080602647,-12.69839048
594,4.949802000000091,23.249190329999998,6.9972224235,6.806533800000011,-1.9636716244999999,-0.833534971,10.8172397605,-14.510353564999999,4.2191267015000005,13.712354184999999
595,4.958135000000084,23.145456315,7.1122820375,6.745422349999998,-0.4815958735,-0.268300265,14.782668595,-12.769367695,9.489270686,-12.420051575
596,4.966468000000077,23.057497025,7.110279083,6.864524799999998,-2.3295330405,-1.050323069,8.018388033,-13.65433836,4.999567032,12.798872945
597,4.97480100000007,22.947813035,7.175689220500001,6.793159500000002,2.508215785,-0.4901027235,11.322844983,-13.308405400000002,3.562954366,-11.18476629
598,4.983134000000064,22.896277425,7.210294008,6.899787900000007,-5.340683937,-0.8716108754999999,7.6476845739999995,-9.139225006,8.4339368355,9.720898629
599,4.991467000000057,22.82320213,7.261370659000001,6.8662643499999945,3.39710176,0.10543414949999996,15.219783305,-9.4660749435,3.7503341435,-6.3576841349999995
600,4.99980000000005,22.753530505,7.306599617,6.952033999999998,-6.6414351465,-1.535306752,10.021519662500001,-11.01402092,8.624673365,6.967418909
601,5.008133000000044,22.672595025,7.353107214,6.934341449999991,3.9246190785,-0.039814949000000044,9.170054435499999,-10.6451349275,3.986983776,-4.4008330105
602,5.016466000000037,22.62446785,7.378064870999999,6.978279100000009,-5.625180006000001,-1.648228377,9.105650425,-7.7901089195,4.444223881,3.3447201255000003
603,5.02479900000003,22.569742205,7.357291221500001,6.960273700000002,3.768553734,-0.6551993485000001,11.05340719,-7.4943289755,-3.4721508025,-1.326503754
604,5.033132000000023,22.522701265000002,7.3956434725,6.98023225,-3.9493497609999997,-0.6831618030000001,11.98128128,-7.280577898,4.8252738715,0.11027556650000003
605,5.0414650000000165,22.450487135,7.382048607,6.9652862500000055,1.8420419689999998,0.08301694699999998,11.5245471,-9.647512912,-2.5323129890000002,-1.3390355485
606,5.04979800000001,22.392560005,7.4548082355,6.996681199999998,-5.5943300725,-0.8579271585,10.858074665,-8.7819433195,9.161764144,-0.21389794350000002
607,5.058131000000003,22.345963475,7.4197530745,6.9910125499999936,2.0938890580000002,-0.3989094495,9.757808208499998,-6.708189964500001,-4.492788315,0.6657972335
608,5.066463999999996,22.330514909999998,7.481858968500001,7.001815800000003,-6.061032772500001,-1.69496876,12.575758458,-3.3658262490000004,7.047539948999999,-1.9825035930000001
609,5.07479699999999,22.294223785,7.4726154805,7.021728500000009,3.6912438865,1.2361266315,15.06793356,-5.853634834,-0.473895371,2.322007626
610,5.083129999999983,22.244722365,7.557256221499999,7.024551349999996,-6.378758191999999,-0.5611842850000001,13.35575056,-7.329169035,9.1925663965,-3.875831485
611,5.091462999999976,22.19679928,7.5375716685,7.0603409,2.0981786845,-1.4479877349999999,7.133194685,-7.512347460000001,-0.9214721175,4.530172348
612,5.099795999999969,22.185156825,7.6086995605,7.0326843,-2.6270582675,-1.1015553475000002,11.034501552,-2.2905019225000003,6.320044278999999,-6.601519346
613,5.108128999999963,22.170934680000002,7.582041502000001,7.067367599999997,0.8272558600000001,0.3634934795,10.6630852235,-3.4539513585,-1.7450788875,4.7307825085
614,5.116461999999956,22.155545234999998,7.7036690715,7.053527799999998,-2.986494541,-0.2613265065,11.73939562,-2.964706898,12.553807254999999,-7.3783085345
615,5.124794999999949,22.11749172,7.672786951000001,7.090141299999999,-0.22325473850000002,-1.588197589,10.897516729500001,-6.3538808819999995,-2.1294521985,5.130723953
616,5.133127999999942,22.12017727,7.756534576,7.063583399999999,-2.5487419365,-0.943158835,9.251320126,-0.5928095280000001,7.7761745475,-7.070374012
617,5.141461000000163,22.114659305,7.7472259999999995,7.105583150000001,0.987019807,0.6552968025,13.6380267125,-2.5275870565,0.5097171070000002,4.773660898499999
618,5.149794000000156,22.083275795,7.8163318635,7.0666504,-2.709890604,-0.928283274,11.955366609999999,-4.4731804135,5.5980294944999995,-7.764302254
619,5.15812700000015,22.0432806,7.8077287675000004,7.1147537500000055,-0.902820021,-2.4923796654999997,8.143217327,-6.7766940595000005,0.8608366250000001,5.4116477965000005
620,5.166460000000143,22.02756691,7.817243576,7.046951299999989,0.869766284,0.5222145739999999,9.939521549,-2.106527865,-2.3161487579999998,-8.250692129
621,5.174793000000136,21.99042225,7.809263706,7.084312449999999,-3.1477038860000004,-1.2982131245000001,13.422249794999999,-6.267213821,0.44920313349999996,4.192665815
622,5.183126000000129,21.941011425,7.848208904,7.043769850000004,-0.15837505449999995,0.289574824,8.58479166,-6.600532293500001,2.1806615590000002,-6.5822696685
623,5.191459000000123,21.889473915,7.858809471000001,7.06559750000001,-3.4881457090000003,-1.285471648,12.753854275,-7.7465393565,1.8217417895,1.6441010535
624,5.199792000000116,21.8712368,7.8533222675,7.025909400000003,0.09641164549999998,-0.6404177245,11.22337103,-2.861520052,-2.721211761,-4.4845279455
625,5.208125000000109,21.826093675,7.9116284845,7.068183899999994,-3.2668535115,-0.33653397100000004,15.2358098,-7.308971882,8.0383126725,1.781713575
626,5.216458000000102,21.74987221,7.899877071000001,7.01976775,0.8436763955,0.4070418925,8.693720817500001,-9.668824195500001,-3.7993216810000003,-5.1708741190000005
627,5.224791000000096,21.69850731,7.953306198,7.049919149999994,-4.636244296999999,-2.768630624,11.326804639999999,-7.8748550405,6.959043026,0.6592400970000001
628,5.233124000000089,21.645244599999998,7.923889399,7.017814599999994,3.637154102,-0.014775454999999993,10.644216535,-7.1630342005,-5.044544697,-2.5681092145
629,5.241457000000082,21.563930515000003,7.9839382174999995,7.0207367000000005,-4.289498329,-0.6187179389999999,13.188174725,-11.022075650000001,6.5014698504999995,-2.6462582945
630,5.249790000000076,21.458971024999997,7.9572391510000005,7.0084686499999975,0.345748842,-0.7394333184999999,6.457362175,-13.706089495,-3.8640744685,-0.507507734
631,5.258123000000069,21.393997195,8.017592669,7.000854500000003,-2.516896844,-1.0306300524999998,14.41098881,-8.8818006515,6.0818576815,-3.8065959214999996
632,5.266456000000062,21.26362419,7.978400469,6.980140700000007,0.927697867,-1.2417438625,13.49119902,-16.60208988,-5.621404052,-0.8802718224999999
633,5.274789000000055,21.108348845000002,8.0260798935,6.9716339499999975,-4.144032955,-1.3528294564999999,7.9817862505,-19.714808465,4.6386751534999995,-3.352379322
634,5.2831220000000485,20.905791280000003,7.9764351845000006,6.919776900000002,3.3228371145,-2.2495764495,8.8417551495,-24.724437715,-8.118092298499999,-3.8879747394999997
635,5.291455000000042,20.686029435000002,7.972994089,6.858947749999999,-5.4440050125,-1.737973571,12.545034886,-26.594305040000002,-3.2799886465000005,-6.9717388155
636,5.299788000000035,20.388887405,8.0258362295,6.8433609000000075,1.609737456,-2.1936119795,15.745571609999999,-36.68564796,4.9394742565,-4.232399106
637,5.308121000000028,20.021331789999998,8.0101304055,6.759185799999997,-5.6097643375,-1.7251886724999999,12.53550148,-43.92844391,-5.549822124,-9.089766978
638,5.3164540000000216,19.610818865,8.135899305,6.766151449999995,0.1486892700000001,-2.8982145785,10.795534608499999,-50.674867629999994,14.1297688495,-4.620128393
639,5.324787000000015,19.117322925,8.0711829665,6.631683350000003,-0.6010532379999999,-2.5179543495,7.461749675,-58.13326645,-12.954392434999999,-12.778920175
640,5.333120000000008,18.578591345,8.2113797665,6.611541750000001,-3.167243838,-3.07297349,16.55452442,-65.650600435,14.80169535,-8.065123081500001
641,5.341453000000001,17.913517955,8.264760493999999,6.507217400000002,-0.3268631775,-2.3118816615,13.963344575499999,-79.188247685,1.8742616174999998,-14.015305040000001
642,5.349785999999995,17.189557075,8.345394373,6.451606749999996,-5.1522634025,-1.7101923229999998,13.0796451585,-87.26549149,6.8918635230000005,-9.5867939005
643,5.358118999999988,16.38677597,8.532861233,6.399360649999991,1.5719456225,-3.1750479934999998,9.598338126,-96.568504335,19.4051327705,-12.647676945
644,5.366451999999981,15.488786699999999,8.487919569,6.261451749999992,-0.8394701479999999,-2.8116551640000003,4.853732465999999,-106.6472015,-10.01993084,-14.586560725
645,5.374784999999974,14.58811903,8.733796120000001,6.2292632999999995,-4.9835314749999995,-0.8859679254999999,19.150659085,-108.72441865,27.16918278,-11.70929432
646,5.383117999999968,13.55354643,8.833331108,6.112411500000007,0.6314340829999999,-3.4685151579999998,15.005745409000001,-123.30380245,7.8734030735,-16.54827976
647,5.391450999999961,12.453486439999999,8.925702095,6.030143700000011,-3.234939694,-2.2385902404999998,9.097181081,-131.6974716,8.2721295355,-12.34504843
648,5.399783999999954,11.27260494,9.1358084675,5.922225949999998,1.1808805465,-2.4638986585,11.412847045,-140.99144745,21.69571781,-17.975847245
649,5.408116999999947,10.0196971905,9.1953334805,5.8360442999999975,-4.0708144905,-0.856581166,10.4462645075,-149.9124451,4.8082591295,-11.648869515000001
650,5.416449999999941,8.759407997,9.458487509000001,5.751579299999989,-0.18828284750000002,-1.6947563289999998,15.552857401,-150.91615295,29.167452815,-15.34333801
651,5.424783000000161,7.395976305,9.4996237755,5.645263650000004,0.10912567349999996,-2.119255066,6.493488789499999,-162.70601649999998,2.7935128250000005,-13.32655525
652,5.433116000000155,6.051091194,9.657943248,5.547561650000006,-2.8182751535,1.21001935,10.587792036500002,-160.7805252,17.161065815,-14.15462971
653,5.441449000000148,4.6613845825,9.87075472,5.435524000000001,-1.2829934060000001,-2.5949246885,16.52853584,-165.6143875,23.819285394999998,-16.202280520000002
654,5.449782000000141,3.2667564154999997,9.902247906500001,5.330482500000002,-0.5648244915,1.262424201,6.0079500675,-166.52418519999998,2.560070455,-13.004921915
655,5.458115000000134,1.8246433140000002,10.1445102685,5.1856155500000085,0.15828973049999995,-1.7694510815000002,15.894464495,-171.1493683,27.92514801,-19.120349885
656,5.466448000000128,0.3630432335,10.100358487000001,5.068313599999996,-1.6266617180000003,0.46330773799999997,9.107773302,-174.2574921,-5.905636191499999,-14.105460165
657,5.474781000000121,-1.096881479,10.3970036495,4.922149649999994,-4.486896396000001,0.7350839375,15.080802917,-173.1986618,35.380788804999995,-17.8492384
658,5.483114000000114,-2.5728838444999997,10.3143401155,4.7730941999999885,2.072852612,-1.2147354479999999,4.0950914625,-175.2402725,-9.701638577499999,-18.16380882
659,5.491447000000107,-4.041353464,10.489015575,4.601432799999998,-2.8099548815,-1.3419386745,13.180722715000002,-173.6569824,21.78446388,-19.685217855
660,5.499780000000101,-5.543320179,10.409007070000001,4.465660099999994,3.0269176365000003,1.9590716955,9.662949326,-178.62024689999998,-8.578093710000001,-17.026650425
661,5.508113000000094,-7.033536196,10.562675955,4.261085500000007,-6.898279905,0.23936674000000002,14.3674371245,-175.56088255,20.659162520000002,-22.473814009999998
662,5.516446000000087,-8.53222847,10.510993005,4.1310272500000025,3.7409955265,-1.41261065,8.847088217,-178.3353119,-4.415780067499999,-16.25273323
663,5.5247790000000805,-9.985810277999999,10.4978838,3.933959950000002,-1.8973678645,1.6142364740000001,13.3407025335,-171.32437134999998,1.871956706,-23.667357445
664,5.533112000000074,-11.481060505,10.43831825,3.8152313000000078,0.577190033,1.3987560275000002,12.826915978,-178.19192505,-4.755367758499999,-15.314410684999999
665,5.541445000000067,-12.900928024999999,10.36024904,3.6455383499999954,-4.1100682619999995,1.3823985455,3.707893133,-167.95542905000002,-5.276025175,-21.850564955000003
666,5.54977800000006,-14.279890535,10.337036609999998,3.512886050000006,0.14657592750000004,2.080095768,15.14385366,-163.9640198,0.6288285265000004,-16.111145495000002
667,5.5581110000000535,-15.603075505,10.2213382725,3.3617934999999903,-2.8523044585,1.294641137,7.608404875,-156.8345337,-9.2129201885,-20.91594982
668,5.566444000000047,-16.896888735,10.1614303585,3.253044149999994,0.14168727399999992,0.578746617,13.628153325,-154.293396,-3.6488289810000003,-14.592732905
669,5.57477700000004,-18.137877465000003,10.0047678925,3.1147842499999996,0.44541239750000006,2.585822344,7.6442081925,-147.31993864999998,-13.445988655,-21.240374565
670,5.583110000000033,-19.329689979999998,9.8637137415,3.0352477999999934,-0.9881940485,1.2345883255,8.4758048075,-142.71076964999997,-13.349315882500001,-14.616012099999999
671,5.591443000000027,-20.413838385,9.712890148,2.911788950000002,-1.0414352715,2.644256473,8.40557909,-128.88602450000002,-12.500836849999999,-19.906805990000002
672,5.59977600000002,-21.455425265000002,9.539527416,2.87013245,-1.284936905,1.142252147,11.511763096500001,-125.4903641,-18.01079893,-12.32276869
673,5.608109000000013,-22.406396864999998,9.373840809,2.7553710999999907,0.3437508455,2.833064437,9.2157104,-113.19557950000001,-13.88574934,-19.889938354999998
674,5.616442000000006,-23.294755934999998,9.142977238,2.742050149999997,-2.598691285,1.9950962665,11.376181604500001,-107.67737195000001,-25.256122585,-12.51629543
675,5.624775,-24.096011165,8.959661007000001,2.6596756,-0.005729153000000001,2.7050808665000003,10.580484390999999,-95.93286133000001,-16.72663021,-17.68627548
676,5.633107999999993,-24.81859207,8.725268841,2.671859749999996,-2.5491104125,1.43591398,9.823476314,-88.262557985,-26.545072555,-10.646272660000001
677,5.641440999999986,-25.458043095,8.511186123,2.618354800000006,1.1822712425000002,2.453273773,9.869115831,-77.131843565,-21.13446045,-16.439585685
678,5.649773999999979,-26.01348114,8.264413833999999,2.6227035500000113,-4.0805562735,2.599478364,9.055835247000001,-68.054039,-27.23754597,-12.71748352
679,5.658106999999973,-26.49870777,8.0142731665,2.6046982000000014,1.238822937,1.8262439965000001,11.2091126465,-59.290599825,-26.583587645,-14.930181505
680,5.666439999999966,-26.900600429999997,7.7923340795,2.6034011999999933,-4.5963116885,1.3232067824999998,9.376340153000001,-49.52951813,-24.063225745,-12.431025505000001
681,5.674772999999959,-27.252439494999997,7.5071806905,2.612693749999991,2.405884266,1.826524854,9.941976306499999,-43.738058089999996,-31.590538979999998,-14.338560585
682,5.6831059999999525,-27.528515815,7.328022241499999,2.588745099999997,-5.6727116105,1.7960096595000001,11.3926317715,-34.078762055,-18.115880015000002,-12.759102819999999
683,5.691438999999946,-27.754303935,7.04221344,2.629821750000005,2.6051582695,0.9699913265,10.7307825095,-29.0702467,-33.233041764999996,-11.395648005
684,5.699772000000166,-27.924769400000002,6.8635699745,2.6129531999999926,-5.5362699035,2.0246546865,11.1800971045,-21.5300951,-18.35600376,-12.150602815
685,5.70810500000016,-28.06473732,6.617845297000001,2.651428199999998,1.8293946385,0.2463954985,10.874138115,-18.693025585,-28.74995518,-9.6487197865
686,5.716438000000153,-28.156837465000002,6.4288139345,2.6568374499999976,-4.263039708,1.156686515,9.527467253,-12.444599629999999,-20.648858070000003,-10.4856986975
687,5.724771000000146,-28.220200535,6.237625599,2.695892349999994,-0.3725004945,1.143695235,15.464617725,-9.4708757395,-22.955779075,-6.6464180944999995
688,5.733104000000139,-28.26224327,6.018256426000001,2.7289810500000016,-1.1777636409999999,0.0005508290000000027,7.868321895999999,-6.786937952,-25.39909935,-9.3247466105
689,5.741437000000133,-28.268634795,5.859811306,2.766342199999997,-3.113306165,1.2313945295,12.13800764,-2.575582862,-19.357677459999998,-5.0852794645
690,5.749770000000126,-28.24986267,5.6745638849999995,2.7836837999999915,-0.49490640350000004,0.10941657949999999,8.9942884445,0.7248319685,-20.902153015,-9.0232772825
691,5.758103000000119,-28.2227335,5.5320351125,2.834442150000001,-3.947859049,-0.607918978,13.215159415,1.3167704345,-18.41413498,-2.8128470185
692,5.7664360000001125,-28.181036,5.401375294,2.8278198499999974,0.47208947700000004,0.5727466489999999,12.125421525,3.7611373665,-13.790189269999999,-8.4251198765
693,5.774769000000106,-28.14438629,5.273807764000001,2.869682350000005,-3.782137871,-0.18530814750000002,9.575590372,2.5813326835,-16.325100900000002,-2.8849892615
694,5.783102000000099,-28.070482249999998,5.1964645385,2.848556549999998,-0.5828573405,0.614457473,12.083686825000001,7.7829818725,-7.343338490000001,-6.931564569500001
695,5.791435000000092,-28.013289455,5.120966673,2.8804779000000025,-3.6567752365,-1.1337298900000001,10.0803170225,5.169126272,-10.239721777,-0.9793283789999999
696,5.7997680000000855,-27.93018436,5.055650473,2.8672333000000094,0.2149402535,0.127165571,12.81453419,8.7974467275,-6.529677391,-5.4178147315
697,5.808101000000079,-27.877797129999998,5.0383348465,2.8735732999999897,-3.5686552525,-0.975450277,10.030016898500001,4.8668651579999995,-2.636287749,-0.4029119425
698,5.816434000000072,-27.808224680000002,4.969287157,2.867385900000002,0.36000668999999996,-0.251039099,10.0181679725,7.096277237000001,-7.327970505,-4.853392124
699,5.824767000000065,-27.75249767,5.021190643000001,2.852058400000004,-4.967188358,-0.9040206964999999,11.256619455,5.491685866999999,5.92108345,1.149266094
700,5.833100000000059,-27.70699692,4.9795758725,2.8427658500000064,1.889175296,-1.0311882795,12.933513163499999,4.2376898525,-4.254428923,-3.596219659
701,5.841433000000052,-27.675541875,5.0158603195,2.8281326500000006,-5.4974820614999995,-0.231081411,9.7311329835,2.5719317195,4.23606956,0.287775993
702,5.849766000000045,-27.65572357,5.049230575499999,2.785568249999997,1.7792375085,-1.4115438459999998,11.225193261,1.506783314,5.556280194,-2.906774044
703,5.858099000000038,-27.659961705,5.052267313,2.788681050000008,-5.068604112,-0.41748610150000004,9.318140504999999,-1.9030416605,-0.2777996064999999,0.295536965
704,5.866432000000032,-27.66318512,5.150621414,2.7168808000000126,1.331967801,-0.8816950655000001,14.456200125,-0.9389665875000001,14.081703665000001,-2.409909129
705,5.874765000000025,-27.69582081,5.1143934725,2.730751050000009,-3.681903601,-1.1349531860000002,9.889307739,-5.431632995499999,-5.0405807495,-0.7178646325
706,5.883098000000018,-27.71187687,5.2183384895,2.680618299999992,-1.3155021365,-0.19657352600000003,12.0651721935,-2.7026798725,13.476335525,0.14881870149999998
707,5.891431000000011,-27.752164845000003,5.230612992999999,2.6616592499999996,-1.0469697414999999,-0.940494791,9.601010797999999,-5.998565912,1.931147337,-1.4412427245
708,5.899764000000005,-27.791144369999998,5.231982231,2.671188349999994,-0.37055230149999996,-0.181933485,12.906528,-6.0988585945,-0.7360123394999998,0.722058922
709,5.908096999999998,-27.84805298,5.304180860500001,2.606231699999995,-3.6495329145,-0.989714295,14.07296133,-7.4896616935,10.862800121500001,-2.97941637
710,5.916429999999991,-27.905828475,5.288245439500001,2.641021749999993,0.1752157605,-0.66351749,8.9389049995,-8.6375625125,-3.981034875,2.4889672995
711,5.9247629999999845,-27.960338595,5.3298509119999995,2.5967178500000045,-3.8103986975,-0.7541592420000001,11.876811027,-7.423512459,6.46434951,-2.5596375465000003
712,5.933095999999978,-28.033881190000002,5.3769114015,2.6009903000000065,1.7649442105,-1.9249154924999998,10.216608523,-10.1944465635,4.395455062,2.8340681795
713,5.941428999999971,-28.117090225,5.3206484315,2.59774019999999,-2.5105128585,-0.08402185099999998,10.0013253675,-11.32846737,-6.1977813245,-3.7026085855
714,5.949761999999964,-28.20742035,5.3912804130000005,2.5904159500000077,-2.0552901625,-0.835039109,13.633526805,-12.07706928,7.536689281499999,2.8898946050000003
715,5.9580949999999575,-28.30608749,5.3890936375,2.5594024500000074,-0.5241234455,-1.14016062,11.9569363585,-12.879154685,1.0904623269999998,-3.51707232
716,5.966427999999951,-28.408937455,5.373821497,2.588081399999993,-2.1990947725,-0.3259574885,7.1151695255,-13.984190465000001,-3.5832078455,1.7989457844999999
717,5.974760999999944,-28.48605156,5.42868948,2.5300903499999947,-1.219903052,-0.504530668,12.824932095,-9.986408235999999,8.659451008,-3.1287087199999997
718,5.983094000000165,-28.595529555,5.40158844,2.5557098000000025,-0.5348957925,-1.9197409155,7.70878923,-14.747877595,-4.663385689,0.8371180890000001
719,5.991427000000158,-28.689399715,5.399925709,2.5351181000000054,-1.6380394699999998,0.3722288755,12.98334408,-12.424000265,0.5718507770000001,-2.4555794
720,5.999760000000151,-28.802830694999997,5.414820433,2.5192565999999914,-2.121785283,-1.23727569,12.599186419999999,-14.751143930000001,2.1346203685000003,-1.1223071815
721,6.0080930000001445,-28.901371955000002,5.393614292,2.513748199999995,-0.621340096,-0.3187208845,10.609823702,-13.157809255,-2.3418134895,-1.9567036029999998
722,6.016426000000138,-29.00843239,5.374191046,2.522453299999995,-3.2041672465,-0.9229896515,8.140109062,-14.265152454999999,-2.8836320935,-0.5691484375
723,6.024759000000131,-29.094403265,5.41355443,2.4942245499999984,-0.028473735,-0.4012759105,13.01811266,-11.397393704999999,5.3278194665,-0.8108250794999999
724,6.033092000000124,-29.220360755,5.3511960505000005,2.5063399999999945,-1.3104600905000001,-1.009740174,9.807324172,-16.570844649999998,-7.583102225999999,-2.6917427775
725,6.0414250000001175,-29.318085670000002,5.3429555895,2.5101318500000076,-1.529253662,-0.4031918645,11.780213835,-13.174140455,-1.5266852974999998,-0.2705952225
726,6.049758000000111,-29.432875629999998,5.366918087,2.4970169000000055,-3.1338762045,-1.1348641515,12.162261964999999,-14.948257925,2.930877209,-0.2699356545
727,6.058091000000104,-29.531478885,5.356920242499999,2.507064799999995,0.1731207075,0.1726451925,10.435232161,-13.35313368,-2.0825148524999997,0.32140109699999997
728,6.066424000000097,-29.629366875000002,5.3309412005,2.5156020999999953,-2.9338150025000003,-1.0362342,8.228323698,-13.160256385,-3.5564160940000002,-1.0089129505
729,6.074757000000091,-29.68602276,5.3882062435,2.4973678500000034,-1.2487668615,-0.20764572899999997,12.39452553,-8.0075416565,6.5969786645,1.380665064
730,6.083090000000084,-29.786849975,5.331482887,2.5127410999999995,-0.538869381,-1.149696648,7.7701413619999995,-13.591395380000002,-7.163733721,-2.0951358675
731,6.091423000000077,-29.848152159999998,5.3663346765,2.4998245499999996,-2.1814343330000003,-0.1365088525,13.543663975000001,-8.6266498565,3.937836617,0.5682965965
732,6.09975600000007,-29.916311264999997,5.369505644,2.488876349999998,-0.42425334449999996,-0.68797788,11.42989254,-9.376546382,0.6364625095,-1.2479320760000001
733,6.108089000000064,-29.958247185,5.3826875685,2.496658300000007,-2.4423052074999996,-0.439209476,10.1818242085,-6.5430219175,0.4447848205,1.4662804605
734,6.116422000000057,-29.990141870000002,5.3792436125,2.5060043000000007,-1.17170766,-0.2891892565,8.335370540500001,-5.252089977000001,-1.2612258269999999,0.426906034
735,6.12475500000005,-29.99892044,5.436577797,2.485702500000002,-2.3359972835000002,-0.8079213795,12.80050707,-2.2503707410000002,6.7025601864999995,1.211841583
736,6.133088000000043,-30.03872299,5.4021437165,2.50071715,1.582861632,-1.4874655005,8.8761560925,-6.264966488000001,-4.8242815135,-0.809121728
737,6.141421000000037,-30.06096363,5.401103020000001,2.4939422500000035,-4.138212323,-0.39482765999999997,11.0665431,-4.0232088565,-0.17384386099999993,-0.903202772
738,6.14975400000003,-30.07795906,5.4089519975,2.492103599999993,-0.0779554995,-1.1553030610000001,11.60758972,-3.3381305935,0.575007636,-0.0361288785
739,6.158087000000023,-30.09973526,5.428179741,2.4702377500000097,-3.1415183545,-1.0930130185,11.606618399999999,-3.8024014235,2.8217858075,-1.1924387214999999
740,6.166420000000016,-30.122148515,5.40563488,2.4811401500000017,0.226678148,-0.48213395449999996,10.3108191505,-4.132632732499999,-3.342753589,-0.538263917
741,6.17475300000001,-30.137647629999996,5.4251861575,2.450134250000005,-4.3804285525,-0.30158393450000004,10.4432673455,-2.9509971145,3.3976515459999996,-2.1362336275
742,6.183086000000003,-30.15017891,5.4530608655,2.4474869000000012,0.581896234,-1.8955436350000001,11.286087515,-2.7915737629999997,2.699836522,1.1066693665
743,6.191418999999996,-30.18401146,5.453641176,2.425270100000006,-2.1829420925,-0.793507114,8.7271375665,-5.2548818585,0.8900243045,-2.3233327865
744,6.1997519999999895,-30.20136547,5.4649288655,2.430465699999999,-0.9457826315,-0.6315141025,12.69054556,-3.4598489999999997,0.511119266,0.8873475195
745,6.208084999999983,-30.22216511,5.4794089795000005,2.390945450000004,-3.1886030435,-0.3274711855,12.312814715,-3.4986801145,3.3607857825,-3.2632852789999998
746,6.216417999999976,-30.22779369,5.5088734630000005,2.377029400000012,-0.43512394249999997,-0.7333821205,11.882054329999999,-1.832653701,3.5462977584999997,0.0455229015
747,6.224750999999969,-30.242436405,5.4756908415000005,2.3589706500000034,-2.1403726935,-0.8954995944999999,9.303273914,-3.0132908824999998,-2.9004472795,-3.8828173875
748,6.2330839999999625,-30.2314167,5.5082976815,2.3535003499999902,-1.615419626,-0.8870408835000001,12.39119434,0.0677368415,3.3646667005,1.0759452280000001
749,6.241416999999956,-30.231566424999997,5.476411581,2.328262300000006,-0.4272594675,-0.317390345,9.1179151535,-1.1949873865,-2.3447463515,-4.520047903
750,6.249749999999949,-30.201372149999997,5.481758833000001,2.3390884500000055,-2.092895031,-1.33730036,11.793272495,2.1807639595,-0.4385924785,1.126930326
751,6.258082999999942,-30.192023275,5.4458224775,2.331436150000002,-1.7313423755,-1.2546693685,10.3892087915,-0.264274895,-3.8398365974999997,-2.9270477295
752,6.266416000000163,-30.172994615,5.495010853,2.308692950000008,-2.9268331525,-0.015672266499999976,15.64015198,1.226390302,6.1254069805,0.2745845875
753,6.274749000000156,-30.176351545000003,5.480678558499999,2.2822418499999912,-0.43728563899999995,-1.8954049945,9.526975872000001,-1.585335508,-0.5159220695,-3.4556996824999997
754,6.2830820000001495,-30.15736103,5.4878468515000005,2.274932849999999,-2.745899677,-1.0785655680000001,11.972240925000001,1.0446573495,0.8439121095000001,-0.6576582495000001
755,6.291415000000143,-30.142150875,5.497483492000001,2.2548294500000026,-1.147331357,-0.6043800565,9.3045248995,0.564864378,1.5666626689999998,-1.3535523415
756,6.299748000000136,-30.1068182,5.525358199999999,2.221176150000005,-2.2295929195,-1.6275939945000002,11.182720185,3.309955001,4.5678954125,-2.124745667
757,6.308081000000129,-30.10133171,5.5166766645,2.2221450499999946,0.984091848,-1.483206928,10.478625059,-0.8517885805000001,-1.6242245435,-0.19404065599999998
