,time,Euler_X,Euler_Y,Euler_Z,Acc_X,Acc_Y,Acc_Z,Gyr_X,Gyr_Y,Gyr_Z
0,0.0,-27.391451516666663,12.955817543333334,-140.1355896,-1.6642592946666666,-0.16654507799999999,10.579475404333335,-6.590256532000001,-2.1883946856666667,1.799494028
1,0.0027776666666644,-27.440101623333334,12.944501876666665,-140.1006546,-1.5164456366666668,-0.39114117900000006,9.719528834333333,-7.154572804666667,-3.579200784333333,2.6098771096666664
2,0.005555333333404633,-27.511297860000003,12.935707726666669,-140.06450146666668,-2.2087202070000003,-0.6517229773333333,10.116741499333335,-9.884181339333333,-3.3570236366666664,2.831637144
3,0.008333000000069033,-27.565411253333334,12.90973409,-140.02195229999998,-1.6707272130000002,-0.09352906566666667,10.889692626666665,-7.984568913666666,-5.5899357793333335,2.5888735853333333
4,0.011110666666733467,-27.62440490666667,12.902757643333333,-139.9842682,-1.9545814990000003,-0.22864362600000002,9.709685325,-8.449474970333334,-3.27570643,3.0954975286666664
5,0.013888333333397868,-27.677193963333334,12.869343440000002,-139.93277233333333,-1.8556074946666667,-0.7171725533333334,9.493401368999999,-8.096015613333334,-6.840512589333334,3.0772687593333337
6,0.0166660000000623,-27.746534983333333,12.86361885,-139.89366403333335,-2.465951661333333,-0.4378869536666667,10.246232667000001,-9.737367948333334,-3.224260395,3.3065931003333335
7,0.01944366666672673,-27.808359783333334,12.833536146666667,-139.846461,-1.6218460663333332,0.06557163166666667,11.430534047,-9.074796517333334,-6.260764897333334,2.809967319
8,0.022221333333391134,-27.872307460000002,12.8225921,-139.80875396666667,-2.3089535433333332,-0.7873380976666667,9.638901392,-9.086296400666667,-3.690401365333333,2.867274800666667
9,0.024999000000055564,-27.933769859999998,12.814857163333334,-139.7727686333333,-1.4872814816666668,-0.35840622566666663,9.987735112000001,-8.668170293000001,-3.292194028666666,2.846945961333333
10,0.02777666666672,-28.000855763333334,12.777895613333333,-139.730072,-1.93140639,-0.4450795303333333,9.658488114,-9.582085451000001,-6.747648000333334,1.9183355969999998
11,0.030554333333384403,-28.0712382,12.795146303333333,-139.7175725333333,-2.5252367256666663,-0.13002191500000002,12.03005091,-9.223281541,0.6445267993333332,1.90838023
12,0.03333200000004883,-28.13467470666667,12.745186803333333,-139.67108916666666,-1.3364578086666665,-0.5091459033333333,9.725425402666668,-9.158376061,-8.345349949666668,1.50240314
13,0.03610966666671323,-28.196372983333333,12.778486890000002,-139.6688512333333,-2.4888884823333335,-0.11518140266666667,10.873571713666669,-7.938675562666667,2.899211245,1.7889239786666664
14,0.03888733333337767,-28.25418408666667,12.728520713333333,-139.6242701,-0.9179015160000001,-0.5753495296666666,9.770971933,-8.463888645666668,-8.220285733999999,1.2737149993333334
15,0.0416650000000421,-28.316367466666662,12.730871200000001,-139.6131515666667,-3.4444671073333333,0.1346055866666667,10.461757341333334,-8.176367758333333,-0.8917737789999997,0.9362174470000001
16,0.044442666666706494,-28.378225959999998,12.71532885,-139.59373730000002,-0.8588777183333334,-0.528680677,12.418389002333333,-8.295968533666667,-3.206790924,0.6666660306666666
17,0.04722033333337094,-28.428494133333334,12.684360823333334,-139.5693588,-2.46235617,-0.44541720533333334,8.118019263666666,-7.082861741666666,-5.148568789333333,0.37950484966666664
18,0.04999800000003537,-28.476243333333333,12.699874243333333,-139.5642522,-1.7600576283333336,0.04113125799999998,12.647835256333332,-6.265425682333333,0.8705978393333332,0.988491754
19,0.05277566666669977,-28.516296383333337,12.642294246666667,-139.5331955,-1.6321179866666666,-0.5320843793333334,8.058070659666667,-6.002240339666667,-8.34242201,-0.471856962
20,0.0555533333333642,-28.564722696666667,12.645183563333333,-139.52750906666668,-2.439015567333333,-0.11570033666666667,10.836157799666665,-6.396230379666666,-0.48709408300000057,0.33501287066666663
21,0.0583310000000286,-28.60284169666667,12.614904086666668,-139.51476283333332,-1.511031469,0.093203053,12.496098044,-5.285471995333334,-4.4462951010000005,-0.7906261086666667
22,0.06110866666669303,-28.63057327333333,12.58526198,-139.48471576666665,-2.198529581333333,-0.6345652043333333,7.76727748,-4.461714506,-5.305494545333334,0.9408366930000001
23,0.06388633333335747,-28.645558676666667,12.589811643333334,-139.48668416666666,-2.736849139,0.47942425299999997,13.36846733,-2.224429885333333,0.07146382333333356,-0.27213416499999993
24,0.06666400000002186,-28.653425853333335,12.546040213333333,-139.4514389,-0.4765510756666667,-1.081034531,6.679129123666667,-2.183451891,-7.088723620666667,0.6447189353333334
25,0.0694416666666863,-28.657061896666665,12.551448186666667,-139.45515443333332,-3.927580913,0.13460643066666664,11.860845565,-0.8249492246666668,0.2669720656666665,-0.4117147026666667
26,0.07221933333335073,-28.65997314666667,12.537036893333335,-139.43719993333332,-0.7374531430000001,-0.25117016333333336,11.459164938999999,-1.2032117046666666,-3.0046696673333333,0.559807663
27,0.07499700000001513,-28.662647246666666,12.514748573333334,-139.42640686666667,-3.2148871903333336,-0.7144490083333332,8.774636744666667,-0.9933072526666665,-3.4799244403333334,-0.5494766040000001
28,0.07777466666667956,-28.65292422,12.547648746666667,-139.43067169999998,-1.4019636713333332,-0.33583454266666674,12.515148642333335,0.8975272573333334,3.2095495363333337,1.0236003596666665
29,0.08055233333334397,-28.6358579,12.514063836666667,-139.41662596666666,-1.6507332523333336,-0.4369910533333334,7.628421147666667,1.2782059903333334,-4.851516404333334,-0.8662819066666666
30,0.0833300000000084,-28.632453280000004,12.536197979999999,-139.41626993333333,-2.8958045643333334,-0.5931028723333333,10.993313472333334,0.019389827999999998,1.8163558626666667,0.8776633543333333
31,0.08610766666667284,-28.617729819999997,12.52768262,-139.41385146666667,-1.200902462,-0.022801958,12.221185524333334,1.2592214543333333,-1.5791692746666666,-0.5644266210000001
32,0.08888533333333726,-28.606461843333335,12.5180734,-139.39908853333333,-2.5677752889999996,-1.1729283433333333,8.489577452666667,0.6335425523333335,-2.3456837336666667,0.5244985123333333
33,0.09166300000000166,-28.575664516666667,12.551724433333334,-139.4028651,-1.9345803906666668,0.17584795766666664,12.263557749999999,3.29206113,3.198505323333334,1.269112706
34,0.0944406666666661,-28.557837170000003,12.521375656666669,-139.38548790000002,-1.3213150796666666,-0.920335931,7.105089982333333,1.3733416996666665,-4.675077439,-0.414950669
35,0.0972183333333305,-28.53956604,12.541749000000001,-139.3758672,-2.603663365,-0.6818109653333333,11.973272958333332,1.4510207373333335,1.0699442216666668,1.8475206096666668
36,0.09999600000007074,-28.53363291333333,12.5414594,-139.38544973333333,-2.1526723203333336,-0.789393549,12.201391699333334,0.6198261976666665,0.0028304456666668663,-1.4495181813333333
37,0.10277366666673514,-28.518458683333336,12.536378543333333,-139.35215756666668,-1.5202271443333333,-0.4679879966666667,7.122236568999999,0.511238694,-2.954636176333333,2.819982051666667
38,0.10555133333339957,-28.516109466666666,12.559765176666666,-139.37494403333332,-3.691419403,-1.0796408853333335,13.45277723,0.49429485200000006,3.2440517146666665,-1.437244614
39,0.108329000000064,-28.500117616666667,12.564270336666667,-139.34156543333333,0.15866613400000004,-0.7247157359999999,7.100505034000001,0.6304089326666668,-1.93862168,3.346585194333333
40,0.1111066666667284,-28.5137825,12.56113148,-139.3504639,-3.927205085666667,-0.5204580426666666,10.280332723999999,-1.778917173666667,-0.33178585799999993,-1.5327174863333335
41,0.11388433333339283,-28.52307574,12.597023326666665,-139.33884176666666,-0.9878443853333333,-0.9871574439999998,12.948798180000002,-1.9030906859999999,2.5490048726666665,3.006479621
42,0.11666200000005723,-28.54273923,12.57846991,-139.32834113333334,-2.5680974523333333,-0.8829268816666667,7.408364772666666,-2.977603773,-3.0414940913333335,-0.44222128366666674
43,0.11943966666672166,-28.56262207,12.626572926666668,-139.33054353333333,-2.6897400223333334,-0.7481250516666665,11.718205770000003,-2.8064365386666665,4.595770993666666,2.3045853776666667
44,0.1222173333333861,-28.57850901333333,12.637605033333335,-139.3266805,-0.9085049403333333,-0.615352109,10.013100306,-2.421510001,0.4693425883333333,0.5709800123333334
45,0.1249950000000505,-28.61804072,12.63469982,-139.30892433333335,-2.3701323816666666,-1.463408053,7.039772352,-5.507663131,-1.8189271290000002,1.2145290973333334
46,0.12777266666671494,-28.66091919,12.679822286666669,-139.32226053333332,-2.104423344,0.06709347433333335,13.84515921,-5.292870521333334,4.943120428333333,0.9458869496666668
47,0.13055033333337937,-28.702629726666668,12.67629687,-139.3138021,-1.9185334843333333,-1.702827175333333,8.654196899666667,-5.646295984666666,-1.4459838073333333,0.38723601700000004
48,0.13332800000004377,-28.745785393333335,12.701412836666668,-139.31044766666668,-2.260100007,0.0018332823333333155,9.725315410666665,-5.667333443666666,1.9696708520000001,1.3561414083333332
49,0.1361056666667082,-28.79374313,12.73589579,-139.3197937,-1.7680615993333333,-1.168868542,11.618769488333333,-5.938102523333334,3.5798075986666675,0.7266374826666667
50,0.1388833333333726,-28.83967463,12.744175913333335,-139.30540973333333,-1.055307587,-0.4779000483333333,6.686364015,-6.304812113333333,-0.416773538,1.4897451796666668
51,0.14166100000003704,-28.89798037,12.757870356666666,-139.31516013333334,-3.269049962333334,-0.9442960820000001,12.804903346666668,-7.133894125666667,1.3713223536666665,-0.45052870133333317
52,0.14443866666670147,-28.945988976666666,12.789405506666668,-139.31341806666666,-0.9624971373333334,-0.19708244033333333,10.505880993,-6.203200022333334,2.731387933,1.5641971430000001
53,0.14721633333336587,-28.998938876666667,12.77983316,-139.3098094,-2.313106368,-1.1759899953333333,8.235909938666667,-6.858540773333334,-1.7953786553333337,-0.49604527166666673
54,0.1499940000000303,-29.035874683333333,12.819882710000002,-139.30865733333334,-2.3402212063333336,0.06908804699999997,11.996139523333333,-4.862824281,3.6507842543333333,2.013197888666667
55,0.15277166666669473,-29.070323946666665,12.817077,-139.3143615666667,-1.6407796543333333,-0.9429070923333333,9.129055023,-4.415890018,-0.5918769440000003,-0.984389305
56,0.15554933333335913,-29.102284113333337,12.818978630000002,-139.29302726666666,-0.8601461649999999,-0.4606771963333333,7.106833141,-4.780304114,-1.5014125509999998,1.837740342
57,0.15832700000002356,-29.14443842333333,12.82493496,-139.30911506666666,-3.4839232763333334,-0.8248579913333334,14.401628496666667,-5.067550103,0.9391245843333333,-1.5570637090000001
58,0.16110466666668796,-29.168536503333332,12.83111922,-139.29303996666667,-1.250576615,-0.47374419366666665,9.426338037666666,-3.7050352893333334,-0.7568540573333333,1.554985126
59,0.1638823333333524,-29.19812457,12.809004150000002,-139.29932656666668,-2.675406396666667,-1.0253215233333333,8.491697788333333,-3.7924481233333336,-2.5267591476666666,-2.26613835
60,0.16666000000001682,-29.205706916666667,12.833804129999999,-139.28492740000002,-1.4386602443333334,0.142618316,11.954057693333333,-1.690142413,1.2890151553333333,2.4797866749999997
61,0.16943766666668125,-29.22274208,12.808417319999998,-139.2935715,-2.6477974256666665,-1.3741658926666667,8.668227353333334,-2.250245015,-2.7730311553333333,-2.625711282333333
62,0.17221533333334568,-29.226763406666663,12.79754575,-139.26784006666665,-0.5746332803333333,-0.5600443406666668,7.823914686666666,-1.5767100029999999,-3.0941061973333333,1.5351123276666667
63,0.17499300000001008,-29.243622463333335,12.771357216666667,-139.28485873333332,-3.923536102,-0.7638945106666668,13.360198340000002,-1.9623536369999999,-2.3774281740000003,-3.539849122333333
64,0.17777066666667451,-29.238663990000003,12.77627023,-139.26534526666669,-0.5571473436666666,-0.7109069923333333,10.06949075,-0.30843810233333335,-1.0940352106666664,1.838547071
65,0.18054833333333895,-29.25142606,12.729708033333333,-139.2751414,-3.039100647,-0.5617573353333333,8.585649808,-1.6955684423333333,-4.877595067333333,-4.0633781749999995
66,0.18332600000000335,-29.24210485,12.736667953333333,-139.2514699,-1.5235048136666667,-0.9036464096666667,11.234900156999998,0.13496567833333334,-1.1280680893333332,2.383788943333333
67,0.18610366666666778,-29.240550996666666,12.700226463333335,-139.26632433333336,-2.909673611666667,-1.0723791523333333,10.131672384333333,0.21756307266666694,-3.4666774673333336,-4.097791195
68,0.1888813333333322,-29.23278045666667,12.685912766666668,-139.23265583333333,0.2843043406666666,-0.4347246736666667,6.772381305666666,-0.4251622756666668,-3.997110486,2.2946558096666663
69,0.1916589999999966,-29.25014368666667,12.639675460000001,-139.24012503333333,-4.535099824333333,-1.4700622359999997,12.089963276666666,-2.2976397376666666,-5.014247655666666,-3.742013792333333
70,0.19443666666673684,-29.24540646666667,12.651040716666666,-139.21697746666666,-0.35304781300000004,-0.5004047406666666,11.932562510000002,-0.3869073063333333,-0.6453550653333332,2.5957680343333327
71,0.19721433333340124,-29.25485166,12.593852996666667,-139.21707406666667,-3.1306223073333332,-0.691507101,7.420283635333334,-1.613679886,-6.584656556333333,-3.6026938756666667
72,0.19999200000006567,-29.249670663333333,12.59820016,-139.18760173333334,-1.6032778023333334,-1.4923373856666666,10.501872699333333,-0.4814879273333333,-1.7463699576666667,2.8290885286666665
73,0.2027696666667301,-29.246682486666668,12.56793817,-139.1851832,-2.3801540333333335,-0.013321521999999994,11.065177599333333,-0.20791935933333328,-3.898230404333333,-1.7739229206666665
74,0.2055473333333945,-29.25368309,12.56005923,-139.17055766666667,-0.8806202013333332,-1.29762733,7.408107757666667,-1.5885734416666668,-2.2812762259999997,0.7703179516666667
75,0.20832500000005894,-29.264820099999998,12.512044906666667,-139.14863839999998,-2.969628334,-1.2272737026666667,10.127373060333333,-2.4074649016666663,-6.879364966333333,-0.8126116196666665
76,0.21110266666672337,-29.279726026666665,12.51330026,-139.15397643333333,-2.0259904066666667,-0.8180580983333333,12.90301323,-1.9629682303333336,-0.08588890233333342,-0.9114483993333335
77,0.21388033333338777,-29.294645310000003,12.48192978,-139.13412983333333,-1.6272120276666666,-0.4719748796666667,9.254304092,-2.8080888986666666,-4.984159151666667,-0.10014756799999998
78,0.2166580000000522,-29.31311162333333,12.45588843,-139.13564553333333,-2.6062520543333334,-2.139952063666667,9.578155677333333,-2.4746298393333337,-3.1635285616666664,-2.132385254
79,0.21943566666671663,-29.319515226666667,12.439527193333333,-139.11393990000002,-2.6512758333333335,0.2965998003333333,11.916961033333331,-1.8279172776666668,-3.532510678,0.9869506360000001
80,0.22221333333338103,-29.341309866666666,12.412914593333333,-139.12621563333332,-2.169289688333333,-1.6501139800000002,9.188648859666666,-2.652989884333333,-2.594816327,-3.263851563
81,0.22499100000004546,-29.361195249999998,12.384576476666666,-139.0904185,-1.8160245813333333,-0.8479163053333334,8.033315181666667,-3.760285318333333,-5.581670842,1.6863348483333336
82,0.2277686666667099,-29.396331786666664,12.342841466666668,-139.10515850000002,-2.746591051333333,-1.158601612,12.232935586666665,-4.142509301333333,-4.036534786333333,-4.413926601333333
83,0.2305463333333743,-29.411834083333332,12.329473493333333,-139.08384956666666,-2.292984128,-0.7335539163333333,13.218595506666666,-2.901917855,-3.198825995,1.11458226
84,0.23332400000003872,-29.441029866666668,12.28165213,-139.0955226,-1.9982457956666666,-1.4369084043333331,7.4320890109999995,-3.5188623270000003,-4.842264235,-4.462371111
85,0.23610166666670315,-29.458280560000002,12.261205986666667,-139.0670089666667,-2.1927531559999998,-0.642593329,9.087518214,-3.263778845333333,-4.333425179333333,1.3838135006666665
86,0.23887933333336756,-29.482020696666666,12.212667463333332,-139.07477823333332,-1.8430816333333333,-0.852564355,11.366013207,-2.9901336036666666,-5.132973591333333,-4.125834544666667
87,0.24165700000003199,-29.495025,12.194005966666666,-139.05701953333335,-2.101794481,-0.7415661809999999,9.391410828333333,-2.4620488683333335,-3.5563571053333334,0.43908349666666663
88,0.24443466666669642,-29.514683406666666,12.125207583333333,-139.04562380000002,-1.3549706763333333,-1.0756344593333333,8.562370778333333,-2.9526086253333332,-8.359483401666667,-3.3587904373333335
89,0.24721233333336082,-29.521587370000002,12.084326423333335,-139.02213033333334,-2.690079868,-0.42656362533333336,12.914212863333333,-1.8836069903333332,-6.209800084333334,-0.30014750400000006
90,0.24999000000002525,-29.53314844666667,12.042440093333333,-139.0250524,-1.9010095993333334,-1.2173394560000002,12.154574393666666,-1.6345127819999998,-4.7189880613333335,-3.2229754130000003
91,0.25276766666668965,-29.526770276666667,11.99075254,-138.99817913333334,-2.9408117533333336,-0.7199812233333334,8.421635468666667,-0.38079835466666667,-7.561275959333333,-0.5479226706666667
92,0.2555453333333541,-29.522488276666667,11.948509533333334,-138.99824523333334,-2.174245437333333,-0.6454452473333334,9.591082097333334,0.18256967,-4.920473672333334,-2.945223331333333
93,0.2583230000000185,-29.50509898,11.920088133333332,-138.97783406666665,-3.1049682796666667,-1.1804350213333332,11.744178453333333,1.102317194,-4.754762035,0.1642000476666667
94,0.2611006666666829,-29.49945704,11.901901879999999,-138.98079173333335,-2.1975872366666667,-1.3274192413333334,8.781873227333334,0.3874491653333334,-2.2363530793333335,-1.8098462819999999
95,0.26387833333334737,-29.487246196666664,11.866495133333332,-138.95612586666667,-1.779279748666667,-0.2663879593333333,8.209213892666666,0.39048481,-5.736645539666667,0.19310146566666664
96,0.2666560000000118,-29.49194908,11.86163775,-138.96728006666666,-3.5208308696666664,-2.0929254293333335,11.668825150000002,-0.6244153973333333,-0.37865098333333336,-1.8641271196666667
97,0.2694336666666762,-29.485935209999997,11.872406326666665,-138.963473,-1.9688098926666668,-0.6846963513333334,11.200717607666666,0.15680623033333338,0.29532726599999987,0.7893795469999999
98,0.27221133333334063,-29.501429240000004,11.87702942,-138.97212473333335,-1.7119320233333335,-1.2205695706666668,5.743207454666667,-2.0281778176666667,0.48218818500000005,-1.0615520976666666
99,0.27498900000000503,-29.51226489,11.900745393333333,-138.96964006666667,-3.048270603,-1.0847666266666667,10.989970525666665,-1.7746951976666665,1.7180067003333335,1.4123690526666666
100,0.27776666666666944,-29.51429621666667,11.94691976,-138.98423256666663,-1.997099479,-1.0047344963333333,10.332623323000002,-0.24180272200000008,5.153204918333333,0.8125818076666667
101,0.2805443333333339,-29.524893443333337,11.974454880000001,-138.99016063333332,-2.247269432,-0.6511444150000001,6.2397232056666665,-1.5692688526666665,2.614701221666667,0.7616393663333333
102,0.2833219999999983,-29.536706923333337,12.047860463333334,-139.00156913333333,-2.7616307736666665,-1.3799869419999997,11.266069412,-1.4893481336666667,7.811830503,2.7506105106666667
103,0.2860996666666627,-29.54236285,12.135046956666665,-139.0335617,-3.2970367666666665,-0.40748676666666667,12.29291153,-0.25147163866666683,10.448544133,1.4662017523333333
104,0.28887733333340293,-29.539128620000003,12.242151893333334,-139.0569763,-2.5253223576666666,-0.9602957663333332,7.39419651,0.4893732469999999,11.815796853333334,3.889402469
105,0.29165500000006733,-29.502745309999998,12.3647391,-139.08110556666668,-3.5927127999999997,-0.4311347306666667,10.379960534666667,4.543253988333333,13.595219928333334,4.517746210333333
106,0.2944326666667318,-29.44443194333333,12.552774113333333,-139.1401163666667,-2.3250341413333335,-0.318624328,9.521228629999998,8.091358222999999,22.421158153333334,4.864992062333333
107,0.2972103333333962,-29.365515393333336,12.700395903333332,-139.15024313333333,-1.805976351,-0.22419475533333336,8.016211193333334,9.34111325,15.446439106666665,7.319953124
108,0.2999880000000606,-29.277348836666665,12.955027896666666,-139.23741149999998,-5.544168551666666,-0.8060466946666667,13.866332369333334,12.491720834666665,31.135048550000004,5.640119711333334
109,0.30276566666672505,-29.155516303333332,13.195486070000001,-139.27214306666667,-2.134415646333333,0.2572206656666667,12.646288712,15.172001200000002,26.618892988333332,10.156712689999999
110,0.30554333333338946,-29.032639186666668,13.51523463,-139.3723221,-5.729530016666666,-1.4545617900000003,10.666878859333332,17.097673416666666,38.717552186666666,7.992530029000001
111,0.30832100000005386,-28.880290983333335,13.896305403333335,-139.45508323333334,-1.6142112663333334,-0.7297489046666668,11.372808614999999,20.270025890000003,44.168718336666664,13.266865093333331
112,0.31109866666671826,-28.73649088666667,14.275653203333334,-139.56155143333334,-4.715141376,-1.4679886303333334,6.3395791836666655,20.01231384333333,45.35139465333333,10.635841371333333
113,0.3138763333333827,-28.579921719999998,14.769050596666666,-139.68254599999997,-2.1757954756666664,-1.1696912050000001,10.420007387666667,22.035189946666666,58.20517094666666,15.594061850000001
114,0.3166540000000471,-28.40548579,15.223432856666667,-139.80079396666667,-2.854010939666667,0.3841828603333333,8.049421787666667,24.267169953333333,53.95370865,13.518084206666666
115,0.3194316666667116,-28.194772083333334,15.778786023333334,-139.9332199,-2.5392063456666665,0.14725952333333334,10.231584549333332,29.158698400000002,65.48984909333332,17.569402376666666
116,0.32220933333337604,-27.931217826666668,16.298165003333335,-140.04759976666665,-1.7720882893333334,0.34845502300000003,8.946446677666666,35.049207689999996,60.70344671,17.238308273333335
117,0.3249870000000404,-27.602023443333334,16.82929420666667,-140.13544973333333,-2.0563964843333333,1.3034998176666666,6.010783187,42.19179916666667,60.71335602,20.18027178666667
118,0.3277646666667048,-27.19435056,17.377445856666668,-140.23406219999998,-2.048801998,1.6120133796666665,13.793227355333334,52.05831527666667,63.11114502,19.813688913333333
119,0.3305423333333692,-26.668179196666667,17.867867153333332,-140.27027383333333,-1.5164313316666664,0.7508005103333334,8.389966965,64.13964589666666,53.993354796666665,22.437814713333335
120,0.33332000000003364,-26.054475150000002,18.39389991666667,-140.30333453333333,-2.2812410743333333,2.460900147666667,9.461277007666668,74.53137078666667,57.731676736666664,24.23658689
121,0.33609766666669816,-25.325885136666667,18.83239428,-140.29743703333332,-0.2030246056666667,1.0963863036666666,10.841421287666668,86.87899017000001,46.70146369666667,23.19134649
122,0.3388753333333625,-24.501511256666664,19.317273456666666,-140.26178233333334,-2.596988042,0.9605586133333334,9.562798976333333,97.20734153000001,50.693683623333335,27.506956736666666
123,0.3416530000000269,-23.580018996666666,19.726689656666668,-140.21140033333333,-0.405071452,1.374363303,10.676951250666667,108.34490204000001,42.255238850000005,24.744035086666667
124,0.34443066666669137,-22.55500094,20.162901559999998,-140.11693063333334,-2.7249289353333332,1.254434526,7.482975641333333,118.76202389999999,43.51543172,29.90769513666667
125,0.34720833333335577,-21.456192016666666,20.550427753333334,-140.02616373333333,-1.3881865093333337,0.35307567333333334,10.521084628,127.85117086666666,38.97887103,26.424014406666668
126,0.34998600000002017,-20.263513566666667,20.929109576666665,-139.87336983333333,-1.7992698746666669,0.7372000713333334,8.749532223333333,136.30931093333334,35.91915893666667,31.97767766333334
127,0.3527636666666846,-19.00829252,21.280366259999997,-139.73348489999998,-1.535131821666667,0.4970042506666667,12.666419980333332,144.34451293333333,34.136387506666665,28.450617473333335
128,0.35554133333334903,-17.65396309,21.577834446666667,-139.51984656666664,-0.97674189,-0.0013557870000000065,9.938769657666667,152.858078,25.96416759666667,33.863604226666666
129,0.35831900000001343,-16.237123806666663,21.862976709999998,-139.32047273333333,-1.7362064916666666,0.11140162733333336,11.490956626666668,160.91294353333333,25.89039898,30.88289197333333
130,0.3610966666666779,-14.74743366,22.096440636666667,-139.05871580000002,-1.1158638696666667,0.25672112399999997,11.006601336333333,166.68596903333332,18.788683254333332,35.555400846666664
131,0.3638743333333423,-13.222199758,22.29037412,-138.80480193333332,-1.6887136400000002,-0.4332509836666667,10.343189875999999,171.27779643333335,15.306933005666666,32.76622009666667
132,0.36665200000000664,-11.636131921999999,22.446952183333334,-138.51115926666668,-0.9376901983333333,-0.8106130363333334,14.36681906,176.6270803,10.922155975999999,35.77197138333334
133,0.36942966666667115,-10.012431305666667,22.539509453333334,-138.2142512,-1.5584646466666667,-1.3022660016666665,10.686985332333334,180.86136373333332,4.200279555333333,34.39157486
134,0.3722073333333356,-8.343239941666667,22.61845843,-137.89496613333333,-1.6336599786666668,-0.2803944743333333,11.968659083333334,185.28960673333333,3.2820481456666664,36.256095886666664
135,0.37498499999999996,-6.655055602666667,22.65808296,-137.58763626666666,-2.0203711193333334,-1.3799949883333333,11.018572173333332,188.0116221333333,-0.28181295600000006,34.18990453333333
136,0.3777626666666644,-4.970652381666667,22.64302063,-137.26353203333335,-0.8092862466666667,-2.7524991036666666,9.138568559333335,186.8061167333333,-5.895140569666668,35.477625530000005
137,0.3805403333334046,-3.297806486666667,22.620986939999998,-136.94876606666665,-2.3089006293333334,-0.9551559586666666,14.01657645,185.82244873333335,-5.7643557393333325,34.297245659999994
138,0.38331800000006905,-1.6319789886666667,22.55669403,-136.6449636,-1.7748726606666665,-2.3728067476666665,12.814395586666668,185.46463523333333,-9.6057297,33.39722315666666
139,0.38609566666673345,0.01165771500000005,22.46179072,-136.33627320000002,-2.5928705536666663,-3.001501242,11.059028624333331,182.64276630000003,-12.454178970666668,33.80475171333334
140,0.38887333333339785,1.6330597003333331,22.379046123333335,-136.04200493333335,-2.4326802890000003,-2.2690608896666666,13.195020356666667,180.6499481,-9.930504800666666,32.72493171666667
141,0.3916510000000623,3.201310436,22.242745083333332,-135.75472256666666,-2.0525134406666665,-2.7881026270000002,12.226191203333334,174.65638226666667,-15.616966407333331,32.349939346666666
142,0.39442866666672666,4.727617740666667,22.117373150000002,-135.47596993333332,-2.3483395973333336,-3.7409289676666666,11.853272755666666,170.05180363333332,-13.340665021333335,31.771781286666666
143,0.3972063333333911,6.178477128333333,21.94517644,-135.21590933333331,-3.145001491,-2.9419317643333334,12.351901376666667,161.97503156666667,-18.427831013,30.48606046
144,0.39998400000005563,7.573982238666667,21.778558096666668,-134.97402953333335,-1.0606218773333334,-4.071525732666667,12.064061803333333,156.1717173333333,-17.123524032333332,29.001590093333334
145,0.40276166666672,8.906448365333333,21.595046363333335,-134.73462933333334,-2.4257954756666664,-3.1458137033333338,12.082017899,148.80963900000003,-18.59105761933333,29.214912416666664
146,0.4055393333333844,10.152376176666666,21.387615843333332,-134.53145343333333,-1.406430165,-4.330731630333333,8.895279406333332,140.10252126666668,-21.287666636666668,26.40201568666667
147,0.40831700000004884,11.350122769999999,21.179206846666663,-134.32128906666665,-2.3036112983333332,-3.897782882,14.777287483333334,134.16600036666668,-20.74375534,27.26355870333333
148,0.4110946666667132,12.453017870000002,20.960512796666666,-134.1444219,-1.892904758333333,-3.285099427,9.723788102666667,124.27583820000001,-22.11646715666667,24.448038736666664
149,0.41387233333337764,13.461755753333334,20.72069359,-133.96980286666667,-1.5439878900000001,-3.6705150606666663,7.097622871666666,113.19365437333333,-24.200810750000002,25.139447529999998
150,0.4166500000000421,14.405992826666667,20.477016449999997,-133.8366572,-2.0486450393333335,-4.406528949666667,14.587269783333332,107.18382517333333,-25.298377989999995,21.35174942333333
151,0.4194276666667065,15.289846740000002,20.244852063333333,-133.690506,-3.2529338996666666,-3.447745879333333,13.083326338,99.55420685333333,-23.267756146666667,22.524316150000004
152,0.4222053333333709,16.080197973333334,20.00894546666667,-133.57638043333333,-2.517914295,-3.5984499453333334,10.180072625666668,89.67219797333333,-24.2635746,19.778425216666665
153,0.42498300000003536,16.805730186666665,19.780187610000002,-133.46762846666667,-2.2453741233333333,-3.7055054506666667,12.030032158333333,82.21410115666667,-23.394655229999998,19.060798643333335
154,0.42776066666669976,17.45402272666667,19.551860173333335,-133.37673186666666,-2.0227072636666668,-4.006002425999999,9.779419741,73.64705276666666,-23.63749694666667,17.61142476666667
155,0.43053833333336416,18.036909103333333,19.290760676666665,-133.30776726666667,-1.7303417920000002,-2.986270229,10.516877017,66.79033533666667,-27.997955320000003,16.534556069999997
156,0.4333160000000286,18.556603749999997,19.080253603333333,-133.25056966666668,-3.0919181903333333,-3.590141455,12.05241267,59.701825456666676,-22.41776466,13.761247953333333
157,0.436093666666693,18.988412856666667,18.81276576,-133.19778186666667,0.013531049333333378,-3.4672168096666667,5.600311239333333,49.35602061,-28.972129820000003,15.57166608
158,0.4388713333333574,19.368679683333333,18.58373260666667,-133.1773173,-3.4223106303333335,-2.437905828,13.500732739666667,44.38646888666667,-25.64618301,10.965846218666668
159,0.4416490000000219,19.70005163,18.375825879999997,-133.1144638,-1.4112668333333334,-2.5311729113333334,12.189668655666667,37.07250404333333,-21.613711676666668,14.63338407
160,0.4444266666666863,19.948970796666668,18.124313993333335,-133.12872570000002,-3.226773441,-3.6025942166666667,8.524966239666666,29.91941738,-29.375862756666663,8.458191234666666
161,0.44720433333335063,20.170512513333335,17.971234,-133.0650711,-2.2094138066666664,-3.0031250716666666,10.960938770666667,24.044219015666666,-15.250762583333334,12.705521266
162,0.44998200000001515,20.33817927,17.7405777,-133.07397713333333,-1.7587088743333334,-1.7608987093333333,11.740228651333334,19.939041139333334,-26.74826082,8.384623606
163,0.45275966666667955,20.4767952,17.6324358,-133.01066336666668,-4.278022825666667,-3.6335419019999997,10.001482723333332,14.151574136333332,-10.04678472,11.142092864666667
164,0.45553733333334395,20.555997213333335,17.460205393333336,-132.9901174,-1.445000251,-1.6520735816666665,9.50506004,8.266667923333333,-18.95029672,9.194343843666667
165,0.4583150000000084,20.58686638,17.383276300000002,-132.92619833333333,-3.7913950486666668,-2.9289846023333332,4.098780115333334,1.219911893,-6.507953485333332,9.896442888666666
166,0.4610926666666728,20.596120833333334,17.26809279,-132.8644383666667,-0.6973304749999999,0.04902812833333344,13.194479306,-1.6126551526666668,-10.842875796666666,11.237467685333334
167,0.4638703333333372,20.578420006666665,17.235753380000002,-132.81881456666667,-5.093566228666667,-4.0610402426666665,9.436054707,-3.9409602083333333,-2.3105444906666666,5.881866417
168,0.4666480000000017,20.567083356666668,17.173282306666668,-132.71685793333333,-0.9200016756666667,-0.08133564399999997,12.580970763333333,-5.481967449,-3.3000873723333335,13.350973923333333
169,0.4694256666666661,20.515945433333332,17.165109633333334,-132.68742876666667,-4.494127472333333,-2.007943869,7.920257568333334,-7.503982067333333,-0.163909773,3.2856833536666668
170,0.4722033333333306,20.49028206,17.13701566,-132.57436116666665,1.725412349,0.009098321000000001,9.721189340666667,-7.560479322,0.9564104476666667,13.003058433333331
171,0.47498100000007065,20.446753183333332,17.113685606666667,-132.57994843333333,-4.475716272666666,-2.3656594353333333,13.295991263333335,-5.372082471666666,-3.300271590333333,0.05710699166666666
172,0.4777586666667351,20.44737816,17.083956083333334,-132.45509846666667,-0.450435102,0.486982697,9.459679125666666,-4.718262790333333,1.1782978376666666,14.247123715666666
173,0.48053633333339957,20.4234581,17.043454806666663,-132.49290720000002,-3.0547382830000003,-1.9923625390000002,11.529257774666666,-1.8598241806666664,-6.502989530333334,-2.6244345903333337
174,0.48331400000006397,20.461562476666668,16.975530946666666,-132.38850913333334,0.4079705676666667,0.024744789000000027,8.577104568666668,0.5337323446666666,-3.9715823083333333,13.561754861666666
175,0.4860916666667284,20.479702633333336,16.90523243,-132.4234085,-2.4014291366666667,-0.24280524266666667,11.843540190666666,3.027594685666667,-9.753936765666667,-1.1402475036666666
176,0.48886933333339283,20.540492376666666,16.80430253333333,-132.3565496,-1.3182975289999999,-1.0121281246666667,12.705023446666667,4.616083741,-9.167995452000001,10.956923803666667
177,0.49164700000005723,20.585680006666667,16.74113401,-132.3710734,-2.5999418496666666,-0.7937098443333334,11.937338830000002,5.5690948166666665,-8.121165512333333,0.8063448366666667
178,0.49442466666672163,20.67090098,16.627563793333334,-132.3335698333333,-1.6204750686666667,-0.7723728283333333,11.145698227666665,8.627888044333334,-11.74786059,8.379549343333332
179,0.4972023333333861,20.756664913333335,16.551593459999996,-132.32712046666666,-3.3188129466666667,-1.5432961383333332,9.632826804666665,9.746196110666666,-8.701216221,3.6292558113333335
180,0.49998000000005055,20.852509816666664,16.436604820000003,-132.31595103333333,0.11549662033333334,-1.4411985276666666,9.418292681666665,10.762749673333333,-12.855608306666667,5.913862785
181,0.502757666666715,20.94326655,16.347673416666666,-132.30571493333332,-4.126525561,-0.6913642583333335,11.271368660666667,10.171402297999999,-9.982817332,4.620309591333333
182,0.5055353333333793,21.043584823333333,16.26218795666667,-132.2818273,-1.1010229093333335,-1.246077557,12.375662486666668,10.891819319,-9.014453887666667,6.023969650666667
183,0.5083130000000438,21.146907173333336,16.21105512,-132.25153859999998,-4.287809610333333,-1.3585864006666668,9.448088646,11.063681283333333,-4.864054997,5.294125874666666
184,0.5110906666667081,21.251072563333334,16.13711675,-132.2280807666667,0.6181855796666668,0.04469124466666668,7.178334712666666,11.321242017333333,-7.728951413333334,5.458689053666666
185,0.5138683333333726,21.362238563333335,16.088788986666668,-132.20765686666667,-4.122706572,-1.3568293653333334,11.942971550000001,12.319950736666668,-4.962738712,4.073872367666667
186,0.516646000000037,21.476272583333337,16.05755202,-132.1700363,-1.1519084076666666,-1.454882135,11.645736376666667,12.048527396666666,-2.31745704,5.198623180666666
187,0.5194236666667015,21.575517653333335,16.06101544666667,-132.14394376666667,-4.312137603666667,-1.3802450103333335,9.177941480666666,10.729262033333333,1.0895144543333333,2.4592869676666664
188,0.5222013333333658,21.665473936666668,16.04593277,-132.09583533333333,0.46064943100000005,-1.0527149089999999,8.612722874,8.771275998333332,-0.052991071999999896,5.590525150333334
189,0.5249790000000303,21.733681993333335,16.08871015,-132.0704829,-4.941421826666667,-2.2190588713333335,11.181541440333334,7.041695119000001,5.451154788999999,0.647067065
190,0.5277566666666947,21.80212466,16.1193161,-131.99953716666667,0.35826347266666664,-0.6114317576666666,11.150069393333334,5.451644817999999,6.028767824333333,6.003811041666666
191,0.5305343333333591,21.837118786666668,16.179653803333334,-131.96106463333334,-5.002428214,-2.4215509096666668,6.713657579,2.6553213,7.948349994,1.2240149626666665
192,0.5333120000000235,21.87069575,16.209081333333334,-131.89021300000002,1.371015191,-0.23603159200000004,7.041865984666667,1.3301898636666667,5.804096223666666,5.778123538
193,0.536089666666688,21.896829606666667,16.29853439333333,-131.8368047,-5.543956439,-1.007604162,11.289748510666668,1.0888017616666668,11.796539783666667,1.4075070916666668
194,0.5388673333333523,21.936302186666666,16.35110855,-131.73645530000002,1.0681439043333334,-1.111958881,8.476955254666668,0.9920991656666667,9.683885254666666,7.96117417
195,0.5416450000000168,21.971787770000002,16.43756612,-131.6899185,-5.077110131333334,-1.157949537,8.687600134333332,2.3950037159999997,11.177229563,0.7866430183333333
196,0.5444226666666813,22.032753626666665,16.480827013333336,-131.58815256666665,2.2118266026666666,0.5524938156666667,11.919433273333333,3.448457996,8.695675431,8.424390873
197,0.5472003333333456,22.09152603,16.563084283333332,-131.54207359999998,-6.047133604666667,-1.4412375093333332,11.45643425,5.1899611949999995,10.692245005666665,0.9100311996666667
198,0.5499780000000101,22.14040311333333,16.56259823,-131.45311990000002,3.5456080436666664,-1.8148305816666666,6.450422684666667,2.4416517216666667,3.3065683826666667,9.056413492333334
199,0.5527556666666745,22.15308570666667,16.61501884666667,-131.44332883333334,-5.1889650026666665,-1.0682472686666666,7.788306236333334,0.8601857026666666,5.806713023666667,-1.638307909
200,0.5555333333333389,22.179415386666665,16.584211033333332,-131.35392756666667,2.6297714313333334,-0.16713207966666666,10.117327689,-0.30116799499999997,-0.06250349766666652,10.388162772000001
201,0.5583110000000033,22.177274066666666,16.60167281,-131.37491863333335,-6.411146005,-2.071720480666667,12.855634056000001,0.12705079699999988,0.5733020103333333,-3.3800120203333335
202,0.5610886666666678,22.180978776666667,16.546733856666666,-131.3043391,1.7860674706666666,-0.44178655733333333,10.703617095333334,-2.333013276333333,-3.558902124333334,9.497370560333332
203,0.5638663333333321,22.165369033333334,16.52751032666667,-131.34191640000003,-3.9874697526666663,-0.7043551403333334,8.690320331999999,-0.9483199616666665,-4.207360029,-3.464406092666667
204,0.5666439999999966,22.17638715,16.437719983333334,-131.31191,1.8257778586666664,-0.14106973033333337,10.923324425333334,-0.1224403083333333,-9.105315528,6.977203210666666
205,0.5694216666667368,22.156289419999997,16.402919769999997,-131.35980986666667,-3.753508130666667,-0.6585022213333332,8.002374329666667,-1.170754115,-6.345294952666667,-3.7483058770000004
206,0.5721993333334012,22.15600014,16.285686809999998,-131.37169136666665,0.060837803999999863,-0.5702895573333334,11.690189680000001,-0.005233407000000005,-13.996458693333333,3.721954226333333
207,0.5749770000000657,22.175096513333333,16.210950216666667,-131.42164866666667,-3.5727269646666664,0.04091601666666667,9.371762752333334,3.555624486333334,-10.878188451666666,-2.183814684333333
208,0.57775466666673,22.229848226666665,16.078358013333332,-131.46137236666667,0.3419501976666666,0.20889400933333335,12.599017143333334,7.571681697333333,-16.907517753333334,1.4922350246666667
209,0.5805323333333946,22.296245576666667,15.975381216666667,-131.5120671666667,-3.5390735466666663,-0.237306108,8.942268211333333,9.240836778,-14.060271899999998,-0.981704394
210,0.583310000000059,22.36448478666667,15.843293826666667,-131.56213886666666,-0.11863140266666668,-0.37859545666666666,8.834898154,9.528093336666666,-17.29384899,0.42063734933333335
211,0.5860876666667233,22.452516556666666,15.705812136666667,-131.6342010666667,-2.141217351,-0.7910247643333334,9.568991503666666,12.471474013333335,-18.834850946666666,-1.6555861036666668
212,0.5888653333333878,22.576166790000002,15.547441800000001,-131.6940079,-2.063744014,-0.8530709493333334,12.002400083333333,16.44398689333333,-20.633347196666666,0.6387336653333334
213,0.5916430000000521,22.687185286666665,15.42449093,-131.75664263333334,-1.8169524269999997,-0.13686460266666667,10.921659945,14.97323036,-16.82786782333333,-1.2795302073333332
214,0.5944206666667166,22.797732670000002,15.289107323333335,-131.82485203333331,-3.4633071423333335,-1.8112135526666666,13.595444996666666,15.176003456666669,-18.4687109,-1.2544801633333333
215,0.597198333333381,22.910847346666667,15.17594528,-131.85857643333335,-2.1734631263333335,0.12372275699999997,9.391918022,14.312594733333333,-14.451633453333335,1.41351376
216,0.5999760000000455,23.024619423333334,15.048418363333333,-131.9354782,-2.7229288616666665,-0.9830182043333333,12.17331918,15.78942299,-17.99353440666667,-2.471438209
217,0.6027536666667098,23.15014139666667,14.933335940000001,-131.95261126666665,-2.666745684,-2.0798678,9.749723117,15.254455886666667,-13.906988779,3.311686953
218,0.6055313333333743,23.258514403333333,14.826946576666666,-132.01341503333336,-1.6410371663333334,-0.0053614676666666845,9.906971613,14.597759883333334,-14.982831636666667,-1.8013177113333334
219,0.6083090000000387,23.351068496666667,14.718981426666666,-132.0288035,-2.1803415613333335,-0.6992762086666667,11.142298542333334,11.207977454,-13.019275348666667,3.2278429966666664
220,0.6110866666667031,23.427771250000003,14.628850620000001,-132.0693588,-3.640857775666667,-2.234693885,8.589084784666666,10.108955382666666,-12.227965036333332,-0.2934322803333333
221,0.6138643333333674,23.482727050000005,14.516634306666665,-132.11116533333333,-1.2899399200000001,-0.44658230733333326,9.947768528,7.486850300666667,-14.708185038666665,0.6188058853333334
222,0.616642000000032,23.525760013333336,14.433766363333334,-132.1570053,-3.3500622906666666,-2.111236810333333,10.307189304333333,6.186923524,-11.667372068,-1.1726453603333333
223,0.6194196666666962,23.548325856666665,14.310969669999999,-132.20424653333333,0.04508755099999992,-0.9370520013333333,9.782247224,3.7103593356666664,-16.107106846666667,0.5836801526666667
224,0.6221973333333608,23.54289373,14.236298243333332,-132.27427673333332,-3.4761361280000003,-0.784765025,9.841712635,1.0868804453333334,-11.899760247000001,-4.152187506333333
225,0.6249750000000253,23.511912026666664,14.12996928,-132.3157959,-1.294769148,-1.1808694003333333,11.658130013,-2.8243029516666667,-14.04450035,0.4099814743333334
226,0.6277526666666896,23.464810689999997,14.053218523333333,-132.39637249999998,-3.1111777623333334,-1.486266295,10.750607809666667,-3.5949328143333332,-12.618616106,-5.178985754666667
227,0.6305303333333542,23.439238866666667,13.962299983333333,-132.42426553333334,-2.352225918333333,-0.03715872733333336,12.50735855,-2.526456376,-11.729049999999999,1.1253573396666667
228,0.6333080000000185,23.40334384,13.895540553333333,-132.49003853333332,-2.4718681769999997,-0.5888674306666667,10.477738695666666,-2.7065457503333334,-10.826259295666667,-4.093676487666667
229,0.6360856666666829,23.377171200000003,13.826319376666667,-132.5074539,-1.3052198636666668,-0.9025651853333333,11.2927777,-2.890570621,-8.874300084,1.1650376720000002
230,0.6388633333333473,23.342805863333336,13.762996039999999,-132.53909050000001,-2.6683628956666667,0.21697039399999998,9.404629072333334,-3.562825262666667,-8.838039716666666,-0.5694428283333334
231,0.6416410000000118,23.316705703333337,13.70496273,-132.55320486666668,-2.4994469883333332,-1.4476864336666668,11.025667508666666,-3.0058856806666667,-7.457854448,1.0483136573333336
232,0.6444186666666761,23.30226771,13.668240546666667,-132.55959573333334,-3.0597678819999996,-1.2786163093333334,9.463126499666666,-1.8806401046666668,-4.77171882,0.7948224893333333
233,0.6471963333333405,23.284985863333333,13.648118336666665,-132.56814066666666,-1.896712581666667,-0.6598291000000001,10.266498724333333,-2.097468703666667,-3.0344548223333336,-0.18889655666666672
234,0.649974000000005,23.285654066666666,13.660626729999999,-132.55276236666666,-3.1799196403333334,-0.4206072493333333,11.14909522,-0.6838359833333333,1.6693567833333331,0.8262811256666667
235,0.6527516666666694,23.268536886666666,13.6762565,-132.53355919999998,-1.9179857770000002,-0.5593502520000001,7.814647991,-2.8639363249999996,2.182913303333333,1.07805189
236,0.6555293333333339,23.254975636666668,13.71226438,-132.52345019999998,-1.719906787,-1.4265350103333336,8.259920242,-2.2754710116666668,4.005230347333334,-0.8970020613333333
237,0.6583069999999983,23.26254209,13.742319426666667,-132.492246,-3.0140653446666668,-0.7459836603333333,10.915479977999999,-0.27785458199999996,4.313432852666667,1.6370186013333334
238,0.6610846666666627,23.273200986666666,13.789871533333333,-132.4746526,-1.9177659353333334,-0.8634220263333333,9.856389363666667,0.5161484483333334,5.491422891666667,-0.9453147153333333
239,0.6638623333334029,23.297396343333332,13.8697958,-132.4429067,-3.128073136,-0.9143399200000002,12.272109189333333,1.694509685333333,9.839158854333332,-0.6621322033333333
240,0.6666400000000673,23.307382586666666,13.941330593333333,-132.40218606666667,-0.9325106343333333,0.5012760113333333,10.198213417,-0.25171120966666666,9.217398722666667,0.42266906233333335
241,0.6694176666667317,23.33836873333333,14.029499053333334,-132.38730113333332,-3.188543955666667,-0.7624208926666668,10.817243257,2.983110785333333,9.946065027666668,-2.93132782
242,0.6721953333333962,23.387655256666665,14.08078321,-132.3504639,-0.5591500203333332,-0.9298185156666666,10.898258209666666,4.528439541666667,6.796473679333334,0.9236195783333333
243,0.6749730000000606,23.438313800000003,14.152199426666668,-132.35586296666665,-1.6305277146666668,-0.7893593906666666,10.089163621666666,5.943651278666667,7.137667973666666,-4.370958487333334
244,0.677750666666725,23.469449363333336,14.187375706666666,-132.33808643333333,-1.4343902273333333,-1.2156040173333333,10.613184930666668,2.8854267599999996,4.149002711,-0.3456470866666666
245,0.6805283333333895,23.478574116666664,14.261164029999998,-132.33468119999998,-3.1049036383333335,-1.532913347,10.51686271,0.7170147103333334,7.812727610666667,-3.528937737
246,0.6833060000000538,23.451447806666668,14.276783943333333,-132.35417429999998,0.13436766466666672,-1.831715266,8.581952651,-2.9949211466666674,0.2531915903333332,-3.436504483
247,0.6860836666667183,23.389191943333334,14.297602653333334,-132.3869985,-2.6865470410000003,-3.1041121083333336,10.903165178666667,-6.844115087999999,0.3118782043333333,-4.908781767
248,0.6888613333333827,23.27565829,14.33358733,-132.41183726666668,-0.45169669400000007,-2.0445096096666666,12.703287123333332,-13.190325418,2.2944777013333333,-4.892450173666666
249,0.6916390000000471,23.054676689999997,14.334684373333332,-132.4959309666667,-3.344036142,-4.00966684,9.142377535,-24.422461829,-4.161588985,-9.499381223333334
250,0.6944166666667115,22.750165303333333,14.38054339,-132.53714496666666,-1.6567611889999998,-4.1945570309999995,12.693228402666668,-35.65274874666667,2.773879368666666,-6.866169769666667
251,0.697194333333376,22.34240913333333,14.39374288,-132.65466563333334,-1.3692011636666663,-3.179566939666667,12.225538571333333,-45.81825447333333,-4.165462813,-13.624282836666666
252,0.6999720000000403,21.820791243333332,14.412028313333332,-132.7543996,-2.0656407673333335,-5.186406930333333,9.507966517,-59.98936208,-2.7250018913333336,-11.816817281
253,0.7027496666667048,21.208738326666666,14.442150753333332,-132.88684593333335,-3.1111908356666667,-3.791255553333334,13.996631623333334,-69.85559717666666,-2.608211597,-15.853510223333332
254,0.7055273333333694,20.48918788,14.499607403333334,-133.00931546666666,-1.6990624739999998,-3.9049197833333333,8.202183725,-82.98611705333333,0.9466094566666664,-15.799219133333333
255,0.7083050000000336,19.649635316666664,14.515863099999999,-133.16887156666667,0.0310448806666667,-3.4785492419999997,4.664295315666667,-96.33640799,-4.791024067333333,-18.25422446
256,0.7110826666666981,18.73222478,14.576828003333333,-133.31856026666665,-4.253822764,-3.6432588896666664,13.211404483333332,-105.90895336333334,0.7393557426666667,-18.930540086666664
257,0.7138603333333625,17.731105803333335,14.69760863,-133.45742796666664,-2.581143975,-2.6098614533333335,18.54648908,-116.26759846666668,8.443887512333333,-19.749640783333334
258,0.7166380000000269,16.62130833,14.81276671,-133.6287155,-2.532753269,-4.483633438666668,4.242821374333333,-128.2520650333333,6.819331567333333,-23.05296325666667
259,0.7194156666666913,15.426716803333335,14.914859136666665,-133.76770783333333,-1.8466537296666665,-2.4687118133333334,11.438554445333333,-139.49064126666667,7.092239616666667,-19.297070823333332
260,0.7221933333333558,14.166158356666665,15.140969593333333,-133.9306437333333,-5.446262677666667,-3.586820602333333,19.16137473,-146.49928793333333,20.878515949666667,-24.77664375333333
261,0.7249710000000201,12.799201012,15.225714366666667,-134.08098093333334,2.871541639,-4.000671228,-2.593517501,-159.74406433333334,5.650583200333333,-19.71126874333333
262,0.7277486666666846,11.314639089333333,15.376483916666666,-134.28236136666666,-4.710128228,-4.402521530666667,10.063844283,-172.13140869999998,12.310308299666668,-26.742527006666666
263,0.730526333333349,9.780026119,15.568385443333334,-134.4243444,-0.33981148400000016,-1.659508844,18.77473767666667,-180.02926123333336,19.50817918666667,-20.14760367
264,0.7333040000000134,8.102213383,15.650191623333333,-134.66264343333333,-2.132854779666667,-5.033797582,0.20154376799999998,-194.00354006666666,4.799876371333333,-29.387510300000002
265,0.7360816666666777,6.3687451280000005,15.784791626666667,-134.8289363,-1.3501838843333334,-1.6410171983333335,17.118679365333335,-203.02586366666665,13.450975419666667,-21.24001884333333
266,0.7388593333333423,4.568491706,15.959481556666667,-135.07306416666668,-2.8837453526666663,-3.551944653333333,10.804524741,-208.3573964,17.506892683666667,-30.176194506666665
267,0.7416370000000067,2.7090860209999996,15.911562283333334,-135.26173403333334,2.0490690469999997,-2.2259253263333334,0.8801313836666669,-217.24618023333335,-7.343790689333335,-22.643955226666666
268,0.7444146666666711,0.796236992,16.05387783,-135.51891836666667,-5.492454051666667,-1.520631711,17.230773286666665,-221.36565143333334,15.545926015000001,-30.003619513333334
269,0.7471923333333356,-1.1122959650000002,16.00478649333333,-135.71933746666664,1.3018391133333334,-1.1068805056666666,8.716412227666666,-222.67398070000002,-6.007228529999999,-24.323809943333334
270,0.7499699999999999,-3.0352565446666664,16.000095366666667,-135.99006906666668,-4.333357017666667,-2.107978632,6.731758752666667,-222.14140826666667,-0.06199502766666735,-31.48790105333333
271,0.7527476666666644,-4.923055013,15.969429969999998,-136.19731140000002,1.5026811363333337,2.252351045333333,13.329292142666667,-220.02490743333337,-2.219619320666667,-24.382338206666663
272,0.7555253333334045,-6.794094562333334,15.891287166666666,-136.4760742,-4.107084195666666,-2.165614327,10.503531613333335,-215.6535848,-6.724123003333332,-33.63355891
273,0.758303000000069,-8.602981090333332,15.86503442,-136.6823145333333,-0.8411403496666668,0.5371439953333333,11.366779963333334,-210.61627196666666,-0.32207616233333347,-23.71017329
274,0.7610806666667335,-10.373694737333333,15.71392059,-136.95544176666667,-2.9724925359999994,1.6945093073333333,10.288716714666668,-203.79094439999997,-13.411350249999998,-35.043869656666665
275,0.7638583333333977,-12.073727609666667,15.644692740000002,-137.13020323333333,-1.0666944979999997,0.7722478113333334,9.455533982666667,-198.61054993333332,-4.658993722333334,-21.68438021333333
276,0.7666360000000623,-13.716832156666667,15.466229756666666,-137.3585383,-0.7513432499999998,0.5749080580000001,10.516013622,-190.05099993333332,-15.674750009999999,-31.615299860000004
277,0.7694136666667267,-15.29933675,15.295745213333333,-137.51686096666666,-0.22945865000000007,1.475596572,8.186938999333334,-185.07410176666667,-15.761185966333334,-23.250693639999998
278,0.7721913333333911,-16.812895776666668,15.069513956666668,-137.6930237,-1.7072486876666668,0.07299294066666669,14.074961185666666,-176.26097613333332,-21.047604086333333,-28.008309683333334
279,0.7749690000000555,-18.23187192,14.800393103333334,-137.79612476666665,-0.9297417800000001,1.7873700856666668,7.166875383,-167.2650299,-27.798373543333337,-21.76151593333333
280,0.77774666666672,-19.574739456666666,14.520755766666667,-137.92257436666668,-1.0782838066666665,2.5782992046666666,13.304507094000002,-157.44956973333333,-27.563019116666666,-25.540276843333334
281,0.7805243333333843,-20.792934419999998,14.165669126666666,-137.97043863333332,-0.9259723126666666,1.6978158156666667,10.444880168666666,-144.87685646666668,-38.773585000000004,-20.65444692
282,0.7833020000000488,-21.94848314666667,13.795559563333333,-138.01147713333333,0.03420358899999998,2.340736866,11.08042844,-137.67537946666667,-40.146675746666666,-21.29504203666667
283,0.7860796666667134,-22.97557958,13.332770033333334,-138.0081787,-0.6168980996666668,2.101627826666667,10.791659671,-123.48419953333332,-52.24328931333334,-21.248786289999998
284,0.7888573333333776,-23.899262743333335,12.86613909333333,-137.9675242,-2.536232511666667,3.2402522566666665,13.278185526666666,-112.20689646333334,-53.747992196666665,-18.45063336666667
285,0.791635000000042,-24.727609633333334,12.360695203333334,-137.92847443333332,-0.6394778093333333,1.6278143723333331,13.855228743333333,-100.68497975333332,-57.86842219,-20.947286606666665
286,0.7944126666667065,-25.45641390333333,11.830545107333334,-137.83204650000002,-3.6284009613333335,3.0050526459999998,12.798467636666667,-90.18780517666666,-62.898110710000005,-17.16867097
287,0.7971903333333709,-26.097361880000005,11.303417206333334,-137.77461753333333,-1.0736854473333333,2.1839210193333334,13.860818543333332,-78.73541514333333,-60.66315841666667,-21.225177130000002
288,0.7999680000000353,-26.64149220666667,10.788032849333334,-137.66875203333333,-3.170743962,2.1790844203333335,12.899542806666668,-68.1534818,-61.57548268666667,-16.3747832
289,0.8027456666666998,-27.125073113333332,10.308444340666666,-137.61007436666668,-3.3553332486666663,2.287883103,11.1844333,-59.68147913333333,-55.19221623666667,-19.81632169
290,0.8055233333333641,-27.539747876666667,9.885690687666667,-137.5411021,-3.1195579369999997,1.8040242793333334,14.347240764666665,-51.58411280333333,-49.470349629999994,-16.158203760000003
291,0.8083010000000286,-27.866917293333334,9.473271210666667,-137.49611153333333,-3.448845188,1.3151179846666665,11.645720162000002,-40.638448716666666,-47.04077275666666,-18.15216319
292,0.811078666666693,-28.12543996333333,9.102206230666667,-137.41927086666666,-3.870754381333333,2.319464683666667,11.910586991333334,-32.86017926666667,-44.265268963333334,-12.98610306
293,0.8138563333333574,-28.32848294333333,8.773153622999999,-137.39895883333335,-3.733319202666666,0.8172460546666667,13.345768293666666,-25.214018503333335,-36.65394147333333,-16.48285834
294,0.8166340000000217,-28.461491263333333,8.499526818666666,-137.34345499999998,-2.32022051,0.7750996450000001,9.293763399333335,-17.324760596999997,-32.5359656,-10.186169782
295,0.8194116666666863,-28.549020130000002,8.236008802666667,-137.3329366,-3.2560247583333335,1.9093103606666668,10.637458164,-11.080232618666665,-29.11977068666667,-13.986784300000002
296,0.8221893333333506,-28.599053063333333,8.042811394,-137.3166199,-2.4883332253333337,1.0305435263333333,13.623723983333333,-6.62408614,-21.803778649999998,-9.782428740666667
297,0.8249670000000151,-28.62958399333333,7.862157821333334,-137.31644693333334,-3.93292737,0.719884018,8.968316715,-4.086839437333333,-19.753825187,-10.386129061666667
298,0.8277446666666796,-28.613476433333332,7.737198511666667,-137.32758333333334,-2.188021083666667,0.531878561,10.142157871333334,1.7842276486666668,-13.046764296666666,-8.748147648
299,0.8305223333333439,-28.556188586666668,7.626897335,-137.3513921,-3.3485987186666666,0.1672250316666667,13.812047006666667,6.834319434666667,-10.958084742333334,-8.886925219
300,0.8333000000000084,-28.500471750000003,7.554569085333333,-137.36685183333333,-3.191110929,0.21202485766666665,10.182195822333334,6.581962903333333,-7.408478895000001,-5.916278918666666
301,0.8360776666666728,-28.439712523333338,7.496928056000001,-137.41867573333334,-2.2885014216666666,1.145796299,10.388647555666667,7.680079778,-3.7863562106666664,-8.864972592333334
302,0.8388553333333374,-28.345452626666667,7.474901358333334,-137.46618143333333,-2.794099549333333,-1.0428196736666668,11.151651066666666,11.683662890999999,-0.25861803699999997,-6.441678524
303,0.8416330000000016,-28.250521976666665,7.463841120333334,-137.51874286666668,-3.332904259333333,0.655741185,12.236435253000002,11.812245685999999,1.1360342106666668,-6.273349603
304,0.8444106666666661,-28.172678626666666,7.470280011333333,-137.60699463333333,-1.7919578950000001,-0.5678055386666667,9.026297729333333,10.348084924333333,5.034278153333333,-9.121875764333334
305,0.8471883333333304,-28.081993736666664,7.513343652,-137.67474113333333,-3.485927741,-0.7272963423333333,10.225534917666666,11.514079413333334,7.741039037,-4.866479794333333
306,0.8499660000000707,-27.998413723333332,7.583667596333332,-137.78475696666666,-2.9542482296666663,-0.1908665993333333,11.938970881333333,11.430194219666665,12.995326358333335,-7.843478123666666
307,0.8527436666667351,-27.936899183333335,7.6760465306666665,-137.88821156666668,-3.0804990533333334,-0.3454228143333333,9.540978271333334,8.633216750333334,14.944742521333334,-5.871950467666667
308,0.8555213333333995,-27.88156255,7.802926063666667,-138.00715386666667,-3.346201022666667,-1.8789537350000003,8.799195607666666,8.220687707333333,19.488002776666665,-5.660445213666667
309,0.858299000000064,-27.848278046666668,7.927948157,-138.11840053333333,-1.1139444113333334,-0.005093765666666666,11.620119410000001,5.4630153660000005,18.834358536666667,-4.9228653116666665
310,0.8610766666667283,-27.852961223333335,8.058363596333335,-138.24481203333332,-1.8795729876666665,-1.8572044966666665,6.791381835999999,1.232878049,20.275255203333334,-6.298615455666667
311,0.8638543333333928,-27.868107476666665,8.166811307333333,-138.33989716666665,-1.7667485276666668,-0.5493641123333334,10.505076726333334,-0.5489213466666667,16.206917287,-4.221342047333334
312,0.8666320000000574,-27.891859056666664,8.267174244000001,-138.45200350000002,-1.8267975650000003,-0.9416338999999999,12.713315646666667,-1.237466971,16.294517196666664,-6.477538903666667
313,0.8694096666667216,-27.92917251333333,8.353326002666668,-138.53605396666666,-1.93801253,-0.6431709326666667,10.045920532999999,-3.3674185076666667,13.220671018333334,-4.279179255333333
314,0.872187333333386,-27.987850186666666,8.405073960666668,-138.62057496666668,-0.8768561333333333,-0.425592862,8.299602190333333,-5.864794015666667,9.621775865666667,-6.318584601
315,0.8749650000000505,-28.040791826666666,8.444200674333333,-138.68173726666666,-0.76226904,-0.42479967066666663,12.253341356333332,-5.598444859333334,6.974292358333334,-4.536102294666667
316,0.8777426666667149,-28.09851265,8.460477352333333,-138.74398806666667,-2.845245321333333,-0.8470620613333333,10.003103573333334,-6.1285261313333335,4.622972806,-5.952530702000001
317,0.8805203333333793,-28.159320193333333,8.470938523666668,-138.78264873333333,-0.8559010823333333,-0.17882228333333336,8.180444399666667,-6.959699630666667,2.6768627566666665,-3.7489807603333336
318,0.8832980000000438,-28.214322409999998,8.473995367666666,-138.8219859,-2.6864194869999998,-0.8374284903333332,10.289209048666669,-6.236336746333333,1.9537986913333336,-4.265662670333334
319,0.8860756666667081,-28.28090604,8.447737852666668,-138.83586373333333,-1.6525191863333333,-0.33365616233333334,8.314175765,-8.079153379,-2.554081281,-3.305777708666667
320,0.8888533333333726,-28.348939893333334,8.441745599333332,-138.86144763333334,-1.782334561,-0.5488235553333333,8.140480598,-8.04272906,0.23200086733333336,-3.3425680399999997
321,0.891631000000037,-28.40085411,8.407860279,-138.8634898,-2.293487707666667,-0.5586798586666667,12.822580653333333,-6.562012831666667,-4.044842243333334,-2.443320711333333
322,0.8944086666667013,-28.46823947,8.389233429999999,-138.8797124333333,-2.9503921273333327,-0.8757501046666668,9.233939011999999,-8.118444919666667,-1.6129798096666665,-3.1168468793333335
323,0.8971863333333657,-28.529236476666668,8.376957098333333,-138.88649496666667,-2.435115814,-0.32013921700000003,10.474544208,-7.552327792,-1.486709674,-1.732175509
324,0.8999640000000303,-28.599853516666666,8.353806813666667,-138.8974177,-2.6163107556666665,-0.7496493656666666,10.89218744,-8.624906381,-2.3799214363333334,-2.8152905306666667
325,0.9027416666666946,-28.650147123333337,8.339660962333333,-138.8947016333333,-1.555272142,-0.6052578986666667,8.749670823333332,-6.423482736,-2.212643226,-0.877078444
326,0.9055193333333591,-28.70731989666667,8.309644381333333,-138.89424386666667,-2.5525515476666665,-0.16038608566666665,11.114790601000001,-7.195197264333333,-3.736591935,-2.058278839
327,0.9082970000000236,-28.775512056666667,8.275174776999998,-138.88427476666666,-1.228954023,-1.3436122733333333,8.124751567666666,-8.704430898,-4.796808163333334,-1.2439809439999998
328,0.9110746666666879,-28.82160186666667,8.230772813333333,-138.8714777666667,-2.238127728333333,-0.01620776433333332,10.984326678666667,-6.108239809666666,-5.947160999,-1.5959206620000002
329,0.9138523333333524,-28.88906161,8.184471129999999,-138.857694,-2.546278437,-1.0686161316666667,10.791574954666666,-8.684042135,-6.253045956333334,-1.544525603
330,0.9166300000000168,-28.948216116666668,8.150770028333334,-138.8417562,-2.26825428,-0.44752982266666663,7.811332861333334,-7.7277859043333335,-5.0177565416666665,-0.6343536773333333
331,0.9194076666666814,-29.000454583333333,8.094649315,-138.82428993333335,-2.058943232,0.15833250700000004,11.747752828333333,-6.939525445000001,-7.486704826333333,-1.7398942713333334
332,0.9221853333333456,-29.05350304,8.064578374333335,-138.8103942666667,-2.783814629,-0.6935909986666666,8.624142964666667,-6.960877894666667,-4.521779378000001,-0.6362917223333332
333,0.9249630000000101,-29.089965183333334,8.016528288666667,-138.79129026666666,-2.237015485666667,-0.8042246596666667,10.208832105666666,-5.049261649333333,-6.722827434666667,-1.1449349326666667
334,0.9277406666666744,-29.122659046666666,7.988131682,-138.78166196666666,-2.172038257,-0.10731384166666669,10.474607469333334,-4.447967768000001,-4.096754034333333,-0.9922571383333333
335,0.9305183333333389,-29.134017306666667,7.930131594333333,-138.75445556666668,-2.298915754,-0.6166128616666667,10.047262192666667,-2.1777436336666667,-8.231292406333333,-0.8895823856666665
336,0.9332960000000033,-29.144175846666666,7.901933988000001,-138.74884796666666,-2.134183347,-0.8318118950000001,9.156932988000001,-1.6607972683333336,-3.841328620666667,-1.4136198756666667
337,0.9360736666666677,-29.15433502,7.842059453,-138.72556306666667,-2.8876249786666666,-0.4441222746666667,10.179830392333335,-1.9618028800000002,-8.232104301,-1.3612130880000002
338,0.9388513333333321,-29.15669505,7.804628213333333,-138.71725466666666,-1.1566269993333333,-0.7381300726666667,8.579607486666667,-0.7907967963333333,-4.974006653,-1.645437042
339,0.9416289999999966,-29.160910923333333,7.754372438,-138.6997045,-3.7889784973333334,-0.9192200600000001,12.486657143333332,-1.1587789853333332,-6.8792623289999995,-1.4125182626666666
340,0.9444066666667368,-29.17604573666667,7.722669283333334,-138.69009143333332,-1.7957451343333333,-1.1036007306666666,8.195877868333334,-2.342725038333333,-4.452659786,-1.170993164
341,0.9471843333334014,-29.17419624,7.676865101,-138.67687476666666,-2.951987107666666,-0.7576854893333334,11.871772763333334,-0.3331638993333333,-6.168976823333334,-1.6082838973333333
342,0.9499620000000656,-29.191315966666668,7.653869152333333,-138.6658350333333,-2.357121388,-0.5517920653333334,10.270797729,-2.6226969956666664,-3.6145362866666666,-0.5156229733333334
343,0.95273966666673,-29.18948809666667,7.624792257999999,-138.65637716666666,-2.4606038333333333,-1.061233302,10.705715814333333,-0.28658044333333343,-4.220534483333334,-0.9808631043333333
344,0.9555173333333945,-29.21139589666667,7.613761743,-138.64646150000002,-2.6706926030000004,-1.404379328,9.893141110333334,-3.1730444033333334,-2.3003510226666664,0.07196320099999999
345,0.9582950000000588,-29.219996766666668,7.590661525666667,-138.63874563333334,-1.3953996100000001,-0.45205838466666665,10.234346069333332,-1.5243458746666667,-3.4834764796666664,-0.822656691
346,0.9610726666667233,-29.239529293333334,7.591957251,-138.63359576666667,-2.7206335863333333,-1.0958159963333334,10.083109857666667,-2.8185606003333334,-0.7300357023333336,0.300655663
347,0.9638503333333878,-29.256656646666666,7.569197972666667,-138.62348176666666,-2.1916032629999997,-0.7536033193333332,10.430664697,-2.580992957,-3.5793927513333337,-0.5720940033333334
348,0.9666280000000521,-29.280628203333336,7.583352247666666,-138.6329676,-2.371971925,-1.0542074243333335,11.157766025,-3.104125301,1.4584191640000002,-0.462516248
349,0.9694056666667166,-29.299458823333335,7.568776448666667,-138.6175461,-2.3141020336666664,-0.671759342,11.467366538,-2.8799451193333336,-3.0518765450000003,0.494948258
350,0.972183333333381,-29.324240366666668,7.590419610333332,-138.63775633333333,-2.196590741666667,-0.37174248699999995,8.765018781,-3.0314915973333334,2.867133617666667,-1.1380873916666667
351,0.9749610000000453,-29.33593241666667,7.586290995333333,-138.63196566666667,-3.2073420686666663,-0.885611375,12.988355956666666,-1.8787784576666666,-1.4162881376666665,0.14362332233333333
352,0.9777386666667097,-29.351655960000002,7.600962161999999,-138.64655559999997,-1.9026039043333334,-1.0327533283333334,8.75719563,-2.046658675,1.814465364,-0.963714302
353,0.9805163333333743,-29.35903930666667,7.601834297,-138.64489236666665,-3.033713579,-0.3828199603333333,12.010797183333333,-1.2895103496666667,-0.6520185470000003,0.0016094196666666671
354,0.9832940000000386,-29.380362829999996,7.621490160666667,-138.66639713333333,-2.4514346916666665,-1.5219798086666667,8.865099588666666,-2.6284008026666665,2.723984718,-1.3477485973333334
355,0.9860716666667031,-29.366625466666665,7.61572361,-138.66709646666666,-2.0680515366666667,-0.19231804233333336,11.412656783333334,1.2956491313333334,-1.218374412666667,-0.6306609813333334
356,0.9888493333333676,-29.391265233333332,7.647965431333334,-138.69848886666668,-3.5180245243333332,-1.236484674,11.228332202666666,-2.8745191496666664,4.603318216000001,-1.6059571899999998
357,0.9916270000000319,-29.405197776666668,7.6465400059999995,-138.7032852,-1.389371097,-0.6818351793333334,10.205917041,-1.968095461333333,-0.5200796126666664,-0.804129089
358,0.9944046666666964,-29.42202822333333,7.682280699666666,-138.74535623333335,-3.077231923666666,-0.8723532853333333,9.023162047666666,-1.7710966270000001,5.599029857333334,-2.5020540553333332
359,0.9971823333333608,-29.430684406666668,7.671676794666666,-138.74926756666665,-1.3596041006666668,-0.6998963156666668,10.423454443666666,-1.377960682,-1.5381522176666664,-1.2255089456666666
360,0.9999600000000254,-29.457148869999997,7.702547391,-138.79503123333333,-3.2902561423333334,-2.1524725356666665,6.082270224666668,-2.8418781756666665,5.297216178,-3.1698853176666666
361,1.0027376666666896,-29.488774616666664,7.7064372699999995,-138.80887600000003,-2.0031731523333334,-0.009203493666666729,13.3038435,-3.961091955666667,0.5444305736666664,-1.3892435626666666
362,1.005515333333354,-29.518772126666665,7.734273274666667,-138.87312823333335,-2.337926030333333,-1.3477984863333334,7.652906736000001,-2.9579362870000003,6.052225568666667,-5.2455781303333335
363,1.0082930000000185,-29.526548386666665,7.771259943666666,-138.90901436666667,-3.1209193073333332,-0.012294973,13.252111116666667,-0.7604143623333335,5.271594364666666,-1.6642724473333335
364,1.0110706666666829,-29.542367300000006,7.803361892666666,-138.97240953333332,-2.4162420433333334,-1.063831706,7.5303004583333335,-1.2765835546666666,6.439219156,-4.8745214143333335
365,1.0138483333333472,-29.53886477,7.826401392666667,-139.01655836666666,-1.3200299116666667,-1.0382264453333334,10.851628942,0.7269192139999999,4.313031594666667,-3.360276103
366,1.0166260000000118,-29.535404843333335,7.857432842333334,-139.07581326666664,-2.519978205333333,-0.4472547273333333,9.254279296333333,0.98138385,6.110318541666667,-4.555786292
367,1.0194036666666761,-29.527539570000002,7.862986564666667,-139.11853026666665,-2.004248701333333,-1.0463151333333334,9.538676739000001,1.2717511256666667,2.403038303,-4.275242725666666
368,1.0221813333333405,-29.52948379333333,7.904797236,-139.19682056666667,-1.5823055406666666,-1.8966977993333334,10.990841388,0.6591482063333334,8.33061234,-5.862573623666667
369,1.024959000000005,-29.525412239999998,7.902774969666666,-139.2313436,-2.2095798253333334,-0.7692982653333332,10.060415902333332,0.7112513779999999,1.1446703873333333,-3.9135351976666666
370,1.0277366666666694,-29.514148076666668,7.948574066333333,-139.30194346666667,-2.047461768,-0.5352916156666666,8.789580346000001,2.100824584666667,8.320337663,-4.858376503
371,1.0305143333333338,-29.48912557,7.937519391333335,-139.33191680000002,-2.2280615173333334,-1.6752540270000003,10.064317863666666,3.130260467333333,-0.0694402059999999,-3.957464059
372,1.0332919999999983,-29.450850803333335,8.008945782666666,-139.39242046666666,-2.822680155666667,-0.36333819900000003,8.342056354333334,5.147345901333333,10.402634342,-2.2916167973333335
373,1.0360696666666627,-29.405979796666667,8.029441992333334,-139.44234973333334,-1.3816188176666666,-0.6042818329999999,9.452527285333334,5.8225346113333325,4.411586841,-4.1833473046666665
374,1.038847333333403,-29.33522033666667,8.135398229,-139.51659646666667,-3.4442370533333335,-0.070410033,9.749687988666667,9.300782281666665,14.828269639333334,-1.747639018
375,1.0416250000000673,-29.24066416333333,8.226837952666667,-139.5981699666667,-1.9846641323333334,-1.5283073583333333,10.932174405333333,12.327394167666668,13.706951777,-3.3716663123333332
376,1.0444026666667316,-29.12291399333333,8.382125377666666,-139.68081663333334,-4.351496299333333,-0.04059197766666667,12.025409777,15.187782923333332,20.466283163333333,0.20808200033333343
377,1.0471803333333962,-29.00705019666667,8.581394672333333,-139.8198395,-2.622745603333333,-0.6996304986666667,12.766839663333334,15.944154102666667,28.313823380000002,-3.0933303833333334
378,1.0499580000000606,-28.87185033,8.764701525333335,-139.9115626,-2.006833116333333,-1.9635719256666668,7.971250851,17.55826569,23.92680072666667,0.8056655130000001
379,1.052735666666725,-28.729579286666667,8.973993619333333,-140.02753446666665,-3.2991367976666663,-2.157266696666667,12.945591290000001,18.816572823333335,28.07238610666667,-0.31500440866666674
380,1.0555133333333895,-28.591295243333334,9.212004343666665,-140.11304473333334,-1.1428115466666668,-1.0883920790000001,12.681180956,17.862229350000003,29.334899903333334,4.489497820333333
381,1.0582910000000536,-28.506005603333335,9.381228765000001,-140.20318350000002,-0.6865105430000001,-3.623269001666667,1.4505921303333331,11.586893401,22.370607696666667,-0.027367572000000173
382,1.0610686666667182,-28.449867886666667,9.547130584333333,-140.24620566666667,0.06829953166666665,-2.2303823233333335,11.694394113333333,7.285367011666668,19.33357017366667,4.673345327333333
383,1.0638463333333827,-28.412591296666665,9.687925655999999,-140.3220215,-0.9555154243333334,-0.7307421220000001,13.69067828,5.610866705333333,18.553630509666664,-0.1954618693333335
384,1.066624000000047,-28.41623497,9.765655517666666,-140.33709716666667,0.67904226,-3.652799368,6.850253105,-0.3896554319999999,8.452604613333333,2.4875398079999997
385,1.0694016666667114,-28.440360386666665,9.787854509666667,-140.32923886666666,-0.7624324956666667,-2.3313597539999997,8.750693480666667,-3.3843848306666664,1.2716040610000003,1.7717243136666667
386,1.072179333333376,-28.48348236,9.775169372333334,-140.30206553333335,0.8817572793333334,-0.6898434856666668,12.537158965333333,-5.945087511,-3.4804054119999996,1.7138451340000003
387,1.0749570000000404,-28.540293376666668,9.675595918333334,-140.22127533333332,-0.5364022256666667,-1.6986846126666666,6.800355594333333,-8.794075010666667,-15.697099686333333,2.410035213
388,1.0777346666667047,-28.597418469999997,9.539480367,-140.12082166666667,-0.9741499969999999,-1.5237155356666667,7.8732471466666665,-9.117583911,-20.613594056666667,2.2368976673333334
389,1.0805123333333693,-28.642542523333333,9.376075585,-139.9779383,-0.8726921973333334,0.09078294533333332,9.647296905,-8.643097717333333,-25.973410286666667,5.261047840333333
390,1.0832900000000336,-28.661582313333337,9.152884324333334,-139.82851663333335,-1.5532188713333335,-0.729003906,8.650732517666667,-5.435617764333333,-32.562554676666664,2.3025733653333336
391,1.086067666666698,-28.650870639999997,8.961301644,-139.65529886666667,-1.8138487440000002,-0.32149411200000005,9.407028516333334,-2.432927608666667,-30.668254216666668,6.797683080333333
392,1.0888453333333625,-28.61034838333333,8.698337555,-139.48300933333334,-1.8021830323333334,-0.01600519333333335,8.762648582666666,1.4340191683333332,-38.02828280000001,2.3873272736666666
393,1.0916230000000269,-28.527519863333335,8.462158361999998,-139.28960926666667,-1.9156424203333333,0.38734844966666665,9.475289820999999,6.025685946333334,-36.53608894333333,6.449160893666668
394,1.0944006666666912,-28.406274793333335,8.181444009,-139.11631013333334,-1.8721016046666665,-0.3141718133333333,11.358322459999998,11.242947339666669,-39.98772939333333,1.6794601279999999
395,1.0971783333333558,-28.226645790000003,7.897984346,-138.90273539999998,-2.077454894666667,0.5781796176666666,9.639243761,17.542130151333335,-42.66674042,6.075776418
396,1.0999560000000201,-27.991031013333338,7.617094993666666,-138.73532613333336,-2.1720852256666667,0.39757700733333334,11.488371054333333,25.160319646666665,-39.67853164666666,1.3327283463333333
397,1.1027336666666845,-27.69143041,7.283349355000001,-138.50550843333335,-1.2985950683333334,0.5740934413333333,8.840874036333334,32.014912286666664,-48.82208760333333,5.275130907666666
398,1.105511333333349,-27.342604953333336,6.992157936000001,-138.33731336666668,-3.359443187666667,0.573761791,10.929337500333332,38.93144862,-40.81481933333333,1.2697059113333333
399,1.1082890000000134,-26.9155248,6.665839672,-138.12893169999998,-1.187078893,1.3387703896666665,12.926270486666667,47.90619278,-46.83499399666666,4.110317469000001
400,1.1110666666666777,-26.41879971666667,6.367717266333334,-137.9512075,-3.1625760396666664,0.7343973763333334,9.467889307666667,56.76796086666667,-42.08203760666667,2.591191649666667
401,1.1138443333333423,-25.828131993333333,6.091582616,-137.76831053333333,-2.0608466363333333,1.683630824333333,15.569680850000003,68.05643717333334,-40.0202802,4.8265191713333335
402,1.1166220000000067,-25.157365796666667,5.824161370666666,-137.60392,-2.8685661356666667,1.3765700260000002,8.121378740666666,77.98920949666666,-38.01908556666667,3.5365658599999996
403,1.119399666666671,-24.41429774,5.573667764666666,-137.43603263333333,-3.0047260920000003,1.071800232,12.564199766666666,86.76672873,-36.31204859333334,5.413352727666666
404,1.1221773333333356,-23.570670446666668,5.377948204666667,-137.30263520000003,-3.9800955456666665,1.575743397,13.112143833333334,99.22238668,-28.56805992,4.585170507333333
405,1.124955,-22.651777266666667,5.175641457333334,-137.1641744,-2.3169577516666666,0.9301090043333334,10.507881006666667,108.36407473000001,-29.407494866666667,5.5004000663333334
406,1.1277326666666643,-21.659282049999998,5.044622818666666,-137.05768586666667,-4.599503517,0.872531901,14.207633974666665,117.4845047,-19.995021185333332,5.385739485666666
407,1.1305103333334046,-20.60122045,4.914217392333334,-136.954333,-1.0894578693333334,1.126171072,13.173816360333333,125.50000763333333,-19.641411780000002,5.7010108630000005
408,1.133288000000069,-19.482809703333334,4.822718858333333,-136.87012479999999,-4.834784030999999,0.3608623943333334,12.589400610333334,132.87914783333332,-14.420111656333333,5.184104085
409,1.1360656666667335,-18.31181653333333,4.778718312333333,-136.8008906,-2.7354620299999994,0.12184461433333331,13.692491054000001,139.43539940000002,-8.188167411666667,5.739683468999999
410,1.1388433333333976,-17.07366657,4.735069275,-136.74410243333332,-2.989373366,0.21649062633333335,10.671707154333333,147.59975686666667,-7.651195367,4.353322069
411,1.1416210000000622,-15.800828300000001,4.7656788033333335,-136.71376036666666,-2.7171438733333333,-0.7379479010000001,15.222148576666667,152.02704876666667,1.981391271,3.9530079763333332
412,1.1443986666667267,-14.487112363333333,4.816806237000001,-136.66781613333333,-4.052501917,0.21418795999999998,11.899754842666667,156.7798055,3.896764268333333,6.233068308666667
413,1.147176333333391,-13.143310546666667,4.910712083,-136.66615803333335,-2.4163223503333335,-0.873880297,10.474531810666667,160.86984759999999,10.449188074666667,2.2031324703333333
414,1.1499540000000554,-11.760332425333333,5.044959704333333,-136.65081533333333,-3.378835996333333,-0.9097195963333334,12.255133944333332,165.41293843333332,14.74164485766667,4.6732404826666665
415,1.15273166666672,-10.351480166666667,5.172827403,-136.63525646666665,-0.6178670126666667,-0.700515866,10.352979658666667,168.55411273333334,14.26963997,4.253430366333333
416,1.1555093333333843,-8.955975373666666,5.342297713000001,-136.63414766666665,-3.8578546046666666,-0.8996430883333334,12.683199879999998,167.11132813333333,19.531223296666667,3.0891362823333335
417,1.1582870000000487,-7.572436014666667,5.541196187333334,-136.62137859999999,0.27329845233333344,-1.3976492486666665,10.193985303333333,165.55511983333332,23.01744906,4.345492522000001
418,1.1610646666667133,-6.185359796,5.714209398,-136.60463206666668,-3.158664902,-1.915327867,9.650222617666666,165.9219462,19.889940896666666,4.0371090569999994
419,1.1638423333333776,-4.783675352666666,5.9390989943333325,-136.56498466666667,-1.7931758763333334,-2.2252541383333333,11.686829887,167.42225140000002,26.062625886666666,6.677881479
420,1.166620000000042,-3.3721905946666673,6.119794845666665,-136.51371256666667,-2.476401130333333,-2.1204025746666666,11.135730744999998,168.42990623333336,20.773185729999998,7.181499004333333
421,1.1693976666667065,-2.001747906,6.344132105666667,-136.44432576666665,-1.2112679579999999,-1.5968741973333331,10.301041601666666,163.25894673333332,26.147727966666665,8.889562448333333
422,1.1721753333333709,-0.6752084493333333,6.542860349333334,-136.3573278,-1.7090961336666666,-1.1205078513333333,7.390143713666667,157.68961083333332,23.095392863333334,10.317466100666666
423,1.1749530000000352,0.6107618410000001,6.766090234333333,-136.25489043333334,-3.4314709506666667,-2.681866407333333,11.708914600333332,152.5909932333333,26.378807703333333,11.703966457666667
424,1.1777306666666998,1.858954847,7.005425453333333,-136.14600883333333,-1.247471223,-2.113841374666667,9.528258561333333,147.87908936666668,28.42999522,11.694362959333333
425,1.1805083333333641,3.1002638339999997,7.230460007999999,-136.01503753333333,-1.6165899636666667,-3.160556396,9.186832744333334,146.69850666666665,27.212906199999995,13.886652626666667
426,1.1832860000000285,4.2995254990000005,7.442152500333333,-135.9082489,-1.4423685073333334,-1.9920029639999999,5.3848307926666665,141.9180552,25.5455513,10.458532334666666
427,1.186063666666693,5.475222905333333,7.679775397,-135.76323446666666,-3.0713204543333332,-2.679550170666667,12.50840505,138.46426393333334,29.488730113333332,14.531195003333332
428,1.1888413333333574,6.576955795,7.878786246,-135.6548309,-0.06633397433333334,-0.9110353203333333,8.599000454,130.08845523333332,24.471806846666667,9.768106380333334
429,1.1916190000000217,7.650455157,8.075366179333335,-135.52072396666668,-1.3433914830000002,-2.048414906,9.091791709666666,126.24681853333334,24.966824213333336,12.716797671999998
430,1.1943966666666863,8.675792534333333,8.239199956,-135.39407606666666,-1.8440772890000001,-2.487745921,12.429783341666669,120.53128813333335,20.960313476666666,11.457185903000001
431,1.1971743333333507,9.662356375666667,8.412459691333334,-135.2833379,0.1278697846666669,-2.060683131333333,5.213076512,116.11537170000001,22.203099570000003,9.558823427
432,1.199952000000015,10.654430390333333,8.504708766999999,-135.15111033333332,-1.9380327710000003,-2.017486016,10.930632271666667,116.35806276666666,13.041652363000003,12.897961935333333
433,1.2027296666666798,11.600444793333333,8.628142833666667,-135.0520986,-0.3635307946666666,-2.1134620506666666,11.063727376666668,111.40217080000001,16.39090538,8.569505850666665
434,1.2055073333333441,12.503352483333332,8.673321882666666,-134.93561806666665,-0.9265247183333329,-1.1318389376666667,9.508123638999999,105.86397806666666,7.553212841,11.795078913
435,1.2082850000000083,13.38216273,8.722834905000001,-134.8493525,-1.1225090026666666,-1.5297168096666667,9.261518479333333,103.51665753333333,7.651439984333334,8.583957673333334
436,1.2110626666666724,14.241194406666667,8.764846325,-134.7496694,-1.229201873,-2.247765739666667,11.341725666,100.87021384,7.060970026666667,9.604894756333332
437,1.2138403333333374,15.074446360000001,8.747242609666667,-134.68144226666666,0.21086412666666657,-1.6178363166666667,7.812153657,98.34123738666666,-0.45903126400000005,8.242880503666667
438,1.2166180000000015,15.865965843333333,8.713661829666668,-134.61719259999998,-2.3227385406666667,-1.894430200333333,9.477612971000001,93.44096374333333,-2.498410632,7.725177766333334
439,1.219395666666666,16.642390886666664,8.694844881666667,-134.57452393333332,0.054924905333333385,-1.9030247926666666,14.687747956666668,92.01068369333332,-1.2056926803333332,5.316346447
440,1.2221733333333304,17.369240443333336,8.623528003666665,-134.53572083333333,-1.9934347866666668,-1.9612666766666667,7.607213973666667,86.15146891333332,-7.429631311333334,6.336637218333334
441,1.2249510000000707,18.076387406666665,8.575726191333333,-134.51717376666667,0.141283234,-1.59943223,12.169119199666667,84.13903554333334,-5.240598837333333,3.6703234709999997
442,1.2277286666667349,18.746790569999998,8.476709366,-134.4951528,-2.962449471,-2.0854759216666667,9.371450106333333,79.71014658666667,-11.062760671666666,5.568942606333334
443,1.2305063333333999,19.39841016,8.415082454666667,-134.47511543333334,0.829688549,-1.6798712013333335,13.270096781,77.49692281333334,-6.642882984333333,4.453829010333334
444,1.233284000000064,19.984430313333334,8.293696562666666,-134.48677569999998,-2.9054955046666664,-2.7156211136666664,6.412553387999999,70.17462539666667,-14.70008723,3.1728865366666668
445,1.2360616666667283,20.551090243333334,8.213298638666666,-134.45755766666664,-0.1493773066666666,-1.3708621263333332,12.261656762666668,67.12317530333333,-8.269291560333334,6.430858612333332
446,1.2388393333333925,21.054458620000002,8.102651755,-134.4694697,-4.113031983333333,-2.1909311613333333,10.630293609,60.27511596666667,-13.400467872666667,3.0203692513333333
447,1.2416170000000573,21.536144256666663,8.040325006,-134.43642936666666,1.157649418,-2.7323144873333334,9.871783891666666,56.89126205333333,-5.9913538436666665,6.1174603303333335
448,1.2443946666667216,21.98257319,7.9168807663333345,-134.44192253333333,-3.812904079666667,-0.7388616603333333,8.759589830666668,53.32647704666667,-14.49644375,4.4876918
449,1.247172333333386,22.38499323666667,7.857630411999999,-134.4226583,0.1760419710000001,-2.351169467,9.909896533333333,47.62120692,-6.177098751,4.520977258666666
450,1.2499500000000505,22.751342136666665,7.741855939333334,-134.422142,-3.2797652083333326,-0.9605811933333334,9.653929151333331,43.60490926333333,-13.309352558,4.979352951
451,1.2527276666667149,23.098911286666667,7.695792993,-134.4049097333333,0.6452723340000001,-1.4807147679999997,9.315151215666667,41.126789093333336,-4.744172255,3.748311917
452,1.2555053333333792,23.41149394,7.594859918,-134.41909280000002,-2.2002212206666663,-1.2818659346666668,10.360234258333334,37.36972427333333,-12.274145126666667,2.880875825666667
453,1.2582830000000438,23.70893033333333,7.5353128116666666,-134.39945219999998,-1.3546463846666665,-1.7397184173333333,12.337628363,35.09027608,-6.055397629999999,4.729908307333333
454,1.2610606666667084,23.962995526666663,7.470064640333334,-134.40744273333334,-2.5415058133333335,-0.8334171873333333,15.258421422,30.240268706666665,-8.024787285666667,1.9406940940000001
455,1.2638383333333725,24.180433269999998,7.445748806,-134.37994890000002,-0.7496936319999999,-2.1174166946666664,9.379323293666667,25.41697979,-1.7672367096666663,3.925525109
456,1.266616000000037,24.37127622,7.403576056333333,-134.3695272,-2.1511344909999996,-1.7006876073333335,6.755974274333333,22.344860076666667,-4.589590310999999,2.8252561486666665
457,1.2693936666667014,24.530780153333335,7.4033209483333335,-134.33927916666667,-1.7518872420000002,-2.417036334666667,5.869699636,18.408979416666668,0.9945621593333334,2.9723749159999997
458,1.2721713333333657,24.68460528,7.359907945333333,-134.31157683333333,-1.0188065373333333,-0.080141385,9.526166216999998,17.64973736,-3.8998845413333334,4.6685244243333335
459,1.27494900000003,24.796296436666665,7.351539453000001,-134.29713436666665,-1.2262037993333335,-1.985537966,8.197694221666668,12.914738018999998,-0.6436902686666665,1.706578652
460,1.2777266666666947,24.890624996666663,7.290998458666667,-134.28214773333335,-0.6641292176666667,-0.37466533966666676,10.880636217000001,10.717002710666668,-6.415380240666667,4.079464753333334
461,1.280504333333359,24.973023093333335,7.305239359666667,-134.25154876666667,-3.222479184333333,-1.2185220319999999,12.899869126333334,9.16388162,2.599716782666667,2.2410025396666664
462,1.2832820000000238,25.050169623333336,7.263909657666667,-134.2420374666667,1.1315100193333334,-1.1502066853333333,10.488163988,8.746720472666667,-4.580739077666666,2.5482281843333334
463,1.2860596666666881,25.14344660333333,7.217979112999999,-134.22627513333333,-2.7278739610000002,-0.22018140566666675,8.812047942,10.638297717,-4.705942094333333,3.6122694013333336
464,1.2888373333333523,25.21397209,7.1598372459999995,-134.23073323333332,0.4483082493333333,-0.5384557443333333,10.121918837666666,8.189653396666666,-7.096355894666668,1.9391900896666663
465,1.2916150000000164,25.277129493333334,7.067779223,-134.2351659,-1.7844525773333333,0.012848725000000005,9.883948962333333,7.285240014666667,-10.712025483,3.8275144893333333
466,1.2943926666666814,25.331024170000003,7.011371612333332,-134.23636626666666,-0.9421248983333333,-1.7628475826666665,9.584684689,6.232050816,-6.734603602666667,2.2564649583333334
467,1.2971703333333455,25.405440650000003,6.8890746436666666,-134.2650121,-0.07103474899999984,-0.07504300266666669,9.031064669333333,8.914130686333332,-15.212741216333333,2.7843162216666664
468,1.29994800000001,25.491886776666664,6.783495425999999,-134.2811737,-2.733433088,-0.5460644586666666,14.024325210333336,10.324891805999998,-12.769189518,3.2952425479999996
469,1.3027256666666744,25.567637126666668,6.664335250666666,-134.29962923333332,0.03547390299999975,-0.510313697,10.264650582333333,8.985627334,-14.340103469999997,3.7991778056666674
470,1.3055033333333388,25.642211276666668,6.485083738999999,-134.36036173333332,-1.0709211826666667,0.07546668999999999,5.360394898333333,9.423129081666668,-23.02514203433333,2.3368907766666664
471,1.3082810000000034,25.728690466666666,6.379963874666667,-134.36364233333333,-2.0275473993333333,-0.7436871826666667,15.918810206666668,10.173777102,-12.011552494666667,4.788484334666667
472,1.3110586666666677,25.829658506666664,6.195498625333333,-134.4428075,-1.3690229653333332,-0.5607231309999999,9.384479683999999,12.752590497,-24.54246076,0.6866755486666668
473,1.3138363333333323,25.935265856666664,6.0409527616666665,-134.4616902666667,-1.103847742,-0.6167815726666667,9.406666596333332,12.709759393666667,-18.168885866666667,5.692599496
474,1.3166139999999966,26.019510266666668,5.85003678,-134.54845936666666,-0.7631557783333336,0.07440299300000001,11.033435187333334,10.762455622,-25.609966916666664,0.32249283766666653
475,1.3193916666667365,26.105929056666668,5.741724173333334,-134.56827289999998,-3.1607634919999996,-1.9215474526666665,8.927507083,10.449028335,-13.206524532333333,3.2539484499999998
476,1.3221693333334013,26.20040385,5.586341619333333,-134.62972003333334,-1.276252150333333,-0.33920907966666664,12.60416031,11.681690059,-20.44660091333333,1.2423773213333336
477,1.3249470000000656,26.304752986666667,5.489021857333334,-134.6755651,-2.9616253773333336,-1.3263988296666667,10.729183675,12.8466835,-13.400014243333333,-0.1147824626666667
478,1.32772466666673,26.38831965333333,5.3398677506666665,-134.72021736666667,-0.42487992866666674,0.7780938596666666,13.46810754,10.101750850333334,-18.881089526666667,2.754403671
479,1.3305023333333945,26.455629983333335,5.283335606333334,-134.76684313333334,-3.0909529179999997,-1.7062392233333332,10.628690083666667,8.445916852000002,-9.060329118333334,-2.3190673193333335
480,1.3332800000000589,26.51278623,5.169113238666666,-134.79379526666668,-0.2827703940000001,-0.30134794866666664,8.250037193999999,6.753660439,-14.176603954333332,2.826336225
481,1.3360576666667232,26.56444931,5.118645906666667,-134.8461659666667,-3.525384187666667,-2.3367152216666667,9.440618832666667,6.614609319666667,-8.742866196666666,-3.2807195979999997
482,1.3388353333333878,26.596398036666667,5.007173617666667,-134.87885793333336,0.3849077226666668,0.2056960463333333,9.511704603,3.746228456666667,-14.169619560000001,2.092837651666667
483,1.3416130000000521,26.60859616666667,4.985509872333334,-134.92375436666666,-3.678136110666667,-1.925555269,10.965204236666667,1.8051889343333334,-5.259930526333334,-4.003074488666667
484,1.3443906666667165,26.61615753,4.919712941,-134.92368573333331,-1.0419560273333333,0.7099718603333333,12.025132496666666,0.5718892013333333,-7.538129966333334,3.144685904333334
485,1.347168333333381,26.630397796666667,4.955032984333333,-134.962972,-3.9937521616666665,-1.768102323,10.479435762,2.007635514,1.1530974209999998,-6.4393903429999995
486,1.3499460000000454,26.645603816666668,4.902628819,-134.93514249999998,-0.7418068246666666,0.62398348,11.55247275,1.2059312463333334,-4.620326757333333,5.374251999999999
487,1.3527236666667097,26.625027973333335,4.9752833050000005,-134.95958199999998,-2.8253469069999997,-0.8396482566666666,8.570943195666667,-2.378286322,5.937402168999999,-6.922329186333333
488,1.3555013333333743,26.602166493333332,4.9667174020000004,-134.9105301,-0.6442672016666665,-0.13832797633333338,12.038173677000001,-3.5803074240000003,1.1955963770000002,5.2413052716666675
489,1.3582790000000386,26.58022054,5.084465026666667,-134.89073436666666,-3.8868515490000006,-2.183320999333333,10.464880626666666,-3.0117010076666664,13.150270461333333,-4.604504823666667
490,1.361056666666703,26.56761614333333,5.127514124,-134.83419289999998,-1.1304056643333333,0.5082976323333334,11.016852062,-2.4396921,7.135934810999999,3.281909545
491,1.3638343333333678,26.544509886666663,5.232757409333334,-134.80043793333334,-1.8068426449999997,-1.1482498643333334,9.200529257333335,-3.350705544,12.545155207666667,-2.4946482973333333
492,1.366612000000032,26.508855819999997,5.280308802666667,-134.75446826666666,-1.220445394666667,0.5096325873333333,11.268302917333335,-5.1272530949999995,7.0371572176666675,1.8655961353333332
493,1.3693896666666963,26.46685664,5.398753643,-134.70711260000002,-1.5982078910000002,-1.0754177096666666,10.068555514666668,-5.81747214,14.712397573333334,-1.7112491926666669
494,1.3721673333333608,26.429284413333335,5.4606375693333336,-134.65280149999998,-3.179846445666666,-1.0223170323333333,13.139975545666667,-5.412894646999999,9.011333305666666,2.0402335326666665
495,1.3749450000000254,26.391115186666667,5.582811355666666,-134.60790503333334,-0.601750354,-0.189713657,8.413074494333332,-5.3666876556666665,14.996904214000002,-2.1442923543333334
496,1.3777226666666895,26.346055346666663,5.634310404666667,-134.56186420000003,-2.1124770639999997,0.034972444333333345,11.20635541,-6.236409187333333,7.446378788,1.6999825636666666
497,1.380500333333354,26.282331466666665,5.764882246666666,-134.51264953333333,0.08598880000000027,-2.046641866,10.295823097,-8.499864259333334,16.122335116666665,-2.125679214666667
498,1.3832780000000184,26.218178433333332,5.844105085,-134.47406513333334,-3.739246011,-0.005289755666666655,10.382596015666667,-8.458239873333332,10.037619908666667,-0.5422288176666666
499,1.3860556666666828,26.175013223333337,5.965385277999999,-134.4072164,-0.5697226423333333,-0.1803500256666666,13.461621604333333,-6.248928110000001,16.040530838666665,0.28251171133333336
500,1.3888333333333474,26.126735686666663,6.034100373333334,-134.38814543333334,-3.275152127,-0.33220464,9.323979537333333,-6.323386988333334,7.866863012666667,-2.0870354573333336
501,1.3916110000000117,26.0810922,6.1513948439999995,-134.30736286666664,1.1042379143333334,-0.6743178366666666,6.606820583,-6.730825583000001,16.329878806666667,2.0019406676666667
502,1.394388666666676,26.035140993333332,6.205122630000001,-134.30075326666667,-2.8463812170000007,-0.17317295099999996,10.186853250333334,-5.912192980666667,5.598884185,-2.643744150666667
503,1.3971663333333406,25.997770946666666,6.310455004333332,-134.22834266666666,-0.7234463296666668,-1.0852957766666667,10.702877839000001,-5.680248181,14.613049347666665,1.7765953540000001
504,1.399944000000005,25.960728966666665,6.371266524,-134.20762126666668,-2.926333189333333,0.17844383533333338,13.587337176666665,-5.0316777230000005,7.103907624999999,-1.4958076476666664
505,1.4027216666666693,25.939905800000002,6.489390850333333,-134.13273623333336,-1.8270712993333333,-1.5085667373333334,11.721984226666669,-3.6776243846666667,16.108766556666666,1.422862192
506,1.4054993333333339,25.92590141333333,6.551077525,-134.11173503333336,-2.0925689236666667,0.9171385963333334,10.572200933333335,-2.3269082503333336,7.216320355666666,-1.544542571
507,1.4082769999999982,25.92594401,6.630336125666667,-134.05978646666668,-1.2780652643333335,-1.305147906333333,11.489583016,-0.9108209610000001,10.703469911333334,0.9567343283333338
508,1.4110546666666626,25.905013399999998,6.679965337,-134.02998096666667,-1.4140971056666665,0.6718192946666667,11.254891394666666,-3.2743319273333333,6.367221037666667,0.027701477000000214
509,1.4138323333334029,25.89604314,6.7545506159999995,-134.00819650000003,-1.3689955076666667,-1.4546075463333332,9.177218913333332,-1.599878132333333,8.628241697333332,-2.048865994
510,1.4166100000000672,25.880943933333338,6.782382011333333,-133.9662425,-1.2966458003333334,0.6140525736666667,11.094473840666666,-2.768305639333333,4.638844887666667,2.4532206073333334
511,1.4193876666667318,25.86501884333333,6.866315364666668,-133.9766312,-2.6532905496666666,-2.350536843,9.939515112666667,-1.9358259440000003,7.968935171666668,-5.945692419333334
512,1.4221653333333961,25.844525020000003,6.900012493000001,-133.92201486666667,-0.619742612,0.11133456233333335,9.928558191999999,-3.59055233,5.921204845000001,3.502371947
513,1.4249430000000605,25.81370162666667,6.970674356,-133.95427446666667,-2.637943566,-1.012444049,12.23984718,-3.434993227333333,5.433159828,-7.553084373333334
514,1.427720666666725,25.781731286666666,7.014699617999999,-133.8934733,-1.033820788,-0.1628723046666667,11.236070472333333,-5.009239912333334,7.327665348666667,3.6360857486666665
515,1.4304983333333894,25.743864059999996,7.073932489,-133.94913993333333,-1.6028470196666664,-1.2060943046666666,9.398373921,-3.972067992000001,3.0031756163333334,-9.489425661666667
516,1.4332760000000537,25.711586,7.098769823666667,-133.8874842333333,-1.6342231433333332,-0.2158213853333333,11.133185703,-5.045547992,5.273740928666665,4.724729697
517,1.4360536666667183,25.656890866666668,7.158285618,-133.9437663,-2.130068071,-0.8311611076666666,11.215619085666667,-5.956932862333335,3.01355354,-9.562102159333334
518,1.4388313333333826,25.60482088666667,7.194549560666666,-133.88687643333336,-2.3667828639999997,-0.7080192763333333,10.692848522666667,-7.318338076333333,6.236004034666666,3.6245260636666665
519,1.441609000000047,25.532550810000004,7.254813830000001,-133.92350006666666,-1.952251052,-0.6466688636666668,12.492991126666666,-8.385581334000001,4.1637352309999995,-7.427182236999999
520,1.4443866666667118,25.47002538,7.3270036376666665,-133.86778006666665,-3.130305846666667,-0.49931807333333333,10.668952941333332,-8.512176195,10.038773457666666,1.6819345156666665
521,1.447164333333376,25.386503853333334,7.3798953696666665,-133.88815563333333,0.042590458999999914,-0.2501676430000001,8.469959419,-10.049737931666668,4.227715571666667,-5.347173055
522,1.4499420000000403,25.30246798,7.458409945333334,-133.84565736666664,-3.514839252,-1.567386992333333,11.437676112666667,-10.916516782666667,10.039464076,-0.053533077333333345
523,1.4527196666667048,25.19410324,7.527899265333333,-133.849027,0.3332720596666667,-0.559856643,9.902928353,-13.288651464666666,6.944212754666666,-4.269617002333333
524,1.4554973333333694,25.07112694,7.617019494333333,-133.83678946666666,-4.372679472000001,-1.573199351666667,11.823900381,-15.137539546666668,9.650819460666668,-3.8584145013333333
525,1.4582750000000335,24.939576463333335,7.7101011276666656,-133.81056466666666,-0.27464213,0.0046549339999999995,13.218517303333334,-16.54052702666667,11.021788281,-2.2256263889999994
526,1.461052666666698,24.799178443333332,7.821141878666666,-133.82464853333332,-4.2445343336666665,-1.0285160343333333,10.141835849,-16.81603432,10.821110724333332,-7.545973697333333
527,1.4638303333333624,24.660226820000002,7.900935490999999,-133.8029607,1.2476754486666666,0.5566799143333333,8.042155425666666,-17.400492033333332,9.350963039333333,-2.06730002
528,1.4666080000000268,24.504710516666666,7.981155236333334,-133.84364826666666,-3.0874712466666665,-1.4073129096666668,10.604258060333335,-18.20835654,6.144499818,-8.942171573666668
529,1.4693856666666913,24.338253656666666,8.061277866333333,-133.84092199999998,-0.9773917993333333,-0.8289820156666666,10.356770037666665,-20.357171696666665,8.466656524666666,-4.0249722199999995
530,1.4721633333333557,24.140535353333334,8.150829633,-133.8944473,-2.8788629770000003,-1.7633394796666668,12.236791928,-23.040565490000002,6.559369723,-10.852936745
531,1.47494100000002,23.931868236666663,8.242933273333334,-133.89845276666668,-2.008787274,-1.0690404276666667,10.953851697333334,-25.268968583333333,9.475059351666667,-5.232549706
532,1.4777186666666846,23.6728878,8.332053184333333,-133.96360776666668,-1.9491869013333334,-1.585667491,8.459957281666666,-30.202730180000003,6.080164036666666,-11.979166666666666
533,1.480496333333349,23.364904403333338,8.425218264333333,-134.00784813333334,-1.6958372840000002,-2.727796654,9.693176109333335,-36.53232383666667,7.764117717999999,-9.626628715333334
534,1.4832740000000133,22.994805653333334,8.538513660333335,-134.0692876,-3.105309407,-2.147109747,14.85399914,-43.57559903666667,9.069478133666665,-12.588947933333332
535,1.4860516666666779,22.538717270000003,8.651213169,-134.13221743333335,-1.4790906306666667,-3.2953414119999995,7.549814701,-53.87233479666667,9.171845754,-12.371373179
536,1.4888293333333422,21.984160740000004,8.786835829333333,-134.2302068,-1.959272146,-2.8241053026666663,8.466755548666667,-65.01725387666666,10.072283108666667,-17.567020416666665
537,1.4916070000000066,21.333440143333334,8.934607346666667,-134.3109487,-2.5563821793333332,-2.6732571916666665,13.840700944333333,-76.84768168666666,12.543715159333333,-15.627542496666665
538,1.4943846666666711,20.593445459999998,9.157830238666667,-134.39260353333333,-2.881980995333333,-3.0777355830000004,9.565380254999999,-87.46648661,20.94864893,-19.034248356666666
539,1.4971623333333355,19.728109993333334,9.300705909666666,-134.5056076333333,-1.7057952133333334,-3.901491324,8.233677864,-101.92140451666667,11.046401870333334,-18.726559956666666
540,1.4999399999999998,18.79046313,9.591432572333334,-134.56685383333334,-4.052493731,-3.6770865123333336,14.10129261,-111.55652365666667,30.01505724333333,-18.645297369999998
541,1.5027176666666644,17.755550383333333,9.827219644333333,-134.65027616666666,-1.0112072029999999,-1.7133211293333332,7.437593619666667,-122.74620566666665,23.330729166666668,-18.284320830000002
542,1.5054953333334045,16.627894083333334,10.100537300666666,-134.72295886666666,-2.584055095666667,-3.5780458449999997,3.405857583,-134.0688349333333,28.22520256,-18.515161513333336
543,1.508273000000069,15.42793814,10.396164891333333,-134.79384103333334,-2.789067586,-1.602307896,15.178836506666665,-142.74182636666663,31.35613696,-17.67591222
544,1.5110506666667334,14.146318756666666,10.689578375666668,-134.87107849999998,-0.6315288046666668,-2.4085301956666667,5.3083666166666665,-152.38611856666668,31.177003860000003,-18.29321162
545,1.5138283333333977,12.804620107666665,10.958000183333333,-134.9491297666667,-3.5490666233333332,-2.3169828503333334,12.914493084666667,-159.53456623333332,28.789948783333333,-16.559253373333334
546,1.5166060000000623,11.432892481000001,11.296828589999999,-135.02535250000003,-1.724328939,-1.0386447706666666,16.67719364,-163.12497966666666,37.333586376666666,-17.584848403333336
547,1.5193836666667266,10.013526755333332,11.586600939999999,-135.1042735,-1.9290256499999998,-1.8419220446666664,4.92980353,-168.75630696666667,32.05095927333333,-15.715687753333333
548,1.522161333333391,8.565747735666667,11.840781846666667,-135.21174113333333,-0.31314893533333327,-1.0139050036666668,8.736308893666667,-171.45021570000003,27.712513923333333,-17.997934023333332
549,1.5249390000000556,7.085012356333333,12.160263379999998,-135.31118263333335,-5.157082398666667,-2.4201724726666662,13.595953623333335,-175.51830546666667,35.99470901333333,-16.783811886666665
550,1.52771666666672,5.568352222333334,12.386865616666666,-135.44689176666665,1.2983837923333332,-0.7989184316666665,4.377377430666666,-178.90079246666664,24.989199953333337,-19.43411890666667
551,1.5304943333333842,4.0065060573333335,12.646149956666667,-135.59136963333333,-3.7489893436666666,-1.0974119306666668,13.57678922,-183.92673750000003,29.213830310000002,-20.028264363333335
552,1.5332720000000488,2.439082146,12.904812176666667,-135.74996183333334,-0.5348763466666667,-1.5619984466666665,14.787769636666667,-184.25758873333334,29.64061419333333,-20.392463046666666
553,1.5360496666667134,0.8296868006666668,13.081755956666667,-135.93916576666666,-1.9822038013333334,-2.198861082,2.2765145299999996,-188.24419146666665,20.098079680666668,-23.697025299999996
554,1.5388273333333775,-0.7908266783333332,13.285934766666665,-136.11970520000003,-0.9910657010000001,-1.298712333,9.927641394333333,-189.87663266666667,24.131311416666666,-21.46231715
555,1.541605000000042,-2.393454117,13.433815956666665,-136.33112843333333,-2.785720646333333,0.07059836866666669,15.254807153333331,-186.64026893333335,17.870114006666668,-25.088991163333333
556,1.5443826666667064,-4.0222886403333336,13.588011106666668,-136.52233633333333,0.027139226666666644,-0.8595091103333333,6.814420224333333,-190.45242306666668,19.23015721333333,-21.382358553333333
557,1.5471603333333708,-5.677501122333333,13.65713342,-136.74247739999998,-1.9156380496666667,0.3784406186666666,11.623456796000001,-192.55878193333334,9.813516137999999,-25.901233673333333
558,1.5499380000000353,-7.292012373333335,13.731189729999999,-136.9178009,-1.3818440036666668,-0.432289044,11.633220991,-189.12183633333333,10.651774086000001,-19.75403595
559,1.5527156666666997,-8.866054852,13.782328606666667,-137.11896513333332,-3.063487648666667,0.8006585039999998,14.792782146666665,-183.32860313333333,8.836764335333333,-23.152695976666667
560,1.555493333333364,-10.439049403,13.76302306,-137.28156536666665,0.02644363033333332,-0.20858356366666664,5.716026544666668,-184.45152283333334,0.2957442593333326,-19.341773353333334
561,1.5582710000000286,-11.977924984,13.745653789999999,-137.46681980000002,-1.3427737009999998,0.4924897553333334,8.036356051333334,-179.61954243333332,1.6858959596666667,-22.244541803333334
562,1.561048666666693,-13.467663763333334,13.65312036,-137.60390726666665,-1.2920348793333332,1.6329457163333334,11.080963930000001,-175.21980796666665,-7.884935537,-18.388090449999996
563,1.5638263333333573,-14.918132463333334,13.564940773333333,-137.7698186,-1.688635900333333,0.400551066,10.53228728,-169.55281066666666,-6.057425419666667,-22.049559276666667
564,1.5666040000000219,-16.305950163333332,13.44150448,-137.89732613333334,-2.0426877786666666,1.683147609,12.39287726,-163.1759491,-10.848341622,-18.795692443333333
565,1.5693816666666862,-17.6340154,13.286563236666666,-138.01424663333333,-1.4095262786666665,1.8842480183333334,10.864384173,-156.33319603333334,-14.321076551666666,-19.30056445
566,1.5721593333333506,-18.8890508,13.139308613333334,-138.1267522,-2.102984746,1.825918575,10.987417857333334,-147.74300130000003,-13.294128100333333,-18.4363184
567,1.5749370000000151,-20.050323486666667,12.960602123333333,-138.21045686666665,-1.831037899,2.3805443446666668,9.900470573333335,-137.32707216666668,-17.51088428666667,-16.809528986666667
568,1.5777146666666795,-21.121266046666666,12.758473076666666,-138.2908605,-1.1574473383333332,2.432833194666667,9.801922799333333,-126.59624480000001,-19.964104653333333,-17.875417709999997
569,1.5804923333333438,-22.095791496666664,12.562627793333334,-138.33273823333332,-2.024576386,2.534313798,11.078084627666668,-116.15533448000001,-20.60632038,-13.452818870000002
570,1.5832700000000084,-22.991583503333334,12.346887906666666,-138.39813993333334,-2.7973980506666667,2.1013871826666666,10.893742878,-106.03989409666667,-21.572614669999997,-17.41243235
571,1.5860476666666727,-23.781596499999996,12.13117186,-138.4267273,-1.5750739773333333,2.779458046,10.328309375666667,-94.42336525,-23.086112976666666,-13.437493643333333
572,1.5888253333333375,-24.488824206666667,11.909186043333335,-138.46446736666667,-2.7153420446666665,2.200667739,12.63062795,-84.16945902666667,-23.06339518333333,-15.366131783333335
573,1.5916030000000017,-25.096050899999998,11.728935560000002,-138.4886271,-2.154965003333333,2.6591225466666666,10.637314796333333,-72.65651575666668,-19.124125163333332,-11.64117431666667
574,1.594380666666666,-25.618654250000002,11.505211194666666,-138.51310476666666,-2.7856323323333334,1.784931262,9.637988091333334,-62.36058807333333,-23.565110523333335,-14.594751996666666
575,1.5971583333333303,-26.0547479,11.335929233000002,-138.51959229999997,-2.9986255170000002,2.309357722333333,13.86209869533333,-52.55907440000001,-18.645466485333333,-9.547716143
576,1.5999360000000706,-26.403610229999998,11.138362887,-138.54140216666667,-1.8227069426666667,2.5487505196666667,10.534579437,-41.62915865666667,-20.67220052,-13.193355876666667
577,1.602713666666735,-26.676219303333337,10.972754477333332,-138.53837076666667,-3.5152593850000002,2.257653912,10.920133591333334,-33.150496479999994,-18.623172126666663,-8.636676469
578,1.6054913333333996,-26.87661552333333,10.82443269,-138.54739376666666,-2.118160049,1.9139392773333335,14.508778570000002,-24.15360085,-15.93504715,-9.369565329333334
579,1.608269000000064,-27.009452183333334,10.671473503333333,-138.54710896666666,-3.008812745666667,1.7212133803333334,9.789417108333334,-16.260445116333333,-17.034462926666667,-8.471243699
580,1.6110466666667282,-27.079772313333333,10.561698914333334,-138.5580419,-2.265712142,2.397786855666667,12.060336749666668,-8.551582177333332,-11.652464070333332,-7.544193108999999
581,1.6138243333333928,-27.099214553333336,10.436286929666666,-138.55828346666667,-2.7583086690000003,0.6419813233333332,10.399339915,-2.6151113916666664,-14.003909272000001,-7.1418188413333334
582,1.6166020000000574,-27.072986603333334,10.343125658333333,-138.57124840000003,-2.567269623,1.2465168236666668,10.981937091666666,3.018953561,-9.876071455,-6.649145126666667
583,1.6193796666667215,-27.01766904333333,10.247174898333334,-138.57829283333334,-2.3267513413333334,1.1221970716666667,11.231901169666665,6.453831996333334,-10.496275108333334,-6.208989620333334
584,1.622157333333386,-26.92431259,10.184309959333333,-138.59557086666666,-2.977047364,0.7508839570000001,12.063275974,11.207529225666667,-6.3039635810000005,-5.670220375
585,1.6249350000000504,-26.818455376666666,10.119617462666668,-138.61664833333333,-3.0228340826666673,-0.38833662900000004,10.908499401333335,12.827390356666667,-6.418420710666666,-5.967182994000001
586,1.6277126666667148,-26.69969114,10.093487739666667,-138.65275826666667,-2.355134566666667,0.6423256,10.083889164999999,14.650910060000001,-1.3849489776666666,-5.656524658333333
587,1.6304903333333793,-26.582225163333334,10.062174480000001,-138.68181103333333,-3.110138972666667,-0.17688447233333335,12.739371296666667,14.372697830000002,-2.3896596233333334,-5.077045679
588,1.6332680000000437,-26.456293106666667,10.064317703333332,-138.72348276666665,-2.74733297,-0.715923821,9.696004547,15.635043779999998,1.9198511043333333,-4.724183718333333
589,1.636045666666708,-26.349809646666667,10.078604381333335,-138.77562713333333,-3.9754281836666667,-0.8082746663333332,12.570706686666668,13.555184683333332,3.7147988279999997,-5.106049855333333
590,1.6388233333333726,-26.244207380000002,10.110100747333334,-138.81634520000003,-1.0954974789999998,-0.23164802799999998,8.780245780666666,13.148567199333334,4.948568309333333,-2.9397164583333333
591,1.641601000000037,-26.157418566666667,10.168184598333333,-138.88595833333332,-4.619374752,-1.4921490353333333,12.030669213333335,11.561184565333335,9.327097751999998,-4.6558794180000005
592,1.6443786666667013,-26.092065809999998,10.220080692666668,-138.91990153333333,-0.8160890763333333,-0.582176248,8.846422672333333,8.218836634666667,6.793434953999999,-1.1892433763333334
593,1.6471563333333659,-26.057041166666668,10.312020622,-139.00212093333334,-3.9477126596666667,-1.3613637686666669,8.916637102666668,5.624396563333334,13.60033551766667,-4.187126139666667
594,1.6499340000000302,-26.038588843333333,10.381170593333332,-139.02732596666667,-0.5121063266666667,-0.6554664896666668,10.529181161,2.4003400803333332,8.209099132333334,0.629798492
595,1.6527116666666946,-26.049002329999997,10.507025082333334,-139.10886383333334,-4.405368487,-1.601152618666667,9.450977960666668,0.19570473833333324,17.223256109999998,-2.3535128036666664
596,1.6554893333333591,-26.081454596666664,10.607277868666666,-139.13942973333334,-0.9758538203333332,-0.033701335333333304,11.071144106666665,-3.5574678180000006,11.836136181,1.688866536
597,1.6582670000000235,-26.13845253,10.736250242000002,-139.21897123333335,-3.3299648763333334,-1.5046717723333334,9.258063156,-5.411000888,17.456581433333334,-1.9551905293333334
598,1.6610446666666878,-26.192945480000002,10.873898824333333,-139.25428263333333,-1.6278326113333337,0.24280780533333335,12.186459858333334,-6.101906219,16.129347483333333,3.179777453
599,1.6638223333333524,-26.2834994,10.995301246666665,-139.32435606666667,-3.348762114666666,-1.5590815146666668,7.751893838333333,-9.583949088333334,16.147774693333332,-1.3467114766666668
600,1.6666000000000167,-26.367879233333337,11.139692943333335,-139.36312103333333,-1.0357003013333335,-0.170355479,12.487534523333332,-9.598720708,17.02441406366667,3.234336456
601,1.6693776666666815,-26.484505333333335,11.24946626,-139.41895296666667,-2.763511429,-0.955441177,8.805689654,-13.000846546666665,14.180523552333332,-0.47049093233333333
602,1.6721553333333457,-26.59306653666667,11.384239196666664,-139.4529266333333,-1.7774039109999997,-0.46185859066666674,10.341763178,-12.570314088333333,15.755210873333334,3.2164574466666664
603,1.67493300000001,-26.72769101333333,11.487814586666667,-139.5069758,-2.1991132893333334,-1.2828015683333334,10.041752814666667,-15.165241559999998,13.410559337666667,-0.5541898409999999
604,1.6777106666666743,-26.84847959,11.602261859999999,-139.5277888,-1.2012363276666667,-0.18109657366666668,8.657097023,-14.352219259999998,12.872701643333334,3.5715986193333333
605,1.680488333333339,-26.98142179,11.693910916666667,-139.57726286666664,-2.634469906666667,-0.643431778,11.565830547,-15.073354403333333,11.891678171666667,-0.6330219106666667
606,1.6832660000000033,-27.098293306666665,11.79838276,-139.58835343333334,-1.6865677829999999,-0.436725413,9.057063421666667,-14.129981043333336,11.230896949666667,4.1804917653333336
607,1.6860436666666676,-27.23710823,11.874483106666666,-139.63827516666666,-2.742086172,-0.6009237766666666,10.761671068333333,-15.742414793333333,10.245355606666667,-1.4671241443333332
608,1.6888213333333322,-27.350633623333334,11.973594666666665,-139.64758046666665,-1.1877572536666667,-0.16731120133333333,9.741503238666667,-13.759299276666667,10.533480644666668,4.119188070333333
609,1.6915989999999965,-27.485249836666668,12.036249476666667,-139.6817118333333,-2.4429393213333337,-0.211514905,10.532140096666668,-15.621762910000001,7.989970445,-0.5502452556666667
610,1.6943766666667368,-27.6027654,12.118273416666668,-139.6866277,-1.4145653496666668,-0.3161094633333334,9.880220729666666,-14.299991923333332,8.473234018,3.6023187636666667
611,1.6971543333334014,-27.727310183333334,12.166998863333333,-139.71130623333332,-2.6795500916666666,-0.4935516416666667,11.282599447333334,-14.659068426666666,5.991811354999999,-0.28011731533333334
612,1.6999320000000655,-27.821770986666667,12.228549636666665,-139.69913226666668,-1.311275999,-0.026283686333333334,10.746540388999998,-11.949208579999999,5.341430982333333,4.259664893
613,1.70270966666673,-27.929051716666667,12.268416403333333,-139.7068685,-2.5715229113333335,-0.007065425333333338,10.172670045666667,-13.052311260000002,4.135273615333333,1.021448811
614,1.7054873333333944,-28.01769828666667,12.305228233333333,-139.68394976666667,-1.4288212260000002,-0.33111558366666666,10.244446436666665,-11.506876311000001,2.105776548666667,3.987838069666667
615,1.7082650000000588,-28.125478743333332,12.35054461,-139.68515013333334,-2.847404082666667,-0.7250798966666666,10.918515205666665,-13.30719948,4.349362214333333,2.047478457
616,1.7110426666667233,-28.220520653333335,12.364743869999998,-139.65295410000002,-0.8736867406666665,-0.169884692,9.302896341666667,-12.507027943333332,-0.813584884,3.660292478666667
617,1.7138203333333877,-28.326227826666667,12.414829256666666,-139.64873506666666,-3.556476354333333,-0.20114525133333336,11.590932846666666,-13.224090259999999,4.538582643333333,2.9239636066666663
618,1.716598000000052,-28.41042964,12.419520696666666,-139.61886853333337,-1.1049221156666666,-1.1535416346666667,10.118371329,-11.161016465000001,-1.696515560333333,2.882071654
619,1.7193756666667166,-28.507496516666667,12.47209994,-139.61163076666665,-3.280802289666667,0.5655892393333333,9.352428912333334,-12.281776108,4.6192256626666675,3.4121667939999996
620,1.722153333333381,-28.60099665333333,12.492101666666665,-139.60382846666667,-0.9298770603333333,-0.884679078,11.924380144333332,-11.738197008,1.1522224146666664,1.5002728103333334
621,1.7249310000000453,-28.675841013333336,12.539829573333334,-139.5824814,-3.2423640090000005,0.20723543066666664,9.798736732333333,-9.944971877666667,3.301137606333333,4.55805405
622,1.7277086666667099,-28.744932173333336,12.580692293333334,-139.59508513333333,-1.493257145,-0.42744053400000004,9.699942627666667,-8.280420939999999,4.487186988,0.6215209366666666
623,1.7304863333333742,-28.79200935333333,12.613493283333332,-139.56069693333336,-2.2765014966666666,-0.05097314533333333,11.133875686333335,-6.895869256,0.9716848539999999,5.005782127333333
624,1.7332640000000386,-28.84542147666667,12.676031113333332,-139.5919723333333,-1.6351655523333335,-0.7206058476666666,10.591143928333333,-5.962085326333333,7.824848015666666,-0.018860538666666704
625,1.7360416666667031,-28.882585523333333,12.691307066666667,-139.5399399,-1.927747195,0.16425152300000004,10.961491269999998,-6.141991933,-1.871203421333334,5.787067890333333
626,1.7388193333333675,-28.916635513333333,12.742241543333334,-139.5576833,-2.7186927396666665,-0.8091093896666667,10.654622394666667,-3.9919405776666665,5.844925880000001,0.719217956
627,1.7415970000000318,-28.928157806666665,12.759474753333334,-139.50622813333334,-0.8240623473333333,-0.3642449376666666,10.372853636333334,-3.118580800333333,-1.6471056913333335,5.8768717446666665
628,1.7443746666666964,-28.95263799,12.763807296666668,-139.49660743333334,-2.278998097,-1.119342168,8.153104306333333,-3.525530775333333,-0.6006023099999993,0.7831766406666668
629,1.7471523333333607,-28.97660637,12.802790956666668,-139.47206876666667,-2.208919366,0.014429480000000003,14.55397256,-3.936212539333333,2.1471183296666667,4.423937400333333
630,1.7499300000000255,-28.99655977666667,12.764914196666666,-139.43650563333333,-1.130198161,-0.7803541423333332,7.645726283666666,-3.5962351163333337,-6.517331103,0.9573450086666666
631,1.7527076666666896,-29.002389906666668,12.796229363333333,-139.41302236666667,-3.3371955950000003,-0.46988937766666666,13.241339363333333,-1.768091043,1.3958350023333335,3.9013643266666667
632,1.755485333333354,-29.001766843333332,12.753472326666667,-139.3662262,0.1172860366666667,-0.6061963306666667,9.284675902666667,-1.4611298243333337,-7.655968507333334,1.832075377
633,1.7582630000000183,-28.99008369666667,12.72249826,-139.31344603333335,-3.4160160816666667,-0.2137316566666667,9.269092322333334,-0.4041418633333334,-6.801733890666667,3.2469204266666662
634,1.761040666666683,-28.98460706,12.707964263333333,-139.28513846666667,-2.3545449773333336,-0.429565854,14.696986513666667,-0.4723478853333332,-3.634839374666667,1.6189307370000001
635,1.7638183333333473,-28.95074081333333,12.64934349,-139.22193656666667,-1.6252731880000002,-0.6670850616666666,7.374336719666666,2.0267905963333335,-10.297969025,2.6967095536666665
636,1.7665960000000116,-28.924126943333334,12.656858123333334,-139.2115122333333,-4.471377531666667,-0.17002917333333334,13.971886636666667,2.4850717586666664,-0.2902916273333336,1.0738213856666665
637,1.7693736666666762,-28.87694422333333,12.633611363333332,-139.1737671,-1.0668940236666666,-0.7295558203333333,9.944881677333333,4.267878691,-5.139549415666667,2.16508619
638,1.7721513333333405,-28.837112426666664,12.60847759,-139.16285449999998,-3.285739084,-0.7457931636666667,8.792389314666666,4.09681797,-3.7526394113333335,-0.7786684136666665
639,1.7749290000000049,-28.814638773333332,12.624380109999999,-139.17051696666667,-2.3589166900000005,-1.0071150956666666,14.81535244,2.437506278333333,1.5602611300000007,-0.213443458
640,1.7777066666666694,-28.78111712333333,12.590646426666666,-139.1587575,-2.163580119666667,-0.8968418439999999,6.696974118666667,3.3859117826666663,-4.716435351333334,-1.2070710263333333
641,1.7804843333333338,-28.76476415,12.623358089999998,-139.1985372,-3.0637989836666666,-1.2011891306666664,12.89285342,2.542887618,5.118694305,-2.505008300333333
642,1.7832619999999981,-28.744752246666668,12.601998326666667,-139.20558676666667,-0.6586998006666668,-0.6859331816666668,10.388724406333333,2.2629282473333334,-2.350165366666667,-2.4340611300000004
643,1.7860396666666627,-28.73166847,12.618821146666667,-139.2351608,-3.7523882463333336,-0.7758128943333333,7.25446685,1.919027239,2.866288820333333,-2.392920345333333
644,1.7888173333334028,-28.724115370000003,12.629010516666666,-139.26076763333333,-0.7317060033333332,-0.42621960233333334,13.993617693333334,1.2176878253333334,2.007511774666667,-2.4841326076666665
645,1.7915950000000673,-28.71405982666667,12.617463113333335,-139.2868449,-3.507078448666667,-1.7136289676666667,8.410168331333333,1.5173829,-0.31607135133333325,-3.707886974333333
646,1.7943726666667317,-28.71183268,12.66864554,-139.31156923333333,-1.77546343,-0.22611423566666675,10.713943957666666,0.507140438,6.278847852000001,-0.005353416333333305
647,1.797150333333396,-28.69901975,12.646561936666666,-139.3350652,-2.134147485,-0.8411112326666667,10.873749096666666,1.789606670666667,-1.6095563573333331,-4.00221165
648,1.7999280000000606,-28.71814092,12.714950243333332,-139.3624649,-2.8926499683333335,-1.329722305,9.043815453,-2.032063355,8.246331849999999,0.7115080156666668
649,1.802705666666725,-28.737109500000003,12.717326163333333,-139.3914973,-1.9912988743333333,-0.9329404233333333,9.639238517999999,-1.8403272876666668,1.2765467950000005,-3.1650360823333337
650,1.8054833333333893,-28.756268179999996,12.78602727,-139.42575833333333,-2.2799124023333337,-1.172162195,8.662672043666666,-1.804044644,8.655729929333335,0.043172816333333364
