time,Euler_X,Euler_Y,Euler_Z,Acc_X,Acc_Y,Acc_Z,Gyr_X,Gyr_Y,Gyr_Z
0,-3.564856529,8.992030144,-148.7951202,-1.514832854,-0.815519094,12.67509651,-2.395456076,5.813739777,0.674422741
0.008333,-3.551315784,8.986163139,-148.7962646,-2.022731066,-0.879191697,8.136058807,0.819501817,-1.169712305,-0.773895681
0.016666,-3.522022009,8.944589615,-148.7919617,-1.149990082,-0.475863338,8.131666183,2.641775608,-5.465758324,-0.256513774
0.024999,-3.517233849,8.912445068,-148.7982941,-0.671136081,-0.843806446,11.20348072,-0.132182255,-4.281483173,-1.5788486
0.033332,-3.502704382,8.925046921,-148.7926331,-3.576292753,-0.193548828,12.98888397,0.845039189,1.014374852,0.309957892
0.041665,-3.513293505,8.923699379,-148.803009,0.569230974,0.264605701,8.09422493,-1.904585004,-0.564320028,-1.829689026
0.049998,-3.530847311,8.893503189,-148.8032379,-1.641998529,-2.002741098,4.762776852,-2.896060944,-4.068962097,-0.70573622
0.058331,-3.530363083,8.864916801,-148.7897797,-1.44379735,0.080718346,7.409237862,-1.013312101,-3.997549772,0.782309949
0.066664,-3.528647423,8.821639061,-148.8110504,-2.527615547,-1.112702966,14.8607893,-0.194091842,-5.48309803,-3.293875217
0.074997,-3.540182352,8.868353844,-148.8014679,-2.930171967,-1.440062642,10.49171162,-2.385415316,5.049693108,0.883383811
0.08333,-3.570670128,8.811166763,-148.824707,1.933809876,-0.167771578,7.368534088,-4.023266792,-7.132911682,-3.631573677
0.091663,-3.624262333,8.786557198,-148.839798,-2.977396965,-1.219040751,12.92691803,-6.976614475,-3.305069447,-2.563716173
0.099996,-3.68558383,8.833975792,-148.8605652,-2.197798967,-0.118221506,11.23116398,-7.770961761,5.380884647,-2.549269676
0.108329,-3.7395401,8.796345711,-148.8751373,-1.850791097,-1.12900424,6.50124836,-7.024947166,-4.86676836,-2.642095327
0.116662,-3.835746288,8.787819862,-148.8836517,-0.355066121,-1.549462318,4.913639545,-12.18201542,-1.409282446,-1.531334281
0.124995,-3.914299011,8.781699181,-148.9195404,-2.211155176,-0.954590023,11.30065441,-9.592264175,-0.923098922,-4.844229221
0.133328,-4.014201164,8.795320511,-148.917511,-2.667942047,-1.838668466,15.42117786,-12.82011795,1.159095407,-0.099933945
0.141661,-4.136823654,8.781269073,-148.9420929,1.389966965,0.433930486,6.24673748,-15.08682632,-1.956914902,-3.551222324
0.149994,-4.282703876,8.745859146,-148.9714203,-3.547255039,-1.884954333,10.43977737,-17.76392365,-4.436885834,-4.235404491
0.158327,-4.457420349,8.748991013,-148.9829865,-0.531730771,-0.425419271,15.66279221,-21.57301903,0.001588083,-1.89659369
0.16666,-4.656840801,8.782328606,-149.0285492,-3.787950277,-2.402755737,3.88141489,-23.8928299,3.962267876,-5.525492668
0.174993,-4.876397133,8.731724739,-149.0388336,2.110770226,-0.914950669,4.985366821,-26.97112846,-6.429907799,-2.285290956
0.183326,-5.137064457,8.741894722,-149.1045837,-4.035343647,-1.709014416,15.78686142,-30.87612915,1.441800952,-8.118068695
0.191659,-5.414482117,8.798272133,-149.1069336,-2.093919039,-1.513932347,12.4514246,-34.05617523,6.288070679,-0.229619056
0.199992,-5.749085426,8.729973793,-149.1897125,1.474928737,-1.473711252,6.338805199,-39.4349556,-7.656452656,-11.02250004
0.208325,-6.122763157,8.739966393,-149.20784,-5.378620625,-3.313373089,15.16448689,-45.31854248,0.948317587,-2.570687532
0.216658,-6.552017212,8.722244263,-149.2914429,0.983450651,-0.314066142,10.46484661,-50.78529739,-1.473628879,-10.54511166
0.224991,-7.039732456,8.718011856,-149.3196411,-3.354498625,-4.016577721,2.849735975,-58.82489395,-0.579254866,-3.899125814
0.233324,-7.566045761,8.594261169,-149.3944397,1.654827714,0.014243044,14.04616833,-62.6032753,-14.05679798,-11.14406395
0.241657,-8.138250351,8.708935738,-149.4595337,-6.930155277,-4.091742516,14.15244007,-68.30350494,14.21386242,-6.239283085
0.24999,-8.784187317,8.50368309,-149.5101929,7.136939526,-0.522223413,4.81223011,-77.40229797,-23.93235207,-10.0261488
0.258323,-9.494251251,8.532212257,-149.6007385,-9.681640625,-3.771723986,19.69773483,-84.40699005,4.622450829,-10.52412319
0.266656,-10.22078514,8.463215828,-149.6442566,5.470909595,0.119046845,3.504287243,-87.21148682,-7.727214336,-6.96221447
0.274989,-10.99347782,8.332466125,-149.7099762,-5.308136463,-2.40892148,6.05978632,-92.38693237,-14.46058941,-10.97231293
0.283322,-11.76187229,8.281209946,-149.7550507,0.708957553,0.511998355,17.19408989,-92.22750854,-5.428991318,-6.914269447
0.291655,-12.57787895,8.192820549,-149.8581696,-4.552427292,-2.491237879,9.60135746,-96.97512054,-8.271355629,-14.59684372
0.299988,-13.43234348,8.096111298,-149.880127,3.04377985,-0.858986557,6.975566387,-102.9638214,-11.17478943,-5.609763145
0.308321,-14.31327248,7.97334528,-149.9771576,-5.763506889,-0.755150139,18.38344765,-104.9203186,-12.03410912,-15.06694126
0.316654,-15.20129776,8.002495766,-149.9956665,-0.102442369,-1.659739614,6.979249001,-107.0563736,3.488898993,-1.691440344
0.324987,-16.10872459,7.764534473,-150.0774078,0.879099071,-0.076869033,1.108071089,-108.3983612,-25.38571739,-17.38881302
0.33332,-17.01897812,7.717068672,-150.0828247,-3.71310091,-2.394462347,14.37113953,-109.9443207,-5.731490135,-2.697092533
0.341653,-17.92578697,7.599049091,-150.1767426,-1.378767252,1.855195284,18.30260849,-108.1766434,-10.67882729,-15.21764088
0.349986,-18.83664513,7.535094738,-150.1971741,-2.666454077,-0.936718047,8.625183105,-109.7794647,-6.972000599,-5.181495667
0.358319,-19.76036453,7.410441875,-150.2731476,1.86577785,-0.991426945,4.418464661,-110.5520706,-11.65953636,-13.79145718
0.366652,-20.6402359,7.263632298,-150.2688904,-3.813991785,0.232025445,12.52964401,-106.4508438,-17.16241837,-6.064681053
0.374985,-21.51900673,7.229279041,-150.3415985,-2.717890739,0.945113361,13.45271778,-105.2579346,-1.268672705,-9.876087189
0.383318,-22.34597206,7.113767624,-150.3617859,-1.579014063,-0.481222093,8.378566742,-99.73471069,-12.41480732,-7.861451149
0.391651,-23.17969894,7.016837597,-150.3864288,0.048435591,0.752809703,6.244516373,-100.6168213,-10.13832092,-7.517012596
0.399984,-23.98745155,6.91905117,-150.4123535,-1.38219285,-0.733134091,5.616802216,-97.35377502,-9.972486496,-7.982141495
0.408317,-24.71875191,6.751027584,-150.3912659,0.33096233,2.471499681,11.45838356,-89.00514221,-19.9538269,-6.347138882
0.41665,-25.41300964,6.685215473,-150.4229584,-4.545555592,0.253935724,13.36810398,-83.6641922,-6.006947041,-7.224680424
0.424983,-26.0330925,6.60775423,-150.3988342,-1.126549602,2.153557301,11.9681139,-75.73267365,-10.17731857,-1.773705244
0.433316,-26.62617683,6.483200073,-150.4235535,-2.157681942,0.935535669,10.68377209,-71.63040161,-12.54215813,-9.729266167
0.441649,-27.11430359,6.458651543,-150.4229126,-2.278102398,1.646514297,8.222231865,-59.61289978,-3.228646278,-1.583771586
0.449982,-27.55758667,6.311308861,-150.4242554,-1.52221787,1.250058055,13.19967365,-53.97413635,-16.08746338,-8.717664719
0.458315,-27.96369553,6.27180481,-150.4344025,-1.007353067,1.274318814,5.745560646,-49.6667099,-4.207825661,-3.598871469
0.466648,-28.27967453,6.150010586,-150.4741364,-2.615272045,0.285057038,9.786362648,-38.19755173,-11.10966587,-11.52699947
0.474981,-28.56329536,6.084725857,-150.4479675,-0.945799768,1.072776794,8.533298492,-35.4651947,-8.963648796,-1.301063895
0.483314,-28.80919838,5.998190403,-150.5125122,-0.472540826,-0.143074736,6.566184044,-29.48940086,-5.867444992,-12.19654751
0.491647,-28.98122025,5.899425507,-150.4858551,-2.135030746,1.717576385,12.67916489,-22.09368706,-12.50573444,-3.257146358
0.49998,-29.1488018,5.85403204,-150.5474854,-1.581624269,-1.213901401,7.893388271,-20.14712715,-1.642833591,-9.530586243
0.508313,-29.22626114,5.75016737,-150.5111084,-1.651140571,1.610038042,11.23088455,-10.89193153,-13.60250664,-2.596195221
0.516646,-29.31108475,5.71181345,-150.5706482,-1.105036259,0.75332737,13.43234444,-10.2587204,-0.993589103,-8.906494141
0.524979,-29.35250282,5.621760845,-150.5459137,-3.484589338,-0.483559132,7.317085743,-6.461512089,-11.48408127,-3.01150465
0.533312,-29.35924721,5.606875896,-150.5888519,0.008274015,0.090567894,12.98290443,-1.099247694,0.504113793,-5.801662445
0.541645,-29.34699059,5.519832134,-150.5630646,-4.008747578,0.551050544,9.498195648,-0.058541339,-11.24558449,-2.713354588
0.549978,-29.30765915,5.511806965,-150.5935211,0.065742739,-0.733660936,10.38166428,4.277449608,0.487233996,-4.096932888
0.558311,-29.24518585,5.468679428,-150.5901947,-4.458445549,0.563848615,14.66149139,6.19900322,-5.355334282,-2.448733568
0.566644,-29.21612167,5.468430996,-150.6134338,-0.232058659,-0.849646986,8.74995327,2.959136009,0.874470055,-2.891040564
0.574977,-29.12041664,5.434209347,-150.6109772,-3.782027721,-0.450099409,11.84763527,10.15814495,-4.408145905,-1.966955543
0.58331,-29.07089424,5.482875347,-150.6427307,-0.090956882,-0.725641727,6.451169968,5.511415005,6.492516994,-0.930168152
0.591643,-28.99143791,5.423578262,-150.6531525,-2.027026653,-0.62893945,10.30518436,8.330338478,-6.30382967,-4.763722897
0.599976,-28.91449547,5.504674911,-150.6910248,-1.938334346,-1.324151278,9.609677315,8.872746468,10.25097275,0.298021674
0.608309,-28.85644341,5.445627689,-150.6899567,-1.556195259,-1.372574806,9.763298035,5.60344696,-6.975025654,-3.506243229
0.616642,-28.80272675,5.568466663,-150.760437,-1.28769803,-0.537520945,9.744941711,6.464957237,16.51672935,-0.720310926
0.624975,-28.73928452,5.497292995,-150.7595367,-0.881833553,-0.187774986,13.79443264,6.222774029,-8.280071259,-4.159304142
0.633308,-28.70736694,5.654869556,-150.8370056,-4.852999687,-2.851107836,14.82129192,3.940777063,20.57497597,0.518816531
0.641641,-28.6463623,5.586432934,-150.812439,1.612905502,0.357974172,8.028585434,5.615408897,-9.382917404,-1.478492141
0.649974,-28.61825371,5.754064083,-150.8985443,-6.958565712,-1.162954569,19.47193336,3.598929644,22.12681389,0.161497816
0.658307,-28.61922455,5.71746254,-150.895401,2.247527361,-2.343607426,0.696560681,-1.613043427,-4.823941708,-1.868468761
0.66664,-28.61592674,5.854979515,-150.9698792,-3.458960533,-0.905550539,18.43212318,0.501091361,18.28877068,-0.354385793
0.674973,-28.65083122,5.862339497,-150.9813843,1.745366096,-1.409018397,-0.425495923,-5.532329559,0.606007218,-0.803710699
0.683306,-28.67589378,5.925682068,-151.006897,-5.064442158,-1.43862319,16.54876518,-3.487313747,7.675971508,0.519968987
0.691639,-28.70125389,6.049324512,-151.0762787,1.763399839,-0.250911444,8.053444862,-3.677295685,16.14475822,-0.143939227
0.699972,-28.75383377,6.023717403,-151.0606384,-4.775193691,-0.836874545,16.72411728,-7.302400589,-4.04706192,-0.292476147
0.708305,-28.81855011,6.245908737,-151.174469,-2.194301844,-2.240428209,11.38560963,-7.843763828,29.06385612,0.924469769
0.716638,-28.88472366,6.184492588,-151.1246796,0.568252385,-0.287140429,4.991463661,-9.381917953,-9.775661469,1.191856027
0.724971,-28.96791267,6.365658283,-151.2205505,-4.527122498,-0.955053091,13.88052082,-10.27919102,23.704813,0.509569883
0.733304,-29.05444717,6.31679821,-151.1932678,3.085048437,-1.594593763,-0.84254539,-11.54155922,-7.161447048,-0.452052921
0.741637,-29.12257767,6.439239025,-151.2579498,-4.58617115,-0.400890976,21.95112801,-8.878883362,15.73769855,0.401861876
0.74997,-29.22932434,6.476039886,-151.2891235,1.124640584,-1.559174895,0.899849534,-13.18361092,5.212702751,-1.548291087
0.758303,-29.28391647,6.460166931,-151.265686,-4.483876705,-0.132687449,19.64180183,-8.462240219,-3.887793303,1.50742352
0.766636,-29.37088585,6.632696152,-151.3505859,-1.81831336,-1.169980526,11.14579964,-10.0698967,22.55281067,0.86138171
0.774969,-29.45547485,6.519375801,-151.3045959,0.410200924,-0.539114594,8.728604317,-12.4195137,-15.41596889,-1.895722866
0.783302,-29.54496765,6.717321396,-151.3973846,-4.813051701,-0.723860264,17.4913063,-10.25175858,25.66617203,1.615490913
0.791635,-29.63279915,6.646646023,-151.3620453,1.427132726,-2.166208506,-3.865656853,-12.70928669,-10.33930302,-0.519059777
0.799968,-29.70872116,6.721922874,-151.3790894,-3.476412296,0.212330297,22.55293274,-9.666133881,8.400137901,2.249903202
0.808301,-29.79922485,6.769019604,-151.4236603,1.564872026,-1.637625337,0.486247778,-11.92856407,6.663723946,-1.813936472
0.816634,-29.86411476,6.700749397,-151.3605804,-2.771556139,-0.232158959,13.9933691,-9.469009399,-11.30063152,1.9887923
0.824967,-29.93353653,6.838330746,-151.4476776,-2.40460062,0.195803434,17.13121033,-8.800683022,18.6182518,-0.794489861
0.8333,-30.00059128,6.740651131,-151.3865662,-0.591219068,-2.478847027,0.685337365,-9.708527565,-14.24688339,-0.000883691
0.841633,-30.03691864,6.819412231,-151.4278564,-5.066749096,0.495610893,21.61733627,-5.491397858,9.77636528,0.436005533
0.849966,-30.11066818,6.858224392,-151.4427643,-0.078836203,-2.562726021,3.248645067,-9.433326721,4.46614933,0.342487961
0.858299,-30.14242172,6.786797523,-151.4088135,-0.323592216,0.594117343,10.84508228,-6.035470009,-10.33138752,-0.818208396
0.866632,-30.19975662,6.87691164,-151.4674377,-4.752555847,-0.403484374,15.45483875,-6.838989258,12.40505409,-1.057599187
0.874965,-30.22333527,6.83931303,-151.4391174,1.812286973,-3.120950699,-2.884514093,-5.00372839,-6.479415417,0.610028565
0.883298,-30.25284195,6.867897987,-151.4425659,-4.546649456,0.767737031,18.83979225,-4.288245201,2.715364695,0.919089794
0.891631,-30.27075577,6.91257906,-151.4684143,2.13683486,-1.432764053,5.376867294,-3.550836802,5.280169487,0.040086273
0.899964,-30.30363655,6.853515148,-151.4190674,-2.267234564,-1.467178106,11.37776184,-5.450440884,-9.538985252,1.046623468
0.908297,-30.32034683,6.900581837,-151.4322662,-2.78008008,0.00845633,14.1004343,-3.584341049,4.795650959,1.462419152
0.91663,-30.33267212,6.932515144,-151.4519958,-1.696534872,-1.706439853,7.617434502,-1.988676667,4.040543079,-0.549540579
0.924963,-30.34179115,6.86088419,-151.410202,-2.135982037,-0.931921422,13.33647728,-3.477017403,-10.83357906,-0.038895216
0.933296,-30.34495926,6.967821598,-151.4679413,-4.427348137,-1.170352936,15.67638397,-0.340400457,14.09518528,0.093107775
0.941629,-30.36890221,6.947915554,-151.4650269,0.954690576,-1.490083337,6.178849697,-4.707396984,-3.131711721,-0.9247123
0.949962,-30.38625908,6.922687531,-151.4643707,-3.029940605,0.214932039,13.8157692,-2.886634827,-3.105585337,-1.919236422
0.958295,-30.36303329,7.010571003,-151.5246429,-2.645509958,-0.686806917,10.90961838,1.875704885,11.8499403,-0.897612572
0.966628,-30.36497879,6.976507187,-151.4948883,0.164233044,-2.463988066,2.760233402,-1.464353085,-5.771412373,0.536234021
0.974961,-30.34235001,7.014353275,-151.5101471,-2.930598021,0.972504973,19.83230972,1.16734302,3.954811811,0.701266527
0.983294,-30.3521595,7.068039894,-151.5359192,-0.291406393,-2.363937855,4.215751648,-1.593474269,6.656422615,0.151508197
0.991627,-30.3157196,7.00383091,-151.4948578,-0.527077556,-1.353506923,5.667250156,1.992147207,-10.01535797,0.334496319
0.99996,-30.29928589,7.097352982,-151.5323181,-4.760552406,-0.808704734,18.60239601,1.729114652,11.48486042,1.358271718
1.008293,-30.2610817,7.113792896,-151.552887,0.17151095,-1.627361417,3.71378541,3.11989069,2.059614897,-1.146352291
1.016626,-30.2213707,7.116073608,-151.5414734,-5.029886723,-0.526997387,15.74200058,3.800127745,-0.903221905,0.855848372
1.024959,-30.17754173,7.240139961,-151.6065979,-1.603609204,-0.511008024,12.67675781,4.481698036,15.89681149,0.745476902
1.033292,-30.1131134,7.227778912,-151.5957336,0.196563467,-1.475118279,3.907843828,6.77161026,-2.387336493,-0.079673082
1.041625,-30.03866386,7.243843555,-151.6039581,-3.635026455,0.245777473,16.51524162,7.312864304,1.266982555,0.130248398
1.049958,-29.94958687,7.352878094,-151.6618347,-1.243407249,-1.878378749,7.325912476,10.77529621,14.32059002,0.120284475
1.058291,-29.86617661,7.301152229,-151.6134949,-1.682042837,-1.893939853,4.543860435,7.532584667,-9.134460449,1.893506885
1.066624,-29.75264931,7.404921532,-151.6621246,-2.143526554,0.4859806,16.48813248,13.57531738,13.2268858,0.71476537
1.074957,-29.66431427,7.416614056,-151.658905,0.50488621,-2.212564468,0.22123836,8.822694778,0.145258322,1.035327315
1.08329,-29.52538872,7.430520058,-151.647522,-3.2991817,0.196648315,14.7002573,15.70112133,0.325838745,1.548713803
1.091623,-29.38695335,7.578936577,-151.716095,-2.907227278,-0.999134541,10.94602776,15.98185539,18.64407158,1.662262082
1.099956,-29.22392082,7.552755833,-151.6873932,-0.632027566,-1.507874966,7.60948658,18.31653976,-4.865463734,0.98671186
1.108289,-29.0480957,7.688236237,-151.7454529,-5.100140572,-0.57014221,19.84023285,20.33935356,16.69319344,1.889563322
1.116622,-28.87781525,7.774030685,-151.7792511,-0.031474188,-1.583390594,5.22974205,20.18479156,10.4986639,1.016296387
1.124955,-28.70501137,7.79116106,-151.774353,-1.599368811,-0.832690954,12.47990131,18.98302078,0.651575089,1.516900897
1.133288,-28.54465866,7.918232441,-151.8473206,-2.50747323,-1.862641573,12.45403576,19.64398003,17.0857296,-0.762907565
1.141621,-28.36237907,7.926587582,-151.8398285,0.654497206,-1.056381822,0.141184419,20.08625603,-0.415296555,1.294697642
1.149954,-28.18142891,7.963471413,-151.8601532,-4.460319042,-1.26082921,15.69224453,21.25667381,4.586026192,-0.482662052
1.158287,-27.99779892,8.084957123,-151.9194489,1.282126904,-1.939714909,10.45254517,21.39243317,15.32221317,0.667020679
1.16662,-27.84680748,8.0365839,-151.9044647,-2.011716604,-1.269417763,6.757297516,17.07081413,-6.41773653,-1.600390434
1.174953,-27.66310692,8.137005806,-151.9434357,-2.945730686,-0.56303066,18.59985352,21.08690262,11.96349335,1.561828732
1.183286,-27.52361679,8.171250343,-151.9674835,-1.888378501,-2.806624413,6.54909277,16.35261726,4.509719372,-1.082060695
1.191619,-27.35773659,8.162191391,-151.9419403,0.09791632,-1.515652895,5.629439354,17.87143898,-3.208580732,2.230667353
1.199952,-27.22512245,8.164683342,-151.9598846,-2.249545813,-1.263671398,11.8218956,15.42481804,0.787330508,-2.211827755
1.208285,-27.07001114,8.189403534,-151.9609528,0.051916465,-2.248956203,7.560257912,17.05760002,1.85762167,1.289907694
1.216618,-26.9717865,8.130822182,-151.9365692,-2.033738136,-1.056414127,12.25158215,10.57591248,-8.034814835,-1.065846801
1.224951,-26.84880829,8.170722008,-151.9646149,-3.815167189,-2.748529673,16.55018806,13.68007755,4.945058823,-0.748050988
1.233284,-26.74748421,8.174764633,-151.9683533,-0.720408857,-1.200128675,8.440958977,11.42733002,0.177609101,-0.629841268
1.241617,-26.65012169,8.085142136,-151.953537,-1.549142599,-1.85503912,5.383543491,9.897956848,-11.22199535,-3.210988283
1.24995,-26.56572151,8.1210289,-151.9585571,-1.118909001,-1.940918207,15.82463264,9.417971611,3.661683321,0.943295538
1.258283,-26.51056862,8.03788662,-151.9626007,0.55278343,-2.423835278,2.907766819,5.171336174,-9.535553932,-4.821432114
1.266616,-26.46101761,7.971582413,-151.920517,-3.602051497,-1.032924056,15.95298195,4.448527336,-9.806859016,0.473914593
1.274949,-26.43028831,7.993145943,-151.9460602,-3.386566639,-2.86978364,13.26088428,2.62174511,2.85316968,-1.504721045
1.283282,-26.40259552,7.943017483,-151.9163055,0.59095341,-0.713488638,0.267656446,2.032515764,-7.416436195,0.038216446
1.291615,-26.39355278,7.813797951,-151.8794556,-1.065297484,-2.781224966,9.267217636,-0.987979591,-16.65703011,-2.89042592
1.299948,-26.36031342,7.816104889,-151.8716431,-2.918441296,-1.984495163,13.02228928,3.066766739,-0.618647814,0.500066698
1.308281,-26.37334442,7.715282917,-151.8492279,0.067957737,-0.843759358,7.999966145,-3.371768713,-12.83482075,-2.917448997
1.316614,-26.37372208,7.638012886,-151.805069,-4.403315067,-2.205806017,18.04722786,-1.54839325,-11.09571552,0.133014739
1.324947,-26.36789703,7.657179356,-151.8496857,-1.93156004,-0.879316211,9.126878738,-0.018224528,3.611043453,-3.664000273
1.33328,-26.38850403,7.514930248,-151.7722168,-0.493162543,-1.950369954,2.040053129,-4.496131897,-19.8439045,0.218515113
1.341613,-26.40954399,7.482690811,-151.7887421,-2.114372492,-1.88626492,17.87849808,-3.672786951,-3.404784918,-3.391568184
1.349946,-26.44631767,7.42943573,-151.7674561,-1.46170342,-1.826028466,4.288392544,-5.541089535,-7.306064129,-1.029269814
1.358279,-26.4599514,7.319405079,-151.7350769,-1.922304153,0.366084069,11.91865826,-3.523584843,-14.35584927,-2.330755234
1.366612,-26.47556496,7.343577862,-151.7436981,-5.223541737,-2.980398417,13.83418274,-2.539459705,2.599435091,-0.078213073
1.374945,-26.48413849,7.258642673,-151.7173462,2.280550718,-0.896759868,0.982534945,-2.804822922,-11.32532215,-1.674389839
1.383278,-26.5201664,7.148180008,-151.6782074,-4.663334846,-2.290974617,12.27391815,-5.707864285,-14.39652252,-2.198483229
1.391611,-26.53179932,7.176208973,-151.6977234,0.35092628,-1.554488659,9.332151413,-2.462437153,3.220503092,-0.46155569
1.399944,-26.56842041,7.025156498,-151.6406555,-2.017215252,-0.324756503,10.8497982,-6.037418365,-19.70784378,-2.475091457
1.408277,-26.57879066,7.049301147,-151.6538696,-4.362315178,-1.485512614,20.57527161,-2.389897823,2.488217831,-0.025037913
1.41661,-26.58638382,7.023211002,-151.6591339,-1.494776249,-1.676976681,2.419377804,-1.630179524,-2.972723961,-2.415204525
1.424943,-26.58738708,6.910305023,-151.6009369,-1.580253005,-1.269321084,8.894062042,-2.29617548,-16.03155518,0.230553761
1.433276,-26.58231163,6.971127987,-151.6499329,-1.162557125,-3.15070343,10.06185627,0.522197485,8.683662415,-2.405087233
1.441609,-26.59050369,6.807130814,-151.5685425,1.234624982,-0.428873628,2.263866663,-3.467003822,-22.75312424,-0.029417966
1.449942,-26.55804253,6.856019974,-151.5982208,-6.668873787,-0.668538451,23.58447075,3.521778345,6.373334408,-0.991719246
1.458275,-26.54767799,6.858131409,-151.5753937,-0.631684482,-2.296886683,3.407147408,-0.388145298,-1.79785037,2.641596079
1.466608,-26.49646568,6.787370682,-151.5444489,-2.885961294,-0.318203926,10.31123257,4.908558846,-9.700585365,-0.946023345
1.474941,-26.45724106,6.889293671,-151.5707855,-1.796699047,-2.070242405,9.7603302,3.795825243,11.54490089,2.734806776
1.483274,-26.42266273,6.755614758,-151.5105591,1.494740725,-2.420893669,-3.890840292,2.495006561,-18.01363945,-1.170225143
1.491607,-26.37381363,6.840963364,-151.5354004,-6.096568584,-0.245348394,23.59918785,4.94920826,9.682232857,2.008361101
1.49994,-26.33684158,6.825699806,-151.546051,0.167989999,-3.7648592,4.908350945,3.792290211,-1.532973528,-2.40360117
1.508273,-26.26227951,6.830998421,-151.5101929,-6.476290703,0.782249808,20.38488579,7.177185059,-2.121870518,4.204371452
1.516606,-26.22211838,6.97439003,-151.5707397,-0.489215136,-1.746718526,6.948091507,4.897058964,18.16741371,0.686948359
1.524939,-26.16796875,6.889469147,-151.5110168,1.001682281,-1.739409328,2.950849056,4.37506628,-13.08489513,1.976958632
1.533272,-26.14105988,6.959731579,-151.5613098,-3.815211296,-1.703829885,15.69371605,3.160566568,9.753518105,-2.113494873
1.541605,-26.08501434,6.999400616,-151.5620117,-1.233062863,-2.958606005,1.815221429,5.493818283,3.524365187,2.093144178
1.549938,-26.01159096,7.025317192,-151.556488,-4.117711544,-0.121053465,17.29302406,7.9354949,2.049190044,1.505707145
1.558271,-25.93606567,7.192488194,-151.6232605,-1.968490124,-0.837595999,10.28607941,8.816167831,20.71964455,1.730088592
1.566604,-25.85904884,7.142837524,-151.5820007,0.492205977,-2.675024509,1.451466799,7.830400467,-7.961839676,1.365674376
1.574937,-25.780159,7.303009033,-151.647171,-4.244261742,-0.714798689,14.02174854,9.224511147,19.8802166,1.500918031
1.58327,-25.6996727,7.336456776,-151.6443634,1.977503538,-2.086961508,-0.612913907,8.819647789,3.015692472,1.588671803
1.591603,-25.5891819,7.38432312,-151.6498871,-5.640143394,-1.22209394,20.46350479,12.13205528,4.670269489,1.998422623
1.599936,-25.47700119,7.593559265,-151.7287445,-1.424873829,-1.278531909,12.43074799,13.9002409,26.24467087,1.905111194
1.608269,-25.38941002,7.590624332,-151.7164154,-1.12867856,-3.09421277,4.550382137,9.100252151,-1.733430624,1.264831185
1.616602,-25.27195549,7.751313686,-151.7895508,-0.966358662,-1.029795289,15.74807739,14.46989918,20.69592857,-0.064765632
1.624935,-25.1890583,7.753406525,-151.7815247,0.113432288,-1.954741359,-1.394653916,8.613811493,-0.955423832,1.051080227
1.633268,-25.06447411,7.783919334,-151.7749023,-2.339536428,-1.79785037,15.27324867,14.04823112,2.527561665,1.812719584
1.641601,-24.94620132,7.946866512,-151.829895,-4.623184681,-1.091677427,15.77854061,13.90331078,19.70893288,2.431380987
1.649934,-24.84667778,7.941639423,-151.8184509,2.061833858,-3.11216116,1.911198139,10.95633602,-1.596164107,0.517330825
1.658267,-24.75239563,7.952812672,-151.8092194,-2.326891422,-1.741456509,9.275252342,9.987350464,0.024692126,1.569512486
1.6666,-24.65649796,7.992043018,-151.8206482,-0.793926835,-1.602986455,6.920831203,10.90162468,4.389998913,0.281654179
1.674933,-24.5806942,7.974602699,-151.8087769,-1.773415089,-3.048552036,11.06101418,7.721231937,-3.26170373,0.51328367
1.683266,-24.48631287,7.975445271,-151.7960968,-3.952254534,-1.110570312,17.67693138,10.31887531,-0.989542007,0.961507201
1.691599,-24.38528633,8.108949661,-151.8407135,-2.978338242,-0.420747757,12.93258381,11.69915199,16.02273178,1.875833392
1.699932,-24.31572914,8.04621315,-151.7927094,1.578919291,-3.081032753,-0.866940975,6.742922783,-9.664931297,1.639362454
1.708265,-24.2373867,8.046336174,-151.7882996,-2.08479166,-1.883597732,13.81323433,8.170659065,-0.944384038,0.541075051
1.716598,-24.18726349,8.073925972,-151.8050232,-2.613545179,-1.419885755,11.91670799,5.499119759,3.378927231,-0.907397032
1.724931,-24.10108376,8.065166473,-151.7904816,-2.607676983,-2.535743237,8.259343147,8.939344406,-2.420097351,1.234247684
1.733264,-24.02061272,8.08960247,-151.7877655,-3.960650206,-1.477765322,13.69918633,8.814346313,2.090327024,1.038759828
1.741597,-23.949646,8.133037567,-151.8044128,2.605160952,-2.432178974,0.465313673,7.650921822,4.828873158,0.360597253
1.74993,-23.88298035,8.033657074,-151.7415619,-1.777034998,-1.883384466,6.050810337,6.143498898,-14.38297176,1.539441466
1.758263,-23.81077576,8.094937325,-151.7572021,-4.839995384,-0.986382067,22.74731827,7.788521767,6.726785183,1.364470482
1.766596,-23.74542618,8.173368454,-151.778656,-1.408216,-2.090962172,10.4337492,7.410711765,9.184267044,1.011429429
1.774929,-23.70552063,8.118688583,-151.7503357,-0.913177013,-3.843268156,6.454681396,3.179495335,-8.068061829,0.439335376
1.783262,-23.6549263,8.181095123,-151.7561798,-2.342880249,-2.343047857,10.38025856,5.374045849,6.681499004,1.920632124
1.791595,-23.62922668,8.178926468,-151.7552643,1.132384777,-1.144921422,2.494812489,1.945887804,-1.00014627,0.023437023
1.799928,-23.59253502,8.140518188,-151.7340851,-4.62616539,-3.280916452,15.5457983,3.245707989,-5.684938431,0.005481447
1.808261,-23.57772827,8.264264107,-151.7817993,-2.553898811,-1.123856306,13.9935894,1.476891398,15.15914726,0.779543817
1.816594,-23.62216759,8.206443787,-151.7488861,0.687951326,-3.611193895,-3.619253635,-6.696675777,-8.378890038,0.352503121
1.824927,-23.62303734,8.198711395,-151.7404022,-1.309401512,-1.03755486,14.69965076,-1.359437227,-1.981786251,0.608235717
1.83326,-23.63596916,8.299467087,-151.7887573,-5.958215237,-1.378084421,16.79110718,-1.516683102,12.92417622,-0.866158247
1.841593,-23.64673996,8.271075249,-151.7744904,1.451225519,-3.225138664,1.586796641,-2.647346497,-4.513574123,0.204708979
1.849926,-23.65235519,8.29104805,-151.7707977,-2.538128614,-1.260741353,14.59896851,-1.534664035,1.563928246,0.912430227
1.858259,-23.67699432,8.298874855,-151.7750397,1.705995917,-1.670247674,3.468560696,-3.992016792,0.326735169,-0.008414276
1.866592,-23.68660164,8.244889259,-151.7325134,-4.71827507,-1.777849197,13.36476231,-2.684436083,-8.417131424,1.571714997
1.874925,-23.70008469,8.353222847,-151.7587128,-4.411335468,-1.072079301,17.89455223,-2.261596441,12.4409132,2.408967972
1.883258,-23.70771599,8.382838249,-151.7591553,2.307579994,-2.410126925,-4.573060036,-1.70497334,2.81866765,0.928669751
1.891591,-23.71803856,8.279793739,-151.6981964,-1.250824809,-2.562602282,6.708714962,-3.393002987,-14.95306873,1.704883814
1.899924,-23.68998909,8.32849884,-151.7115631,-3.112192154,-0.815915048,14.59841919,2.801480293,5.534801006,0.442767709
1.908257,-23.68492317,8.320280075,-151.7098389,-1.869687676,-2.643658876,12.52951527,-0.505893946,-1.686607838,-0.203620374
1.91659,-23.65674782,8.275143623,-151.6906738,-2.737190247,-1.557886124,13.30610085,2.251926661,-6.329187393,-0.540447533
1.924923,-23.62721443,8.350611687,-151.720932,-2.591661692,-1.02812171,12.6432066,2.973838806,9.002354622,0.424837738
1.933256,-23.63606834,8.251905441,-151.6791077,2.897147179,-3.086280823,-5.73995924,-2.584156513,-13.29879665,-0.651357234
1.941589,-23.60496521,8.216949463,-151.6659698,-3.396267414,-1.825175166,18.2090416,2.438398361,-5.146348476,-0.286277503
1.949922,-23.58713341,8.242661476,-151.6794128,-3.654432297,-0.953589201,14.14127254,1.574737668,3.010159492,-0.678482711
1.958255,-23.52326012,8.218263626,-151.6641235,-0.986751497,-2.052834034,1.836775541,6.320927143,-4.126568317,0.542381406
1.966588,-23.47097969,8.161714554,-151.6301727,-2.456577063,-2.284198999,9.988958359,4.895597935,-8.284835815,0.540562868
1.974921,-23.40501404,8.165190697,-151.6235046,1.482316732,-1.250520349,6.591597557,6.725325584,-0.652304947,0.949903965
1.983254,-23.37197113,8.036092758,-151.5737,-2.662413836,-2.357541561,7.897514343,2.325158119,-17.02290535,-1.169994473
1.991587,-23.31318665,8.059837341,-151.5545654,-4.33589077,-1.874950171,19.53567886,5.666585922,1.010763288,3.247500658
1.99992,-23.2450676,8.111680984,-151.5856476,-3.009906769,-1.06626451,11.50368977,7.901992798,6.718358994,-1.38566637
2.008253,-23.19667244,8.033449173,-151.5416412,0.854238212,-2.223786354,2.466195822,3.991850853,-11.40280342,1.156943798
2.016586,-23.13876534,8.010899544,-151.5467072,-3.232806206,-2.775891066,13.87064648,6.237271786,-2.706899881,-2.068387985
2.024919,-23.10120964,8.02718544,-151.5549927,-0.511503696,-1.740204573,5.835643291,3.584917068,1.491542578,-0.129620835
2.033252,-23.0418911,7.958883762,-151.5404053,-2.211006403,-1.922208548,9.588783264,6.078181744,-8.675068855,-2.069131136
2.041585,-22.98702431,7.962664604,-151.542099,-3.316438675,-1.698135018,13.06422234,5.555497169,-0.197011888,0.00653163
2.049918,-22.93631363,7.981159687,-151.5550385,-0.576847315,-2.792669535,5.829842567,5.503372192,2.18930006,-1.00257957
2.058251,-22.89793968,7.900976658,-151.5097809,0.501020253,-2.352398396,3.427877426,2.798790932,-11.65733433,1.238806963
2.066584,-22.83625984,7.868006706,-151.5092163,-4.17890358,-0.064794049,18.07708549,6.595948696,-4.127799034,-1.925819516
2.074917,-22.76890373,7.958876133,-151.5362244,-2.381786823,-1.911976695,15.2000742,7.475695133,10.60998154,1.270082116
2.08325,-22.71853447,7.897558212,-151.5228271,-0.5982126,-3.168897629,2.389840126,5.027409077,-7.857155323,-1.826333523
2.091583,-22.65522575,7.892821789,-151.5263214,-0.612294197,-1.717577815,13.23126411,6.610137463,-1.039925218,-0.620568931
2.099916,-22.62184334,7.862560272,-151.5333557,-0.995780349,-2.37569952,6.294253826,3.323677778,-3.484932184,-2.621322393
2.108249,-22.56732178,7.819240093,-151.5238953,-2.44477272,-3.005712986,8.792930603,5.344743729,-5.90996027,-0.961648166
2.116582,-22.52173996,7.833270073,-151.5297699,-3.859349251,-0.680271983,18.34156799,4.768577099,1.366109729,-0.451438099
2.124915,-22.46878433,7.869155884,-151.558136,-0.598644197,-2.901679516,6.492878437,5.770426273,4.572012424,-1.426700115
2.133248,-22.42999649,7.796518326,-151.5260468,1.592542171,-1.160296082,-0.923907816,3.332540512,-9.968484879,-0.254131675
2.141581,-22.38331223,7.707590103,-151.4963531,-2.782822132,-1.436143398,11.35738373,4.088903427,-11.87272549,-0.838725388
2.149914,-22.30836487,7.761063099,-151.5207062,-2.764749289,-2.487100601,19.4573822,8.591142654,6.58019495,-0.689906657
2.158247,-22.25388336,7.677179813,-151.5017395,-1.860664368,-2.58657074,8.579181671,5.186601162,-10.86032104,-1.698441386
2.16658,-22.17454529,7.644623756,-151.4831848,-1.731273174,-0.253581107,12.27247047,8.428875923,-4.905702114,0.115366511
2.174913,-22.10405731,7.628535748,-151.4881897,-0.126226276,-3.833487749,2.847973108,7.507483006,-2.21871829,-1.326574206
2.183246,-22.02628708,7.480800629,-151.4340363,-0.404121816,-0.565764129,7.084199905,7.681328297,-19.3055172,-1.141152978
2.191579,-21.94695663,7.530892372,-151.4586029,-6.810962677,-2.053171635,24.0955143,8.867828369,5.981180668,-0.420777917
2.199912,-21.89034462,7.566230774,-151.4514313,0.764092922,-2.650762081,-1.15959549,5.883769512,3.158747911,1.924551368
2.208245,-21.79684067,7.419882298,-151.3883667,0.563682139,-0.906211317,2.614560843,9.214724541,-19.72943497,0.343000382
2.216578,-21.6991291,7.470988274,-151.4104462,-5.713021755,-1.701430321,19.65116882,11.27190399,6.213860035,-0.617187798
2.224911,-21.59140015,7.458315849,-151.3880463,-0.141836286,-3.969732761,5.201180458,11.55386448,-3.051693201,1.876037836
2.233244,-21.47689819,7.440546989,-151.3710327,-1.945350051,0.989293277,17.62312317,12.67904949,-3.182761431,0.648552537
2.241577,-21.39824486,7.483800888,-151.3737946,-0.663115919,-3.983757496,2.404207468,8.45761776,4.301348209,1.546152353
2.24991,-21.29193878,7.351799488,-151.2950439,-1.18460381,-2.069934368,7.57068634,10.74010277,-18.62038803,2.511604548
2.258243,-21.18104935,7.569365978,-151.3525848,-5.967703819,0.203094199,23.22825813,13.18242741,26.1620903,3.047020197
2.266576,-21.09461975,7.45409441,-151.2832489,4.31170702,-3.751958609,-9.910891533,8.488175392,-16.33211517,2.254360676
2.274909,-20.95415688,7.413257122,-151.2434235,-3.370758295,-1.181471705,14.43595409,15.22410297,-6.915267944,2.607836723
2.283242,-20.83780861,7.492597103,-151.2437744,-2.437217712,-1.33408761,12.80110455,13.16961288,8.454875946,2.905858517
2.291575,-20.66567993,7.374436855,-151.1829071,-1.875074387,-0.801940203,13.27298546,18.69130707,-16.47563744,1.71774292
2.299908,-20.46479034,7.541556835,-151.2141571,-2.763017654,-1.642970681,8.532102585,23.79743385,19.62663841,3.114897966
2.308241,-20.29012871,7.341575623,-151.1158142,2.514368296,-1.33174026,2.151847839,18.41547203,-27.206707,2.552153111
2.316574,-20.07408333,7.458355904,-151.1433105,-6.867568493,-0.966132939,24.13877296,25.55598068,13.82629299,1.314216137
2.324907,-19.84164238,7.426508427,-151.09935,1.110774755,-2.344193459,-1.805082083,26.19541168,-5.998588085,3.524648666
2.33324,-19.59822655,7.408851624,-151.0657196,-4.840197563,-0.624337375,10.13988113,27.89381599,-3.800681353,2.600768805
2.341573,-19.34601021,7.415141106,-151.0487061,3.140229702,-2.371809721,3.631591082,28.99225807,-0.586604774,2.079236746
2.349906,-19.05222893,7.367506504,-151.000946,-7.427189827,0.126535043,24.516819,33.72166443,-7.721843243,3.035930872
2.358239,-18.80574226,7.542205811,-151.0287476,0.315611064,-3.572199106,5.784654617,29.00410461,20.30104446,3.548753738
2.366572,-18.51379585,7.330347061,-150.9431915,0.669998288,-1.472136497,0.696423829,32.90983963,-27.8014698,1.060687184
2.374905,-18.20380211,7.511292934,-150.9866943,-5.247454643,-1.239519358,20.4153614,36.87600327,21.64836693,1.786621451
2.383238,-17.90942001,7.412216187,-150.9144897,1.006653905,-2.435388088,0.382814407,33.40578842,-14.42192078,4.03094244
2.391571,-17.57864952,7.456964016,-150.8994293,0.344147652,-1.463798046,8.759658813,38.47608566,4.013576508,3.100760698
2.399904,-17.21120262,7.332668304,-150.812027,-1.688723326,0.392203003,9.087850571,41.94914627,-17.79970932,5.016530991
2.408237,-16.8146801,7.463935852,-150.7918091,-5.240260124,-1.535507202,19.1593914,46.28720093,13.80635834,6.677158356
2.41657,-16.37570381,7.333577633,-150.7198029,3.501033068,-0.447110057,-3.822821379,50.7702179,-17.89542198,3.29315424
2.424903,-15.88562012,7.295145035,-150.6517944,-4.067857742,-0.957172692,17.95929337,56.79475403,-7.212643147,6.214978218
2.433236,-15.3904295,7.303370953,-150.585022,-1.179666758,-0.58718133,9.480466843,57.61170959,-1.649113297,7.469926834
2.441569,-14.81063747,7.266218185,-150.4992828,-0.815640926,-1.164213657,2.400216341,67.3061142,-7.471177578,8.33231926
2.449902,-14.18928909,7.182328224,-150.4265289,-0.402967453,0.488420814,6.288527966,72.67152405,-12.36987782,5.414465427
2.458235,-13.5319128,7.115403652,-150.3392487,-3.795513391,-1.318486214,13.83084202,76.61805725,-10.79534245,7.815124035
2.466568,-12.80793285,7.085842133,-150.2825165,-2.400074482,-0.409116834,13.29724216,85.24594879,-5.449911594,5.319700718
2.474901,-12.0561285,7.032804966,-150.2158203,0.142217457,-0.929501653,7.222635746,88.29055786,-8.389527321,5.853329659
2.483234,-11.30161095,6.951797485,-150.1578369,-1.637645841,-1.147999287,9.310143471,88.90447235,-11.37529755,4.346561432
2.491567,-10.46609306,6.889692783,-150.0853577,-1.267586112,0.85053736,13.50212574,98.28115082,-9.40228653,6.478433609
2.4999,-9.558548927,6.84693861,-150.0061493,-2.027041197,-1.477626085,3.246006966,106.9799805,-7.148864746,7.951865196
2.508233,-8.635398865,6.691126823,-149.8968658,0.515218914,-0.202487409,5.178465366,108.3172531,-20.95616722,9.165538788
2.516566,-7.649517536,6.612309933,-149.8211212,-2.824734449,-0.848503292,14.92232037,116.4632339,-11.09725761,7.147533417
2.524899,-6.586885929,6.527492046,-149.7099915,-1.094128489,-0.320911348,11.63371181,125.0904922,-12.16989231,11.03625393
2.533232,-5.524218559,6.347690105,-149.6261749,0.525210202,0.716556668,10.11473274,125.6044617,-22.96696281,7.214276314
2.541565,-4.422416687,6.178467274,-149.5231781,-2.62097168,-2.020826817,15.24024773,129.9754181,-21.73013115,9.547289848
2.549898,-3.237421274,6.044848442,-149.4380951,-0.254324079,-0.208043963,8.762480736,140.3254852,-17.13167953,8.609506607
2.558231,-2.026223421,5.751492023,-149.326828,1.103062987,1.618978143,3.757698774,143.080368,-36.22774124,10.69284248
2.566564,-0.746662974,5.503025055,-149.2510986,-2.986190557,-0.529487491,13.76737022,151.8703918,-30.48259926,7.869116306
2.574897,0.598907471,5.312415123,-149.1336517,-2.164869308,-1.432454705,10.25756645,159.2454681,-23.3651619,13.06778622
2.58323,1.964069843,4.987569332,-149.0621643,3.106573105,1.400032401,11.00725651,162.263916,-39.23722076,8.961359978
2.591563,3.334153414,4.760726452,-148.9683075,-6.994568825,-1.011358738,22.75118637,162.5560455,-27.16797066,11.54469109
2.599896,4.690205097,4.538307667,-148.8704071,1.747595072,-3.026641607,1.505315781,160.9881744,-26.26121521,13.09819889
2.608229,6.096383572,4.226017475,-148.8171387,-0.997794688,-0.736854196,9.29322052,167.355957,-37.22438049,8.992366791
2.616562,7.55782795,4.031054974,-148.7513275,-4.827744484,-0.73983717,15.40235138,174.0202179,-22.74950409,10.15007019
2.624895,9.011827469,3.656267643,-148.7315826,3.449533224,-0.887319744,11.32504272,173.4178925,-44.69153976,8.030547142
2.633228,10.36278248,3.541735411,-148.7108765,-6.69359827,-2.403930664,24.10406303,161.1743927,-13.5871172,4.305980682
2.641561,11.68056488,3.220085621,-148.7195587,5.372149944,-1.369715333,-1.24128592,157.29599,-38.61941528,5.618536472
2.649894,13.01222706,3.100161314,-148.7429352,-10.32377911,-3.613467216,20.41544342,159.1688385,-15.11415863,-0.109388046
2.658227,14.30719662,2.866173506,-148.7684937,4.79538393,-1.73576057,4.115530014,154.6489258,-28.48945045,3.204897404
2.66656,15.49232197,2.814268589,-148.8106842,-8.305399895,-4.844950199,21.68224144,141.6789398,-7.777324677,-3.736914873
2.674893,16.62526894,2.640629053,-148.8050232,5.517385483,-0.988634586,5.014530182,135.0247192,-20.31884003,5.970341206
2.683226,17.69182396,2.617853165,-148.8448639,-6.448843479,-2.344417572,15.37592888,127.4188309,-4.477573395,-4.209772587
2.691559,18.73021698,2.530782223,-148.7932892,1.402694345,-4.243373394,17.40050697,123.4406967,-8.475186348,8.692334175
2.699892,19.60143089,2.500030994,-148.807785,-3.609317303,-3.345434666,14.7410078,103.831665,-4.511772633,-0.88058728
2.708225,20.36026764,2.55527401,-148.7261658,0.019826557,-5.25408268,8.468935013,89.7530365,9.091453552,6.486287594
2.716558,21.04881287,2.63688302,-148.6707306,-3.137197495,-3.145938158,10.82331085,81.53316498,11.05370808,2.301350117
2.724891,21.6600914,2.669291019,-148.5898438,0.785451174,-2.714222431,11.47186756,72.03688049,6.669951439,7.17611599
2.733224,22.219244,2.680501223,-148.5733948,-0.036391858,-3.047190428,12.78686523,66.21434021,1.527920723,0.873320699
2.741557,22.63845825,2.652544022,-148.472229,-0.035287604,-2.953492403,19.20506859,48.885849,1.045037508,12.04934788
2.74989,22.92042542,2.815217495,-148.3821411,-1.98293364,-3.374605656,9.499490738,32.52656174,21.72202682,1.944046021
2.758223,23.20798302,2.760473251,-148.2737732,2.358625174,-3.093035698,-0.635096729,33.03309631,-1.437485099,14.08197689
2.766556,23.47223473,2.848157883,-148.1864471,-2.687467098,-2.482645512,9.600179672,30.40202332,13.35148335,4.99196291
2.774889,23.7562561,2.716463089,-148.1206512,3.532264233,-2.265531778,10.02007771,32.86505508,-11.8012743,13.11493969
2.783222,23.90613365,2.697429895,-148.0473938,-3.932435036,-0.838328421,29.93984604,16.77458763,1.002695203,8.504158974
2.791555,23.95657539,2.600327015,-148.0221863,2.952941895,-3.061563492,9.818156242,5.089958668,-9.902400017,7.048652649
2.799888,23.94696426,2.524082899,-147.9549408,-2.772388697,-0.663636684,12.43519783,-2.312081575,-5.545263767,10.63052177
2.808221,23.95825958,2.416943073,-147.9776611,1.552253842,-1.692486644,-2.438081741,0.663075745,-13.3340416,2.290117741
2.816554,23.97577286,2.284771204,-147.9469757,-0.718507051,-1.705209255,8.17549324,1.152410507,-13.45374012,9.352682114
2.824887,24.03094482,2.135477781,-148.0117493,0.474159628,-1.85424614,2.927004576,6.112814903,-20.00282097,-0.246549934
2.83322,24.10391998,1.984586835,-148.0135193,-0.304455906,0.18273443,17.62191582,7.967695713,-17.07577515,6.737827778
2.841553,24.20006371,1.743539214,-148.1220703,-1.547120333,0.800601721,14.09345913,11.16302586,-32.19721222,-0.483097672
2.849886,24.30974579,1.520017982,-148.177124,2.071266174,0.835232794,10.86974621,12.55278111,-27.62304497,4.548375607
2.858219,24.40504265,1.260528445,-148.3040924,-2.187535763,-1.299477339,7.582222939,11.01492882,-35.12483215,-1.47639358
2.866552,24.58816147,1.044190168,-148.3582458,2.815654993,-0.125693232,0.820480227,21.31001282,-26.77362442,4.401349545
2.874885,24.85114098,0.819657028,-148.5037842,-6.332406998,-0.568593919,17.28620529,31.05536842,-32.25200653,-5.034243584
2.883218,25.149683,0.50000912,-148.5844421,5.176089764,1.424214005,7.923259258,35.14125824,-39.30945969,6.987761021
2.891551,25.42657852,0.307322443,-148.7560883,-5.847657204,0.77132225,17.94603157,32.59427261,-30.17973137,-9.186216354
2.899884,25.7131691,0.040233657,-148.7887115,5.771759033,-1.341860294,3.266385555,33.60832214,-31.05861282,9.852380753
2.908217,26.05311775,-0.181913853,-148.9805145,-8.832704544,-0.996017337,18.35903168,39.995121,-34.50475693,-9.511192322
2.91655,26.4145546,-0.475244462,-149.0298615,6.579006672,-0.699965,1.892365932,42.54383087,-34.64766693,9.795602798
2.924883,26.70638275,-0.699956894,-149.228714,-5.683847427,-1.045514107,15.97715664,34.01403427,-35.26489639,-9.724246979
2.933216,27.0111084,-0.84440589,-149.2167358,1.668506384,-2.004872084,10.48694801,35.79266357,-15.27259827,8.659468651
2.941549,27.32034492,-1.12549746,-149.436203,-3.799916029,-1.002530932,10.87252045,35.90567398,-42.51071548,-8.46369648
2.949882,27.60129356,-1.264520645,-149.4447021,1.286770701,-1.155160666,15.15889263,32.8971138,-15.72878361,6.338070393
2.958215,27.83206558,-1.389175534,-149.5580292,-1.738973379,-0.736033499,4.831047535,26.63793182,-20.04580879,-5.516299725
2.966548,28.06480026,-1.54383564,-149.5988007,-0.888764262,-1.907619238,18.81111908,27.00867462,-19.14418983,3.92702508
2.974881,28.24261093,-1.619218826,-149.6569824,-3.858691931,-1.755249381,13.81265831,20.41599083,-11.75052261,-2.324018955
2.983214,28.36689377,-1.724263191,-149.6903381,2.370820284,-2.874642611,8.894080162,14.00100136,-13.45215225,2.002982616
2.991547,28.45914841,-1.711629748,-149.7028656,-4.667796612,-0.728462756,10.71316051,10.30798817,0.135115102,-2.479906321
2.99988,28.56365776,-1.773130774,-149.7014465,-0.439034373,-2.465552568,11.79159355,11.75078869,-6.861017227,3.219710112
3.008213,28.63481903,-1.747226715,-149.7003632,-1.20519793,0.941985965,9.823003769,7.835471153,2.305229664,-1.807455659
3.016546,28.63942146,-1.80301559,-149.6992188,-0.238696545,-2.381129026,10.02640343,-0.241426989,-6.266842842,2.875402689
3.024879,28.62012672,-1.677220464,-149.6230469,-1.676840663,-1.038510919,11.80476952,-2.73520422,17.13723564,0.353937596
3.033212,28.62913513,-1.65224123,-149.5915985,-2.467430592,-1.689298868,11.20365429,0.392717481,3.982885599,1.423869848
3.041545,28.6310215,-1.67874372,-149.5699768,3.139646292,0.556503057,10.93408585,-0.385481417,-2.041954041,3.366197109
3.049878,28.60243607,-1.521146536,-149.5109711,-4.984459877,-2.547978401,10.52509117,-4.029517651,19.53593254,-3.295464754
3.058211,28.59534836,-1.520823836,-149.4557953,5.673816681,1.036341786,5.563485146,-1.354672909,2.70739913,5.359035969
3.066544,28.61070061,-1.444879413,-149.4706268,-8.439295769,-0.547975421,21.2637043,0.997341573,6.693742752,-6.374090672
3.074877,28.60186768,-1.399819493,-149.3770905,6.917964458,0.543257177,5.129687786,-1.4482162,9.623449326,6.832110882
3.08321,28.60438156,-1.341091275,-149.4252167,-5.686238289,-1.430719495,10.51208878,-0.633683443,2.966794968,-8.89453125
3.091543,28.67516899,-1.229883313,-149.2896576,2.73786211,1.278802991,11.63351536,8.197813988,19.01015282,7.444473267
3.099876,28.79010582,-1.28325057,-149.4116974,-1.996443152,-0.726114452,2.548190832,12.67408276,-13.11025524,-10.21003151
3.108209,28.89221954,-1.193003058,-149.3082123,1.402039289,-0.612964511,18.19594765,11.86628437,14.98072052,5.220079899
3.116542,29.04211807,-1.146124244,-149.3565063,-2.362630367,1.48771286,5.328343391,17.07386589,1.660571456,-8.244726181
3.124875,29.24633789,-1.213051558,-149.3679047,1.658315897,0.409299403,17.26222992,23.83096123,-8.17953968,2.284970522
3.133208,29.41193581,-1.120191574,-149.3638153,-3.500285387,-0.470444143,10.11620235,19.08594513,9.501476288,-5.479130268
3.141541,29.61905479,-1.214368343,-149.3934326,5.722029686,0.549761772,3.803467035,24.14558029,-12.08340645,2.043735504
3.149874,29.87670517,-1.133810282,-149.412323,-9.750490189,-1.869802237,17.87927437,30.07625961,6.812828064,-7.213012695
3.158207,30.12033844,-1.235776782,-149.4244995,8.60323143,-0.780654669,5.510445595,28.58138657,-11.83006001,4.422147751
3.16654,30.35528755,-1.172473192,-149.4757385,-7.482694626,0.607625365,17.9894352,27.26834679,3.011852264,-9.586530685
3.174873,30.56911278,-1.217402816,-149.4452515,3.571419716,-0.19944562,15.81997108,25.11977005,-3.292930126,5.457372665
3.183206,30.76150513,-1.217823029,-149.5069275,-4.773650646,-2.347386122,4.861207008,22.13390923,-4.272596836,-6.78935051
3.191539,30.97588158,-1.210303903,-149.465271,5.028992176,-0.34833023,8.862553596,25.22590828,2.836982727,3.397217989
3.199872,31.1797657,-1.206379414,-149.5128021,-5.503828526,-1.769467473,17.9099369,23.54935837,-2.995164156,-5.576363087
3.208205,31.33613968,-1.312445998,-149.5168915,3.731436729,0.375444174,15.46427155,18.16157341,-11.63641071,5.758594036
3.216538,31.45078087,-1.236473322,-149.5535889,-5.180119514,-2.117666245,6.462738991,12.86372948,5.031200886,-8.959671021
3.224871,31.55589867,-1.286486268,-149.5110931,4.305235863,-1.555022478,13.28638172,12.1425066,-2.953923464,7.057362556
3.233204,31.63718987,-1.249723196,-149.5571136,-5.536091328,0.767272353,15.84649372,8.836987495,0.408111632,-7.464922905
3.241537,31.70331764,-1.285034895,-149.5376587,3.620533228,-2.518014193,7.201440334,7.416268826,-2.884431839,3.785425663
3.24987,31.74703789,-1.197111845,-149.5251465,-5.484337807,-1.775723815,14.78212643,4.483849525,9.306114197,-4.723790646
3.258203,31.75535965,-1.232807159,-149.5122223,3.126011372,0.176648289,15.51266479,0.473607242,-3.329966068,3.149654388
3.266536,31.71860695,-1.137691855,-149.5122833,-4.208171368,-2.99804163,7.058904648,-5.208565712,9.247737885,-6.460743427
3.274869,31.67127609,-1.110397935,-149.4421234,3.348389864,-0.954093754,10.07545471,-6.058496952,6.701837063,5.016804695
3.283202,31.622612,-1.003936887,-149.4199677,-6.556960106,2.034491777,19.43203163,-6.588864803,11.81528282,-4.891870975
3.291535,31.54387665,-0.963470101,-149.3566437,1.590930462,-4.285605907,7.301681519,-9.848251343,7.606454849,3.507946491
3.299868,31.44325829,-0.784255803,-149.2503815,-1.149791479,0.222811565,9.324792862,-12.67960548,24.54201317,-0.814699709
3.308201,31.35408211,-0.740024686,-149.222641,-1.089197397,0.052681144,15.46456909,-11.17852783,5.754751205,-0.345805049
3.316534,31.25442696,-0.614416361,-149.1547546,0.447172731,-1.577856421,9.169555664,-12.65933895,16.656147,-1.322424889
3.324867,31.11896324,-0.535327315,-149.1093903,-0.867331684,-0.747044623,10.28028584,-16.71302223,10.42963219,-0.677022755
3.3332,31.01549911,-0.421802163,-149.060379,-0.39113003,-0.175623134,15.02630806,-13.16547871,14.24605274,-2.444226265
3.341533,30.90644646,-0.40841803,-149.0871735,0.099290684,-0.753036678,8.167876244,-13.60860252,-0.786907852,-4.002826691
3.349866,30.76967812,-0.303704947,-149.0336151,2.114558697,-0.464380831,10.86004353,-17.17049599,13.62895584,-1.373090148
3.358199,30.70353127,-0.337634414,-149.1111908,-5.666310787,0.354701668,14.16817474,-8.477684975,-8.766998291,-6.339792728
3.366532,30.61727905,-0.262343347,-149.0682373,4.398908138,-0.163701668,8.920962334,-11.12130642,9.943935394,-0.626639545
3.374865,30.50894928,-0.237529069,-149.1273041,-3.51700449,-2.082954168,13.05849648,-13.51011562,-1.549751163,-8.036148071
3.383198,30.45642853,-0.26523003,-149.1407471,3.271001816,1.430903792,9.158005714,-7.106886864,-4.139631748,-0.155568063
3.391531,30.39761734,-0.255710304,-149.2234192,-4.574142456,-0.243312925,10.39603615,-7.570070267,-4.548333168,-9.552227974
3.399864,30.34253883,-0.261025101,-149.2077789,2.213998079,-2.168709278,12.86161709,-7.397787571,-0.057644837,1.49184978
3.408197,30.30273628,-0.316669703,-149.336853,-2.657606602,1.414501667,7.255606174,-5.312738895,-14.09424686,-10.41699028
3.41653,30.25179672,-0.294700891,-149.2961273,2.171442032,-1.314404726,14.36770344,-6.884376049,4.283212185,2.440345049
3.424863,30.18472099,-0.359457731,-149.4315338,-3.827483416,-2.118488789,11.40234661,-8.589595795,-15.4023962,-10.54962349
3.433196,30.09798431,-0.358047247,-149.4061584,4.027403831,0.117479138,7.270422459,-11.18733788,1.219237566,2.09862566
3.441529,30.04646301,-0.435384333,-149.5277557,-7.429261684,0.602051079,18.26916885,-6.726133823,-15.85246277,-8.397052765
3.449862,29.94429398,-0.440801293,-149.4983215,5.277643204,-2.791569471,1.52283287,-13.03133297,0.747013628,2.932061911
3.458195,29.88834763,-0.474499553,-149.6023254,-7.400160789,0.266876191,18.33218002,-7.246408939,-10.239151,-9.220576286
3.466528,29.77239609,-0.530408978,-149.5822449,6.696297646,-1.10639441,7.224358082,-14.6922884,-5.079162598,4.977128029
3.474861,29.67240906,-0.536907673,-149.670166,-9.443051338,-1.218796015,16.88106918,-12.52427387,-6.418735504,-9.198802948
3.483194,29.58419228,-0.561775029,-149.6424866,7.951422691,-0.334814131,-0.324700147,-11.3525238,-1.406208754,3.911959648
3.491527,29.48106384,-0.571085811,-149.7265167,-9.296536446,-0.987502098,27.29215622,-12.89875412,-6.453724861,-8.645254135
3.49986,29.33448792,-0.588776946,-149.6666565,7.426663399,-0.837723136,-4.813241005,-18.31762886,1.221415162,6.848966599
3.508193,29.24282074,-0.612132847,-149.7848816,-8.685546875,-0.032286368,18.72408867,-11.56935024,-9.894792557,-11.42258072
3.516526,29.14193726,-0.569897771,-149.6835022,4.625993252,-0.762287796,10.24016762,-12.77711296,9.900006294,7.694133759
3.524859,28.99985695,-0.608959138,-149.8087158,-4.311804295,-0.914000213,10.91489315,-17.62302589,-11.90930557,-11.27361202
3.533192,28.85261726,-0.51049298,-149.7073059,1.271054268,-1.59225142,16.4697094,-18.34698677,15.77174187,4.484132767
3.541525,28.70612144,-0.548521221,-149.8013,-3.2817626,0.131548777,3.603621721,-18.0965538,-9.945076942,-8.109714508
3.549858,28.5586319,-0.512280822,-149.7377777,0.985002041,-1.47876668,15.87369061,-18.42526054,7.013103008,4.153810978
3.558191,28.4374733,-0.431407839,-149.780014,-3.139683723,0.558426082,8.480205536,-14.99394894,5.596839905,-9.50389576
3.566524,28.26332664,-0.498240441,-149.7614288,3.328468561,-2.127639055,13.22968864,-21.67745399,-6.457031727,5.319182873
3.574857,28.06843376,-0.382894725,-149.782486,-5.878211021,0.002793323,18.58740234,-23.82065392,10.49853992,-9.181723595
3.58319,27.86933136,-0.410092294,-149.7328491,2.89173007,-2.467997074,4.261620522,-24.6494236,-0.546441615,6.339910984
3.591523,27.66679573,-0.39000085,-149.7881165,-1.708755136,0.552219927,6.525072098,-24.76415253,-1.46955359,-7.412264824
3.599856,27.47655106,-0.390736789,-149.7236938,-2.581583977,-2.248355389,12.18251705,-23.5750103,3.042998552,6.441087246
3.608189,27.27603722,-0.317129463,-149.7336731,-1.429204583,0.21655421,16.84889412,-24.48687935,6.777454376,-5.54565239
3.616522,27.06429672,-0.299660087,-149.6668701,-1.883797526,-2.643461943,5.01182127,-26.16440773,5.06883049,5.724093914
3.624855,26.83767319,-0.260271668,-149.6815643,0.877828598,-0.193921953,11.5380125,-27.62367821,2.897842646,-4.134511471
3.633188,26.58295822,-0.230998471,-149.6400146,-4.282430172,-1.812728405,17.3873558,-31.34253883,4.922906399,2.424415112
3.641521,26.35367775,-0.117019154,-149.5866699,-0.455244303,1.228905559,11.46509171,-27.91374207,14.57774162,-0.786780357
3.649854,26.14608574,-0.072800018,-149.5436859,-3.023426294,-1.975884438,8.370658875,-25.7008152,6.58398962,1.827935338
3.658187,25.90909958,-0.040542722,-149.5059509,4.337030888,0.315147609,8.993583679,-28.85885048,4.947162628,1.950730443
3.66652,25.66859818,0.046574641,-149.4741516,-4.299060822,-2.601021528,9.755350113,-29.66058159,10.61744404,-1.563174129
3.674853,25.44853973,0.081524745,-149.3889313,2.568380117,2.311472178,13.35031986,-26.84820938,7.677846432,6.996918201
3.683186,25.21758461,0.177051574,-149.3795319,-4.764998913,-1.256969452,17.05086517,-28.51605415,10.38932133,-4.334738731
3.691519,24.97963333,0.300209969,-149.2314911,-0.070080355,-0.755779326,10.88780117,-29.06121254,20.40147781,9.397411346
3.699852,24.77430344,0.379538059,-149.2429199,-3.057557821,-1.067104578,12.32209778,-25.43058205,7.604410172,-5.698440552
3.708185,24.57306099,0.468323976,-149.0995636,-1.392466664,-0.684748411,9.473613739,-24.71470261,16.34497261,10.7633934
3.716518,24.38399696,0.583998621,-149.1096802,-0.107122041,0.811281443,8.407217979,-23.47537231,11.67397785,-7.3054533
3.724851,24.2163887,0.659837723,-148.9601135,-3.404962301,-1.018228769,10.42912006,-20.75355148,15.16366577,12.19356251
3.733184,24.0582428,0.780346334,-148.9644623,2.251916409,0.346898139,10.15654755,-19.76931953,12.52703285,-6.840451717
3.741517,23.90774918,0.921571195,-148.8054504,-4.961408138,-1.224364758,11.89042187,-18.79411697,22.72361183,10.12511063
3.74985,23.79619408,1.030020833,-148.7815399,3.78608489,1.28362608,8.514142036,-14.23389816,12.60704803,-3.087758541
3.758183,23.68847466,1.176039219,-148.6578522,-5.634875298,-1.211842179,13.0949955,-13.67092896,21.49996185,6.110330582
3.766516,23.56786346,1.360016704,-148.5809937,2.827587366,-0.315566003,8.196730614,-15.47591305,23.46711159,-0.850764573
3.774849,23.49857712,1.501437545,-148.4714355,-4.734076977,-1.429092169,10.12260342,-9.107284546,20.29283333,4.858151436
3.783182,23.42540359,1.684382319,-148.365799,1.485682368,0.999592364,11.84719181,-9.93047905,24.72815132,2.430997372
3.791515,23.33982468,1.898447633,-148.2557526,-4.957890034,-1.947327375,12.18859768,-11.1523819,28.30285072,1.507424235
3.799848,23.29072571,2.084318161,-148.1123199,0.779945314,0.309700668,9.25451088,-7.288496494,26.83607674,6.51826334
3.808181,23.22553635,2.287225485,-148.040802,-2.691523075,-0.659743547,11.91451263,-8.627200127,25.2414856,-2.150252104
3.816514,23.18495369,2.533769608,-147.8746948,-2.188468695,-0.918400943,10.43332672,-6.505214691,34.58350372,6.197703362
3.824847,23.17138672,2.716727018,-147.8055115,-0.025861822,0.174606204,10.04782772,-2.490921259,22.93292046,-1.427264094
3.83318,23.1540699,2.980319262,-147.6452637,-3.533555984,-0.754008532,13.42023754,-3.829421997,36.17991638,4.765713215
3.841513,23.14387321,3.215172768,-147.572464,0.754803717,0.612208128,10.91585922,-2.183807135,28.82855797,-3.46713233
3.849846,23.14871597,3.478474617,-147.4262695,-3.796349287,-1.034550786,12.20307446,-1.240306616,35.48128891,3.23415947
3.858179,23.12731743,3.760139227,-147.324295,0.527005255,-1.034534216,11.24376392,-3.836620092,35.36805344,-2.456139088
3.866512,23.12612343,4.001684189,-147.2135925,-2.369064331,-0.291552246,9.810368538,-1.838399172,31.40610123,0.353169382
3.874845,23.11782646,4.334431648,-147.0803375,-1.329679489,-1.687096834,11.24113464,-2.657109737,42.47502899,-1.415380955
3.883178,23.12678337,4.536131859,-146.9852753,-1.85674262,-0.180071086,10.42230034,-0.603791893,26.27000046,0.503140688
3.891511,23.13343811,4.865721226,-146.8596039,-0.612996757,-1.573127508,8.844982147,-0.942003369,41.76622772,-2.114701748
3.899844,23.1381321,5.06099081,-146.7731781,-0.723765671,0.366801381,14.26115513,-1.131624699,25.15260315,-0.15733552
3.908177,23.13438988,5.416660786,-146.65448,-1.553017378,-0.975917518,11.79458904,-2.258705378,44.31320953,-4.127343655
3.91651,23.11607742,5.619982243,-146.5452423,-0.012829764,-0.682930648,11.32022762,-4.255999565,27.10784531,1.968659878
3.924843,23.08741379,5.978014469,-146.4369659,-0.301173359,-0.590484142,9.671849251,-5.266667366,44.0861969,-5.367074966
3.933176,23.06221771,6.176171303,-146.3304443,-3.249254465,-1.723583221,9.241383553,-5.17406702,26.40320015,1.923425674
3.941509,23.05348969,6.492189407,-146.2478943,2.481909513,-1.81970799,9.938770294,-2.660003424,38.24550629,-6.192006111
3.949842,23.04568863,6.649662018,-146.1552429,-4.19029665,0.986894548,14.38920307,-3.005306482,21.25585175,2.314067602
3.958175,23.01364708,6.976201057,-146.0547333,2.903446198,-0.407826632,12.78707314,-5.800312519,40.24611282,-4.704713821
3.966508,22.96621895,7.113877296,-146.0083618,-3.518401146,-0.254792184,12.01644897,-7.169797421,16.90983009,-1.820647359
3.974841,22.90668297,7.404518604,-145.9025421,0.383596599,-1.258063197,13.4545908,-9.280727386,36.53421402,-2.384649754
3.983174,22.84676552,7.44880867,-145.9067688,-1.255354166,-2.28696084,5.755889893,-7.922317028,4.244868755,-2.981612444
3.991507,22.81532478,7.681925774,-145.8278961,-1.116109729,1.973333001,16.37137032,-5.552287102,28.92933083,-2.605623007
3.99984,22.71582985,7.746819496,-145.8465576,-0.077777199,-2.080813408,9.425442696,-12.43793011,5.864815712,-5.508406639
4.008173,22.6469326,7.902722836,-145.7922821,-0.110532053,-0.350730062,13.22941017,-9.695440292,19.26206589,-1.657459259
4.016506,22.56847191,7.897707939,-145.8370667,-1.03085053,-0.905297041,4.417165279,-9.47292614,-3.060452938,-5.133951187
4.024839,22.52132607,7.991686821,-145.7996674,-0.293595463,-0.05088158,15.78841686,-6.825028419,11.63385868,-0.618238032
4.033172,22.40627289,7.990286827,-145.8668976,0.344004601,-0.845260084,7.558209419,-13.48237514,-3.66556406,-7.77052784
4.041505,22.31843948,8.006285667,-145.860611,-1.898513198,-0.685339034,11.20652199,-11.20053005,1.57778573,-0.438272446
4.049838,22.22315407,7.954075336,-145.9234467,0.733044505,-1.454900861,9.017770767,-11.18436813,-9.082950592,-4.985107422
4.058171,22.11431885,7.936772823,-145.9467163,-1.123306513,-0.342486382,15.07926655,-13.2318697,-3.448355913,-2.183447838
4.066504,21.95632935,7.897956848,-146.0005798,-1.346149087,-0.341460139,9.096310616,-18.86677361,-7.175178051,-4.638214588
4.074837,21.81724739,7.855572224,-146.0493011,-0.132521421,-0.941438198,12.82317448,-16.45198822,-7.357549191,-3.88320899
4.08317,21.68343735,7.771329403,-146.1104889,-1.88830781,-0.261364281,13.99049664,-15.8567934,-12.54115677,-3.460395098
4.091503,21.53047752,7.742280006,-146.1385193,-1.794178605,1.463051796,10.91911983,-18.46826744,-4.945892334,-2.223405838
4.099836,21.37670898,7.673336983,-146.2147522,-1.72748363,-0.995951414,10.65415001,-18.02437019,-11.47112179,-5.859732628
4.108169,21.27285004,7.621315479,-146.2423096,-1.306617856,-1.194278717,10.31197643,-12.59532642,-7.483314037,-1.193687439
4.116502,21.15830994,7.568369865,-146.2832184,-0.700723767,2.370318651,14.1589756,-13.89437866,-8.139398575,-2.686485529
4.124835,21.01815224,7.484481335,-146.3426971,-0.404483914,-0.73002404,8.160878181,-16.46428871,-12.41224194,-3.391698122
4.133168,20.93962479,7.451622963,-146.3768921,-2.05196929,-0.470131934,7.283619881,-9.685958862,-5.595365524,-2.83896637
4.141501,20.86968803,7.345905304,-146.4299469,-0.161614642,0.704796135,11.81555367,-8.156227112,-14.57733345,-1.785274148
4.149834,20.76624489,7.316120625,-146.4742279,-1.208734751,-0.126688436,12.36884403,-12.53298187,-5.671184063,-4.108049393
4.158167,20.68210983,7.253802776,-146.5389252,-2.933577061,-1.179548979,6.860218048,-9.702328682,-10.18853855,-4.969534874
4.1665,20.64387703,7.169110298,-146.5857697,1.333630562,1.060392141,10.43411732,-4.678555965,-11.93407154,-2.082808971
4.174833,20.56302071,7.142711163,-146.6555634,-2.310002804,0.023795912,11.98769474,-9.254870415,-6.359669209,-7.080530643
4.183166,20.52561951,7.074995995,-146.6931305,-1.594534874,0.276375443,8.87268734,-4.728145123,-9.634039879,-1.787733078
4.191499,20.51438713,6.995133877,-146.7687378,0.203981146,0.818658471,12.88440609,-0.837624073,-12.60221958,-5.491193771
4.199832,20.48565292,6.954530239,-146.7825317,-3.083945751,0.330405533,12.60475159,-4.043066502,-5.59480238,-0.283306271
4.208165,20.48298836,6.886265278,-146.8521576,-2.216244221,-0.460324943,7.223739147,0.081939943,-11.04569149,-5.325212479
4.216498,20.51067543,6.80013752,-146.8732758,-0.497997999,0.369278371,10.27890587,2.828631639,-11.01710606,0.812637329
4.224831,20.51432037,6.779396534,-146.9436646,-1.289800048,0.128296003,10.34284496,0.826930106,-5.739676952,-7.407266617
4.233164,20.53949165,6.710208893,-146.9752045,-2.092756748,-0.636997461,7.908179283,2.669080257,-9.549664497,-1.058674812
4.241497,20.57759666,6.629500389,-147.0601044,1.65288341,1.179137945,10.37900829,5.142750263,-13.09011936,-6.494759083
4.24983,20.60370636,6.590892315,-147.0868988,-3.562038422,-0.057259399,12.52658463,2.70693779,-5.91613245,-1.811374307
4.258163,20.63507843,6.526806355,-147.1637878,-0.452907056,-0.652252614,5.992201328,4.200325489,-10.89210987,-6.294328213
4.266496,20.69459343,6.440573215,-147.1978912,-1.926573038,-0.244590521,11.86798477,6.808443546,-11.57347202,-0.60251087
4.274829,20.72927666,6.42150259,-147.2485962,0.073882878,1.01171267,12.42110443,4.221917629,-4.744921207,-5.271473885
4.283162,20.77122498,6.392610073,-147.2694855,-4.378049374,-1.071952581,10.75347519,4.518375874,-4.581016064,-1.552030563
4.291495,20.81734085,6.327513218,-147.3218231,1.808369994,0.802811146,10.90189266,5.604471684,-9.98618412,-3.489081383
4.299828,20.86739922,6.32129097,-147.3435516,-4.066976547,0.345902711,12.99740791,5.497327328,-2.075457335,-2.604570866
4.308161,20.90880775,6.3207407,-147.3608093,-1.073120952,-0.272872835,8.432228088,4.569809914,-1.261257648,-2.327219725
4.316494,20.97894669,6.263021469,-147.4051971,-1.462228894,-0.245105028,9.599943161,8.205468178,-8.817355156,-2.919139147
4.324827,21.02683067,6.254469395,-147.4252167,0.032449886,0.617791891,12.55822277,5.375429153,-2.280294657,-2.28841424
4.33316,21.04330063,6.266217709,-147.4438934,-2.908971786,-1.133522987,5.667116165,1.425432205,0.060705736,-3.03570962
4.341493,21.09216118,6.224951744,-147.4554443,1.698638082,-0.118299164,8.070641518,5.379630089,-5.580407143,0.067186147
4.349826,21.14890671,6.245312691,-147.4917145,-3.237037897,0.378850132,15.37967396,6.487112999,0.263288736,-5.366887093
4.358159,21.1558075,6.249562263,-147.4685059,-1.207494378,0.168938428,10.19934559,-0.112869121,1.010583997,1.970631003
4.366492,21.1847477,6.284876347,-147.4959412,-2.377201796,-0.74357909,9.943799973,3.037105322,2.314092398,-5.033286572
4.374825,21.24245453,6.297719002,-147.4815369,-1.922386408,0.792050838,13.79501629,6.095368385,1.595408201,0.617174983
4.383158,21.2387886,6.336087704,-147.4944458,-2.304780483,0.155690178,9.352399826,-1.066179752,3.276393652,-3.554628611
4.391491,21.24940491,6.384117126,-147.4614258,0.632199764,-0.697312772,5.126007557,0.193438724,6.334554195,1.153741956
4.399824,21.28010368,6.442299366,-147.4924622,-2.131209135,-0.199478507,10.37628174,3.304057121,4.707999229,-6.4329772
4.408157,21.27459526,6.431325912,-147.4616089,0.01069104,-0.276260018,9.548027039,-1.71957314,-0.355640858,3.477004051
4.41649,21.25038528,6.515657425,-147.4831085,-0.734904706,0.577423692,11.61344624,-3.410676479,8.044459343,-6.510537624
4.424823,21.23823357,6.540368557,-147.4575653,-2.752593994,-0.522127628,9.08071804,-2.453908205,3.406206846,1.335142016
4.433156,21.24511719,6.550965309,-147.4808502,-0.50223738,0.656437874,12.53621101,0.347738892,-0.277671158,-3.496945381
4.441489,21.21310997,6.610857487,-147.4490814,-2.166278124,-0.201600149,13.71730232,-4.926910877,7.608401299,0.497633338
4.449822,21.1649971,6.649013996,-147.4690399,-0.43800953,0.040670939,7.058464527,-6.293507099,2.953525782,-4.324668884
4.458155,21.16388702,6.662187099,-147.4645844,-1.719350696,0.051321823,11.06853962,-0.84684515,1.204304576,-0.504690111
4.466488,21.12770081,6.687211037,-147.4919739,-0.5191679,1.019628167,11.70947933,-4.75693512,1.166062355,-4.576892376
4.474821,21.09342766,6.714427948,-147.4930878,-1.30735898,-0.374681264,7.835927963,-4.749942303,2.538191319,-1.731202245
4.483154,21.0742588,6.744580269,-147.5142212,-1.405186892,0.521032453,10.16568851,-2.799674511,2.013970613,-4.102695942
4.491487,21.06834412,6.745387554,-147.5507355,-1.365113497,0.077243328,10.52864075,-0.850712836,-1.936141849,-4.526329994
4.49982,21.04950905,6.797248363,-147.5483093,0.078503303,1.322474122,11.9248991,-3.09083128,5.455704212,-2.415998697
4.508153,21.01126671,6.818361759,-147.5890045,-1.500324726,-0.340566754,6.266079426,-4.669462204,0.163751811,-5.865442276
4.516486,21.05006027,6.875425816,-147.5895081,-2.117464066,0.840934336,12.67953396,3.867084503,5.914302349,-2.963196039
4.524819,21.04755211,6.864170074,-147.6194458,-1.691199899,0.16454716,11.34411621,-0.532353461,-3.002513409,-3.275792122
4.533152,21.03760529,6.948200226,-147.6135101,-1.0795784,1.453683972,11.09779072,-2.075560093,9.208753586,-3.411931276
4.541485,21.0185318,6.980886936,-147.6474609,-1.702355742,-0.57948786,5.799149513,-2.458723307,1.749631524,-5.615293503
4.549818,21.06309509,7.004359722,-147.6532898,0.255258113,-0.195846647,9.565908432,4.637431145,1.923833847,-2.109191418
4.558151,21.07726479,7.018479824,-147.6923676,-1.274308085,1.350442648,12.18474007,1.604424477,-0.54979676,-5.381639957
4.566484,21.08368111,7.038537979,-147.6859283,-0.464992344,0.815035403,10.03345299,-0.120015495,2.063662291,-0.601076424
4.574817,21.09418106,7.060246468,-147.7205048,-2.037697554,-0.30477646,9.637835503,1.100464463,0.489769816,-5.211792469
4.58315,21.15369034,7.078073978,-147.7301025,-1.618780851,0.070460394,10.13926315,6.488008499,1.127589822,-2.28826046
4.591483,21.17987251,7.082514763,-147.7475891,-0.330855578,1.181633592,14.31754208,2.729222059,-0.71316427,-2.566712856
4.599816,21.16944122,7.105671883,-147.763031,-0.78939569,-0.18331705,8.62027359,-1.819417477,1.470538735,-3.167494535
4.608149,21.20196533,7.132874489,-147.7705231,-1.51111722,0.678815484,9.145915031,3.342606544,2.263376474,-2.445685863
4.616482,21.24051857,7.109858036,-147.7954712,-1.679576993,-0.456939787,8.767331123,4.200862885,-4.105642319,-2.21841073
4.624815,21.27264595,7.132922649,-147.8030701,-0.90212965,1.695540786,13.96860886,3.294349432,1.792381883,-2.280294657
4.633148,21.24447632,7.125665188,-147.8222961,-0.91918093,-0.913164496,8.061382294,-3.889765024,-2.098664045,-2.268179178
4.641481,21.24563789,7.159765244,-147.8137207,-0.576952219,0.052976329,9.267897606,-0.66539371,3.72774148,-0.963697016
4.649814,21.25608444,7.157607555,-147.8459778,-1.819688797,-0.549681365,9.0736866,0.940298617,-2.089212418,-3.937587023
4.658147,21.27121735,7.158131599,-147.8280334,-1.078413129,1.763497829,14.42048836,0.868655503,0.376221865,1.534190178
4.66648,21.21459579,7.16442728,-147.8759155,-1.123543501,0.129038528,9.936237335,-6.875591278,-1.817880869,-6.035853863
4.674813,21.20371437,7.20103693,-147.8384552,-2.096690655,-0.429272622,8.002560616,-2.547732592,5.252762318,2.133128166
4.683146,21.16819382,7.194847107,-147.8652802,-0.255019456,-0.426599592,6.823711872,-4.656245708,-2.302758455,-3.158197403
4.691479,21.15346146,7.234703064,-147.8585358,-1.599297643,0.325153351,13.27315807,-2.550089121,4.293329716,-1.412458539
4.699812,21.07209778,7.213028908,-147.8777466,0.820343316,1.491247773,10.16161728,-10.27152634,-3.706110716,-1.648545027
4.708145,21.00015831,7.278852463,-147.873764,-3.153157949,-0.586494207,11.78631783,-9.376643181,7.086128235,-2.827338219
4.716478,20.94382858,7.297554493,-147.8722382,-1.525735259,-0.438753694,7.648774624,-7.5797019,1.704832435,-1.084468365
4.724811,20.90127945,7.331398964,-147.8635254,-1.847221494,0.887042105,14.22919846,-5.924559116,3.707378149,-0.91705364
4.733144,20.78448868,7.369003296,-147.8806915,-1.1135782,0.443685651,10.62837219,-14.54736423,3.034365416,-3.964175224
4.741477,20.69045067,7.4342556,-147.8614044,-0.60803616,-0.673661351,7.080632687,-12.26856613,7.679557323,-1.060314059
4.74981,20.57800102,7.468859673,-147.871933,-0.540333152,0.15773201,6.85415411,-14.12777615,2.988438606,-3.088193178
4.758143,20.50067329,7.530588627,-147.8795624,-1.644638896,0.378676444,13.81304932,-9.848506927,6.161838055,-3.883617878
4.766476,20.3643589,7.5593853,-147.8851624,-0.612461329,1.142154694,12.13873768,-17.06775475,2.550076962,-2.280218124
4.774809,20.22283745,7.653376579,-147.8804779,-2.592190027,-0.058409721,10.66787815,-17.74609947,10.31757069,-3.824961901
4.783142,20.10200882,7.712495327,-147.8773041,-1.026645303,-1.379121423,4.759363651,-15.34714317,6.332761288,-2.541022301
4.791475,19.98549652,7.758951664,-147.8897858,-0.053461719,1.132170439,11.97528362,-14.47218609,4.273992062,-3.739691734
4.799808,19.80434036,7.792205334,-147.9068146,-0.015251118,0.47479552,8.778991699,-22.25963593,2.607504606,-3.712054491
4.808141,19.6538372,7.8767066,-147.9158325,-2.260749578,-0.534272909,9.527994156,-18.60486603,8.727464676,-4.868768215
4.816474,19.49075127,7.89068222,-147.9276428,-1.223101854,0.522338808,10.20571899,-20.1734066,0.653726697,-2.334802151
4.824807,19.30851555,7.98658371,-147.946579,-2.649098396,0.106893562,16.90394783,-22.25023842,9.651396751,-6.380188465
4.83314,19.0613575,8.038546562,-147.954895,-0.174978375,-1.604837537,6.35455513,-30.31738281,5.108251572,-3.431913614
4.841473,18.82920647,8.12920475,-147.9845123,-1.629861474,0.574444532,9.674665451,-28.05215836,8.693735123,-7.295746803
4.849806,18.56422424,8.169565201,-148.0149078,-0.473976284,-1.001639485,8.99696064,-32.07926178,2.972688437,-5.424062729
4.858139,18.24730682,8.235947609,-148.0542755,-0.520493507,-0.060106777,13.41536999,-38.05377197,5.628709316,-7.385553837
4.866472,17.87833595,8.322647095,-148.0875397,-2.477632761,-0.307628393,9.072949409,-44.50009155,8.208608627,-7.434173584
4.874805,17.53187943,8.391681671,-148.1335602,-1.670909762,-0.167225361,11.85556984,-41.47011566,5.777504921,-8.157109261
4.883138,17.11775589,8.450993538,-148.1662445,-0.953018606,-1.016380668,9.006375313,-49.9189682,5.182873249,-6.275463581
4.891471,16.66806412,8.54384613,-148.2042542,-0.19477126,-0.086617462,7.382977962,-53.98608017,8.89618206,-7.989857197
4.899804,16.20843697,8.589700699,-148.2644653,-1.50891912,-0.526596248,10.10163593,-54.88075256,2.799720049,-8.858693123
4.908137,15.7191,8.649832726,-148.3125,-0.274806976,0.571926415,14.42446423,-58.55590057,4.915233135,-7.900671005
4.91647,15.18043041,8.740733147,-148.3621521,-2.291224718,-0.669526219,9.596812248,-64.54014587,8.490125656,-9.0325737
4.924803,14.64374638,8.803805351,-148.4259644,-1.067691445,-0.320130795,10.38103008,-63.93667221,4.913365841,-9.694754601
4.933136,14.02408218,8.828054428,-148.5001678,-0.145430699,-1.286495447,10.70577717,-73.79502869,0.183117047,-9.698096275
4.941469,13.35586548,8.892601967,-148.5823517,-1.744456887,-0.686967313,10.66637802,-79.37019348,4.766990185,-11.73536968
4.949802,12.63288498,8.956168175,-148.6617126,-2.706959724,-0.597058535,14.55932903,-86.08258057,4.861998081,-11.33407879
4.958135,11.83796597,9.01907444,-148.7459869,0.199192002,-1.984790564,7.802513123,-94.51405334,4.807727337,-11.79753685
4.966468,10.99074936,9.045004845,-148.8462524,-0.820355415,-1.022750974,6.009635925,-100.5809174,0.24154444,-12.71342087
4.974801,10.10798359,9.06274128,-148.95401,-1.755965948,-0.251574576,14.20726776,-104.6025772,-0.697367132,-13.37858582
4.983134,9.152553558,9.149703979,-149.0388336,-1.624197245,-1.351455927,14.90129852,-113.8446808,8.150722504,-12.10349369
4.991467,8.150847435,9.190696716,-149.1424103,-1.304778099,0.511496782,8.067067146,-118.931282,2.565630913,-13.30728722
4.9998,7.134471893,9.188900948,-149.2520752,0.339925796,0.10241244,10.17471886,-120.668663,-2.397895098,-13.29850864
5.008133,6.051916122,9.241527557,-149.3408661,-2.632669926,-1.28021121,13.08592224,-128.8169861,4.541803837,-12.18995667
5.016466,4.962163448,9.28627491,-149.4318085,-0.949938595,0.806969821,10.83880043,-129.8196869,3.856229544,-11.68627262
5.024799,3.823011875,9.304052353,-149.5485077,-1.702126741,0.804096341,12.64616013,-135.0408936,0.560781538,-15.06122303
5.033132,2.6417377,9.276280403,-149.6440887,0.783134997,-0.720041215,5.593293667,-140.7082062,-4.421312332,-11.56317425
5.041465,1.450598121,9.288663864,-149.7546387,-2.478888035,0.530448258,9.981469154,-141.3820496,0.531837881,-14.38980865
5.049798,0.275344998,9.29473877,-149.8735199,-1.67947185,0.284142345,15.73641396,-139.5328369,0.061552066,-14.5404911
5.058131,-0.959675312,9.253419876,-149.9835205,-0.343244642,0.780724168,12.1204071,-146.654007,-5.331256866,-14.38091373
5.066464,-2.25490284,9.234646797,-150.1140137,-0.502212703,-0.459568083,6.240573883,-153.7199402,-2.274681568,-15.96229553
5.074797,-3.527823925,9.194991112,-150.2344055,-2.170095444,-0.455758601,11.24371529,-151.0149536,-4.443789005,-15.82757664
5.08313,-4.822768211,9.151309967,-150.3547363,-1.19620657,1.821683764,17.86153221,-153.900589,-4.646020889,-15.0456686
5.091463,-6.175848484,9.098971367,-150.4746704,-0.732281983,1.018831491,8.987337112,-160.6711121,-5.257608891,-16.09511185
5.099796,-7.522852421,9.050859451,-150.5793457,-0.577539623,-0.578130782,3.356091738,-160.4670258,-4.709066391,-13.45619392
5.108129,-8.825223923,8.952384949,-150.6810913,-0.587392628,1.659700513,10.17931366,-155.0092773,-10.35012722,-14.66004658
5.116462,-10.09934902,8.878699303,-150.8021851,-2.261677265,2.806927919,17.71261215,-151.4502869,-6.817457199,-16.06456566
5.124795,-11.39686108,8.775025368,-150.876236,-0.751227498,2.433240891,15.65215492,-154.9964752,-10.94320965,-11.88596153
5.133128,-12.68909931,8.7132864,-150.9903717,-1.452875018,1.987216234,7.274214745,-153.7942657,-4.876604557,-15.2380619
5.141461,-13.92505074,8.573961258,-151.0472565,1.131377935,0.436294377,3.87076664,-148.0001373,-15.12389851,-11.0482111
5.149794,-15.08739758,8.459090233,-151.1400604,-0.759272218,1.678437948,8.314221382,-138.6398468,-11.04355049,-14.56477547
5.158127,-16.19143295,8.298092842,-151.1899414,-1.940122843,2.553465843,12.83968353,-132.4009094,-17.54335213,-11.03938389
5.16646,-17.29115677,8.203737259,-151.2527466,-1.726932287,2.706651211,17.48953819,-131.6902924,-9.149276733,-10.85490322
5.174793,-18.35689735,8.07244873,-151.310791,-0.841727853,3.075811386,11.24343014,-127.6563721,-13.33784676,-11.82971001
5.183126,-19.37099648,7.956249237,-151.343399,-1.816794872,3.762645245,11.064641,-121.9504089,-12.39805698,-8.625388145
5.191459,-20.31090355,7.816540241,-151.4035797,-1.551205158,0.981056452,6.309096336,-112.6687393,-14.06904793,-12.0827446
5.199792,-21.1909523,7.693838596,-151.4023438,-1.533645272,1.968156099,9.244517326,-106.4291077,-14.27579212,-5.531949997
5.208125,-22.02518082,7.570847511,-151.4772644,-0.482549071,2.625353336,8.351855278,-99.79503632,-11.22793484,-13.29937649
5.216458,-22.80744171,7.42368412,-151.457962,-1.050913692,2.127560616,12.04603863,-94.97638702,-17.65699768,-5.063578606
5.224791,-23.52627182,7.315067768,-151.5400848,-1.622624993,3.01241684,9.350795746,-85.88568878,-8.962646484,-13.66647625
5.233124,-24.18323135,7.17808342,-151.5041656,-0.173773304,2.464142799,9.114496231,-80.18132019,-17.2203598,-3.189208984
5.241457,-24.76641083,7.097404003,-151.5886536,-1.82122004,2.728598833,8.886898041,-69.62038422,-5.521517754,-12.65941525
5.24979,-25.26958084,6.940111637,-151.5401764,0.044991348,2.594329596,7.498373508,-61.89212036,-20.00093651,-3.202239513
5.258123,-25.70280647,6.874908924,-151.62854,-3.082596064,3.859310865,13.525033,-51.61398315,-3.436785698,-12.3524847
5.266456,-26.06440544,6.754146576,-151.578537,-0.026524942,0.214251518,4.376438618,-44.90231705,-16.09528542,-1.41484344
5.274789,-26.37055779,6.68794775,-151.6561127,-2.845364332,4.1334548,14.56370544,-36.56394196,-3.997990131,-11.21237659
5.283122,-26.60725021,6.623019695,-151.6271973,0.454158396,0.70720309,8.10885334,-29.60463905,-8.967000961,-0.841518044
5.291455,-26.81212044,6.531974316,-151.6839752,-2.782166481,3.868959665,13.65838051,-24.71382141,-7.651348591,-10.42980289
5.299788,-26.93618011,6.52844286,-151.6832428,-1.682256818,0.613481164,8.910049438,-15.69429302,-0.874738991,-0.562783241
5.308121,-27.02598572,6.427353859,-151.717926,0.052364953,3.415039063,8.024782181,-11.23083305,-9.907422066,-8.600609779
5.316454,-27.06005096,6.441779613,-151.7344513,-2.856499195,-0.190062061,12.68803883,-4.661342621,1.980697513,-1.415788412
5.324787,-27.07718086,6.369037628,-151.763855,1.42268312,3.694702864,4.945052624,-2.584822178,-7.137726784,-6.536355972
5.33312,-27.03042412,6.382502079,-151.7935486,-5.045554638,-0.627673328,17.15449905,5.210524082,2.59328723,-2.870062113
5.341453,-26.99388885,6.377063751,-151.8344116,0.842674375,2.914753675,6.333433151,3.99817729,0.658106446,-4.052107811
5.349786,-26.92709923,6.369347095,-151.8693848,-4.546494007,-0.504010677,17.22984314,7.68360424,0.609823704,-4.587317944
5.358119,-26.87389183,6.421857357,-151.924408,1.039194822,1.714323044,6.085498333,6.184301853,7.621900558,-2.42980504
5.366452,-26.76942062,6.402910709,-151.980072,-4.046809196,-0.220013559,12.50404644,12.48922062,0.510517359,-7.400324821
5.374785,-26.65868378,6.505576611,-152.0159302,-0.212560013,1.665995359,9.065948486,12.84797573,12.03754044,2.146678209
5.383118,-26.54105186,6.508562088,-152.1036835,-2.466375828,-0.732101023,14.37330437,14.51395226,4.547936916,-9.644288063
5.391451,-26.44220161,6.624875546,-152.1054382,-0.26694572,1.347912669,12.05653667,10.94488811,11.65340424,6.561010838
5.399784,-26.35302925,6.639059067,-152.2272949,-1.9959656,0.674082339,11.15730667,11.59264755,7.525540829,-12.70472717
5.408117,-26.25487518,6.776153564,-152.2037659,-1.771538854,-1.268477082,8.571411133,10.5025053,12.58801746,10.30248451
5.41645,-26.1659565,6.832771301,-152.3253937,-0.796498179,0.861889184,11.12742996,11.60540199,12.04030704,-10.45157051
5.424783,-26.07195663,6.97679615,-152.3171997,-1.493182182,-1.151354909,7.057043552,10.21547127,14.20307159,8.923899651
5.433116,-25.98237038,7.048852444,-152.4318542,-0.408446789,1.376892328,15.05261517,11.63424587,13.30734253,-8.928676605
5.441449,-25.93111229,7.210851192,-152.4461823,-3.67457962,-1.20848012,10.3368454,5.401224613,17.31164169,7.482228279
5.449782,-25.88406754,7.335326195,-152.5512238,0.196629405,2.150250435,13.9748106,6.446234226,18.44343376,-5.171220779
5.458115,-25.89165688,7.497481823,-152.5965881,-4.045108795,-1.933465123,9.686283112,-1.180368304,18.95925331,4.122920036
5.466448,-25.85957718,7.655366421,-152.7000885,0.606125295,0.10844332,8.7096138,4.69107008,21.96434593,-3.257965565
5.474781,-25.85661125,7.812917709,-152.7312469,-3.388255119,-1.474004269,8.111935616,-0.090610385,17.82308197,5.191162109
5.483114,-25.86801529,7.942466736,-152.8190765,1.487041473,1.422335386,12.62798405,-0.72110492,18.08718872,-3.062989473
5.491447,-25.94281578,8.093617439,-152.8572235,-3.357994556,-0.873036385,13.22890282,-9.317707062,17.41971207,4.276041985
5.49978,-26.02886009,8.256304741,-152.9398346,-0.241481021,-0.80894357,8.664465904,-9.711603165,21.39191628,-0.717109263
5.508113,-26.0837059,8.445110321,-153.0009308,-4.512114048,-1.180785894,13.20354176,-6.510949612,22.65126991,3.882274866
5.516446,-26.17523193,8.574163437,-153.0394897,1.698094606,1.355804443,12.48430061,-11.09515476,15.46242142,2.26301837
5.524779,-26.3102417,8.737710953,-153.1107483,-1.936547399,-0.64121598,9.664686203,-15.90671825,20.48627663,1.463572741
5.533112,-26.43748283,8.895494461,-153.1501312,-0.242878497,-0.547669291,5.46397686,-15.34256363,18.58260155,3.77746129
5.541445,-26.54724312,9.023065567,-153.1900177,-1.80698669,-0.26195693,14.34410286,-13.4463377,14.88722706,3.094738245
5.549778,-26.705019,9.151975632,-153.2116394,0.143651441,0.68919605,12.34378052,-19.32224846,14.51979351,4.193846226
5.558111,-26.8583107,9.297528267,-153.2767334,-2.35140729,-0.028922882,10.43947506,-18.14419746,18.21841431,1.328124285
5.566444,-26.98612404,9.403105736,-153.2742615,-0.45401305,-0.978700995,8.071617126,-16.18409157,10.70887852,5.544689655
5.574777,-27.11231995,9.472403526,-153.3163605,-1.134802461,0.963723958,12.74756527,-15.31796837,8.833557129,-0.348161548
5.58311,-27.26980782,9.58032608,-153.3192749,0.007605608,-0.030134413,8.304223061,-19.63694763,11.22196102,5.16032362
5.591443,-27.4093914,9.615281105,-153.342453,-0.932152092,-0.473119527,9.192856789,-17.30394554,4.130347729,-0.172704011
5.599776,-27.52439308,9.683776855,-153.320694,-0.8548823,0.719812751,11.24174309,-15.03577518,5.649655819,5.62519455
5.608109,-27.65615845,9.742404938,-153.3479462,-1.424215913,0.826132596,11.9263525,-16.2827034,6.86879158,0.736383855
5.616442,-27.74361801,9.797364235,-153.319519,-1.285853744,-0.561462462,12.19558907,-11.87003613,3.820824862,5.591153145
5.624775,-27.84723854,9.793018341,-153.3224945,-0.744743049,1.379368901,12.40590477,-13.36452293,-1.048608422,-0.427924246
5.633108,-27.92237091,9.887747765,-153.3141785,-3.167488813,-0.581945956,10.46608067,-9.980830193,9.130681038,5.735770702
5.641441,-27.98568535,9.85877037,-153.2767334,-0.356969893,0.895761311,12.05823326,-9.351205826,-5.870462894,2.345674515
5.649774,-28.04140091,9.950685501,-153.2759399,-2.125720739,0.604222894,11.71004963,-7.500195026,9.237007141,4.813709259
5.658107,-28.09030342,9.92694664,-153.255661,-0.132709771,0.221778721,7.664777279,-7.26282692,-4.32682085,0.769041836
5.66644,-28.08537483,9.970726013,-153.2200012,-2.640874863,0.03777869,13.61966801,-0.945254982,2.192809105,5.744223118
5.674773,-28.11732292,9.954099655,-153.2050476,1.231482267,0.639297187,6.073786736,-5.11571312,-3.259014368,0.575090766
5.683106,-28.09477425,9.979662895,-153.1775818,-3.14568758,-0.424059302,14.31332588,1.33829248,0.720093012,3.859783411
5.691439,-28.09768295,9.945413589,-153.1403351,1.709124207,0.65286231,7.35125351,-2.084627628,-6.334336758,1.848681808
5.699772,-28.0702858,9.971193314,-153.1190948,-4.043455601,-0.482836097,14.06864643,2.050777674,1.091857791,3.220861435
5.708105,-28.03205872,9.919953346,-153.065979,2.086601734,0.712396979,6.023877144,2.520491838,-8.998139381,2.519467354
5.716438,-27.99028397,9.974492073,-153.0619354,-5.028306007,-0.107565798,17.63694572,4.133292675,5.098385811,3.045609474
5.724771,-27.93459892,9.899930954,-152.9876709,2.4910748,0.287372321,5.918486595,4.175940037,-12.6387434,3.428235054
5.733104,-27.86207581,9.935394287,-152.9811707,-4.840127945,0.776203871,13.99615097,7.772384167,2.946328878,2.220677376
5.741437,-27.78118706,9.889614105,-152.9284058,0.371400058,-0.267646581,8.671741486,7.654660702,-8.361652374,2.775660992
5.74977,-27.68628883,9.904237747,-152.9088745,-3.807223082,-0.476697654,14.84805202,10.18834496,0.023462642,2.41109395
5.758103,-27.61468506,9.870197296,-152.8732758,0.619890928,0.57179302,8.634173393,6.894431591,-6.158930779,1.649966836
5.766436,-27.50860023,9.847736359,-152.8566895,-3.302558899,0.323657125,13.09980679,11.59497547,-3.75280571,0.041264534
5.774769,-27.42391586,9.855113983,-152.8286591,-0.823964834,-1.091993809,7.238857269,8.617527008,-1.316815257,3.141022921
5.783102,-27.31131172,9.816375732,-152.7936401,-1.559957266,0.061042354,12.4956398,12.00106525,-6.48725462,1.089655399
5.791435,-27.24086571,9.827694893,-152.7624817,-0.742272258,-0.305933237,9.677201271,6.849324226,-1.045176268,3.67443943
5.799768,-27.13495064,9.781447411,-152.7409515,-1.796220064,-0.473686874,9.502463341,11.47305202,-6.556002617,-0.720746219
5.808101,-27.05850601,9.815814972,-152.705246,-1.596289515,-0.317775339,10.38923168,7.47597599,1.185887933,5.413030624
5.816434,-26.97405243,9.762648582,-152.6856537,-0.646788478,-0.704445064,9.280245781,8.938089371,-7.190852165,-1.282978773
5.824767,-26.90372658,9.796442986,-152.6604767,-1.081658244,0.183353543,12.68046284,6.953214169,1.701041222,4.275835514
5.8331,-26.83436394,9.75519371,-152.6501007,-2.512312651,-0.74352324,9.944618225,7.31581068,-5.42518568,-1.593372107
5.841433,-26.75274658,9.805902481,-152.6160278,-0.600693822,-0.32098335,13.12688637,8.121608734,3.048555613,6.129640579
5.849766,-26.69498253,9.765328407,-152.6037292,-2.316964626,-0.252927512,10.5709362,5.883488178,-5.458227634,-1.34025228
5.858099,-26.61472702,9.805334091,-152.571167,-0.565764964,-0.218607813,11.51655865,7.989208221,2.01038456,5.356449127
5.866432,-26.55572891,9.812067986,-152.5747833,-3.405337334,-0.288747698,12.85903835,6.358375072,0.459724307,-0.471365929
5.874765,-26.4886837,9.819783211,-152.5121613,1.21525979,-0.712022722,8.667646408,5.779494286,-3.03371191,6.809187412
5.883098,-26.4371109,9.834899902,-152.5161743,-3.580811024,0.015242003,13.55451488,5.473454475,1.379249811,-0.06468875
5.891431,-26.39022446,9.831547737,-152.4500275,1.066358209,-1.00997901,4.627140045,3.285255909,-4.383914471,6.57532692
5.899764,-26.33786011,9.867528915,-152.4712372,-2.560554981,-0.049007602,14.74279881,5.922497749,4.525445938,-0.7787624
5.908097,-26.30867767,9.852200508,-152.3997955,0.402240455,-1.206525803,7.000134468,1.04649508,-5.935317516,6.500585079
5.91643,-26.26445389,9.891331673,-152.424942,-3.392927647,0.031183809,12.27291107,5.028612137,5.070158482,-1.034443736
5.924763,-26.23666573,9.896501541,-152.3744659,-0.268511027,-0.694897711,10.74121857,1.300793409,-2.632695436,5.392155647
5.933096,-26.21336555,9.935501099,-152.4026337,-3.159059286,-0.263994515,12.91599751,2.580429316,5.212728024,-1.36771059
5.941429,-26.17501068,9.950493813,-152.3635712,-0.654261053,-1.071522593,10.25470829,2.796843767,-0.963492215,4.684587479
5.949762,-26.15940475,10.01238155,-152.3816528,-3.453320503,0.17572473,10.65579319,1.452096581,7.15170002,0.907614887
5.958095,-26.12739182,10.01123619,-152.3552856,1.556237698,-0.779912531,5.906336784,2.28932333,-2.045258045,2.499257565
5.966428,-26.09505081,10.07270908,-152.3800659,-3.78114295,0.11082992,14.5987606,3.60246253,7.45648241,0.168900251
5.974761,-26.07205963,10.04920387,-152.3314362,0.850816011,-1.415767193,4.544297218,0.735717654,-5.597978115,3.663142681
5.983094,-26.03260803,10.10211563,-152.3521423,-2.615787029,0.262269735,12.78557014,4.37447691,6.322977066,0.141493067
5.991427,-26.01156616,10.07341766,-152.3125305,1.162920475,-1.196320772,7.163555145,0.675626755,-5.710092545,2.488448858
5.99976,-25.95848846,10.10323715,-152.3240051,-3.571395636,0.608627021,16.93641853,5.81466198,3.355029345,-0.099908322
6.008093,-25.93457603,10.12611675,-152.302597,-0.089479163,-1.905372262,8.774291039,1.404121161,0.817965031,3.235155106
6.016426,-25.88546181,10.08619976,-152.2815094,-2.243026733,0.696213484,13.29026127,4.653132915,-5.852404118,-0.302440047
6.024759,-25.83353043,10.13705826,-152.2847595,-0.734882414,-1.146199346,8.405991554,5.276353836,5.095926285,2.119398832
6.033092,-25.7932415,10.06037712,-152.241333,-2.05793786,-0.444478422,12.57736301,3.123604774,-10.97461128,0.161677063
6.041425,-25.75353432,10.12794971,-152.2654877,-0.545256615,-1.117921829,9.921461105,4.253473759,7.995611668,0.7296471
6.049758,-25.70717049,10.00463772,-152.2008667,-0.554086566,0.341037691,9.122326851,3.411253214,-17.10159111,0.005250919
6.058091,-25.67440414,10.05448437,-152.2087402,-2.443581343,-2.127938747,10.17459393,3.063641787,5.214699268,1.595049739
6.066424,-25.6293335,9.947012901,-152.150177,0.850458801,0.356838346,8.323253632,3.39183712,-15.07808971,0.208320603
6.074757,-25.60341835,9.981946945,-152.1696625,-4.922734737,-0.306729287,18.99230766,2.477613688,4.193690777,-0.41383642
6.08309,-25.57972145,9.915459633,-152.1263428,-0.229227468,-2.398154736,2.036853075,1.1499511,-9.863209724,0.722603202
6.091423,-25.52850914,9.93459034,-152.1301117,-3.550707579,0.927207649,17.86555862,5.183757782,1.669792056,0.456957966
6.099756,-25.53712082,9.906404495,-152.1222687,0.34652257,-1.936288238,3.394520998,-1.992672324,-3.907567024,-1.069023013
6.108089,-25.49866867,9.840816498,-152.0920105,-2.19433856,-0.490879446,13.1237402,2.95590806,-9.228385925,-0.312634557
6.116422,-25.49931526,9.904834747,-152.1157074,-0.784120083,-0.486057043,7.945187092,-0.387479424,7.684220791,0.330474883
6.124755,-25.50048447,9.77058506,-152.0625153,-0.854016244,-1.596665621,7.586633682,-2.266360998,-17.8332386,-1.406362891
6.133088,-25.48662949,9.874756813,-152.1136475,-2.734389782,-0.85635978,11.45098114,1.913127661,13.43141651,-0.527179539
6.141421,-25.47717667,9.753479004,-152.0571136,0.650964618,0.000386901,11.1140871,-1.058803082,-16.60377884,-0.367321044
6.149754,-25.48764992,9.845817566,-152.1114502,-4.652924538,-0.983683884,19.05324936,-0.942642331,12.312047,-1.482078195
6.158087,-25.47291183,9.782567978,-152.0766602,1.128226042,-0.683553994,2.930290937,0.017212769,-9.207767487,0.304117888
6.16642,-25.46418571,9.825550079,-152.0991974,-4.732294083,0.034966242,17.13965988,0.712869823,5.346869469,-0.636091173
6.174753,-25.47122574,9.800180435,-152.0960083,2.748252869,-1.559236646,0.561862886,-1.966417432,-3.545304537,-1.01764071
6.183086,-25.44993591,9.733804703,-152.068634,-2.994065523,-0.429194778,16.99643517,1.201205373,-9.038842201,-0.949507058
6.191419,-25.47349739,9.813303947,-152.0952759,-0.549525559,-1.261334896,8.342123032,-3.339725018,9.329089165,1.22274673
6.199752,-25.46555138,9.674517632,-152.0317535,-1.089746237,-0.075028047,6.885692596,-1.134544492,-18.72312737,-0.827224791
6.208085,-25.45549583,9.80064106,-152.0835724,-3.995145798,-0.639387608,18.09102249,1.189320326,15.62212467,1.022725344
6.216418,-25.48465919,9.683434486,-152.0360718,-0.111924402,-1.207283854,4.817698479,-5.259795666,-15.57121944,-1.424548984
6.224751,-25.49431229,9.759063721,-152.0659332,-3.332943916,-0.383802712,16.39893913,-1.619063139,9.038957596,0.755235851
6.233084,-25.50346947,9.702882767,-152.0368958,0.666401863,-1.982759356,0.515609741,-2.484055519,-8.018343925,-0.252645999
6.241417,-25.50454903,9.698577881,-152.0217896,-3.175866604,0.815454423,12.18410683,-1.505361319,-1.932606697,1.474765301
6.24975,-25.50801086,9.727838516,-152.0404358,1.677666306,-1.45400703,3.926092863,-0.835088074,3.6627841,-0.926505268
6.258083,-25.50722122,9.62912178,-151.9944611,-3.125917673,-0.093718767,19.88555717,-1.900871515,-13.73265362,-0.102085568
6.266416,-25.53412056,9.761538506,-152.0582428,-3.291567326,-2.233627319,11.25435162,-2.736996889,17.1341095,-0.412709475
6.274749,-25.52172089,9.644638062,-151.9932861,1.238658547,0.475664556,6.809372425,-0.906167746,-16.69089127,1.023877978
6.283082,-25.52065659,9.749954224,-152.0589294,-5.78949213,-1.095547438,18.87816429,0.659028769,14.29338455,-2.009910583
6.291415,-25.52740288,9.667086601,-152.0105133,2.826998711,-1.551961184,-2.230899572,-2.886173964,-12.20086861,1.096699238
6.299748,-25.51814461,9.651556969,-152.032486,-2.81662178,-0.025924435,21.3644352,0.757694662,-1.018895864,-3.595508575
6.308081,-25.54935837,9.681285858,-152.0363312,-0.112488411,-1.669765592,3.071882725,-4.762698174,2.650330544,1.355428576
6.316414,-25.54648781,9.552168846,-151.9858246,-1.984829545,-0.969331324,9.3058815,-1.465301156,-17.01317215,-1.739347935
6.324747,-25.5425415,9.674832344,-152.0450745,-2.724514723,0.151685849,15.68168259,0.55096221,15.49028873,0.352656811
6.33308,-25.57130241,9.511654854,-151.9899139,0.42224592,-1.255271554,5.993791103,-5.351801395,-20.93932724,-3.005050421
6.341413,-25.56139755,9.646307945,-152.049118,-6.077585697,-0.949092031,18.85562325,1.253868222,16.75821686,1.039067149
6.349746,-25.56624794,9.592559814,-152.0208435,2.251223564,-0.084663823,1.147170782,-1.944671392,-7.718197346,-0.215044349
6.358079,-25.5558033,9.582771301,-152.0193024,-5.078486443,-0.08377853,14.45091057,0.125279218,-1.932017684,-0.055057794
6.366412,-25.54107475,9.654324532,-152.0536194,1.374317527,-1.948685765,3.751466751,1.658982992,9.041007042,-0.409123421
6.374745,-25.53564453,9.559725761,-152.0124664,-2.053541183,-0.497821808,10.63267422,-1.255930066,-13.10466576,-0.28310132
6.383078,-25.5353756,9.673167229,-152.0856323,-2.11070466,-0.283314079,13.38149834,0.702547371,15.55980492,-2.393740177
6.391411,-25.50368118,9.565648079,-152.0288696,-0.843908548,-2.242779493,5.750845909,1.575788021,-15.31573963,0.753263533
6.399744,-25.47834969,9.661102295,-152.0794067,-4.990452766,0.420912683,19.5754776,3.255646467,12.45686913,-0.916003525
6.408077,-25.44898033,9.644442558,-152.08255,1.820605755,-2.020167351,2.385995626,2.506660461,-2.403063774,-0.991155684
6.41641,-25.42094231,9.629228592,-152.0835876,-3.381844997,0.277795792,21.05586815,2.589086533,-2.051123857,-1.345323563
6.424743,-25.42485619,9.72800827,-152.1325531,-1.725248098,-2.210745811,2.54135251,-0.577716291,12.39882851,0.138291255
6.433076,-25.38471603,9.608540535,-152.0700684,1.063083053,-0.289277196,8.046315193,2.763264179,-16.57680702,0.075894997
6.441409,-25.36188507,9.741896629,-152.161026,-4.455862522,-0.365329742,14.64663315,3.483332157,18.28137207,-2.588178635
6.449742,-25.33789825,9.63961792,-152.1060486,3.215307474,-2.137097836,-1.228887796,0.973392248,-14.33227921,0.173177868
6.458075,-25.28896713,9.741589546,-152.1753387,-6.549805164,0.063309558,25.61383438,6.188323498,13.7865057,-1.919620872
6.466408,-25.27384567,9.743617058,-152.1734314,1.097382069,-0.579659224,3.612686396,0.979334652,-0.331435353,-0.141813204
6.474741,-25.20980835,9.717684746,-152.157959,-4.230138779,-1.168736815,12.90073586,6.277076721,-4.399027824,0.634054899
6.483074,-25.16054535,9.86296463,-152.2151489,-0.08767096,-0.414303541,8.986859322,6.28237915,18.20012093,0.850085378
6.491407,-25.12234116,9.711389542,-152.1583099,0.818826556,-1.64452827,2.270422935,2.351284981,-20.07328033,-1.447268844
6.49974,-25.04813957,9.818413734,-152.2113342,-3.699827909,-0.149434343,17.12508202,9.187776566,13.8353014,-0.682376206
6.508073,-25.02114487,9.752775192,-152.1813812,0.759625077,-2.269114494,2.829929829,1.528734684,-9.457327843,0.227992326
6.516406,-24.95031548,9.757575989,-152.1824951,-3.771927595,0.126987502,17.35780525,7.725126743,0.12138588,-0.323879242
6.524739,-24.87954903,9.852273941,-152.2417908,-2.596754074,-0.872093737,11.53484249,8.604564667,12.44065666,-1.21922493
6.533072,-24.83858681,9.746692657,-152.1923065,-0.62513411,-1.893009901,11.01611614,3.108338833,-14.41217041,-0.465602785
6.541405,-24.77298164,9.89026165,-152.2792664,-3.365320921,-0.310554862,13.58096409,8.568834305,19.17676926,-1.846697211
6.549738,-24.71387863,9.793927193,-152.2318115,1.854709744,-1.37881732,0.307485968,5.323714256,-13.30245876,-0.191760972
6.558071,-24.65955734,9.836769104,-152.2584686,-4.879108906,-1.005365729,17.01079178,5.998650074,5.244925022,-0.525027812
6.566404,-24.60688782,9.871863365,-152.2849579,2.157919884,-1.520958543,5.681972504,6.06847477,4.677032471,-1.538865089
6.574737,-24.57441711,9.776406288,-152.2646332,-4.357037544,-1.207842708,16.64299202,2.428332329,-12.12143898,-2.468303204
6.58307,-24.54179573,9.936623573,-152.3378906,-3.345793486,-1.112383008,11.07118893,4.621219635,20.63153076,-0.334560424
6.591403,-24.49908066,9.820082664,-152.2962189,1.624898911,-2.078290224,0.594335616,3.223654509,-15.45672035,-1.248553395
6.599736,-24.46273422,9.896279335,-152.3378296,-5.114215374,0.325984538,16.85032463,4.420300484,9.903719902,-1.135671258
6.608069,-24.44666481,9.866781235,-152.3383179,2.742771626,-2.703988314,0.330899209,0.906923175,-3.861922503,-1.498138189
6.616402,-24.4182148,9.847649574,-152.335144,-3.795245886,0.262617826,19.68629456,2.55107522,-2.701059341,-1.057931781
6.624735,-24.41106033,9.956544876,-152.4049683,-2.943988562,-1.917246938,11.88426304,1.229150414,14.55836391,-1.895466328
6.633068,-24.38392258,9.851275444,-152.3545685,-1.243102193,-0.818508029,7.110830784,1.420181274,-14.4230566,-0.239992604
6.641401,-24.36651993,10.01225376,-152.4377594,-2.758482695,-1.354163051,13.41725826,2.734269381,20.88303757,-0.720823228
6.649734,-24.38445473,9.899852753,-152.3976288,3.060418367,-2.032796383,-2.537626505,-3.782313824,-14.70033264,-1.695496202
6.658067,-24.37504196,9.996829987,-152.4388428,-5.87049675,-0.33640343,22.85493088,0.932486355,11.89238358,0.511567593
6.6664,-24.37791252,10.05513763,-152.4571991,0.461512506,-0.767240703,5.532566547,-0.756887734,6.81307888,0.461952686
6.674733,-24.36372185,10.00691795,-152.4375916,-4.128864765,-1.317874193,12.86104584,0.250635296,-6.920466423,-0.18991673
6.683066,-24.3615036,10.17393494,-152.4982452,0.05975268,-1.720840812,4.415962696,0.744657338,20.75880814,1.291751981
6.691399,-24.37353516,10.0404768,-152.4439087,0.906745851,-1.698896289,4.987154961,-3.591411352,-17.84287071,-0.86708051
6.699732,-24.38924408,10.16592216,-152.5070801,-4.153531075,-0.644052863,17.83670998,-1.352521658,16.33601952,-1.031190872
6.708065,-24.38036919,10.10350609,-152.4798889,-0.166873828,-0.622360647,6.642408848,-0.532968223,-8.798118591,-0.178364739
6.716398,-24.36510658,10.21324253,-152.5225677,-6.410345078,-1.289896607,20.44213676,1.937819719,13.61955261,0.396149844
6.724731,-24.33104324,10.24442673,-152.5371094,4.106569767,-0.664917231,-2.944007397,3.35648942,3.428900957,0.050664958
6.733064,-24.28227234,10.18371868,-152.5179749,-3.348299742,-0.446322054,17.02140617,4.648266792,-8.026158333,-1.3853333
6.741397,-24.25193977,10.28061771,-152.54599,-0.116390981,-2.929245949,4.174938679,3.212384224,11.30625343,1.763694167
6.74973,-24.16428566,10.15669155,-152.4928741,-1.936016679,1.01231885,11.63537788,8.590556145,-16.59153748,-0.825636685
6.758063,-24.08786201,10.32705307,-152.5556641,-4.927679062,-0.563288391,18.01568604,9.481933594,21.02850342,1.60639751
6.766396,-24.00147629,10.21384048,-152.5199432,1.756247163,-1.804182649,-1.177403808,8.805868149,-14.58150959,-2.13068223
6.774729,-23.8871479,10.32452393,-152.5509186,-3.914572001,0.116420999,18.80835915,13.34517479,12.94233894,2.122267962
6.783062,-23.78696442,10.22968292,-152.523056,1.870897412,-1.910633206,-2.739758968,10.62878323,-12.19730854,-2.038112164
6.791395,-23.63184738,10.22462273,-152.4963226,-3.995461702,0.346872032,16.84121513,17.04102898,-2.433596611,2.556429625
6.799728,-23.48073196,10.27270699,-152.5185242,-1.289189458,-1.12379384,7.784493446,17.8126564,5.881311417,-0.544033647
6.808061,-23.2869091,10.18402863,-152.4578705,-2.12798357,-0.091567792,16.79078293,20.97381783,-13.18719959,2.193783522
6.816394,-23.10105515,10.29663181,-152.4899597,-3.107029915,-0.702175379,10.61394978,22.19246864,13.45593548,1.390674591
6.824727,-22.87537003,10.17884445,-152.4113922,-0.349383771,-1.099807978,2.452873468,24.41899109,-17.19455528,2.82883811
6.83306,-22.64902687,10.30319977,-152.4377136,-0.931752443,-0.917331517,10.18821907,26.92621803,14.50694084,2.460300446
6.841393,-22.38845253,10.20134449,-152.3729095,-1.814103484,-0.562307239,7.88424921,28.92359734,-14.72969723,2.075574398
6.849726,-22.1229248,10.33677673,-152.3895111,-4.138820171,-0.936941266,18.36548233,31.42321777,15.32775211,3.895109177
6.858059,-21.83638573,10.29013824,-152.3342896,0.306209624,-0.627560198,3.70612812,32.2204628,-8.169143677,3.71770525
6.866392,-21.53750992,10.36944771,-152.327652,-2.720872164,-0.919177473,8.554178238,34.92884064,8.097822189,3.795752287
6.874725,-21.20658875,10.30549908,-152.2819672,1.449347377,-1.00598681,3.998331785,37.78094101,-9.583182335,1.829396844
6.883058,-20.88716316,10.37725735,-152.2693787,-4.163413525,-1.406296492,14.83622932,37.26573181,7.047201633,4.031685352
6.891391,-20.52955437,10.33466339,-152.2327118,0.538486004,-0.150040448,7.79309082,41.19169235,-6.756570339,1.77560699
6.899724,-20.14560127,10.45484447,-152.234024,-5.805516243,-0.040217541,17.24371147,45.30912781,13.11989307,4.420282364
6.908057,-19.7748909,10.41920471,-152.2002258,1.46073544,-0.968825936,4.11024332,42.84453583,-5.77869606,1.692412019
6.91639,-19.35615158,10.48766994,-152.1825562,-2.173764229,-1.368468285,11.27615738,49.06975555,6.586279392,4.268595695
6.924723,-18.94803429,10.44583035,-152.1262512,0.186492309,-0.542773187,9.594089508,46.86159515,-7.288070679,3.936019182
6.933056,-18.52648354,10.51379967,-152.0950165,-4.474951267,-1.638889313,11.62606525,49.11091995,6.084393024,5.662602425
6.941389,-18.08272362,10.52785683,-152.0543365,0.432659984,-0.537920475,8.489069939,51.47504807,-0.275801927,4.393261433
6.949722,-17.65690994,10.56810188,-152.0161438,-3.830585241,-1.806481242,10.08524704,49.46439743,2.758274794,5.322854519
6.958055,-17.22510719,10.52765083,-151.9502716,1.18688333,-1.794085979,3.59294343,49.50076675,-7.307770729,5.182385921
6.966388,-16.78193474,10.59933662,-151.9260559,-4.187067509,-0.767458737,16.83364868,51.85547638,6.935839176,4.796687126
6.974721,-16.38091278,10.57849598,-151.8865967,-0.07042554,-1.713296652,10.51949596,46.39645004,-4.058570385,2.906478167
6.983054,-15.97196388,10.63786221,-151.8597565,-3.821648359,-2.354013205,11.69587708,47.68885422,5.504509449,4.576119423
6.991387,-15.59601021,10.60214806,-151.8038483,2.99124074,-1.542637944,5.62092495,43.04392624,-6.228047371,4.235756397
6.99972,-15.24392223,10.63026333,-151.7917175,-6.1828866,-1.915948868,17.50505257,41.18659973,2.415707827,1.82875669
7.008053,-14.90298653,10.66533852,-151.7412872,1.10586524,-2.053215981,1.407049775,38.96570206,2.208667278,5.872404099
7.016386,-14.55232143,10.60877705,-151.7129211,-0.240811557,-1.983843565,8.839297295,40.65773773,-7.870305061,1.062172532
7.024719,-14.26725101,10.61258221,-151.6488037,-2.227889299,-1.194011927,14.14498711,31.96260071,-1.755178809,6.482200623
7.033052,-13.98140335,10.63474274,-151.6315918,-4.090593815,-2.021168947,11.70970726,33.1269455,1.626556635,2.169604778
7.041385,-13.71152306,10.65622425,-151.5764465,2.498631477,-2.254693985,4.06095171,30.34331131,0.633081973,5.944146156
7.049718,-13.47166634,10.56622505,-151.5572205,-2.880486965,-2.550799847,15.95943069,27.56285667,-11.48731327,-0.781580508
7.058051,-13.28155613,10.66545868,-151.5040283,-2.28986454,-1.453142762,14.30102348,20.82261658,9.821911812,7.847641468
7.066384,-13.10735226,10.60212326,-151.4842834,-1.214286089,-2.287051439,1.509402037,19.6714859,-8.386271477,0.083937891
7.074717,-12.94838428,10.59923744,-151.4166565,-0.971292734,-2.271027088,5.795307159,16.77282143,-2.44773531,6.666285992
7.08305,-12.75232601,10.58037567,-151.4073944,-2.367829084,-0.243056506,17.34457779,22.52691078,-2.906486988,0.112420939
7.091383,-12.60296059,10.62926865,-151.3560028,-2.104910135,-2.871729612,11.73411369,16.00185585,4.105757236,6.061789036
7.099716,-12.50316143,10.55912304,-151.3274536,-0.078136198,-0.983790874,7.674098969,10.54968548,-9.404742241,1.010148764
7.108049,-12.4186573,10.58929443,-151.3054352,-3.715279341,-2.40121913,12.64160252,8.849845886,2.661652327,2.27772069
7.116382,-12.29584312,10.60506153,-151.2823792,-1.790926218,-1.386033654,7.370951176,13.43220997,0.809640527,2.612345219
7.124715,-12.20693111,10.52146912,-151.2383423,1.790906429,-1.834414244,4.092825413,8.915188789,-11.2005291,1.813283086
7.133048,-12.11374187,10.54353046,-151.2337036,-4.566431999,-0.841740608,15.84222317,10.28483486,2.01845336,0.644684732
7.141381,-12.05968475,10.56983185,-151.2052155,0.051469106,-2.342089891,8.518287659,5.056480885,2.062586308,2.914669514
7.149714,-11.97573662,10.52908039,-151.1858063,-0.42656523,-1.340048194,6.644426823,8.851409912,-5.715855598,0.772038758
7.158047,-11.89111328,10.49105358,-151.1338043,-2.641546965,-1.875884295,12.89159107,8.224064827,-6.038619995,3.964058638
7.16638,-11.81442928,10.58612251,-151.1233063,-1.893702865,0.031652749,14.21108532,8.176550865,10.45445061,3.104752779
7.174713,-11.75233841,10.49495411,-151.0908966,-0.6349985,-1.558466077,-0.857221365,5.957358837,-11.78773499,0.364029527
7.183046,-11.65986252,10.53373432,-151.0405731,-2.09976244,-0.443873972,10.73503304,9.200659752,2.896534443,6.308555603
7.191379,-11.52938461,10.50027943,-151.0252838,-2.942445278,-1.258133888,13.64679241,14.54781151,-4.589725971,-0.213174492
7.199712,-11.39090347,10.56195927,-150.9773712,-1.009205222,-1.184991121,8.194166183,14.77119446,5.675321579,6.561344147
7.208045,-11.26746082,10.54070377,-150.9664001,1.108519077,-0.596655846,8.461359978,13.79395962,-3.057738543,-0.37628597
7.216378,-11.14428234,10.56445217,-150.903656,-3.768220186,-0.341581792,14.40598392,12.60627651,0.900366008,7.36429739
7.224711,-10.96242809,10.67303371,-150.8873138,-2.569200277,-1.651737809,2.374499798,20.68112373,12.10913467,3.264382124
7.233044,-10.69067478,10.63235283,-150.8141174,1.317247272,0.752533138,3.035419703,30.19239807,-6.873317242,7.111516476
7.241377,-10.36770535,10.6612978,-150.7477112,-3.501464844,2.106788158,13.38973904,36.50914383,1.672944665,7.18416214
7.24971,-10.01760483,10.75921154,-150.6621246,-1.041052341,0.211895347,7.847264767,39.31076813,9.321317673,11.56287384
7.258043,-9.538721085,10.80506325,-150.5885925,-2.140295267,1.442085385,11.69161701,55.04345322,3.629009008,8.326800346
7.266376,-8.959584236,10.90398407,-150.4689789,-2.192590475,1.585708141,10.85881424,66.00119019,8.994474411,15.37370205
7.274709,-8.358610153,11.00598812,-150.3822632,-1.861984015,0.358003616,5.464906216,69.37802124,10.23516083,10.73776627
7.283042,-7.657028198,11.07127953,-150.2876129,-0.550881207,-0.353785485,4.898477077,81.22454834,5.749865532,11.68202877
7.291375,-6.915500641,11.15354729,-150.2019653,-1.808584571,0.01772511,12.94734764,86.24368286,8.167768478,10.04883957
7.299708,-6.175698757,11.29123306,-150.1259308,-2.886539698,-0.755521894,9.634396553,86.21108246,14.93812084,10.32568073
7.308041,-5.367303848,11.3567543,-150.063446,-0.982901692,0.100338668,7.874025822,94.77906036,6.716847897,6.906215191
7.316374,-4.510373592,11.417202,-149.9762878,-1.850913644,-1.062950611,9.291982651,99.97666168,5.888380527,10.39109516
7.324707,-3.689670324,11.48989964,-149.8991241,0.296549767,0.166734576,9.154553413,95.87950897,7.660332203,8.540393829
7.33304,-2.846562386,11.53330612,-149.8262634,-2.317768335,-1.345668912,11.19235325,98.64048767,4.25581646,8.399877548
7.341373,-1.932201028,11.6102972,-149.7194061,-1.417894959,-0.741483927,11.36290646,106.3786545,8.293154716,11.84409142
7.349706,-1.0060004,11.59909916,-149.6206512,0.124963969,0.660101414,11.48236465,107.9720917,-2.095791101,11.12132931
7.358039,-0.091284312,11.57503414,-149.50383,-0.662664473,0.108864121,10.96458054,106.1762314,-3.45143795,12.63821793
7.366372,0.874037385,11.56698227,-149.3987732,-3.007938147,-1.00239563,8.427865982,112.5214005,-1.339216709,11.90726757
7.374705,1.898676038,11.52091789,-149.2526855,1.426011682,0.433282584,9.962749481,118.6657715,-5.561906815,16.29657173
7.383038,2.897106409,11.42654324,-149.1603546,-1.142127156,-0.067402154,6.598741055,116.8190231,-11.31762028,10.87434769
7.391371,3.947393417,11.33063984,-149.022995,-2.185009241,-0.574985087,9.244894028,121.8907928,-10.96125793,16.34911728
7.399704,5.051022053,11.22245693,-148.9204407,-1.817216992,-0.649523377,16.07570839,129.2435455,-12.45197105,12.59970284
7.408037,6.138708115,11.12589455,-148.7926025,-1.193992972,-0.455306053,13.89329815,126.6616287,-10.50379562,15.63938332
7.41637,7.172729015,11.0053587,-148.7169037,-0.710218728,-1.567061186,9.280245781,121.5512772,-13.78959274,10.08407307
7.424703,8.228856087,10.86260128,-148.6141815,-1.045956135,-1.401850104,9.956930161,123.5127563,-15.79143143,13.82052898
7.433036,9.315721512,10.72275734,-148.5483704,-2.868586779,-2.117546797,9.275510788,128.1573334,-15.85727596,9.776329041
7.441369,10.41059494,10.50459576,-148.4793854,1.636757135,0.221228242,11.00406075,128.9842529,-24.83761978,12.0334177
7.449702,11.46074963,10.3210516,-148.4333801,-3.353251696,-0.019947425,15.66700363,124.2322235,-21.05297852,9.061367035
7.458035,12.4864006,10.16482353,-148.3448639,-0.60414803,-2.16138339,9.821201324,120.3170319,-16.60763168,13.6460104
7.466368,13.49824905,9.966942787,-148.3325653,-1.713076711,-1.608009577,9.997095108,120.3752518,-23.2676754,6.306128502
7.474701,14.50618458,9.764748573,-148.2685547,-1.169800043,-2.47283864,9.378461838,118.7684021,-22.14677811,12.74844646
7.483034,15.50314617,9.573079109,-148.249176,-1.282460213,-1.307756305,16.65347481,118.4564743,-22.07971573,7.72089529
7.491367,16.47075272,9.386422157,-148.1876526,-1.576792002,-1.295203805,8.59646225,114.0370483,-19.9610424,12.70373726
7.4997,17.3921051,9.146540642,-148.1840973,0.95119977,-0.421755791,10.02288914,109.7050247,-27.87297058,8.337143898
7.508033,18.32466316,8.990018845,-148.1129608,-6.525012016,-1.968852878,16.93222046,109.7070618,-15.72758102,13.31816578
7.516366,19.20329666,8.802791595,-148.080368,2.438955545,-0.740421891,10.1391201,104.0421143,-20.48637772,10.43733978
7.524699,20.01950264,8.626828194,-148.0530853,-5.34555006,-4.271148682,13.77627468,96.60129547,-19.23762131,9.670327187
7.533032,20.80877876,8.504231453,-147.9714508,0.884431899,-0.947611034,15.27079201,92.46339417,-10.86404228,13.76266098
7.541365,21.52577591,8.357933998,-147.960083,-3.472419024,-2.712778568,5.852686882,85.0041275,-16.32043457,7.131997585
7.549698,22.21250343,8.210991859,-147.9011536,1.577891946,-1.88033998,9.175075531,80.59636688,-14.21282101,12.61608505
7.558031,22.88071442,8.142313957,-147.8762207,-6.414851189,-2.558393002,13.83240604,78.93083191,-6.911054134,5.432066917
7.566364,23.46896362,7.981526852,-147.8228149,5.025321484,-1.384539723,7.892711163,68.89949036,-15.69784641,12.97717953
7.574697,23.98722076,7.961640835,-147.8271637,-8.986625671,-4.02444315,21.23887634,61.44182205,-2.826758146,0.024103075
7.58303,24.45653152,7.850267887,-147.7420044,5.700856209,-1.378976345,4.57295084,54.11886978,-8.490410805,14.26624489
7.591363,24.86048698,7.74969244,-147.7947845,-6.047105312,-1.969927907,11.60421848,48.52437973,-14.02065945,-1.127195358
7.599696,25.26987267,7.704306602,-147.711319,0.8849985,-1.626004577,16.38772392,46.98630524,-1.184135556,10.85023689
7.608029,25.59507942,7.600498199,-147.7626953,-2.242208004,-2.681131124,7.640254498,39.04542542,-14.30942631,-0.630431294
7.616362,25.86851883,7.527752399,-147.7000732,-0.070804134,-1.699861765,24.17784691,31.02906418,-5.085007191,10.05436516
7.624695,26.05811691,7.511806965,-147.7079315,-3.385811806,-3.49764514,6.91634655,22.08724213,-2.563102484,-0.462811023
7.633028,26.20490265,7.349246979,-147.6977692,1.794721603,-1.682688832,9.232963562,16.65984154,-17.43609428,9.230530739
7.641361,26.34565544,7.428145885,-147.6261749,-5.198200703,-1.076932788,11.16389275,15.00684643,11.82911777,2.990898132
7.649694,26.44687271,7.261472225,-147.6278229,3.603162527,-2.211988688,1.797478676,11.37510777,-18.45915031,8.26743412
7.658027,26.48278236,7.270944595,-147.592804,-4.788416386,-2.397448063,22.40441513,3.006445169,2.442112684,2.769257545
7.66636,26.5069294,7.233149052,-147.5174408,-1.030306816,-1.960451007,3.702484369,0.957946718,-0.513219595,9.604058266
7.674693,26.51079178,7.113945484,-147.5452118,2.663695812,0.151127055,6.44666338,0.117466912,-14.71016979,2.973813534
7.683026,26.50693893,7.083455563,-147.4820709,-7.892342567,-2.02713418,20.140131,-2.195383072,-0.374902725,7.91044426
7.691359,26.50847244,7.034294605,-147.4525909,4.250010014,0.06654188,3.992602348,-1.001222134,-4.148366451,5.321997643
7.699692,26.48517036,6.909754753,-147.4696808,-3.869965553,-0.927797556,12.55158138,-3.344950438,-14.73839378,4.401217461
7.708025,26.41591835,6.863468647,-147.4293823,2.377806664,-1.099931002,19.53545952,-9.634937286,-3.270720959,6.318494797
7.716358,26.37990189,6.829426765,-147.4043427,-6.500188351,-1.30693543,6.269010067,-5.478641987,-2.787328243,4.040543079
7.724691,26.35006332,6.683457851,-147.4164124,7.125369549,0.152851224,3.228833914,-4.145805359,-16.76817131,6.039863586
7.733024,26.31386566,6.561913013,-147.4632263,-7.870396614,-1.527241349,14.33533096,-4.492238998,-16.00366402,1.020369053
7.741357,26.30540657,6.475989819,-147.419281,3.946639061,0.638919234,10.96248913,-2.341384649,-7.354423523,8.817854881
7.74969,26.30024338,6.409554005,-147.4682159,-8.953091621,-0.930299163,18.87358665,-0.757810056,-10.18807697,-2.146844625
7.758023,26.27864456,6.269488811,-147.420517,7.682361603,-0.888087392,3.874080181,-3.941993713,-12.98635769,12.09420109
7.766356,26.23205185,6.199110031,-147.4993286,-6.458881855,-1.527112842,8.639596939,-5.361251831,-12.18806076,-5.143735886
7.774689,26.24770355,6.091116905,-147.431076,3.522748709,0.897969663,12.90274048,0.289927572,-8.456273079,12.58576202
7.783022,26.25907326,6.047670364,-147.489563,-7.787995815,-0.706186712,18.37537003,1.308810949,-8.219648361,-4.401077271
7.791355,26.26944542,5.979864597,-147.372345,3.675878525,0.011462549,6.37334013,-0.929246306,-1.540632606,15.69607353
7.799688,26.30106354,5.908521652,-147.4803772,-4.250614643,-0.113852456,4.882778645,4.340051174,-13.84274387,-8.216575623
7.808021,26.36555481,5.756790638,-147.3893127,2.37863183,-0.714801073,7.958383083,5.931567669,-11.92951584,17.37265778
7.816354,26.39508629,5.741026878,-147.4802246,-3.376813412,0.140477851,12.81331348,3.84018898,-6.973642349,-9.332893372
7.824687,26.46625328,5.666579247,-147.3703613,-2.74225688,-1.478310466,14.29588699,6.542593956,-2.595503569,15.27546215
7.83302,26.54266167,5.649818897,-147.4497223,-0.822524071,1.036457896,14.24021912,9.311929703,-6.485257149,-8.032459259
7.841353,26.63472366,5.589879513,-147.3356171,-2.565363884,-1.929858685,8.301480293,9.028276443,-0.76621151,14.95966148
7.849686,26.74015999,5.590832233,-147.4071198,-0.307088435,1.823637605,10.29914761,12.69144726,-4.189606667,-8.130459785
7.858019,26.86433029,5.48181057,-147.3221741,-3.121683359,-2.112288952,9.308836937,13.24604702,-7.536850929,14.50998402
7.866352,26.95508957,5.491438866,-147.3723297,2.752040148,1.018442154,11.0491991,10.67163658,-2.137981892,-6.315382481
7.874685,27.08587837,5.421935558,-147.3035126,-6.148133278,-2.797960281,7.302393436,14.24523163,-4.127875805,10.66804886
7.883018,27.21419716,5.395961285,-147.3357849,3.538005352,1.850845456,13.90841198,14.96634865,-4.98869276,-2.456418514
7.891351,27.35547447,5.385909081,-147.2697296,-8.04524231,-3.644709826,10.49140835,15.55499077,2.110587835,7.12168169
7.899684,27.4904213,5.358977795,-147.2871704,5.101286411,2.216399908,13.3670845,15.59353924,-4.284096718,-0.809320271
7.908017,27.61112213,5.370189667,-147.2542419,-8.028573036,-3.413808584,11.80296421,13.46935272,2.579072714,2.423184156
7.91635,27.70422554,5.347490788,-147.2366638,5.837193489,-0.036771357,9.025473595,10.17958546,-1.893442869,2.674971819
7.924683,27.79628754,5.313028336,-147.2745361,-5.922617912,-1.703179717,8.507884026,10.83661652,-6.202168465,-2.521862745
7.933016,27.88028336,5.316577435,-147.211441,3.615917921,0.494823158,9.871074677,8.581357956,3.442860365,6.020625591
7.941349,27.94836426,5.250020981,-147.2937469,-4.986447811,-2.960793495,11.28644085,8.452596664,-12.09787464,-5.394064426
7.949682,28.00026703,5.263480663,-147.1937103,1.693380713,1.027570844,13.70435905,4.331136703,6.576710701,9.35091114
7.958015,28.03525734,5.21621418,-147.3104401,-5.048882961,-1.654328227,13.88888741,4.863197327,-11.99465084,-10.09064198
7.966348,28.05595779,5.244761467,-147.1769562,-0.553878963,-1.276105523,14.68018913,0.22765933,10.06698418,12.01879025
7.974681,28.06441116,5.245880127,-147.2785034,-3.692129612,0.580769658,13.67192936,1.52763319,-6.02875948,-11.20877838
7.983014,28.05500603,5.235484123,-147.1544952,-0.848996043,-2.405875206,9.589670181,-3.286422253,5.414260864,13.21661472
7.991347,28.04874039,5.283073902,-147.2496643,-1.763693571,0.224662974,10.59356117,-0.294089854,-0.748383999,-13.15679169
7.99968,28.02966881,5.232667446,-147.1421204,-2.857422113,-2.411272287,9.252054214,-4.269649982,0.246998087,13.73696613
8.008013,27.99552345,5.307629108,-147.2121887,1.660473347,-0.233685836,10.77175522,-3.907976866,3.567372084,-12.04979515
8.016346,27.9493351,5.241963387,-147.1433411,-4.695820332,-1.771305919,9.815977097,-7.098026276,-3.557753325,10.51379871
8.024679,27.88757133,5.333699703,-147.1869659,3.609225512,-0.59211719,11.03734398,-7.50301218,6.844021797,-10.19373608
8.033012,27.82570457,5.271731377,-147.1413879,-6.767472744,-1.783669949,12.07166672,-8.724913597,-4.4857831,7.842285156
8.041345,27.73744202,5.385229111,-147.1554718,4.967333794,0.628396034,10.84199905,-10.99663925,10.82127285,-8.268134117
8.049678,27.65853119,5.368354797,-147.1446075,-8.077656746,-2.385525942,11.79964638,-10.38814831,-1.645471334,1.642615318
8.058011,27.56843567,5.487576962,-147.1170807,4.707400799,0.400504142,12.48455048,-11.67600918,13.75697231,-4.144191742
8.066344,27.48635864,5.494786739,-147.129715,-8.587122917,-1.339922905,12.54640102,-10.50133801,-0.386147469,-2.186751604
8.074677,27.37882423,5.608328342,-147.0896606,4.892847538,-0.305974692,10.15424347,-13.9104929,13.85220814,-2.456572533
8.08301,27.3037529,5.666153431,-147.1142883,-9.206356049,-1.237887025,12.91629601,-9.516494751,4.356981277,-6.247375488
8.091343,27.20085144,5.7502141,-147.0649414,3.896502256,-0.089803375,10.66120052,-13.47023296,11.2191391,0.194412068
8.099676,27.11011696,5.843530655,-147.0811157,-7.454794407,-1.262450933,13.01124954,-11.48892021,8.625902176,-7.278708935
8.108009,27.01505089,5.922487736,-147.0413971,3.387191296,-0.153609693,9.410089493,-12.42222786,10.14807987,-0.508506656
8.116342,26.91584587,6.060455322,-147.0395508,-5.187782288,-0.284785718,12.68348312,-12.72563076,14.39953327,-7.759387016
8.124675,26.81023407,6.110479832,-147.0077972,2.413650036,-0.917553484,8.77357769,-13.59605217,6.620076656,0.245666161
8.133008,26.69868469,6.260116577,-146.9935913,-4.440124989,-0.99835521,8.451328278,-14.36732483,16.34122086,-7.01918602
8.141341,26.58463097,6.299222469,-146.9879913,1.95072639,-0.580928504,8.689208984,-14.27562428,4.046282291,-1.924384952
8.149674,26.47803307,6.423600674,-146.9877777,-4.734790802,-1.22018218,10.58457088,-13.5915451,12.90983486,-7.092879295
8.158007,26.37778282,6.450604439,-146.97052,2.687449932,0.246878609,11.75374031,-12.77480412,3.372011423,-0.015842404
8.16634,26.25349808,6.564622402,-146.9984283,-4.21414566,-0.439855576,13.77953911,-15.33216095,10.3328886,-9.497057915
8.174673,26.12428284,6.637969017,-146.9447174,0.048146341,-0.094317295,12.28004551,-16.75334167,10.27735615,1.443336964
8.183006,25.98899269,6.714105606,-146.9849854,-3.111685514,-1.564914227,11.60503101,-16.47217369,5.643791199,-8.773199081
8.191339,25.8898735,6.77462244,-146.9236908,-1.646637321,-1.002470493,10.59450626,-13.26314449,9.281217575,2.979166985
8.199672,25.77269936,6.826292992,-146.9789276,-0.480729461,0.467009097,14.15325069,-14.07293701,2.256076574,-9.075446129
8.208005,25.63887024,6.913208008,-146.9279938,-2.417057276,-1.348584175,12.28987408,-17.29131889,11.58514309,0.530573428
8.216338,25.47680092,6.96509552,-146.9577026,-0.296306014,0.861631989,9.541172981,-19.81585693,3.634712219,-6.327115059
8.224671,25.32189178,7.015951633,-146.9408417,-1.405268073,-2.165459394,7.026760101,-19.33781815,5.930747509,-1.217713833
8.233004,25.19229889,7.057057858,-146.9818268,-1.579707861,0.223980442,12.08657742,-15.74626732,1.921298742,-6.967829704
8.241337,25.0445652,7.088081837,-146.9687805,-0.899251163,-0.026283175,12.4074297,-18.4220314,3.585814714,-0.582250178
8.24967,24.87386513,7.168580055,-146.9918365,-1.853051305,-0.415011913,9.801775932,-20.93766212,7.141918182,-7.015806198
8.258003,24.72475624,7.158147812,-147.0119629,-2.304983139,-1.067028522,9.121362686,-18.09373474,-2.58633399,-2.062932491
8.266336,24.59693909,7.245981216,-147.0107422,-0.400628537,0.910679996,13.22534847,-16.1541481,9.183089256,-4.713852882
8.274669,24.45986557,7.229783535,-147.0408936,-2.725019455,0.166011319,13.62153435,-16.49563789,-3.702731371,-2.869755983
