,time,Euler_X,Euler_Y,Euler_Z,Acc_X,Acc_Y,Acc_Z,Gyr_X,Gyr_Y,Gyr_Z
0,0.0,-6.566425800333334,-4.724359512333334,-152.86939496666665,-3.546375672,-0.10164501766666663,12.272485731666668,0.47544848933333334,-38.33408355666666,-3.291962822666667
1,0.008333,-6.540510495333334,-5.030522505666667,-152.85360206666664,-0.5982325476666667,-1.0683966426666667,7.918647607333334,2.951186100333333,-37.25764974,-2.753623187666667
2,0.016666,-6.548941294333335,-5.4067495663333345,-152.81911213333333,-0.5560439826666667,-1.5792777933333335,9.711477440000001,-1.002338489,-45.899049123333334,-1.514146194
3,0.024999,-6.520428498666667,-5.6503273646666665,-152.83017986666667,-4.336639007,-0.06969185700000002,12.446266653,2.9599030010000003,-29.48796336,-5.087541977666667
4,0.033332,-6.496015866666667,-5.919803142666666,-152.79781596666666,1.0083041686666665,-1.023381273,7.543883959666666,2.9770258813333332,-33.10074996666666,-0.269039375
5,0.041665,-6.474097569666667,-6.243721008333334,-152.79985553333333,-3.021701971666667,-0.759498874,9.849629402,2.260155697666667,-39.13403065666666,-5.087054252666666
6,0.049998,-6.433069865,-6.3988208769999995,-152.78064473333333,-1.7423926390000002,-0.07074044166666667,10.923627854666668,4.833694577,-19.348540943333333,-0.25904562066666664
7,0.058331,-6.401141008,-6.6866621969999995,-152.77102663333335,0.41905573766666665,-1.0196020403333332,6.317310890333334,3.605668386,-34.99599456666667,-3.156398773333333
8,0.066664,-6.362603028666666,-6.889876047666667,-152.74469503333333,-3.155494729666666,-0.8117997946666667,10.338946662,4.682347854333334,-25.192820546666667,-0.07168164333333331
9,0.074997,-6.310053189666665,-7.0234130226666664,-152.74413553333332,-1.7030910056666666,-0.49997547266666675,10.236174582666665,5.911061783666668,-16.537220636666667,-2.133713225333333
10,0.08333,-6.261557579000001,-7.247755368666667,-152.73154196666667,-1.0047156809999997,-1.5214115383333333,11.038498601999999,5.730737050333334,-27.48755709,-1.9161082903333335
11,0.091663,-6.189876079333334,-7.369468371,-152.71486916666666,-2.2054691313333334,-0.3904415816666667,9.548318305333332,8.445830664,-15.267139276,-0.07280460966666658
12,0.099996,-6.129011154333334,-7.494183222333334,-152.7277323333333,-1.8106116256666667,-1.4714938599999998,7.684798201666666,6.816146215666667,-15.355144980333334,-3.5570928256666665
13,0.108329,-6.088596185,-7.677451928333333,-152.68947856666668,1.25552319,-0.19705770433333333,12.377165953666667,5.058567206,-22.88913281666667,1.7112143833333333
14,0.116662,-5.995140552666666,-7.7378656066666665,-152.72626750000003,-5.086615959,-1.697186311,8.377872745333333,10.326359750333333,-7.3896825726666675,-5.5578764676666665
15,0.124995,-5.955183665,-7.871684551333334,-152.68573506666667,2.8223792613333334,-0.7152560053333333,5.0949435843333335,5.034521539666667,-17.091224033333333,2.687173207666666
16,0.133328,-5.900989849999999,-7.999209086333333,-152.72768150000002,-5.473790526333333,-1.1298906803333333,17.00450706333333,5.5313827993333335,-15.274875799666665,-7.020479760000001
17,0.141661,-5.829175472333333,-7.980426470333334,-152.68947346666667,1.0424141089999996,-0.7968413826666666,6.927088578666667,8.863462130666667,1.2253756523333335,4.336682875666667
18,0.149994,-5.791648388,-8.179865519333333,-152.7183431,-1.3386148613333335,-1.9317553836666665,7.564168572,3.6866679989999995,-24.1090889,-6.301933606333333
19,0.158327,-5.755914688333334,-8.166118304,-152.6896871,-2.2087255193333335,-0.194109636,13.991601152000001,4.4360568523333335,0.7324094113333334,3.0942039693333334
20,0.16666,-5.705070178,-8.253846168666668,-152.70133463333335,0.1755290823333333,-1.2401861349999999,5.122963426999999,5.524914671,-10.978998344333334,-2.849870185
21,0.174993,-5.672396818999999,-8.36978515,-152.6734212,-1.3246358633333335,-1.1909488636666665,9.131303309666665,4.084135433,-14.836573521,1.4233750106666665
22,0.183326,-5.639530023,-8.342048168333333,-152.67966713333334,-2.8528058776666665,-1.1724540589999999,11.764245907000001,3.4524535336666666,2.8308259650000003,-0.8272545239999998
23,0.191659,-5.613049189333334,-8.474584261666667,-152.66102596666667,0.8244212466666667,-1.5170500176666668,12.044305008333334,3.2108353390000004,-16.631798426666666,0.17311437933333318
24,0.199992,-5.573895136333333,-8.470194022000001,-152.64840696666667,-3.4972251256666667,-0.8479174103333333,8.686641215333333,4.5292078306666665,-0.26630723466666656,1.0805711746666666
25,0.208325,-5.563608010666666,-8.494354724999999,-152.6521759,0.1813753446666667,-1.5951460053333335,5.459979535333332,0.8460593223333334,-3.434562406,-1.1408584119999998
26,0.216658,-5.578603744666666,-8.580922126666666,-152.6194712,-1.3681441546666668,-0.5805010843333333,16.945453006666668,-1.5769153439999999,-11.376139164666668,2.3650950196666667
27,0.224991,-5.540081501,-8.516074180666667,-152.63031003333333,-1.401907682,-0.895151506,4.264202157333333,4.080680950333334,7.182095478000001,-0.9550310373333333
28,0.233324,-5.569429556666667,-8.633138497666666,-152.59960426666666,0.9456347623333333,-1.7157581646666669,5.524675528666666,-3.3137609563333332,-14.91230361,1.8146109183333332
29,0.241657,-5.593211333,-8.617164770666667,-152.60139973333332,-3.1594843863333337,-1.0154848446666667,16.125844318333336,-3.2299892900000002,1.347223674,-0.4906620133333333
30,0.24999,-5.598575273999999,-8.618354161666666,-152.58856203333332,-0.4481156966666666,-1.5385650793333332,6.911526918,-0.7527984776666669,-0.9801810200000002,1.0770272413333333
31,0.258323,-5.614427248666666,-8.699824333333334,-152.60028076666666,-0.6426759956666666,-0.8460919456666667,9.050433794333333,-2.453297833666667,-10.172438937999999,-2.8399154346666666
32,0.266656,-5.637324492,-8.616331100333333,-152.63346863333334,-2.696884301666666,-1.867995113,6.0478162766666665,-3.6870719196666673,9.659922758333332,-3.338828643
33,0.274989,-5.672668298333334,-8.743675868,-152.64527383333333,2.322195669,0.1860615213333333,10.414123854333333,-4.818658828666666,-15.756116708,-3.3938448826666665
34,0.283322,-5.694543361666667,-8.607525825333333,-152.70060223333334,-6.482865969333333,-1.9399428366666667,6.299403509333334,-3.944652517666667,16.31506586033333,-5.342020591333333
35,0.291655,-5.733693758666667,-8.625904401333331,-152.72390240000001,3.374616672333333,-0.30664846533333334,7.541627528,-5.488780975333334,-2.502848150333333,-3.4398384096666668
36,0.299988,-5.772197564333333,-8.561045487666666,-152.75879923333332,-4.332497914666667,-1.213918706,7.932867366666667,-5.567772389999999,7.45004781,-3.7820622920000004
37,0.308321,-5.817496617666667,-8.472607771333331,-152.77344763333335,1.17930007,-0.5965515113333333,2.8213288786666664,-6.067628781,10.146940071666668,-1.1189278763333332
38,0.316654,-5.886131604666667,-8.390522003333333,-152.7857208,-3.3464211623333333,-1.7659032343333332,6.136045297333333,-8.775753977,9.229326883,-0.8971515099999999
39,0.324987,-5.998544215999999,-8.255573590666666,-152.77500406666667,0.6222764056666666,-1.2288522126666668,12.193133672333333,-13.690404258,15.272515616666666,2.480406602
40,0.33332,-6.061410109333333,-8.155897617666668,-152.77856953333333,-1.181384047,-0.466768106,1.7906587919999997,-7.927197616333334,11.332248211,0.40126869066666665
41,0.341653,-6.16022412,-8.003437678333333,-152.75337220000003,-0.20048985866666677,-0.970718652,4.183401943,-11.78720188,17.281812986666665,4.4641191959999995
42,0.349986,-6.278976917333334,-7.834425290666666,-152.75708006666665,-2.440159579,-1.7046240963333332,6.975928147333334,-14.633629483333332,19.483708699999998,1.289557775
43,0.358319,-6.391764322666667,-7.688271204666667,-152.72648623333336,0.6824616393333334,0.15615159266666664,9.261702695666669,-13.413541796666669,16.439570110000002,5.099903345333333
44,0.366652,-6.5001629193333335,-7.514736016666667,-152.7329661,-2.353394985,-1.1686432163333331,2.310123130333333,-13.413919132333334,20.0464592,1.1114197970000002
45,0.374985,-6.643968423,-7.328437010666666,-152.70029703333333,0.8860614896666666,-0.5630786816666666,0.6455962606666668,-17.13748932,21.054834366666668,5.955113291666667
46,0.383318,-6.79320542,-7.15861845,-152.72179666666668,-1.6883438626666667,-0.8011566003333334,5.448338826666666,-18.528410276666666,19.925373076666666,-0.6166165273333334
47,0.391651,-6.944065729999999,-6.9791876476666665,-152.68258160000002,0.6741856039999999,-0.24671971800000003,8.984263102,-17.91065407,20.226603826666665,6.775399923333333
48,0.399984,-7.065113544666666,-6.804352760333334,-152.70174663333333,-1.0778649773333335,-1.414701422,3.5379934313333337,-15.113295236666666,20.367917376666668,-0.18635644533333326
49,0.408317,-7.188304106333334,-6.664570013666666,-152.67002866666664,1.519420574,1.0689001876666666,3.608636220333333,-14.712123553333333,15.582302413333332,5.3827613193333335
50,0.41665,-7.3076289496666655,-6.551295757333333,-152.68625386666668,-0.2042944826666666,-0.7993429156666667,5.583111524666667,-14.846390406666666,12.990600902666666,-0.6859199206666667
51,0.424983,-7.406872272333334,-6.495982964666666,-152.65214536666667,0.7006010693333334,-0.14895824566666663,7.658885637,-11.838695528333334,5.347331067,4.432317753666666
52,0.433316,-7.466970443666667,-6.435401439666666,-152.67495216666669,0.5356324516666667,-0.05452269300000001,5.101436138,-7.8123380356666665,6.944199165333333,-2.2206687526666666
53,0.441649,-7.508100350666666,-6.482206821333333,-152.63605246666668,1.4063868570000002,0.37531952066666663,6.7435240746666665,-4.808662970666666,-6.8859614523333335,3.4182205199999998
54,0.449982,-7.509425322000001,-6.493208090333333,-152.67468770000002,0.005445360999999889,0.1460889976666667,4.738173167,-0.9749674003333334,-1.3227067786666664,-5.216424425333334
55,0.458315,-7.499805927333334,-6.645020961666667,-152.63767500000003,1.7471598386666667,0.11701954400000007,7.460759322,1.2951198433333333,-19.23689302,1.5671352273333332
56,0.466648,-7.455183824,-6.772598902666666,-152.6678416,-0.38892716200000016,-0.2959051526666666,8.118830520333333,4.586508572,-15.436450003,-6.039292653333334
57,0.474981,-7.387470881,-7.005978902,-152.64370726666667,1.1561038593333335,-0.37886599699999995,10.324462573333333,8.148368676666665,-28.753240583333337,-1.2059577703333335
58,0.483314,-7.290952046666667,-7.234039624666667,-152.64029440000002,1.2802054883333334,0.3384203513333334,4.452040116,11.250187236999999,-27.912728626666667,-3.5601264236666665
59,0.491647,-7.176726023333333,-7.547501405000001,-152.63991803333332,-1.3970354396666664,-0.9864594540000001,6.328025182,13.395636876666666,-38.06159846,-5.140157779
60,0.49998,-7.070640087,-7.859790007666668,-152.60984293333334,2.8574726580000003,-0.20577361166666666,9.960872331,12.857826549999999,-38.22723961,-1.5746100323333332
61,0.508313,-6.926553090333333,-8.259614308666666,-152.61816916666666,-2.0161147913333335,-0.6260181466666667,10.678376993,16.815423966666668,-48.11298497333333,-7.245585282666666
62,0.516646,-6.740701993333334,-8.634079138666666,-152.58026633333336,2.1960327053333333,0.55498455,6.951655070000001,22.612754186666663,-45.87397384666667,-1.3662967283333334
63,0.524979,-6.544172922666667,-9.079292615,-152.58833313333332,-2.651877125,0.030869523666666693,6.279467582333333,23.094619750000003,-53.572636923333334,-7.558323065333333
64,0.533312,-6.352546851,-9.467727344333333,-152.54298400000002,2.2374174593333334,-0.8255473673333332,8.786539713333333,23.527036666666664,-47.64561844,-0.3793177853333334
65,0.541645,-6.115293820666667,-9.922289530333334,-152.55878703333335,-3.518280705,-0.27870420633333337,9.393589973,27.77670606,-54.75615564666666,-8.233980337666667
66,0.549978,-5.891602516,-10.304366747000001,-152.51800536666667,1.957987864666667,-0.890662054,4.479320486333333,27.39597384,-46.71767298333333,-0.4549315373333333
67,0.558311,-5.65375487,-10.779299416666667,-152.51496886666666,-2.7765323320000004,0.025588711000000004,15.655530929999998,28.221398036666667,-57.34187444,-5.854638932666667
68,0.566644,-5.385514259333334,-11.101053556666665,-152.49483236666666,-0.32967956866666687,-1.055532972,4.594254334666666,32.34203593,-39.406331380000005,-1.7852585313333333
69,0.574977,-5.111931483,-11.541015943333335,-152.4734548,-1.8351226646666665,-0.3989053466666667,10.095094840666667,32.94092750666667,-53.40895335,-2.8280495803333334
70,0.58331,-4.877274513333334,-11.843056679999998,-152.45469663333333,-0.3118798733333333,-2.55497547,8.214489221333332,28.31757164,-37.055116653333336,-1.3898033300000001
71,0.591643,-4.619078000333333,-12.23884201,-152.41711933333332,-1.5102065403333331,-0.09391000166666667,12.606380620333333,31.50152015666667,-48.42811457333334,-0.04516752566666652
72,0.599976,-4.3830982050000005,-12.45941639,-152.41080730000002,-2.674861123,-1.9398836293333332,2.53406173,28.211826323333337,-27.086042406666667,-1.7755951880000003
73,0.608309,-4.193104743666667,-12.77411461,-152.35519409999998,-0.4571403663333333,-0.8455181743333332,14.741095226666667,23.842042923333334,-38.74383418,3.1966017086666665
74,0.616642,-3.9748129050000003,-12.876771923333331,-152.3680369,-4.7152450083333335,-1.9778886933333333,8.406690121,25.559211093333335,-12.962131819,-2.838013966666667
75,0.624975,-3.796547254,-13.106381416666666,-152.31140646666665,1.7042400836666667,-0.46533922833333335,7.378132899666667,22.527581533333333,-28.550082523333334,4.266660491666666
76,0.633308,-3.623123805,-13.122021676666668,-152.32946776666668,-5.383688986333333,-2.7699266276666665,8.84425342,20.016074496666665,-2.5231126550000003,-2.6869688826666667
77,0.641641,-3.5126332443333332,-13.252574603333334,-152.27364093333333,2.4728091556666665,-1.1015138180000001,12.909517288333333,14.379092535,-16.800207453333332,5.065139333333334
78,0.649974,-3.382340510666667,-13.214042346666666,-152.29320270000002,-5.846078475333333,-2.5746537446666666,8.577454764,14.803440413333334,4.103879929666667,-2.443577528
79,0.658307,-3.3321259813333337,-13.250926653333332,-152.22533163333333,3.820729732666667,-0.9782721600000001,5.622410457666668,7.509518597666667,-5.506923478,7.204528966999999
80,0.66664,-3.2916723089999995,-13.181868233333333,-152.2384135,-6.119349161666666,-2.4028905433333336,15.030953726666667,4.173690716333333,7.564781983666667,-1.5166831913333334
81,0.674973,-3.290416638,-13.128196716666666,-152.1738841,3.7077224653333336,-1.0396826663333334,4.780745823,1.5338065623333332,5.365167239333334,7.466862359666667
82,0.683306,-3.2851182619999997,-13.042803763333334,-152.1835123666667,-5.7205114366666665,-2.266572356333333,10.501935165,0.06663541999999996,9.491085688999998,-1.0221538346666665
83,0.691639,-3.3688340983333336,-12.920682906666668,-152.1172994,3.3680470783333334,-1.5431754786666667,8.137494159666666,-8.641507149333334,13.380223435666666,8.150451818333332
84,0.699972,-3.4314973353333333,-12.830914813333335,-152.12546283333333,-5.773065885,-1.3848818403333334,16.712704343333332,-8.051714341666665,10.165080804333334,-0.7970051366666665
85,0.708305,-3.533242384333333,-12.615870476666666,-152.0774231,2.5563632249999997,-1.2316950163333333,0.7414779663333334,-11.304415545333333,24.76240762,6.777945915999999
86,0.716638,-3.634527445,-12.520554223333333,-152.08657836666666,-4.271901673333334,-1.3204004516666668,14.783690773333333,-12.71807003,10.674538771,-0.8551873363333332
87,0.724971,-3.765694300333333,-12.231704076666666,-152.05335999999997,2.057336052333333,-1.6353536843333334,7.047451574666667,-15.228932379333335,33.67379888,5.706850846666666
88,0.733304,-3.8970315453333337,-12.181173323333333,-152.05903623333336,-2.4244577486666667,-1.1368697656666666,12.628513237666667,-16.250056266666665,5.286459367,-0.7522049746666667
89,0.741637,-4.0341829460000005,-11.843040466666666,-152.04014586666668,-0.5180706976666666,-1.678367257,8.531533004333333,-16.32573223,39.485255556666665,4.570374449
90,0.74997,-4.195680220666667,-11.798896153333333,-152.0489044,0.18732766300000003,-0.9244366483333333,8.683592955666667,-19.941601433333332,4.708620389666667,-1.1050240199999999
91,0.758303,-4.3223187130000005,-11.492791493333334,-152.03730773333334,-1.8322670460000001,-0.8445654309999999,15.695126709666669,-15.228357313333333,35.86055819,3.6233243343333332
92,0.766636,-4.477519671,-11.383321126666667,-152.05839026666663,1.7262721260000002,-1.4558288253333334,0.39799948299999954,-19.49624315666667,12.463249206666667,-1.9011357623333331
93,0.774969,-4.600516796,-11.233781814666665,-152.0486908,-2.2236715356666665,-0.058197702000000025,19.976135255666666,-14.824596723333334,17.126432417333334,2.044615586666667
94,0.783302,-4.736723104999999,-10.967821759000001,-152.0956065,-0.7687699000000001,-1.4533228083333334,1.588236967666667,-17.824670790000003,31.436227161666665,-3.2932920456666666
95,0.791635,-4.860506375666667,-10.933233578333335,-152.0888214,0.8399564423333336,-0.06426788866666666,18.045255342,-14.981990496666667,3.2090555833333334,0.6029804643333335
96,0.799968,-4.9749992690000004,-10.552121481,-152.144633,-3.8188096683333335,-1.061787913,1.3800899183333328,-15.374523796666665,45.48742103666667,-3.0105191073333337
97,0.808301,-5.122419198333333,-10.577512104333332,-152.15012106666666,4.477389017666667,-1.3266979656666669,11.008949119666667,-18.098894756666667,-3.668498992,-1.4311822253333333
98,0.816634,-5.242217859,-10.257520360333332,-152.19384766666667,-6.453417857666666,-0.16101096066666667,13.638099194,-15.707725843333336,37.88830756666666,-2.1318899640000004
99,0.824967,-5.354819456666667,-10.186976116666665,-152.22111003333336,5.418390274,-2.3253620363333334,6.394500573666666,-14.395493505333334,8.030029613333333,-2.863597393333334
100,0.8333,-5.440780798666666,-10.079866409333334,-152.22216796666666,-4.012937963,-0.5581835700000001,17.321931044666666,-10.710386274666666,11.980112871000001,0.5850477216666669
101,0.841633,-5.519650618333333,-9.854515712666668,-152.27287293333333,1.4124387103333331,-0.827727504,7.350334844,-10.824511211666668,26.606338272,-3.827791373
102,0.849966,-5.628563881000001,-9.926780383666665,-152.2421468,1.0985198020000002,0.03426376466666666,10.066394490666667,-12.803021750333334,-9.637720424,2.297686577
103,0.858299,-5.715258439333334,-9.676948546666667,-152.3100535,-3.631259441333333,-1.1601640383333334,3.3045077713333337,-12.088269393,29.933036803333334,-5.498267591
104,0.866632,-5.837860425333333,-9.67790381,-152.29614260000002,2.967274805,-1.059477826,9.165166139,-14.80944760833333,-1.1314859376666668,1.1821659406666667
105,0.874965,-5.913494269,-9.622292200333332,-152.34555563333333,-3.2857449053333334,-1.5295409216666667,18.27992184733333,-10.363686085666666,6.555880545333333,-5.640640735333334
106,0.883298,-5.954735438,-9.455471993666668,-152.36753843333332,0.2915760973333333,-0.891585847,8.771541754333334,-5.759953022,19.320398965,-0.9529998860000001
107,0.891631,-6.031305154333334,-9.525133450666667,-152.3911489,1.442020178,-1.5989697573333332,8.234055796666667,-9.969918092666667,-8.895476182333335,-4.149720192
108,0.899964,-6.135237535000001,-9.367231688333332,-152.4063619,-3.695441881666666,0.181975444,8.930619797,-13.12418715,18.359164553333333,-0.24215255166666652
109,0.908297,-6.226036389333333,-9.317724227,-152.44312539999999,0.8605478806666667,-1.863401552,7.800378528333333,-11.943101248333333,5.690229416,-4.139611641666667
110,0.91663,-6.312178770666667,-9.292936962333334,-152.43135066666665,-1.2169389326666666,-1.2421714066666667,12.331839879999999,-10.439088184333334,1.9293090489999998,1.2105121016666667
111,0.924963,-6.375547408999999,-9.136743226666667,-152.49229939999998,-1.8405218123333331,-1.5888686576666666,12.203877447333333,-9.115654309666667,18.74278259333333,-5.545078993
112,0.933296,-6.458864848,-9.140591302999999,-152.48211159999997,2.1915808516666666,-0.40560678633333325,10.432483675,-10.132369915,-1.4823601686666665,0.6551439763333332
113,0.941629,-6.556957403999999,-9.038792768999999,-152.5340678,-3.5303649903333336,-0.869227598,4.413447855666667,-13.100746153333334,11.964554468333333,-5.233946085
114,0.949962,-6.666393121,-8.957522233333334,-152.55270896666664,0.7724383326666667,-2.1081865233333335,9.397796789,-13.805349668,9.239278952,-1.51366961
115,0.958295,-6.766332308333333,-8.923477331666668,-152.57499186666666,-0.9656384500000001,-1.349312226333333,18.49002393,-12.759981790333333,3.6946205286666665,-2.624302844333333
116,0.966628,-6.853970687,-8.810192902999999,-152.61431883333333,-0.3981143633333333,-1.3347647886666667,5.690439224333333,-11.563443501,13.147117136666665,-3.4913152259999998
117,0.974961,-6.965649287000001,-8.805401643,-152.61473596666667,-0.01474637766666668,-1.0072018703333334,7.0043814583333335,-13.770151776666665,-0.09803446133333349,-0.45417920733333345
118,0.983294,-7.116729736333333,-8.675989786666667,-152.64671836666665,-1.8941207033333332,-1.9999459586666666,11.917046230333334,-19.01903502,14.970721563333333,-2.3553882836666666
119,0.991627,-7.232974688333333,-8.696111043,-152.64430746666667,1.352282529,-0.6871033510000001,13.076246697333332,-14.27835973,-3.3133095096666665,-0.4965319036666667
120,0.99996,-7.2933764456666665,-8.563015143,-152.66467286666668,-3.862634659,-0.6802168886666666,10.683993298666666,-7.898250898000001,15.440423351666666,-0.863780737
121,1.008293,-7.438998381333334,-8.495157400666669,-152.67094423333333,2.657886942333333,-1.6468562386666665,0.22595055999999994,-17.976071036666667,7.4897947333333335,-0.12297380000000017
122,1.016626,-7.555134296333333,-8.501308441,-152.68636066666667,-3.246256242333333,-0.5787805913333334,17.56686624,-14.484797476666666,-1.4054800666666665,-2.4522273243333337
123,1.024959,-7.641803900666666,-8.261220931999999,-152.71544393333332,-0.21851178033333327,-1.2591633796666666,7.344890843333334,-11.294854958666667,28.32721011,-0.04132465499999993
124,1.033292,-7.733814239666667,-8.326793988333334,-152.73180643333333,0.9451610246666666,-0.5229175763333334,10.536378700333334,-11.631717047666667,-8.453467212,-3.4866017896666666
125,1.041625,-7.820178826666667,-8.126895269,-152.75426230000002,-3.682858745333333,-0.5115399556666667,9.916933058999998,-11.087342260333335,23.22832457,0.09774400766666667
126,1.049958,-7.898417472666668,-8.053180059,-152.7789052,2.1807097,-1.7392963369999999,7.788731714000001,-10.155842461333334,8.456458250333334,-2.1451671523333333
127,1.058291,-7.936555068,-7.995834032666667,-152.79263306666667,-2.1762114416666667,-0.5934104250000001,15.230338414000002,-5.1229208313333325,6.343928733333333,-1.1630189616666666
128,1.066624,-7.974144935666668,-7.841930866333333,-152.82473756666667,-0.14504738666666675,-0.10808767866666667,4.271491686333333,-5.401973386000001,17.903428790333333,-1.680871089
129,1.074957,-7.996783574666666,-7.7786343890000005,-152.83569846666668,-1.177861174,-0.3395619389999999,12.799150785,-3.207744916333334,7.004278658666666,-0.7471164166666666
130,1.08329,-7.996414979333333,-7.6156641643333325,-152.87172443333336,-0.13297738633333336,-1.4938145183333333,5.336337725333333,-0.8838496456666668,19.041637420333334,-1.9887584050000002
131,1.091623,-7.952043215333333,-7.569081147333333,-152.87393699999998,-0.5562619763333334,0.10659701633333335,14.83594259,4.9718739193333334,4.658194700666667,-0.032329428999999986
132,1.099956,-7.917469819333333,-7.331336498333333,-152.91906736666667,-1.7861107983333333,-1.0427619516666666,7.3780868843333325,3.079508422,28.293633143333334,-1.8084521293333333
133,1.108289,-7.872157414666667,-7.339574655,-152.92388916666664,1.4342175323333333,-0.8022823633333335,11.141504764666669,5.048629840333334,-1.6099953649999996,-1.1789250373333333
134,1.116622,-7.769355614666666,-7.0885485013333325,-152.96022033333335,-3.164483303666667,-1.292334954,10.859658879,11.441853204666666,29.514632223333336,-0.7042302139999999
135,1.124955,-7.719042460000001,-7.0471135773333335,-152.97842916666667,3.2350428499999997,-1.5679253736666665,3.0270581229999998,5.426863431666667,4.506627083333333,-1.9101908209999998
136,1.133288,-7.673427105000001,-6.9287354153333345,-152.9906616,-3.9567737976666666,-0.693603565,15.221517085999999,4.974639733333333,13.352042516,-0.10248246299999993
137,1.141621,-7.6202343306666664,-6.731833775999999,-153.0186004666667,1.1479396223333334,-2.1901319026666664,5.468931993000001,5.616225443,22.932729761333334,-0.5906739183333334
138,1.149954,-7.552944024333333,-6.719255765333333,-153.01493836666666,-0.9550169106666666,-0.8083186750000001,15.269247373333334,7.809009075333333,0.7252200459999999,0.115217189
139,1.158287,-7.491233825666666,-6.443109512333334,-153.04286703333332,-1.4928732713333333,-1.5627423919999999,8.406929095666667,6.676548719666667,32.575592676666666,0.596838097
140,1.16662,-7.463874817000001,-6.45721817,-153.02924603333335,2.536935568,-0.7262458203333333,5.914491968999999,3.119336475666666,-2.8215533496666665,0.8764637313333333
141,1.174953,-7.40858682,-6.239964802666667,-153.06144716666665,-3.5350429413333337,-1.6925193466666666,10.398295559333334,5.8895764459999995,25.631827356666665,-0.9047975143333332
142,1.183286,-7.356256167000001,-6.16630284,-153.0466919,3.2459097506666663,-0.420044546,10.740357796,6.097973982666666,7.609211285333333,2.418236146
143,1.191619,-7.289335886333333,-6.065001011,-153.07362366666666,-3.9300142926666664,-0.947620268,12.769029299666668,7.393256824000001,11.531862417,-2.1942323343333334
144,1.199952,-7.228920142,-5.907430648666666,-153.07472226666667,1.7739079643333333,-1.618897611666667,1.846752445,6.859278043333333,18.057880719333333,1.8546251653333332
145,1.208285,-7.183755715666667,-5.934722105666666,-153.07836913333333,0.3902797700000001,-1.7345468206666668,14.37193489,5.063064257333333,-3.9059492766666666,-1.360367964
146,1.216618,-7.129801432333333,-5.7164127030000005,-153.1082357,-2.278868516333333,-0.8496159713333333,11.484339873333333,5.753916422666666,25.50050036,-0.7342156169999999
147,1.224951,-7.105772018666666,-5.789734045666666,-153.10678099999998,2.737228195,-1.6277493486666668,5.0767437609999995,2.580475927666667,-9.468479316666667,-1.3949940256666666
148,1.233284,-7.0839331943333335,-5.641598225,-153.13749693333332,-4.247806072333334,-1.535767456,11.298309007666667,1.9142121523333333,17.158622901,-1.9519421856666666
149,1.241617,-7.082464695,-5.665428956333334,-153.15598043333333,4.578359921666666,-2.1088420153333334,7.099158127,-0.3906387996666667,-3.506392667999999,-2.9986426826666666
150,1.24995,-7.048154354,-5.658751805666667,-153.16336566666666,-3.968553285,-0.25830694033333335,17.341562749666664,3.7175544896666666,0.18772299966666614,-1.305451214
151,1.258283,-7.040956179333333,-5.535423279,-153.20317586666667,1.5919547179999995,-1.6236952346666664,-2.9673644306666667,0.029772996666666662,14.555071833333335,-3.310453812
152,1.266616,-7.046531836333333,-5.677142620333334,-153.19688413333333,-1.5029851593333332,-0.6434249479999999,17.542757666666667,-0.9003102566666666,-17.916789531333333,-1.8900152046666665
153,1.274949,-7.030433337000001,-5.479474703666667,-153.23430886666665,-1.265990893333333,-2.028610766,8.116816997333332,1.1374138986666669,23.374045056666663,-1.959733208
154,1.283282,-7.007178465666667,-5.616725127,-153.23224896666667,2.2444605826666666,-0.7714635830000001,8.329572835999999,2.4862417976666666,-17.324943863333335,-2.2842778366666665
155,1.291615,-7.005244255333333,-5.469693978666666,-153.26128129999998,-4.304056982333333,-1.6665809753333332,9.748433906666667,-0.4333210783333336,16.995800413999998,-1.7885830799999998
156,1.299948,-7.024940649666667,-5.517163753666666,-153.27370200000001,2.5056342283333333,-1.2302965469999998,8.787021161333334,-2.8660929796666665,-6.1961542750000005,-2.6179416179999997
157,1.308281,-6.989727179333333,-5.489526907666666,-153.29363506666664,-2.940141479333333,-0.9945479833333334,14.247861542999999,3.6842413346666674,2.863642849,-2.450023492
158,1.316614,-6.994944254333333,-5.4109226863333335,-153.315684,1.251698673,-1.4402128459999999,2.354545772333333,-1.2247833016666665,8.728647866333333,-1.9314033590000002
159,1.324947,-7.013630708000001,-5.457799911333333,-153.31555683333335,-0.5212317703333333,-1.0246867336666665,12.286287943333333,-2.5808648270000005,-6.295562743333332,-1.1752838490000002
160,1.33328,-7.037975947,-5.362056414333334,-153.33751933333335,-1.7956071593333334,-2.416894952666667,6.880386471999999,-3.4989982446666663,10.766459066000001,-1.6745733816666668
161,1.341613,-7.052357514666667,-5.378648122,-153.31966146666667,1.4481322563333332,-1.2629656593333334,12.67016077,-1.8718541960000001,-3.179815193,1.3764790813333334
162,1.349946,-7.1052732469999995,-5.311487515666666,-153.3343099,-2.6761005716666673,-1.2563407423333333,8.562984782666666,-6.827637672333334,7.48346464,-1.226396953
163,1.358279,-7.171437899333333,-5.245771249333333,-153.32187396666666,0.6867330866666667,-1.7891734836666668,7.84708802,-8.154326279666668,6.92143623,1.9992081723333335
164,1.366612,-7.228096644,-5.2503943443333325,-153.30925496666669,-0.8177099226666668,-1.3247362173333335,9.548952101666666,-6.9885034563333335,-1.6950348219999996,0.9074740506666666
165,1.374945,-7.2812921206666665,-5.0989400546666666,-153.31014506666668,-1.3000588616666666,-0.6569480003333333,11.579960583666669,-6.741434574333333,17.321138379999997,1.742161403
166,1.383278,-7.358027458,-5.119987805333333,-153.28568013333333,0.793787042,-1.4434452253333332,7.2688687666666665,-9.264231206666667,-3.840834617666667,2.0629665653333333
167,1.391611,-7.408334255333333,-4.947727123666667,-153.2770843333333,-2.741277425333333,-0.9483624496666666,10.269552866333333,-6.287643786,19.421810627000003,3.1722479660000005
168,1.399944,-7.475033283333334,-4.933752219,-153.25834656666666,2.817097783,-1.8345601159999998,4.092282215,-8.153901735666667,0.6361130059999992,1.9960452320000002
169,1.408277,-7.5350513459999995,-4.854602496,-153.23699953333335,-4.151707669333333,-1.102945586,19.69119803,-7.293213288666667,8.367182929333334,3.250324249333333
170,1.41661,-7.626261075333335,-4.709118445666667,-153.24619040000002,2.258108218666667,-1.9556597076666666,0.14188968133333338,-11.399581909666665,16.4853096,0.7648248646666667
171,1.424943,-7.6706078846666665,-4.759972095333333,-153.2133738,-0.546822508,-0.3675651996666667,17.264517466666664,-5.307139158333333,-7.287272773333332,2.563525041
172,1.433276,-7.7463741299999995,-4.539498726666667,-153.23254393333335,-0.8645196753333334,-1.8861950236666667,0.9164992373333334,-9.618148644333333,25.556394181,0.8139832813333333
173,1.441609,-7.814629078,-4.689694245333333,-153.19236753333334,2.760116100333333,-0.021797954999999997,13.010827023666664,-8.139788627333333,-19.451633292666667,1.7741532723333335
174,1.449942,-7.855811754666667,-4.523127078999999,-153.22002156666667,-3.903514584,-1.819164475,9.479141869666666,-5.530302603666667,19.51884524,-1.000880599
175,1.458275,-7.901497204666666,-4.579359451999999,-153.1963145,3.325919211,-0.14544977766666667,9.242197036333332,-5.605009556,-7.793323993333334,1.4123134016666665
176,1.466608,-7.919018268333333,-4.525215705333333,-153.20661416666667,-3.8297182716666662,-0.5737355693333334,9.168678996333334,-2.506421844333333,5.6416865173333335,-0.8518016340000001
177,1.474941,-7.917071024666666,-4.472929000666666,-153.21382646666666,1.3244724766666667,-1.3715032736666668,6.062368869666667,-0.19463465599999985,5.610653720666666,-0.43560422466666665
178,1.483274,-7.911829630333333,-4.487717389666667,-153.21406553333335,-0.4161288343333333,-0.8888281733333332,12.958120026333333,0.31252781533333324,-2.719084104666667,-0.8010083676666667
179,1.491607,-7.897481600333333,-4.427052577333334,-153.2255249,-0.9492799243333333,-0.3763359786666666,9.160703976333334,1.2641052803333335,6.4500109750000005,-0.8711017569999999
180,1.49994,-7.850208918333333,-4.398364305666667,-153.24905903333334,-0.6336192290000001,-1.3466911863333333,8.818418342333333,5.129626353666667,3.056589515,-2.7664613323333334
181,1.508273,-7.815211455,-4.411437829333334,-153.24412536666668,-0.6161754133333334,-1.2327881256666666,9.643239975999998,3.903622448666667,-2.353107373,-0.11779985833333338
182,1.516606,-7.780903339666666,-4.235978126666667,-153.28393556666666,-2.3507374873333333,-1.4021604113333332,10.185366471666667,3.4293884833333337,20.5388724,-2.3671574593333333
183,1.524939,-7.731177806666667,-4.2912982306666665,-153.26763406666666,3.242305636333333,-0.8354926740000002,8.435158888666667,5.758392334333333,-7.564132254,0.5778914096666666
184,1.533272,-7.661955515333332,-4.154945453000001,-153.28723143333335,-5.0005542436666675,-1.7060550050000003,11.695613421333334,7.827395281666668,15.561586777666667,-0.68262419
185,1.541605,-7.648742040333334,-4.086464564,-153.28063966666667,3.2833981513333335,-1.248063266,3.7473397656666663,1.264772097,7.081657730000001,1.4244548230000003
186,1.549938,-7.6030750273333325,-4.057793299,-153.27637736666668,-2.6100512546666663,-1.5297556319999999,18.125653266666667,5.205117026666667,2.6072312603333336,0.4577520773333333
187,1.558271,-7.573167006000001,-3.887094338666667,-153.27638243333334,0.014080087333333435,-1.4978317223333333,3.1430799566666665,3.254085471333333,19.572030705,2.248516758333333
188,1.566604,-7.561430772333334,-3.8602978386666664,-153.26394653333332,0.8101891876666668,-1.670370976,7.0649050073333335,1.1671765446666664,2.0277809700000002,1.3792667390000002
189,1.574937,-7.556053320666666,-3.781717618333333,-153.26019796666665,-1.6020207803333333,-0.8803057076666666,13.506591796,0.34447728600000005,8.558293024333333,1.2196815410000001
190,1.58327,-7.533977031666667,-3.6043508846666668,-153.26294966666669,-1.1023076176666666,-1.5781157813333333,10.027099608333335,2.2829633553333335,20.177694316666667,1.9651291566666664
191,1.591603,-7.53130881,-3.581304311666667,-153.2536265,1.1421067813333332,-1.254867921,5.042908271000001,0.04894880500000006,1.6338431833333331,0.9649479993333333
192,1.599936,-7.540270487333334,-3.439147631333333,-153.24683633333333,-2.0388119023333333,-1.7809900843333333,12.618475754333332,-1.3537386603333335,16.067016761333335,2.5766263403333336
193,1.608269,-7.557144483000001,-3.324308475,-153.25040686666668,0.13127367700000003,-2.0389588676666666,11.113274099666668,-2.3799935183333334,12.988918622333335,0.91317337
194,1.616602,-7.590845584666667,-3.289392789333333,-153.23599246666666,2.1723684469999998,-1.7277568380000001,5.020380576333333,-4.286836738333333,2.955003301,1.7655380670000003
195,1.624935,-7.626796881666667,-3.2430018586666667,-153.23551940000002,-1.4872145293333332,-1.2179973323333335,12.600470224666665,-4.642153342666667,4.784538704666667,0.30802399933333335
196,1.633268,-7.680446465999999,-3.160117944,-153.22625223333333,0.639775793,-1.0686356226666667,8.942909875333333,-6.712279114333334,8.736743445,1.9339474836666668
197,1.641601,-7.702659606666667,-3.1720672449999996,-153.21467083333332,0.28575715399999996,-0.9192852973333334,10.912659486666668,-2.9324584006666665,-2.5620638533333335,0.676049332
198,1.649934,-7.7417667706666675,-3.1583073936666666,-153.20202636666667,0.11164939366666667,-1.6947206656666667,6.818474451666667,-4.9359616436666665,0.6921607253333333,1.2542181213333334
199,1.658267,-7.770303090333333,-3.1858074666666667,-153.18389893333335,-1.1404048800000002,-0.7534109526666667,15.253228187,-3.646434187666667,-4.284220497,1.2209196686666666
200,1.6666,-7.799580574,-3.1463373503333334,-153.17356873333333,-0.23319037766666684,-1.9346728773333333,12.542916616666666,-3.7623128890000004,3.5466371376666666,1.3766203223333335
201,1.674933,-7.807384014,-3.2305754819999994,-153.14954120000002,0.723557333,0.11990042533333334,7.764607110666667,-1.1374427876666664,-11.12377612,1.011155963
202,1.683266,-7.824648857,-3.255249977,-153.13805643333333,0.005130290666666666,-1.9464263123333332,12.973616919,-2.303548077333333,-4.09752659,0.4447271973333334
203,1.691599,-7.843352794666667,-3.335116227666667,-153.1096344,-0.056534826999999975,-1.5448826153333333,13.988598504999999,-2.4221594730000002,-10.90827624,1.5701870123333332
204,1.699932,-7.825473626666667,-3.4486636323333335,-153.09007263333334,1.1124361753333332,-0.7477845103333333,9.391443409333334,1.9902649523333331,-14.56544463,-0.018096367666666485
205,1.708265,-7.811158498,-3.534715255,-153.0566559,-2.414479812,-0.8428995313333333,12.513136545666667,1.5903197230000001,-11.490197182000001,2.081011772
206,1.716598,-7.784737109999999,-3.5318590800000003,-153.05306500000003,-0.8604348503333332,-1.1033486463333333,13.689082462,2.8926112649999998,-0.6987821956666666,-0.02336442466666681
207,1.724931,-7.743291696,-3.6589700379999996,-153.01135256666666,0.9075319766666666,-1.278206408,11.698756456,4.916991074999999,-16.507115046666666,2.4236197076666666
208,1.733264,-7.712860266333333,-3.715399980666667,-153.01706950000002,-2.4958508563333335,-2.972731351666667,11.622427303,3.307775557,-7.597246887,-2.1186513503333333
209,1.741597,-7.688886960333334,-3.7365672589999996,-152.9983368,-0.817268451,-1.202138086,13.954843523333333,2.6470009683333333,-3.7733442779999997,1.3846374353333333
210,1.74993,-7.644168853666667,-3.7388699056666668,-153.00529989999998,-1.0222227970000002,-1.4215958119999998,14.68099308,4.998016119,-0.9071797010000001,-1.344162623
211,1.758263,-7.597201188333334,-3.7366217773333332,-152.9794922,-0.653696517,-1.1692583163333334,12.290510813333333,5.480110168666667,-0.868719707,2.6277175346666666
212,1.766596,-7.572320302333334,-3.665326992666667,-152.99168906666668,-2.2861416736666667,-2.191449910333333,14.338114736666668,2.5751656793333333,7.690687815333334,-0.832390169
213,1.774929,-7.555950641666667,-3.5593778293333336,-152.9698588,-0.7005729873333334,-1.4534680246666667,14.182427406666667,1.7632239856666665,11.534241043333333,3.805665096
214,1.783262,-7.529159546,-3.4755253790000005,-152.9826457,-0.6594950063333332,-1.6551054269999999,9.695349058,2.7993925413333334,9.189461548333332,-0.7062272823333333
215,1.791595,-7.502829075,-3.386558850666667,-152.9713643,0.28276102733333336,-1.285907969,10.412954964666667,2.893004238666667,9.437612057,2.230124791666667
216,1.799928,-7.486668904666666,-3.2531259853333334,-153.01398723333332,-1.5020218293333334,-1.497541686,15.005660059999999,1.3218571343333332,15.796255426666667,-3.4562575669999998
217,1.808261,-7.453493595,-3.121212720666667,-153.0271149,0.23664941366666667,-1.8863440549999997,17.568541526666667,3.5480206409999995,15.168160116666668,0.026391188666666676
218,1.816594,-7.416948795,-3.0313166776666667,-153.06833393333332,0.41127018366666673,-1.5798253220000003,13.842635473333333,3.779504656666667,10.349932671666666,-3.9946600596666664
219,1.824927,-7.412842750666666,-3.0117530030000004,-153.08502196666666,1.714973231,-2.7952838340000006,13.414016086333334,0.04887203366666674,1.8512604286666667,-2.145384331666667
220,1.83326,-7.438542525,-2.999751488333333,-153.1366882,-0.15057164933333325,-2.3412213326666667,12.799901006666666,-3.756340583333333,1.2476996976666666,-6.458544731333333
221,1.841593,-7.483744462000001,-3.000258128,-153.16052243333334,0.12636111166666666,-2.184835215,12.818198839666666,-5.913243038,-0.6618932883333333,-3.344212055333333
222,1.849926,-7.522520701,-3.002854824,-153.19963583333333,-0.84288008,-1.5116661986666668,9.920225940333333,-5.246137142333333,-0.4352669316666666,-5.1678084533333335
223,1.858259,-7.575994015,-3.0392452873333333,-153.2200978333333,0.6376921933333334,-0.6433096429999999,15.043084463333335,-6.8731789590000005,-4.744132439333334,-3.470874389
224,1.866592,-7.611564159666666,-3.098447164,-153.2425893,0.33975363266666675,-1.3385970393333333,16.58906650333333,-4.768875996333334,-7.663276036666666,-4.118889093666667
225,1.874925,-7.636059284333334,-3.197737693666667,-153.25649516666667,0.49670651666666665,-1.4806888103333333,13.198909762,-3.35158062,-12.32713445,-3.699677874666667
226,1.883258,-7.6763555210000005,-3.319238583,-153.26051329999999,-0.6973352033333334,-2.023957809,13.238952316666667,-5.225586891,-15.360288939999998,-2.9267259639999996
227,1.891591,-7.722453276666666,-3.4328716596666666,-153.27137756666664,-0.4291443179999999,-2.3419947823333334,15.626042686666667,-5.925453344666667,-14.315491676666667,-3.622668902333333
228,1.899924,-7.760508060333333,-3.5404005049999996,-153.26700846666668,-0.9123530586666667,-1.577591598,14.109513603333335,-4.901967605,-13.592050553333332,-1.6930755123333334
229,1.908257,-7.7974541980000005,-3.623283307,-153.26549783333334,-0.7275826833333333,-2.0254686273333333,11.829887548999999,-4.739359617,-10.621097247,-1.643772642
230,1.91659,-7.8349332810000005,-3.7070650256666666,-153.24531046666667,-0.9736276493333333,-0.5096297166666668,12.26480357,-4.704088846666667,-11.263408980000001,0.520378669
231,1.924923,-7.876950422666667,-3.776978413333333,-153.2383423,-0.6146139203333333,-1.933961451,14.906593323333333,-5.304067691333334,-9.166182518333335,-0.8044364056666667
232,1.933256,-7.903264045999999,-3.822315534,-153.22450763333333,-1.3920861036666665,-1.3092540103333334,16.367976826666666,-3.4042041703333332,-6.596694309,0.3865828913333334
233,1.941589,-7.911451975666666,-3.8632071016666667,-153.2170613333333,-0.247275571,-1.1327399806666667,13.820011136666665,-1.2609505456666665,-5.960817257666666,-0.3019107976666667
234,1.949922,-7.915958086666667,-3.90548563,-153.19338480000002,-0.26792371266666665,-1.3948749896666666,15.389480273333334,-0.700852543,-6.1612145106666665,1.643687049666667
235,1.958255,-7.907930692,-3.9360028106666665,-153.18881733333333,-0.9775397776666667,-1.809297085,15.788393023333333,0.6716651816666667,-4.439809083666667,-0.4422126613333333
236,1.966588,-7.896276156333333,-3.9452582203333333,-153.160436,-0.13710918066666675,-0.9454429646666668,13.831123353333332,1.277223865,-2.5552376906666665,2.7037874063333334
237,1.974921,-7.892082532333333,-3.948321581,-153.1534576,-1.1152569453333332,-1.7795896530000002,10.998715083,0.22827397799999996,-1.219199141,0.301274568
238,1.983254,-7.901285171666667,-3.9261604943333333,-153.12956746666666,-0.7447177373333332,-1.786874652,15.625235236666668,-1.2616163893333334,1.2520326773333332,2.685648322
239,1.991587,-7.902839024666666,-3.8798309963333337,-153.12050883333333,-1.412313506,-2.047702391666667,16.590095836666666,-0.45007203033333326,4.374437411333333,1.3287341793333332
240,1.99992,-7.887603123999999,-3.8369145393333337,-153.09896343333332,-0.49341716366666666,-1.1496143143333333,13.458276113333334,1.6499110856666668,3.9983989993333338,2.7916912633333335
241,2.008253,-7.8709001543333335,-3.7580552099999998,-153.08638,-0.8830194076666666,-2.228133996,12.643885927333335,1.7598047653333335,8.427011331000001,2.3162486156666664
242,2.016586,-7.862171332,-3.6755793096666665,-153.0733083,-1.1825249046666666,-1.6696001890000003,14.30170186,0.801085333,8.593341827333333,2.396233241
243,2.024919,-7.854549725999999,-3.574805259666667,-153.06423443333333,-0.20008295766666664,-1.39510695,12.787749293333334,0.6424949566666666,11.089466093333334,2.2538352410000004
244,2.033252,-7.846523285,-3.462878545,-153.07196043333332,-1.3658056459999999,-1.6450483003333332,12.602579116666668,0.5565759539999999,12.433245657,0.40067927066666664
245,2.041585,-7.848067124666668,-3.342070420666667,-153.0804952,-0.4747055623333334,-2.1239631573333333,14.283996263333334,-0.5949676246666666,13.511815073333333,0.4542855723333333
246,2.049918,-7.849376042333334,-3.2310311796666666,-153.0891978,-0.6989435356666668,-1.2827043133333333,16.66738542,-0.558804502,12.586304982333333,0.3116868213333333
247,2.058251,-7.832792282,-3.1330931979999996,-153.10345966666668,0.4064566293333333,-1.306982994,14.204486846666667,1.552047784,11.13352267,-0.5585312646666667
248,2.066584,-7.802289804,-3.0561699866666667,-153.11551413333333,0.4358037316666666,-1.731826226,10.437136329333333,3.2241878113333335,8.337250709333333,-0.6819961566666666
249,2.074917,-7.780447324333333,-2.985107581,-153.13181556666666,-0.14078640066666667,-1.6530334553333332,11.334737139,2.1767278513333332,7.972828864999999,-1.251639704
250,2.08325,-7.7576295533333335,-2.919777512333333,-153.13993326666665,-0.546905339,-0.776511401,13.437558809999999,2.3341788253333333,6.897039095666667,-0.419949656
251,2.091583,-7.717984994000001,-2.8406256436666664,-153.15252176666667,-0.554806426,-0.9067950846666667,13.899483046666667,4.333421230333333,8.624233244666668,-0.7306461656666666
252,2.099916,-7.668885866666667,-2.7731275556666666,-153.15962219999997,-0.23237194599999997,-0.9717493353333334,13.109974223333333,5.506186246666666,7.385758559,-0.23475877466666664
253,2.108249,-7.620159943666667,-2.695878545333333,-153.1748759,-0.41383689399999996,-1.9334207773333334,15.435341836666666,5.416673024666667,8.687910079,-1.0502350526666666
254,2.116582,-7.566968282,-2.6449726816666668,-153.17828366666666,0.27864732333333336,-1.8110636473333332,14.751593906666665,6.009770234,5.103871345666667,-0.10463841766666666
255,2.124915,-7.509084065666666,-2.603056073333333,-153.19226583333332,-0.6027416206666667,-1.8902178606666666,13.298343023333333,6.526878675,4.464693387666666,-1.4727928043333334
256,2.133248,-7.458243052333333,-2.576615651333334,-153.19464113333333,0.39819978166666664,-1.69767039,12.322387376666667,5.724922657,2.1788453063333333,-0.370676408
257,2.141581,-7.414160410666667,-2.538397352,-153.20461016666667,-1.188092003,-2.4730555216666663,13.4595054,4.878546714666666,3.713893095333333,-1.097087542
258,2.149914,-7.384152730333334,-2.4756832916666665,-153.20684816666667,-0.9959675323333333,-1.4763890306666667,14.977427483333331,3.248483067,6.739553769333334,0.22878633933333328
259,2.158247,-7.351636569,-2.406113108,-153.20487976666666,-0.5407738883333333,-1.3856921096666668,13.345144269999999,3.553219437333334,7.511609713333333,0.8315490683333334
260,2.16658,-7.327716827333333,-2.3395423096666668,-153.20407106666664,-0.018975774333333324,-1.298323055,12.31602605,2.539416909,6.898097674,0.6080904703333333
261,2.174913,-7.30731376,-2.2955806656666664,-153.2024638,0.6366522436666666,-2.088532249,12.891336760000002,2.094744920666667,4.470819552666667,0.3905870616666666
262,2.183246,-7.285376548333335,-2.2418803376666667,-153.2126414,-0.4709130326666667,-2.005505601333333,12.81151803,2.248673651333333,5.534877618333333,-0.899913311
263,2.191579,-7.242363612000001,-2.1872025726666666,-153.21884663333333,-0.574939226,-0.4138100296666667,12.399924594333333,4.763308445666667,5.6179358163333335,-0.41797293233333327
264,2.199912,-7.190846761333333,-2.1235287983333335,-153.2358195,-0.45335456999999996,-1.451178233,11.732294718666665,5.774648348333334,7.074477672666667,-1.5302925506666665
265,2.208245,-7.156895319666667,-2.103844563,-153.2343546666667,0.7244382799999999,-1.8113380269999997,12.058413507666666,3.718414386333334,1.584940592,0.004064182666666638
266,2.216578,-7.108250299999999,-2.0703512830000004,-153.25252276666666,-0.5268825046666666,-0.7583055693333334,12.05654494,5.425701618333332,3.2476804903333334,-2.175741712333333
267,2.224911,-7.030288219333333,-1.9847554760000001,-153.25646463333337,-0.23298831766666664,-0.9920683653333334,10.549745877333333,8.973218439999998,9.516300518000001,0.327554822
268,2.233244,-6.981501738333333,-2.0105385780000002,-153.26618956666667,1.2580581433333333,-2.4206130306666664,9.946695010666668,5.4668589433333326,-3.9394566193333334,-2.0270593266666665
269,2.241577,-6.930036704,-2.005702336666667,-153.25979613333334,-0.8315768083333334,-0.5836337853333333,15.078190170000001,5.839888096,-0.4993793966666666,0.30429711466666665
270,2.24991,-6.857099851,-1.9298329553333333,-153.2760671,0.021598378666666695,-1.8429271180000002,6.1932150539999995,8.339513779999999,8.515428900333333,-1.286227425
271,2.258243,-6.812324683,-2.0634042420000003,-153.24525959999997,2.284485062,-1.9554026723333333,9.185877045,5.1541619296666665,-17.09106191,1.281945904
272,2.266576,-6.769793987333333,-1.9800590476666666,-153.26164753333333,-3.5392225983333336,-2.0796324013333334,13.828494470333332,4.688741684,9.162498790999999,-1.2750681636666668
273,2.274909,-6.748312314666667,-2.061056415,-153.23620603333333,3.230854511333334,-1.7764855223333333,6.015943368333333,2.3268698456666663,-10.74907144,1.4464021723333333
274,2.283242,-6.70772473,-2.091522336,-153.2345988,-3.2610673906666663,-1.8755908406666668,15.506739457333332,4.5436805090000005,-4.654265723333333,-0.775010109
275,2.291575,-6.699825604666667,-2.092105389,-153.2227631,1.8115844206666667,-1.8507029216666666,3.588416099,0.634588043,-1.221130770333333,0.9417757566666666
276,2.299908,-6.673522790333334,-2.2078994116666664,-153.21047463333335,-0.22434584300000018,-1.2342722813333333,16.269560496666667,2.8832504746666667,-14.726093531666669,-0.6596945523333332
277,2.308241,-6.686328570333333,-2.2425237096666666,-153.19655356666667,0.5678153036666669,-2.788103302333333,3.7063827116666666,-1.821091175,-5.061148088666667,0.731756071
278,2.316574,-6.667591571999999,-2.3300012349999997,-153.1730652,-0.522712151,-0.5773643456666667,13.224486671666666,2.0093046513333332,-11.746094411333333,1.0592001476666668
279,2.324907,-6.674919128666666,-2.3901601633333334,-153.15575666666666,-0.30862857900000007,-1.7985953986666665,6.644497712333333,-1.1332511903333333,-8.150314829333334,0.7534044186666667
280,2.33324,-6.668198426666667,-2.440158367,-153.13405863333335,-0.07214901833333333,-1.5297666193333335,10.508925437333334,0.5591416856666667,-7.255591654333333,1.3988788626666666
281,2.341573,-6.667751789,-2.547062516,-153.09884136666665,0.3957835236666667,-1.396953388,8.10042868,-0.1029308633333333,-14.213513214000002,2.194692234333333
282,2.349906,-6.679609775666666,-2.5523646276666665,-153.07755536666667,-2.0987144709999996,-1.7519946893333334,7.131686609333333,-1.6546627383333334,-1.6793975826666665,2.001795292
283,2.358239,-6.691405455000001,-2.5942032336666667,-153.0467275,1.1754955550000001,-1.7361070663333333,10.673130829666666,-1.591438095,-6.398846229,2.5743118276666666
284,2.366572,-6.707376957,-2.6991927626666663,-153.01316833333334,0.37570325533333343,-1.6746906240000001,6.922065814333333,-2.0710351863333334,-13.734252293333332,2.0592524213333334
285,2.374905,-6.738663037666666,-2.737186829,-152.97321576666664,-0.7574198839999999,-1.68386062,8.156968595,-3.8696235120000004,-5.8248733679999996,3.758517503666667
286,2.383238,-6.790867328666667,-2.7413498163333334,-152.96266173333333,-0.5473302703333334,-2.202694972333333,8.193316777333335,-6.553077856666666,-1.636147976,0.6850953696666666
287,2.391571,-6.857639789333334,-2.851360043,-152.9320475333333,0.9932572443333334,-1.8845209676666668,7.764767489333333,-8.161184947999999,-14.284482321333334,1.6113962183333335
288,2.399904,-6.935804526000001,-2.882247924666667,-152.90693156666669,-1.4058571656666665,-1.1328011946666667,8.365111192666667,-9.582662821333333,-5.030218386666666,2.0527721939999997
289,2.408237,-7.029100418000001,-2.8994532423333332,-152.89969383333334,0.9502367653333333,-2.564548492666667,5.797202269333333,-11.483271915666668,-3.1362200203333335,0.1005230743333334
290,2.41657,-7.111903190666666,-3.017499685,-152.874293,0.09460993599999996,-0.9452233066666667,9.866696674666667,-10.113613128333332,-15.18218549,0.793085252
291,2.424903,-7.208438873333333,-3.038151899666667,-152.86990866666667,-1.2208661486666668,-1.8486331306666666,6.823341371333332,-11.906386376,-3.258186022666667,-0.24170022633333335
292,2.433236,-7.318270683333334,-3.120836178333333,-152.84895833333334,1.0895399646666666,-1.2648728886666667,6.898810705333332,-13.395073891333334,-11.147850670000002,0.7322301220000001
293,2.441569,-7.414744853999999,-3.1684040233333337,-152.8441976,-1.3744229873333333,-1.6415758733333334,9.80938705,-11.856574693666667,-6.4731359479999995,-0.6494277520000001
294,2.449902,-7.516794840666667,-3.2436884243333335,-152.81256103333337,1.178433031,-1.114059165,6.9267248310000005,-12.394533796666666,-10.436445711666668,2.0900579693333334
295,2.458235,-7.621672789000001,-3.3018097083333333,-152.81066386666666,-1.4585067233333333,-1.5887726446666663,7.300125282000001,-12.898306845333332,-7.918110212999999,-1.208471159
296,2.466568,-7.7249657313333335,-3.3285931746666666,-152.79853819999997,0.8262185356666668,-1.402518928,6.788251559,-12.653467815666668,-4.129327177333334,0.5465737283333333
297,2.474901,-7.819380918999999,-3.435968160666667,-152.78071596666666,-0.8955217103333334,-0.6227626553333333,10.848515986,-11.543241816,-13.78584512,-0.10804941266666668
298,2.483234,-7.904963016666667,-3.3966841696666665,-152.77810159999999,-1.2007611196666665,-1.600767215,5.945960979666666,-10.580994922666667,3.638306776666667,0.45195477200000006
299,2.491567,-7.977775256,-3.4924180506666667,-152.76070153333333,1.877222051333333,-0.9451635380000001,7.062415638333334,-8.955224833,-12.398547012,0.0006061993333333349
300,2.4999,-8.054212411333333,-3.535507837666667,-152.73819476666668,-2.0427359343333333,-0.821479261,10.647965429000001,-9.331540268,-6.484897732333333,1.4325915576666668
301,2.508233,-8.115743319,-3.488386869333333,-152.74137876666666,-0.278545834,-1.51400737,7.514420827333333,-7.767295201666667,4.682931701333334,-0.08142764366666665
302,2.516566,-8.152109464,-3.609121879,-152.71580506666666,1.1175614196666668,-0.2566685576666667,8.83127308,-4.497305631666666,-15.527498563333333,0.4951830806666666
303,2.524899,-8.174188455,-3.5651838779999996,-152.70588686666667,-2.339073737666667,-1.026155293,6.619073350333333,-2.9166074593333335,4.317535996666666,1.4618172446666666
304,2.533232,-8.178669134666668,-3.600266615666667,-152.69413246666667,1.5804472790000001,-1.4531165560000001,9.704837163333334,-0.7814005613333334,-5.355070293,0.275728681
305,2.541565,-8.199831645000002,-3.6412944793333337,-152.6867218,-0.8910074876666667,-1.611456851,7.432409840666666,-2.8301807243333332,-5.729964415333332,-0.299827417
306,2.549898,-8.193134467,-3.6374382176666664,-152.69245403333332,-0.15999378766666672,-0.9090593306666666,11.035123346333334,0.434302181,-0.4321761229999999,-1.128879018
307,2.558231,-8.180722554666666,-3.6794549623333332,-152.6832428,0.3431299526666667,-1.2730754913333333,6.708629042666668,1.2022383016666665,-6.116064847333333,-0.11967817933333331
308,2.566564,-8.152703444,-3.6711839833333335,-152.69374593333336,-1.774045958,-1.4508789776666668,11.128408672666666,2.9669096473333334,0.4109083413333335,-1.6003006299999998
309,2.574897,-8.113713105666667,-3.668633302,-152.6955821,1.0666153133333334,-0.9239134096666666,6.516009809333333,4.315038204333334,-0.3978277050000001,-0.642033551
310,2.58323,-8.066727956,-3.713246107,-152.69497679999998,-0.204365959,-1.5901712576666667,8.315069835000001,5.31026268,-6.2992585309999996,-1.1839241683333335
311,2.591563,-8.005876064333334,-3.7111655076666668,-152.68210856666667,-0.7713902393333333,-0.7102898856666666,11.568364778333333,7.062139034333334,-0.6962464650000005,1.063661019
312,2.599896,-7.957975228666666,-3.6742644309999997,-152.69348143333332,-0.819709917,-1.6621294420000001,6.5269784920000005,5.311423301666667,3.5899676683333333,-1.227220714
313,2.608229,-7.88688612,-3.704232931,-152.6719157,1.5046016573333334,-1.155583471,11.299775442666666,8.367326418333334,-4.892699241333333,1.5468268096666666
314,2.616562,-7.818331082666667,-3.718561331666667,-152.66614786666665,-1.3892031710000001,-1.361470779,5.819211801000001,7.929251033666667,-2.5453593473333336,-0.012094020666666724
315,2.624895,-7.749961058333334,-3.6657039326666667,-152.65974933333334,-0.8903525666666666,-2.2257948319999996,10.956191062666667,7.927662849333333,5.445980570333333,1.1287768713333333
316,2.633228,-7.691254456666667,-3.6635145343333337,-152.65673826666665,0.5389701576666667,-1.1902772386666667,8.847596367666666,6.726028919333333,-0.7753898699999998,-0.10774624333333331
317,2.641561,-7.646966457666667,-3.651484728,-152.64851380000002,-0.125490308,-2.3548506896666668,6.976314703666667,5.047921975,0.5632311503333328,0.6959815370000001
318,2.649894,-7.593983968,-3.6296110946666666,-152.64262900000003,-0.21957252433333332,-1.7626146076666667,10.198783237333332,6.059726397333333,1.526958545,0.520327608
319,2.658227,-7.577053706,-3.591646671666666,-152.6437683,-0.3711428943333334,-1.687430421666667,7.157284181333334,1.6830688513333332,3.5603149086666668,-0.02250207933333333
320,2.66656,-7.563121954666666,-3.5696231523333335,-152.6397247333333,-0.24334462500000006,-2.041043758666667,12.470512706666666,1.3726669946666668,1.8085187276666668,0.3463684816666667
321,2.674893,-7.565270742,-3.527576208333333,-152.63630676666665,-0.6688951849999999,-2.473348061,7.187466780666667,-0.574907143666667,4.214574933000001,0.6055461416666666
322,2.683226,-7.581201553333333,-3.4680657386666667,-152.63396709999998,0.43426649766666664,-1.5726769566666665,8.703633944999998,-2.221100032333333,6.055858910333334,0.7113799799999999
323,2.691559,-7.596605778,-3.4509527683333334,-152.62754316666667,-0.14754098666666668,-1.4598182936666666,10.392902375333334,-2.136692812,1.2012904883333333,0.5582921306666666
324,2.699892,-7.636803150333333,-3.416345835,-152.61652626666665,0.29597324133333336,-2.268809711,6.980984688,-5.078197429666667,2.953364293,1.3627755443333334
325,2.708225,-7.660409450666667,-3.3641221523333336,-152.6087494,-0.9520998399999999,-1.3871637833333335,9.785527387,-3.1070152916666665,5.118100962000001,1.2349008123333334
326,2.716558,-7.719935258333333,-3.3308043479999996,-152.6049347,0.681250413,-1.5244818726666667,6.181772868,-7.451864401333332,3.1543506383333337,0.5120840670000001
327,2.724891,-7.767681121666667,-3.322505553333333,-152.58968103333333,0.2375082173333333,-1.816483552,10.419427555,-5.967070818000001,0.00862383366666671,1.4876321156666668
328,2.733224,-7.824518521666666,-3.2976827620000004,-152.57884723333333,-1.0003712776666667,-2.0209097266666665,11.065982184000001,-7.063612461000001,1.7885136603333336,1.165827811
329,2.741557,-7.906459013333333,-3.250714461,-152.56892903333332,-0.23642575233333332,-1.7626075746666665,6.437628825666667,-10.110790570333334,4.690582325,1.4890667796666666
330,2.74989,-7.984221299666667,-3.227232853666667,-152.56436666666667,0.5948475996666667,-1.4137348333333335,9.754236220333333,-9.615914028,1.7278387546666671,0.4215120796666667
331,2.758223,-8.073573271333332,-3.2439902623333334,-152.54243466666665,0.27611284933333324,-1.9296485586666667,8.242820581333334,-10.906821090666668,-3.3244467179999995,1.8062820436666664
332,2.766556,-8.167798836666666,-3.214076916,-152.53710936666667,-0.5598901310000001,-1.526236733,7.556371531000001,-11.599258423333334,2.719109574666667,0.6655859696666666
333,2.774889,-8.265596072000001,-3.1918033759999997,-152.53498333333334,-0.20575713633333328,-1.267000874,9.063964922666667,-12.05393696,1.8779462376666667,0.15265658
334,2.783222,-8.364565849333333,-3.215723673333333,-152.52946983333334,0.6005648373333333,-1.486179312,8.335074744,-12.173802693333334,-3.9173398016666674,-0.2705035013333333
335,2.791555,-8.465520858666666,-3.197642485333333,-152.52622476666667,-0.7644313103333334,-1.568573117,8.697693031333335,-12.425280571000002,1.3585453033333332,0.238212451
336,2.799888,-8.574988365000001,-3.163520892333333,-152.5389608,-0.3335679466666666,-1.30286477,6.693529128000001,-13.538584069999999,3.295416871666667,-1.4323908686666667
337,2.808221,-8.695193608666667,-3.2075211206666663,-152.52897643333333,1.176845442,-1.599542896,7.632810435333333,-14.69110775,-6.365250666333334,-0.11575504133333332
338,2.816554,-8.821408907333334,-3.178267399333333,-152.53530376666666,-0.8833887973333333,-1.9432237943333333,9.683440844666668,-15.513919513333335,2.8427675559999996,-0.688199222
339,2.824887,-8.947092056333334,-3.1709516843333336,-152.54435220000002,0.2640979093333333,-1.43295302,5.231209834333334,-15.481567063333335,0.3063807883333333,-1.423404614
340,2.83322,-9.079946835666666,-3.2039086026666665,-152.54569500000002,-0.49120517566666666,-0.9963445066666666,10.333253381666667,-16.27450307333333,-4.859055678333333,-1.2983944216666667
341,2.841553,-9.214443524666667,-3.1546525953333333,-152.55391440000002,-0.18406759699999994,-1.5117550690000001,6.175356070333334,-16.534677186666666,5.261217634333334,-0.4838530173333333
342,2.849886,-9.344330152000001,-3.183214585,-152.55541486666667,1.2053639093333335,-1.2034201023333333,5.581045627666666,-15.91067441,-4.330112547,-1.272434433
343,2.858219,-9.474374135,-3.172443230666667,-152.55681356666665,-1.682388683,-1.174739937,11.815944988666667,-15.934238433333334,0.342889309,-0.48220940433333337
344,2.866552,-9.598612149666666,-3.171182632666666,-152.5605723,1.3240235246666667,-1.3562139073333332,4.5343712169999995,-15.290412586666667,-0.5169674306666666,-0.8731509943333333
345,2.874885,-9.712752978,-3.186894576,-152.55762230000002,-1.0681990783333333,-0.3558788796666667,6.737470309,-13.99464353,-2.646711348333333,-0.45793988933333335
346,2.883218,-9.816516877,-3.134370088666667,-152.56930033333333,-0.12826687066666675,-1.2328314983333335,6.527733643,-12.848948794333333,5.472337386333333,-0.8405397090000001
347,2.891551,-9.919009844666666,-3.173187732666667,-152.55583190000002,0.40754600366666666,-1.0515336393333332,12.665046215333334,-12.536428136333333,-5.593509713,0.3082033493333334
348,2.899884,-9.994252839666666,-3.1302741370000002,-152.57210286666665,-0.4073746603333333,0.011553019333333378,2.167895436333333,-9.483373008666668,4.441538770666667,-1.5349758666666666
349,2.908217,-10.074932417,-3.153357585333333,-152.57222496666665,0.3211064236666666,-1.7366747059999998,5.3600367570000005,-9.992636362666667,-3.688023408333333,-1.0342389743333333
350,2.91655,-10.139228184,-3.095942974,-152.57974246666666,-0.8237967096666666,-0.952227066,10.758967718666668,-8.100063005666668,6.2023423509999995,-0.160558507
351,2.924883,-10.195645649,-3.1321277619999996,-152.57171123333333,0.9526630443333334,-0.7964740193333334,7.747570593333333,-7.048812070333333,-5.172116438666667,-0.3013514183333333
352,2.933216,-10.253964422333334,-3.1061754226666665,-152.57118733333334,-0.2734067043333334,-1.0610849656666668,3.556750118666667,-7.329018355,2.0866551399999995,0.09862333999999999
353,2.941549,-10.324426016666665,-3.1175564130000004,-152.56773886666667,0.40673804266666663,-1.4154647986666669,6.551777521666668,-8.763843179,-2.144214471,-0.3255441433333333
354,2.949882,-10.36465963,-3.095461050666666,-152.57070923333333,-0.896140049,-0.6005508103333334,12.063470203,-5.169072469333333,1.704072435666667,-0.4078682659999999
355,2.958215,-10.40138213,-3.118750651666667,-152.5607351,0.48040240999999995,-1.4330677986666667,4.939020316,-4.663942774333333,-3.922700881666666,0.15136727833333333
356,2.966548,-10.43874423,-3.120694637333333,-152.5545807,0.6557153263333333,-0.4659194486666667,5.227194865666666,-4.792568445333333,-1.0956404686666668,0.20603251433333333
357,2.974881,-10.459717750000001,-3.1373205186666664,-152.56444296666666,-0.7793921233333333,-0.9810323913333333,8.588588077333332,-2.9000823296666667,-2.474723577666667,-2.0182395776666664
358,2.983214,-10.468958853333334,-3.130046288333333,-152.56182353333335,-0.22238661599999995,-0.856710831,6.957943758333333,-1.4215772946666665,-0.16449880566666675,-0.05805466566666665
359,2.991547,-10.46564452,-3.1578379470000004,-152.55521646666668,0.5851143796666667,-0.8281502523333334,7.914089997333334,0.10347700100000005,-4.149083813,-0.302440097
360,2.99988,-10.438408533333334,-3.1448596319999997,-152.55190530000002,0.05797601266666665,-0.5944864153333334,10.145957945666666,2.9598142903333335,0.4970357813333332,0.13575965533333334
361,3.008213,-10.386227926666669,-3.19323198,-152.545283,-0.532097891,-0.7681685786666668,5.118783355666666,5.981551647333333,-6.804627536666666,-0.8007095926666667
362,3.016546,-10.337486264333334,-3.1631414889999996,-152.54397076666666,-0.225622629,-0.8403596876666667,5.939847987333333,5.514519055333333,2.7866327263333326,0.34017412133333336
363,3.024879,-10.262917519666667,-3.2034079233333332,-152.546168,0.15698134900000005,-0.49609771399999997,10.446573097666667,8.606028397,-5.430482843666667,-1.6235753896666667
364,3.033212,-10.174559591666666,-3.184978405666666,-152.55200196666667,-0.6046470553333333,-1.1287403156666667,8.776010353333334,10.245169321666667,1.3326873383333335,-0.8228359416666667
365,3.041545,-10.073158262666666,-3.222073793333333,-152.54589840000003,1.7226688066666667,-0.7211626670000001,4.687261382666667,11.851721445333332,-5.233237440333333,-0.516967928
366,3.049878,-9.955908138,-3.2440470856666668,-152.5526631666667,-1.7287050883333333,-0.9742854830000001,10.988708179,13.707346276666668,-3.414921761,-1.826227069
367,3.058211,-9.834116617,-3.2392600376666665,-152.56552633333334,0.602602283,-0.671382189,6.388955485333334,14.176111856666667,-0.12321424533333314,-1.8858569856666667
368,3.066544,-9.694216092666666,-3.299974600666667,-152.55576580000002,-0.4846601486666667,-0.924594432,10.169865925666665,16.53800392333333,-8.117450872333334,-0.5948351346666667
369,3.074877,-9.545744895666667,-3.2456201713333335,-152.57126870000002,-0.627987961,-1.6011159616666664,7.112577873999999,17.367100396666668,6.0201878933333335,-1.223105679
370,3.08321,-9.415949503666667,-3.3295677503333336,-152.56472269999998,1.8399374483333333,-1.0868328213333334,5.602151474,15.279311813333331,-11.026770115333333,-1.384936591
371,3.091543,-9.269333839333333,-3.323355674666667,-152.56297809999998,-1.9079632163333333,-1.2579803466666666,11.420915605,17.278843883333334,-0.020581246999999674,-0.1873468606666667
372,3.099876,-9.125367482666668,-3.311583201,-152.56829323333332,0.6478495200000001,-0.9695128199999999,7.213938554666666,16.889728546666664,0.5356190206666666,-0.8815483446666667
373,3.108209,-8.985982576666666,-3.3816979726666667,-152.55422466666667,0.23671456166666668,-1.6366152566666667,7.928307692333333,16.48782571,-9.523308357333333,-0.19241840133333335
374,3.116542,-8.843541463333333,-3.3495309353333336,-152.56339516666665,-1.509342114,-1.225157082,11.016110497999998,16.706893606666668,3.244158903666667,-0.96625447
375,3.124875,-8.717090924333334,-3.3681404589999997,-152.55321756666666,1.5811579176666666,-1.6841337683333333,6.702528355999999,14.903436023333333,-3.117483481666666,0.4039322543333333
376,3.133208,-8.577143986666666,-3.3972548643333327,-152.55572510000002,-0.5949917833333335,-1.465116421,6.460433621999999,16.441274006666664,-4.366012414,-1.3621824579999997
377,3.141541,-8.461414655,-3.4027395246666665,-152.55952453333333,-0.3915153556666667,-1.629046201666667,9.825169086333334,13.526782353333333,-1.3078247706666664,-1.0175000379999999
378,3.149874,-8.357718149666667,-3.406213601333333,-152.56059266666668,-0.5290958783333334,-1.6423753896666666,10.507151602999999,12.088371593,-1.352581819,-0.6825211846666667
379,3.158207,-8.244333744,-3.40267086,-152.5594635,-0.022127330333333323,-1.5703162053333333,9.394436200666666,13.283116976666667,-0.5475171806666665,-0.32605218366666666
380,3.16654,-8.161351839666667,-3.398609002666667,-152.55625406666667,-0.37353723766666663,-1.2709105213333334,4.037504193666667,9.638945102,-0.3062651106666667,-0.01678159833333333
381,3.174873,-8.094375610333332,-3.3906797569999996,-152.54962156666667,-0.019867610666666667,-2.1716078519999997,11.539141019666667,7.758830627666666,0.10237995799999992,0.44608475000000003
382,3.183206,-8.025799592333334,-3.3790342013333334,-152.53056843333334,-0.30753186833333335,-1.1333625316666667,10.768472514666668,8.025859274666667,0.1061540446666666,1.9379432993333332
383,3.191539,-7.9634731610000005,-3.3369243146666663,-152.53007,-0.35712366300000004,-1.736300548,3.5694777966666673,7.144352277,4.2707685233333335,0.2937056496666667
384,3.199872,-7.905220985666666,-3.335028251,-152.51878863333332,0.307977321,-1.171705703,11.841887949666665,6.735550086333333,-0.9187785783333333,0.8528558363333333
385,3.208205,-7.859880447333334,-3.316953103,-152.51314290000002,-0.5812627453333333,-1.5081125100000001,9.294710634666666,5.142169079666666,1.1064029533333333,0.48480490866666665
386,3.216538,-7.800950209333333,-3.267254035,-152.50788880000002,-0.6318663753333335,-1.4087565739999999,10.531128724,6.778205553666666,5.088396668000001,0.9459892513333333
387,3.224871,-7.768467585,-3.2391850153333333,-152.5121206,0.2039624033333333,-1.7026892303333334,4.797501047666667,3.5354779163333334,2.6799835759999997,-0.5126049273333333
388,3.233204,-7.750526269333334,-3.241194725333333,-152.49993386666665,0.82104068,-1.7179683846666667,9.675293924333333,1.8983993530000003,-1.3964842556666666,0.9240037006666667
389,3.241537,-7.731807867666667,-3.218542655666667,-152.49644473333333,-1.0164394179999998,-1.6959196526666667,12.090123970333332,1.9453839459999998,1.9142799376666666,0.28577374166666664
390,3.24987,-7.729810714333333,-3.1621451376666667,-152.5,-0.2862385313333333,-2.2294043699999997,4.973224242666666,-0.12485654166666664,5.806862672333334,-0.006732304999999957
391,3.258203,-7.731483618333333,-3.142971198,-152.5057882,0.043946301,-1.129545331,11.262199399333333,-0.5683159629999999,1.4257313409999999,-0.8902996186666666
392,3.266536,-7.745610396,-3.1388600666666666,-152.49903356666667,0.6157430610000001,-1.4885963996666665,7.6827145403333335,-1.9934280713333334,-0.35560703266666643,0.412372167
393,3.274869,-7.7390553156666675,-3.0724830626666666,-152.49911496666667,-2.4581882356666664,-1.2612922590000002,11.425120036000001,0.45560046533333337,7.173059225333333,0.576994911
394,3.283202,-7.760311126666667,-2.9887038070000003,-152.50264993333334,0.20008458933333328,-1.676132798,5.361397266333333,-2.9038263559999997,9.057618142666668,0.43448575333333334
395,3.291535,-7.777299245333334,-2.929695089666667,-152.49523416666665,0.2581221263333333,-1.1783904529999998,11.131288527,-2.327727914,6.172425111666667,1.3737384476666668
396,3.299868,-7.793557325999999,-2.89245371,-152.48266093333334,0.12582135199999997,-1.577367822,9.197773378333332,-2.2019747096666666,3.264568329,1.5818968216666667
397,3.308201,-7.80651172,-2.759704748666666,-152.4816132,-1.5705328383333332,-1.816177328666667,7.702977379000001,-1.8838717936666667,14.818835575,1.790751219
398,3.316534,-7.828037420666667,-2.6794341803333332,-152.48403929999998,-0.0039366780000000086,-0.9175968766666666,11.150563877000002,-2.925034841,8.848988691,0.5324175603333333
399,3.324867,-7.839510282,-2.5834339856666664,-152.48514303333332,0.8584730226666665,-1.2159590723333333,7.060587882999999,-1.7225278216666666,10.705219348333335,0.9941484383333333
400,3.3332,-7.817994276666667,-2.5355505946666668,-152.4764099,-0.6852626006666666,-0.9480578103333334,11.408411024333333,2.299206436,4.596714258666666,1.2907568613333333
401,3.341533,-7.809167703333333,-2.3919129373333337,-152.4855652,-0.7497213283333334,-1.5102028053333336,5.908594052999999,0.6729459763333333,16.500110625333335,0.8042146366666666
402,3.349866,-7.790319283666666,-2.3029550316666665,-152.48648070000002,-0.7612220046666666,-0.9680826863333333,14.498376843333332,1.9381738506666666,9.635449410333333,0.8110875886666666
403,3.358199,-7.769539833,-2.1944579683333334,-152.49053956666665,1.5480901796666668,-1.512568556,4.720238804666667,2.1325182716666666,12.016728788666668,0.8096063956666667
404,3.366532,-7.724506537,-2.127451499333333,-152.4835866,-0.8117311793333334,-1.0235604643333334,12.739754040333333,5.116426944666666,7.123547711666666,1.406537513
405,3.374865,-7.692077636666667,-2.0042307576666665,-152.482488,0.3752280869999998,-1.7909083366666667,6.144371350666667,3.547568639,13.913679281,1.659405748
406,3.383198,-7.6400790213333325,-1.890729626,-152.48923746666665,-2.186160445,-1.1195741693333334,14.30995083,5.8983194029999995,12.652613739000001,0.48615388800000003
407,3.391531,-7.595992247000001,-1.7848417163333332,-152.48887633333334,1.9346695739999997,-1.3563698530000001,4.539525393999999,4.941303412333333,11.865189354,1.2879096666666665
408,3.399864,-7.539713859666667,-1.7073820233333334,-152.48953246666667,-0.5686231056666665,-1.4321121373333334,11.214866639,6.428994814666667,8.271876175666668,0.624564844
409,3.408197,-7.496515750666667,-1.6251426736666668,-152.48599243333334,0.9897669556666667,-1.7344829636666665,7.647470315,4.853962699333334,8.786276004,1.2268152436666666
410,3.41653,-7.440915902333333,-1.5167080163333333,-152.49565123333332,-2.4387952289999997,-1.3477735023333333,12.933969497000001,6.315656185000001,12.321128845666665,0.06364712100000003
411,3.424863,-7.390770753333332,-1.4248830676666666,-152.50135293333335,0.8473488290000001,-1.8010340133333334,8.352340061333335,5.672722101333334,10.290815988333334,0.27695389333333337
412,3.433196,-7.342223644000001,-1.3392790056666666,-152.50480143333334,0.20225281500000003,-1.3139803606666667,8.297659714333333,5.481169382666667,9.288790939666669,0.4161288466666666
413,3.441529,-7.3034192723333335,-1.2952608119999998,-152.5060883,0.748982777,-1.5793195960000002,10.017343521666666,4.329912026666666,4.5374000866666675,0.032880142333333286
414,3.449862,-7.266540686,-1.206695343,-152.5134074,-0.9709130726666665,-1.922683994,7.849886575999999,4.070712963666667,9.70250686,-0.0010629296666667305
415,3.458195,-7.232374032333333,-1.1234085233333333,-152.52105713333333,0.01612474499999998,-1.9979025523333334,10.828657153,3.7663391033333333,9.088397266,-0.1686228116666667
416,3.466528,-7.210587660333334,-1.0603327876666666,-152.5264689,0.504511207,-1.241250515,5.4635542233333325,2.252690772333333,6.863978664,-0.14918581633333342
417,3.474861,-7.193162918333333,-0.997714358,-152.5359599,-0.3481191496666667,-1.792944392,11.316432794,1.748795112,6.876910548000001,-0.6593402626666668
418,3.483194,-7.18909661,-0.9412608370000001,-152.53548686666667,-0.4762703976666667,-2.095774094333333,10.019259611666667,0.15168301266666676,5.7680737576666665,0.40000895633333333
419,3.491527,-7.202921549666667,-0.8516845853333334,-152.5432078,-0.10284626466666673,-2.140788356333333,7.083973725666667,-1.995779991,10.05738322,-0.029127617666666644
420,3.49986,-7.227567037,-0.7818283833333334,-152.54351296666667,-0.6420189936666666,-1.2338831920000002,11.314417520333334,-3.2864557503333334,7.377552905000001,0.5112856826666666
421,3.508193,-7.270405610333334,-0.6994658506666668,-152.54289753333333,0.15829549233333337,-2.4431836209999998,5.980486796666667,-5.457856517333333,8.854795932666667,0.8287658000000001
422,3.516526,-7.320811430666667,-0.5884895423333333,-152.54033403333335,-0.7981170810000001,-1.6522103746666668,9.098415535333332,-6.375183900333333,12.445217449,1.52472194
423,3.524859,-7.379143079333333,-0.4885128140000001,-152.5485026,-0.06738785633333333,-1.4209457043333333,7.866011142666667,-7.331124305666666,11.305341085333334,0.07494295900000003
424,3.533192,-7.425438404333334,-0.36950425299999995,-152.5447184,-0.38642074666666665,-1.4456039466666668,8.649328073333335,-5.888773441333334,13.160157521333332,1.8115200603333335
425,3.541525,-7.463776588333334,-0.25505508,-152.55123393333335,-0.6040155093333334,-1.0703671426666668,13.937381109999999,-4.922296841666667,13.001510305000002,0.5225730953333333
426,3.549858,-7.516152381999999,-0.11573271933333336,-152.55575050000002,-0.434121569,-1.7968068916666666,4.681983153333333,-6.621110480333333,15.704547563333335,1.1524699876666666
427,3.558191,-7.537208715999999,0.017033542333333363,-152.56361389999998,-0.18013624333333333,-0.5533963343333334,11.913638592,-2.836123826333333,14.981604256999999,0.6492953596666667
428,3.566524,-7.563179016333334,0.14314767733333336,-152.56067399999998,0.2968545653333334,-1.321686647,8.189905821666668,-3.4478726686666668,14.227646828333333,1.878638069
429,3.574857,-7.580578327333332,0.2799369866666666,-152.57333883333334,-0.3617958030000001,-2.128916680666667,9.223270654,-2.406522274,15.758412999333336,0.1727594683333333
430,3.58319,-7.596055507666667,0.3975947696666667,-152.58409626666665,0.21189216766666671,-1.0345686773333334,9.089958350666667,-2.1668067773333335,13.222736043333333,0.08596555100000002
431,3.591523,-7.603754997333333,0.5387111603333333,-152.6001841,-0.4850877923333334,-1.0597967206666665,8.933778446,-1.2425129016666665,16.32750829,-0.13648133466666668
432,3.599856,-7.5887250900000005,0.6488367020000001,-152.61737063333337,0.2413268883333333,-1.2183270466666667,11.772329807,1.5097585916666667,12.431853772000002,-0.8065454363333333
433,3.608189,-7.5992817876666665,0.7784503946666668,-152.63491820000002,-0.555541123,-2.1991615693333335,6.298999389666666,-1.5767528616666666,14.769751546666667,-0.5148249443333334
434,3.616522,-7.584009329666666,0.8989875229999998,-152.65290833333333,-0.24609514066666657,-0.6036057773333333,13.779957136666667,1.5632711449999999,13.895270032333334,-0.7163834373333332
435,3.624855,-7.564577738333334,1.0272814356666666,-152.66075133333334,0.5335735279999999,-1.6126531856666668,6.604561011333334,1.9997896326666666,14.673831623333333,0.653598656
436,3.633188,-7.548253377333334,1.1384292,-152.68016563333333,-0.38337635999999997,-2.050389051333333,10.168167114666668,1.6998336316666667,12.593136866,-1.079119384
437,3.641521,-7.539175033666667,1.2355522416666667,-152.694514,0.30169856533333334,-1.0099909476666666,6.510605097,0.7994716963333333,11.064818379666667,-0.6326758066666667
438,3.649854,-7.527696132666667,1.3662923473333333,-152.71884663333333,-0.7797644113333333,-2.0197520753333333,10.400279362333334,1.1231416266666667,15.006031514333332,-1.3397786113333332
439,3.658187,-7.5076673823333335,1.4653815330000002,-152.73529050000002,0.6677456896666666,-1.3878900803333334,9.565308886666665,2.1234630146666666,11.128657500333333,-0.9016085863333333
440,3.66652,-7.511199474333334,1.5647464593333333,-152.7526703,-0.849723478,-1.7120124399999999,8.896756253,-0.6971897283333335,11.373272260333332,-0.9628733993333333
441,3.674853,-7.5216024720000005,1.6903634073333336,-152.7553609,-0.5935068926666667,-1.7134782273333335,11.79017226,-1.5581782660000003,14.275862376666666,1.170374381
442,3.683186,-7.524023691666667,1.8154725033333332,-152.75822446666666,0.49023708399999993,-1.011642491,5.543624162666667,-0.6065875743333333,14.000150363666668,1.1391036509999999
443,3.691519,-7.52585872,1.9235601026666667,-152.75925193333333,-0.23945544166666669,-1.441344877,9.336393038666667,-0.527999123,12.163106284333333,1.1037558269999999
444,3.699852,-7.531903584666666,2.048403144,-152.7567698,-0.6456771093333333,-1.3724230253333334,9.166870595333334,-1.0526340926666666,13.887610436666668,1.7505840463333335
445,3.708185,-7.520323753333334,2.1958814463333334,-152.7583008,0.41337513933333336,-1.1321623123333333,6.555986563666667,1.066180259,16.65383053,1.6555465956666666
446,3.716518,-7.487546126000001,2.306541721,-152.75615436666666,-0.4081868726666668,-0.7177173396666666,9.63508129,3.602139234333334,12.416622797333332,1.5096007386666666
447,3.724851,-7.465162436,2.4628879626666667,-152.7656860666667,-1.6487447919999998,-1.8575985430000002,8.618903320666668,2.428106308,18.039594013333332,0.837628325
448,3.733184,-7.436345736333333,2.5892874,-152.75883993333332,1.6359072526666667,-1.1780398289999998,7.697725932,3.0832373499999997,14.015006382666664,2.299718827
449,3.741517,-7.407408555666667,2.708029826666667,-152.77511593333335,-0.03129122666666673,-1.8475720086666667,9.410565692666667,3.260026448666667,13.670439561333332,-0.5629924236666667
450,3.74985,-7.378380934333333,2.8355737923333333,-152.76237486666665,0.7880383683333333,-1.477938532666667,5.334430456333333,3.0828104416666666,14.090854963333333,2.796203970666667
451,3.758183,-7.378389835,2.941429615,-152.77282713333332,-0.9156084456666668,-1.4461393059999998,7.268002192333333,-0.25332055466666664,12.054934821333333,-0.09049510466666666
452,3.766516,-7.395304202999999,3.019063790666667,-152.75511166666666,0.414285583,-1.8447064360000003,5.654334863,-2.4369166693333333,8.068365474,2.641557971666667
453,3.774849,-7.436071554999999,3.1053101223333335,-152.7522278,0.7149997253333332,-2.088949124,5.980582873,-5.237181266333333,9.520211380000001,1.195049365
454,3.783182,-7.507915814666667,3.148086786666667,-152.76624046666666,0.11818805333333327,-2.5079711876666666,5.596530596333333,-8.823115030666667,4.41658624,-1.6695958176666668
455,3.791515,-7.6008598009999995,3.2106926440000003,-152.77449036666667,0.2765179473333333,-1.744257152,9.293262642,-11.422256469999999,6.879780053666667,-0.46850163733333333
456,3.799848,-7.7063059806666665,3.242745638,-152.80941263333332,-0.6063297989999998,-1.7269031626666669,4.209859431000001,-12.702251593666666,3.4822936853333335,-4.310787042
457,3.808181,-7.831251939,3.285792509666667,-152.81412756666668,1.2283916073333334,-1.4084985056666668,6.696641604,-15.304012300000002,4.498095313666667,-0.33494456599999994
458,3.816514,-7.974677404,3.3071745236666668,-152.86235556666668,-1.776754787,-1.508347909,3.941192627,-17.159579596666664,2.4537161986666667,-6.042562167
459,3.824847,-8.133546670333333,3.346782048333333,-152.84865823333334,2.570603694666667,-0.62355869,3.361219128,-19.494360606666664,3.7788099643333335,1.8108762006666665
460,3.83318,-8.314391454,3.3501703736666664,-152.89265443333332,-2.27072004,-2.308300256666667,7.314798991,-21.680104573333335,0.2808336816666667,-5.835130532333333
461,3.841513,-8.485895792666668,3.3629700343333333,-152.87273153333334,2.5778675076666664,-0.6814177136666667,8.189788500333334,-21.054091136666667,0.47355175033333324,2.109559297666667
462,3.849846,-8.649609248,3.346110979666667,-152.9044291,-2.431566318,-1.0622303883333333,4.048957904333334,-19.713094076666668,-2.303386132,-4.739613135333333
463,3.858179,-8.834565798333333,3.3582068283333335,-152.8946991,3.073648175,-0.5142166613333332,1.1365469696666666,-22.58894984,0.5616690316666667,0.8907013933333333
464,3.866512,-9.027001062999998,3.311506827666667,-152.9329122,-2.9084044300000005,-1.4282430213333335,8.108824411666665,-23.108136493333333,-5.688797792,-6.068699280333334
465,3.874845,-9.174965540666667,3.3080364863333336,-152.93240866666665,2.998784800333333,-0.4703303573333333,8.864626248999999,-18.078300156666668,-1.1177029606666669,-0.48894175900000003
466,3.883178,-9.309081077333332,3.2572291693333333,-152.97539773333332,-3.1079266466666664,-0.7759248913333333,4.227276166,-16.098921136666668,-6.0454043760000005,-6.7471257053333344
467,3.891511,-9.442042351,3.2472592193333334,-152.98042803333334,3.798629204333334,0.6447333496666666,-0.8317833773333333,-16.235824586666666,-1.7796264739999998,-1.2764855426666666
468,3.899844,-9.585165977666668,3.2075497310000003,-153.01902773333333,-3.8514807226666665,-1.1344862976666665,6.2903674443333335,-17.211158754,-4.790051912333333,-6.026545048
469,3.908177,-9.684302012,3.1829664703333336,-153.02626546666667,3.4889654513333337,-0.966207862,11.339859329333335,-12.155783971,-3.460026582,-1.831038365666667
470,3.91651,-9.721362749666667,3.146960655666667,-153.05558266666665,-4.202189366,-0.5238593619999999,7.547030131333334,-4.558690388666666,-4.520028511333333,-4.870615601333333
471,3.924843,-9.754403112666667,3.1292715866666665,-153.0657908333333,4.581577618666667,0.39463643233333334,-0.3690102796666666,-4.2178927360000005,-2.575840910333333,-2.0520161590000003
472,3.933176,-9.794834137333334,3.0987421669999997,-153.09921773333335,-4.699162324333334,-0.15395787333333333,3.308810716,-4.931867738333334,-3.8195444743333336,-5.050952832
473,3.941509,-9.790517807,3.1011416119999997,-153.09816486666668,4.355210224666667,-0.6663482986666667,8.604517617666668,0.18683889499999987,-0.42326736599999953,-0.3237256803333333
474,3.949842,-9.737508455666665,3.0806051096666667,-153.13123576666666,-5.730037927666667,-0.7468354703333334,9.933284123999998,6.278591950666667,-2.643931230333333,-4.8184562526666666
475,3.958175,-9.637859026333333,3.101422707333333,-153.11736043333335,4.743424376,0.4678216476666666,5.895381768666667,11.543180782333332,1.4981765746666662,1.5679030020000002
476,3.966508,-9.514006297,3.1046690939999997,-153.15327960000002,-5.508355935666667,-0.6425224243333333,7.40712897,14.804540000000001,0.2460977246666669,-4.859568278
477,3.974841,-9.365969022,3.148378213333333,-153.1368459,4.442242304333333,0.2594215373333333,7.3433666230000005,17.327238083333334,4.169982593333333,2.310742328666667
478,3.983174,-9.185110410333333,3.1653981210000004,-153.17080183333334,-4.710748513333333,0.29522653400000004,6.011833826666667,21.629092536666665,1.784540612,-4.173226912666666
479,3.991507,-8.986573219333334,3.2338208356666667,-153.144989,4.268058180666666,-0.3589178423333333,4.624330918,23.31598918,6.939357041333333,3.8782235579999997
480,3.99984,-8.783561388333332,3.2451060613333333,-153.1834971,-4.357671479666667,-0.434879144,5.111479043999999,24.316154479999998,1.1678949196666668,-4.860376835
481,4.008173,-8.540868123333334,3.3277792136666666,-153.16858923333334,2.959495971666667,-0.8722125493333334,6.213867187666668,28.72852579666667,8.665260472666667,2.779578745333333
482,4.016506,-8.278580189,3.3709154923333333,-153.20195009999998,-2.708906213666667,-1.1765822769999998,11.775011061999999,31.365444819999997,5.008151531,-3.6888767083333334
483,4.024839,-7.997535228666666,3.4225963753333333,-153.20975239999999,2.4513241053333332,-0.8603125363333333,8.465343952666666,33.47422218666667,5.589301269,-0.49201242133333345
484,4.033172,-7.710180282333333,3.501580715,-153.2410787,-3.1635456879999997,-0.9945036373333332,7.294964314999999,34.39574623000001,9.047014553666667,-3.113119522666667
485,4.041505,-7.426920414333334,3.5480602583333334,-153.24022420000003,2.8390734986666666,-0.8391223946666667,4.380127906666666,33.69176229,4.831264576333333,0.3802177013333334
486,4.049838,-7.148161728999999,3.618036985333333,-153.2578125,-2.8122748306666665,-1.4508602819999998,11.674057959999999,33.235895793333334,7.7260129456666675,-1.5274983446666666
487,4.058171,-6.849149227333332,3.6458742619999995,-153.25942483333333,2.529173553,-1.6226421606666666,8.268068552,35.60904058,2.4722598693333335,-0.24902695399999994
488,4.066504,-6.557277997333333,3.7208529309999996,-153.27257796666666,-2.665145596,-0.736934662,4.508263070666667,34.77312279,8.429496727666667,-0.9964588483333333
489,4.074837,-6.305988153,3.745904604666667,-153.28322346666667,2.2177070976666666,-1.7124481893333332,5.386771439333334,29.965365090000002,2.4357600699999997,-1.3601384163333332
490,4.08317,-6.072600682666667,3.8183883030000003,-153.28697713333335,-1.6468784806666665,-1.5702174903333332,11.536663055333335,27.69307327333333,7.851946577,-0.207924405666667
491,4.091503,-5.800582250000001,3.8482533296666666,-153.3120982,1.7671649456666667,-1.9163703920000001,7.794088524,32.54773330333333,3.1947094986666666,-3.0490876040000003
492,4.099836,-5.548213323,3.9088064829999998,-153.30221046666665,-2.2085434546666667,-1.5287810416666667,11.513833044333333,29.892723716666666,6.2648158873333335,1.199357549
493,4.108169,-5.32628266,3.985064983333333,-153.32643123333332,0.7939858933333334,-2.0823019693333333,8.010717909999999,26.523077646666668,8.702232043,-2.4528173206666666
494,4.116502,-5.109045982666667,3.983998060333333,-153.30770366666667,-0.4029967386666667,-1.0258834263333334,9.711308559,25.62159729,-1.1798146166666668,1.5443727573333332
495,4.124835,-4.916077136666666,4.086719115666667,-153.3163961,-0.28105261433333334,-1.7226351696666669,6.632291953,22.906956989999998,11.691440583333334,-0.4110318766666667
496,4.133168,-4.751338322666666,4.086412270666666,-153.3133595666667,0.9324706396666667,-1.4009071983333332,5.532682895666667,19.432506563333334,-0.9243114389999999,-0.12609467933333332
497,4.141501,-4.617698034,4.145517111,-153.31345113333333,-1.3113380273333333,-2.0018803476666664,9.824830371666666,15.716116906666665,6.393446445333333,0.10641007633333333
498,4.149834,-4.506263415,4.1884586813333335,-153.318278,0.32282512366666666,-2.256795724,6.786219915,13.114650090333333,4.3227455416666665,-0.6297557953333333
499,4.158167,-4.402192115666667,4.196923414666667,-153.3100585666667,0.5054972266666666,-1.7366596463333333,9.613222440666666,12.092623076,0.26122264033333337,0.603953898
500,4.1665,-4.337323824666666,4.2357750733333335,-153.30049643333334,-0.531494697,-2.450887441666667,11.116491315666666,7.427770692333333,3.7164209683333334,0.8466743330000001
501,4.174833,-4.292260806,4.2622042496666666,-153.29349773333334,0.33407037966666664,-1.3576585846666667,5.261801084,5.010328382666667,2.4291857483333334,0.6122315726666666
502,4.183166,-4.268071810666666,4.266870339666666,-153.29368589999999,0.044331635,-2.578590472666667,5.664177735666667,2.6126943426666664,-0.29186574600000004,-0.4586015943333333
503,4.191499,-4.2791996003333335,4.279726982000001,-153.2855224333333,-0.18163745599999995,-1.8847789366666665,14.114947956666667,-1.723035446,0.7914798260000001,0.6369320996666666
504,4.199832,-4.290683269666666,4.305977741666667,-153.30351256666665,-0.04318545266666666,-1.4500349659999998,9.588296891333334,-1.5016473930000007,2.467931409666667,-2.5657267766666663
505,4.208165,-4.310451666666666,4.288385470666667,-153.30168659999998,0.255469998,-1.68625774,5.021435360666667,-2.678787906666667,-2.798948526666667,-0.391812404
506,4.216498,-4.37858518,4.303564071666667,-153.31543476666664,0.2043587863333333,-1.7525471846666667,7.955034416,-8.373127460000001,1.102773905,-1.9845995703333335
507,4.224831,-4.436460972,4.265249093333334,-153.3313497,0.20609219900000006,-1.9630328016666667,11.39532725,-7.098239024666667,-5.114681482333334,-2.6987078986666666
508,4.233164,-4.510634581333334,4.281211297,-153.3285319,-0.27521729466666667,-1.2177243329999998,8.877248129666667,-9.227498055666667,1.0614710846666668,-0.1722942193333333
509,4.241497,-4.627134005333334,4.250009616333333,-153.34765116666668,-0.273565039,-1.945788423,4.642705559666667,-14.104614577333336,-4.224450012,-3.0308345953333338
510,4.24983,-4.753236611666667,4.222185453000001,-153.32747396666664,0.280726532,-1.287896211,9.825781507,-15.598763150000002,-4.346929073333333,1.47810406
511,4.258163,-4.896509329333334,4.212540388333333,-153.34099833333332,-0.39360401399999995,-1.9105757423333334,11.52202860233333,-17.369084676666667,-1.6886487006666666,-2.156488478
512,4.266496,-5.039032300333333,4.158531109333333,-153.32963053333333,1.368387391,-0.7343749256666666,2.653281182,-17.497713723333334,-7.388351599333333,0.12450198366666665
513,4.274829,-5.211296399666667,4.102349360666667,-153.34717816666668,-1.1914261483333333,-2.551818768,7.965068658,-20.826252936666666,-7.1957337059999995,-3.147196928333333
514,4.283162,-5.393980026,4.103012562,-153.34447733333334,0.20191448933333342,-0.97771883,11.912834483666666,-22.220281600000003,-0.7661864363333333,-0.3179411343333333
515,4.291495,-5.559730688999999,4.024614572333333,-153.36846923333334,0.2568792203333334,-1.2703317996666665,9.389256796,-20.004180273333333,-9.750729401666666,-4.222747643666667
516,4.299828,-5.692269007666667,4.008957465333333,-153.36645000000001,-1.5121607186666666,-1.091111511,10.148026227666668,-16.192306836666663,-2.747460524333333,-0.23915604733333332
517,4.308161,-5.827649434333334,3.982565562,-153.36885073333335,0.8228241006666667,-0.5649487376666666,11.201972008,-16.558753013333334,-3.781131188,-1.0583335906666667
518,4.316494,-5.962191264,3.887675444333333,-153.36206563333334,0.21865767233333333,-0.4059594473333333,5.782179753,-16.465879120666667,-12.221870420333333,-1.0153099593333332
519,4.324827,-6.076104799666666,3.8597293693333334,-153.34063723333333,0.1139437356666667,-0.7200068236666667,3.822135647,-14.184756594666666,-4.26063023,1.7513480683333336
520,4.33316,-6.204084237333333,3.845879475333333,-153.33369953333332,-0.9673606953333334,-1.4461653629999998,10.824066005666666,-15.65473207,-2.552142918,-0.01749046633333336
521,4.341493,-6.300092538333334,3.7815676529999998,-153.3022816666667,1.2328331270000001,-1.168429951,16.13152536,-12.106315294666667,-8.735113780666667,2.4318930506666665
522,4.349826,-6.358760039,3.7240549726666665,-153.2869059,-1.574356099,-0.3508838316666667,10.110668499333334,-7.415326199666667,-7.867527484666667,0.41050232466666664
523,4.358159,-6.413972378,3.664385477666667,-153.25643920000002,1.4720379756666666,-0.8883834083333334,5.555735747,-7.186803976666667,-8.178587756666667,2.387546003
524,4.366492,-6.471685727666667,3.6172933579999995,-153.2459259,-0.628672775,-1.4349889356666667,10.770563443666667,-7.268278757666667,-6.58025092,0.13323247400000007
525,4.374825,-6.512101014333333,3.524489641,-153.22533163333333,1.9905414183333334,-0.9931364156666667,7.963829835333333,-5.310608705,-12.149808327333332,0.7174631356666666
526,4.383158,-6.541259924666666,3.4220600923333335,-153.22268169999998,-1.0591958860000001,-1.5525290963333334,9.345249970666666,-3.8215586143333335,-12.909541764333332,-1.5346514783333332
527,4.391491,-6.553042252666667,3.3366436956666665,-153.21454366666669,0.013067881333333364,-1.2517912983333332,11.619397800666666,-1.7792542776666664,-10.949292976,-0.6690226396666666
528,4.399824,-6.591356913333333,3.255799055,-153.21361796666667,-1.1021358173333333,-1.3956008356666665,10.805116813333333,-4.882876157666667,-10.442310013999998,-1.6397637529999998
529,4.408157,-6.616333643666667,3.158441782,-153.21849063333335,1.2011905806666667,-1.3057793030000002,9.530432541333333,-3.2824604113333335,-12.192855038666666,-2.3735178313333334
530,4.41649,-6.629761696,3.0524787110000005,-153.21245829999998,-0.8805437483333334,-0.9273806413333333,12.87352085,-1.9180542826666667,-13.501599788666667,-1.4285830060000002
531,4.424823,-6.631876627666666,2.955946127666667,-153.20766703333334,0.7317664626666668,-0.5561584556666667,4.519879023333334,-0.6051879723333332,-12.228629113000002,-1.1908787883333334
532,4.433156,-6.619340896333333,2.8601552249999997,-153.19844056666668,-2.247392773666667,-1.7694056829999998,13.278785067666666,1.1796894073333333,-12.328903832,-0.9075594743333334
533,4.441489,-6.615248680333333,2.808075189666667,-153.1867167,0.8251553773333332,-1.4092730679999999,8.992871444666667,0.10126572866666657,-7.021926561333333,0.23686345433333322
534,4.449822,-6.591376463666667,2.7064110833333337,-153.1715138666667,-0.805422505,-0.9042299586666668,13.791818936666667,2.50918897,-13.111737211666666,-0.26377112166666666
535,4.458155,-6.5326267876666675,2.6296156246666667,-153.1531728,1.1430758883333334,-0.8783759273333334,8.792103925666666,6.633870124666667,-10.057029685333333,0.6721987626666666
536,4.466488,-6.5001552899999995,2.5109188953333335,-153.12839763333332,-0.35570848466666666,-1.953687906,8.717157204333333,3.476493279,-15.291071573333332,0.8682672976666667
537,4.474821,-6.440373261666667,2.446186781,-153.1024628,0.07894973966666674,-0.354351595,10.940362770666667,6.745962461,-8.862035751333334,1.730514884
538,4.483154,-6.3890846566666655,2.3497025173333337,-153.08783976666666,-1.2479788163333332,-0.7835253773333334,8.610577585,5.775118351,-12.356028079333333,-0.005938250666666663
539,4.491487,-6.321568806666666,2.2864409286666665,-153.07032773333333,0.13714658733333338,-1.7108316816666669,8.190003872,7.698423385999999,-8.427716574333333,0.7942762276666667
540,4.49982,-6.260936737000001,2.2060738403333335,-153.056015,-0.22192239766666658,-2.2244479656666667,14.062907216666668,6.947038968333334,-10.556414443333335,-0.008875220666666683
541,4.508153,-6.198332945666667,2.1101821263333336,-153.03893023333333,0.8149068553333333,-1.6072416703333332,9.131151518666668,7.097633439666667,-12.307524045000001,0.3540315826666666
542,4.516486,-6.13359197,2.0244304339999997,-153.03178406666666,-0.7499279976666666,-2.215819458,11.243196805333334,7.471020856,-11.122446619666666,-0.7388812696666666
543,4.524819,-6.0981357890000005,1.9377268353333335,-153.0121816,-0.2691597143333333,-1.4645622196666668,8.310871760333333,3.8618158399999998,-11.243506429333332,0.779266248
544,4.533152,-6.088768164333334,1.855130573,-153.00230916666666,0.1292730173333335,-2.1899884540000003,7.212699095333334,0.7973714666666666,-10.757076263,-0.5133008010000001
545,4.541485,-6.094105243666667,1.7585638760000002,-152.98636373333332,-0.017928401666666687,-2.120291272666667,12.196880336666666,-1.0004065683333334,-12.372215906666668,0.19760528233333333
546,4.549818,-6.127346674666666,1.652761976,-152.97868853333333,-0.1388741233333334,-2.4289479653333337,8.254221121,-4.297259002666666,-13.496903259333331,-1.0801057416666666
547,4.558151,-6.160476048666666,1.5772984623333333,-152.96107483333333,-0.6866750616666666,-2.004373709333333,12.778631529,-4.338133970666667,-9.876188518,0.669995765
548,4.566484,-6.206640720333333,1.5089646776666665,-152.96374003333332,-1.24444144,-1.319676558,10.153808591333332,-5.816750605666666,-8.886045534333334,-1.8693571686666666
549,4.574817,-6.270261128666667,1.4412674013333333,-152.94910686666665,1.2236077286666667,-1.2165714206666667,8.039135694333334,-7.955227296,-9.059227597000001,0.41100596900000014
550,4.58315,-6.344516913333333,1.364275783,-152.93740333333332,-0.6147346496666667,-1.292092065,10.164727688333334,-9.261946677333333,-9.979461512666667,-0.08268293733333316
551,4.591483,-6.438461303666667,1.2928179106666666,-152.9174652,0.559342464,-1.833888848666667,4.837603886666667,-11.634142875666667,-9.436611414,0.9644702073333334
552,4.599816,-6.534930865,1.2631190713333333,-152.90898133333334,-2.6125429076666666,-1.8949625493333333,13.206756590666666,-11.891051612,-4.436407729333333,0.13819323666666664
553,4.608149,-6.632327556666667,1.2607566663333332,-152.9008382,-0.7253656386666667,-2.1704978543333335,11.997424124333333,-11.98186270366667,-1.046854416666667,0.4653554956666666
554,4.616482,-6.750368277333333,1.2560135423333334,-152.89726256666665,-0.3097512966666667,-1.5482821859999998,6.690847238,-14.500015893333334,-1.392488956666667,-0.09279159699999988
555,4.624815,-6.862594286666667,1.2409966983333334,-152.89226783333334,0.43643868466666663,-1.3060167036666668,12.869899116,-13.718316076666667,-2.655803998333333,-0.10710996400000017
556,4.633148,-6.9906948406666665,1.262323916,-152.87992350000002,-1.5463739633333333,-1.2698238196666667,6.068690935666666,-15.74171543,1.725951513,1.321066896
557,4.641481,-7.105048497333333,1.3192213973333333,-152.87140910000002,0.17459648833333338,-1.3136291106666667,10.550882819,-14.032972653333333,5.996153909333334,1.3945973316666667
558,4.649814,-7.210266271999999,1.3449389536666665,-152.85939026666668,-1.4228919546666667,-0.5575035763333333,10.819213074666669,-12.96365547,2.1052639980000003,1.345456123
559,4.658147,-7.306378205333334,1.4138990143333334,-152.8461965,0.1646740436666668,-2.0703936416666666,7.313237667,-11.857885680999999,7.3550984066666665,2.1662392416666667
560,4.66648,-7.379374345,1.5377604566666667,-152.84611003333333,-3.3669737776666664,-0.20656065166666662,13.547970294999999,-9.045208612666666,13.962849778333334,1.4210186796666668
561,4.674813,-7.464367707666667,1.7039449016666666,-152.85569759999998,1.2289747793333332,-1.2769348463333334,5.959865887333334,-10.437716486666666,19.132699329999998,0.9626559019999998
562,4.683146,-7.520017624,1.8014244436666667,-152.85190326666668,-0.2372742096666666,-1.6883585913333334,10.914230666666667,-7.0055758159999995,10.895730366666667,1.5239062706666668
563,4.691479,-7.580815633,1.9120465913333333,-152.84803263333333,1.671258529,-0.412212049,9.566382406666667,-7.615446726333334,12.453127862666667,1.7423531016666665
564,4.699812,-7.6399211886666665,2.0347414413333333,-152.84814456666666,-1.9975364210000002,-1.8181202013333335,8.173607509333333,-7.390272776333333,13.818802674666665,1.4614801403333333
565,4.708145,-7.691122849666666,2.1840699913333332,-152.8656667,-0.33668726666666665,-1.0673887930000001,12.885294596666666,-6.351265271333332,17.390965143333332,-0.15990583100000003
566,4.716478,-7.738394419666666,2.2805486123333334,-152.86900839999998,0.9230107366666666,-0.831136758,8.899556794,-5.959008058666666,10.747705937666666,0.6984916726666667
567,4.724811,-7.765936851666666,2.3567174276666667,-152.88197326666668,0.6650723813333334,-0.7577412526666665,6.916544436666666,-3.5078610576666662,8.485044319333333,-0.791228076
568,4.733144,-7.772226969333334,2.4516626593333335,-152.89412436666666,-1.6462473273333333,-1.047083989,11.110633534666666,-1.0071731806666666,10.844756601333332,-0.36412773533333326
569,4.741477,-7.792960325999999,2.5723704893333337,-152.91881816666668,0.130173405,-1.3309784133333336,9.772626401333333,-2.6565169096666668,14.105946223333333,-1.4174621303333332
570,4.74981,-7.805239995333333,2.6517860096666666,-152.93920386666665,0.4675305286666667,-1.6829236053333334,9.465724151333333,-1.6503085940000002,8.998981635,-1.6133127409999999
571,4.758143,-7.788290500666666,2.7049600283333333,-152.96084086666667,0.9316018119999999,-0.8138103783333334,8.38975811,1.8524940216666668,6.032622378666667,-2.1628449560000003
572,4.766476,-7.7924427986666664,2.7760629653333333,-152.97303263333333,-1.0997906726666669,-1.3721536796666667,7.866866271666666,-0.7223601936666667,7.878542026666666,-0.7593469169999999
573,4.774809,-7.793150584,2.8722344636666666,-152.99381003333335,-0.17618181200000002,-1.3106867276666665,12.08143838,-0.26314791066666676,11.13393243,-1.3794461286666666
574,4.783142,-7.799532095666667,2.9323720136666664,-153.0082194,-0.5203782916666666,-1.28747502,9.642409323333332,-0.9608241293333334,6.635614823,-1.382588148
575,4.791475,-7.814882119333333,2.962559223333333,-153.01502483333334,1.436904907,-1.6081068216666665,6.639024813333333,-2.1088755926666662,3.0600089036666667,-0.7641495166666666
576,4.799808,-7.821252823000001,3.0268700916666664,-153.0225881,-1.170821587,-1.3455022103333336,11.491406044333333,-0.9874845740000001,7.0226976070000005,-0.5189272859999999
577,4.808141,-7.823839505666666,3.0661567843333333,-153.0337473666667,0.29692578300000005,-1.202027768,11.480439505000001,-0.5454466189999999,4.21520719,-1.138224279
578,4.816474,-7.842688719333334,3.091919660333333,-153.03001403333332,-0.07707181566666667,-2.01908048,6.885614156666667,-2.5646381376666665,2.2576730253333337,0.20738140166666666
579,4.824807,-7.847720305333333,3.108142455333333,-153.0151469,0.9645999273333334,-0.5326166303333334,8.747644425333332,-1.0094953576666668,1.052339839,1.5561247069999997
580,4.83314,-7.837861061333332,3.1484511693333332,-153.01235453333334,-1.5560897786666665,-0.6085853773333333,9.841083684333332,0.8937830130000002,4.003389676333334,0.33572152066666666
581,4.841473,-7.824768543333334,3.1538693903333335,-152.98653666666667,1.620843053,-1.617693762,6.623686034333333,1.079307124,-0.41038719800000006,2.706899643
582,4.849806,-7.821640173666666,3.187982003,-152.98585509999998,-2.2204029166666666,-2.0346523523333335,13.727381706666668,0.10571005700000001,3.275091350333333,0.15445376166666666
583,4.858139,-7.822333018333334,3.240575313666666,-152.9835205,0.41323270400000006,-1.1607538463333331,8.046091397666666,-0.42137519500000015,5.583463986333334,0.683908681
584,4.866472,-7.840628306,3.281061808,-152.9986673666667,-0.460932513,-1.6938804186666667,5.691595872000001,-2.353414614666667,4.289240449666667,-1.5999719849999998
585,4.874805,-7.856441020999999,3.2709780533333337,-152.98405453333334,2.151166061666667,-1.8561258963333334,11.241013845333335,-2.3238939443333333,-2.065314094,1.1088017623333333
586,4.883138,-7.872199694333333,3.2884294986666665,-153.00167846666668,-2.3442356190000004,-1.3058167723333334,10.955860774333333,-2.0245875916666667,1.6240450543333333,-2.4787320293333335
587,4.891471,-7.9012041093333325,3.324418465333333,-153.00183616666666,0.8080835936666665,-1.3809768556666668,6.675009170666666,-3.7999919356666663,3.650434514,0.12798153366666667
588,4.899804,-7.918995698333333,3.322536230333333,-153.00989786666665,0.38643498700000006,-0.8760371210000001,9.101160525,-2.3539867353333332,-0.8223878143333333,-1.6585259836666666
589,4.908137,-7.931533178,3.2887030443333334,-152.99573769999998,-0.30345330633333334,-0.6063649476666666,9.496933619333333,-1.9176908929999998,-4.882411062666667,0.6584011909999999
590,4.91647,-7.940342108333334,3.3393455346666667,-153.00536093333332,-2.5193844833333334,-1.283808584,8.354962985,-1.262397587,5.417658964666667,-0.7697249056666666
591,4.924803,-7.930854161666667,3.397171656333333,-153.0075938,0.8488754930000001,-1.2021016606666668,12.392035803333334,0.8520744046666667,6.2789750909999995,0.23046830299999999
592,4.933136,-7.9031370480000005,3.3771704833333334,-153.01190696666666,0.6413645693333334,-0.8821192880000001,7.052640677333334,3.0753605549999996,-3.0372718573333333,-1.4960761766666666
593,4.941469,-7.877405643333334,3.372815609,-153.00582376666668,-0.23398578166666664,-0.9794045736666667,8.428236007333332,2.7380376060000002,-1.2483392756666667,0.1998124373333333
594,4.949802,-7.836784204,3.456549565333333,-153.0187327,-1.2077057163333331,-0.9081514836666665,12.581635631666666,4.683328390000001,9.413971744666668,-0.6454957809999999
595,4.958135,-7.786389191666667,3.4429529506666667,-153.01170346666666,1.2485964896666666,-0.7386410333333333,7.140395800666667,5.678586641666667,-2.3559164206666665,0.16551915799999994
596,4.966468,-7.721028646000001,3.410097996333333,-152.9917806,0.33284838999999994,-1.2560445866666665,7.120277722666667,7.4210639,-4.955104271333333,1.1819049516666666
597,4.974801,-7.634043693333333,3.4441325666666667,-152.97836813333333,-1.8654038510000002,-0.772512118,14.473486581000001,10.044550897,3.206014593666667,1.6659798223333333
598,4.983134,-7.547301292333334,3.4795704683333333,-152.96825666666666,-0.29500518233333334,-1.1664073116666667,7.120984235000001,10.053668657000001,3.32950508,1.1214894853333333
599,4.991467,-7.469535032666666,3.462133169,-152.96496073333333,1.1612935463333336,-1.9211226503333334,7.435334680666666,9.009675820666667,-2.75951163,-0.32639354466666665
600,4.9998,-7.394408384999999,3.461672147,-152.9517923666667,0.1975915033333333,-1.4271676343333333,11.478171665333335,8.627690633666667,-1.004398664,1.07104222
601,5.008133,-7.333659966666666,3.48284022,-152.96529133333334,-1.5858534969999998,-1.446690882333333,7.813309192666666,7.088428338,2.100794275333333,-1.7329995633333333
602,5.016466,-7.287369251666667,3.507220983333333,-152.97109986666666,0.20262430733333334,-1.9784078996666665,8.246325173333332,5.314373314333333,2.270062258,-0.9644188086666666
603,5.024799,-7.252056757666668,3.512691974666667,-152.97514343333333,0.5468429063333333,-2.161657969333333,11.823303860000001,3.9637347060000003,0.0892742476666668,-0.8640791476666666
604,5.033132,-7.216614246333333,3.507612228333333,-152.9780833,-0.98557957,-0.8259073696666667,7.128362655666667,3.991188645333333,-1.2781970896666666,-1.079605902
605,5.041465,-7.192024072,3.532555818666667,-152.97568256666668,-0.219584743,-1.5115207430000002,7.623477616333333,2.6234697503333333,2.3086073,0.22208410999999995
606,5.049798,-7.182505448666667,3.5768965880000003,-152.97340900000003,-0.7743011416666666,-2.0050790309999997,13.248520529999999,0.8432335060000001,4.504502435666667,0.45407204833333337
607,5.058131,-7.174570719333334,3.598766883,-152.9675394666667,0.28582322600000004,-1.1299539906666667,9.422036966666667,0.5927987893333334,1.8963417610000004,0.5678419666666668
608,5.066464,-7.160483042333333,3.618915717,-152.95147703333333,-0.2425028566666667,-1.2228802643333332,7.320034663,1.3005242920000002,1.4404128389999997,1.5680821936666665
609,5.074797,-7.135819117333334,3.6765631833333337,-152.94051106666666,-0.6036443906666665,-0.6233754653333333,11.675898234666667,2.5672765573333334,6.080969531666667,1.6973146196666669
610,5.08313,-7.122084140666666,3.7142994403333334,-152.92859393333333,-0.12063066166666674,-1.5701754689999998,8.653394380666667,1.281053305,3.6010455693333334,1.322134286
611,5.091463,-7.114248434666666,3.7387569746666665,-152.92889913333332,-0.015523766666666697,-1.2812874116666666,8.055069287666667,0.6354420980000001,2.2930764366666665,-0.10934717466666662
612,5.099796,-7.0967052776666675,3.782169819,-152.91409299999998,0.5691902303333333,-0.71807082,10.089882213000001,1.7171441913333334,4.2372347113333335,1.7464212973333335
613,5.108129,-7.066676458,3.799801508333333,-152.9228058,-1.0452787776666668,-1.3062275253333333,8.973401069333333,3.367439667333333,1.6096497376666665,-1.2344097496666666
614,5.116462,-7.055792967333335,3.8210515976666666,-152.92788696666665,0.32447255166666666,-2.132624626333333,9.718466203,1.0752943356666667,1.8913167323333333,-0.923585236
615,5.124795,-7.0570343336666665,3.8301775456666665,-152.93940226666666,-0.11643682900000003,-1.9882864949999999,12.747994426666665,-0.36277016033333326,0.6398309073333333,-1.703747988
616,5.133128,-7.057633082,3.8512787023333335,-152.95589703333331,-0.399665773,-1.2507714233333334,7.595918655333333,-0.21121911200000007,2.045284032666667,-2.293046077
617,5.141461,-7.0611610413333326,3.865993261333333,-152.96721903333335,0.0856559076666666,-1.139468074,8.602612654,-0.6576412916666666,1.3050968843333333,-1.5689488846666666
618,5.149794,-7.062969048999999,3.8986593086666663,-152.9756368,-1.0317011973333334,-1.2359569073333334,13.88598569,-0.391705722,3.3012139780000003,-1.1828184923333334
619,5.158127,-7.054521083666667,3.9188987413333334,-152.98246763333333,0.9350329636666667,-0.5693816376666666,8.006089528,0.7282681863333332,1.9006532033333334,-0.9486999983333334
620,5.16646,-7.044143041000001,3.9098676043333334,-152.99035643333335,0.07433898700000001,-1.607544239,9.219574770666666,1.0557034809999999,-1.6666375103333333,-1.7341477573333333
621,5.174793,-7.016358693333333,3.8958899183333333,-152.99359130000002,-0.0035087863333333655,-0.5242118093333333,10.380938051000001,3.0428389906666666,-2.229758103666667,-1.0423073773333333
622,5.183126,-6.982695579333334,3.8960313003333336,-152.99668886666666,-0.22977666033333333,-0.7695050143333334,10.218820573,3.797395865,-0.6443344753333334,-0.9925260743333334
623,5.191459,-6.9148255983333335,3.874704122666667,-153.0110880666667,-0.7927174966666666,-1.0261415736666668,13.16908614,7.9446268086666665,-2.9412187736666664,-2.4901734986666666
624,5.199792,-6.869888146666667,3.8208820820000002,-153.02158613333333,1.6903899510000002,-1.8424872956666665,8.178159236,5.211408218,-6.967631658000001,-2.634108443666667
625,5.208125,-6.792646249333334,3.733861367,-153.0317586333333,0.47340950233333334,-0.543565681,15.56427002,9.044564088,-10.838051637666666,-2.9160830426666666
626,5.216458,-6.685180664000001,3.6261099176666662,-153.03547666666668,0.8442297279999998,-0.191601634,8.111642360666666,12.639603615,-13.484960236333334,-2.581377705
627,5.224791,-6.556380908,3.524833599666666,-153.04208373333336,-0.21016482533333333,-1.3054574926666669,8.711753051,15.220855076666668,-12.694142021666664,-2.6558597883333332
628,5.233124,-6.422556718333333,3.389889876333333,-153.04221090000001,-0.6496355530000001,-0.3846972783333333,14.300254186666665,15.749417623333331,-16.69906966,-2.2951643466666667
629,5.241457,-6.2686182656666665,3.3144532046666666,-153.03663636666667,-0.3650007446666666,-1.663046519,11.784594536666667,18.121409416666665,-9.677471955333333,-0.7827501496666667
630,5.24979,-6.093030453,3.188982089333333,-153.0301615666667,-1.2650392849999996,0.1410966513333333,10.523416835333334,20.757853190000002,-15.748588563333334,-1.4932169116666667
631,5.258123,-5.923769950666666,3.108742316666666,-153.0210826,1.0717324416666667,-2.069412986333333,10.144724054333333,19.92581176666667,-10.296149253333335,-0.36790589599999995
632,5.266456,-5.725785573333333,2.9644488890000003,-153.01904296666666,-1.707223733,-0.5725373623333333,15.857102076666669,23.483080546666667,-17.947589875000002,-2.175328969666667
633,5.274789,-5.520128885999999,2.9425507386666667,-153.01806639999998,0.3770175179999999,-2.1139099993333335,10.441463787000002,24.356410976666666,-3.237905661333333,-0.5702755846666667
634,5.283122,-5.337824185666666,2.795416514,-153.02031963333334,-1.1799725293333334,-1.9161597886666666,12.060730615333332,21.612296419999996,-18.248764036666667,-2.5701255796666667
635,5.291455,-5.170960744333333,2.813980778,-153.01489256666665,0.31430161000000006,-2.4757734933333335,12.224105833666668,19.67070198,1.5562354526666666,0.40619911733333325
636,5.299788,-5.061043262333333,2.6538048983333336,-153.0252126,-0.3210148813333333,-2.086905261,12.385122536333332,12.97025855266667,-19.748672806666665,-3.4055511553333333
637,5.308121,-4.929931481666666,2.655383984,-153.0179952,-0.5457030633333333,-2.2110185226666665,14.295280078666666,15.388495763333333,-0.49226673566666673,0.39811362799999994
638,5.316454,-4.877499580333333,2.557421843333333,-153.03877260000002,-0.01918494666666663,-3.9235224723333335,8.180649715,6.115176281666667,-12.211200913333334,-3.8985050519999995
639,5.324787,-4.851008415,2.5030702750000002,-153.02235413333332,-0.48581097533333323,-1.7844349743333332,21.068307243333333,2.8107701539999996,-7.36507988,0.9083151023333332
640,5.33312,-4.825445175,2.5389454763333332,-153.05033873333332,-2.9670424260000003,-2.594869693,9.746851127666666,2.908185363,3.9602438633333334,-3.389062384666667
641,5.341453,-4.858797232000001,2.403840184,-153.0086619,3.339437901666667,-3.1544370649999998,11.836148579666668,-4.538775653,-17.173774242666667,3.12517641
642,5.349786,-4.907416820333332,2.4798586366666666,-153.01941936666665,-5.4856818516666666,-1.4621845906666666,15.348217325999999,-6.051487604666666,8.490547855666666,-0.955927665
643,5.358119,-4.963962396,2.454878052,-152.9541677,4.996872504333333,-1.3370671223333332,16.23628235,-7.438512721666668,-4.265015017333334,7.099029541333334
644,5.366452,-5.062488396666667,2.3803753853333336,-152.95312503333332,-2.6333631276666667,-3.4978652796666663,11.251295567666666,-12.105759936666667,-9.619650362333333,-1.1147702536666666
645,5.374785,-5.191322486,2.449311177,-152.9067891,0.5036535956666667,-1.6549309283333333,12.628051677666667,-15.963238720000001,7.036416212,5.810782710666667
646,5.383118,-5.3357899983333335,2.431821982,-152.91690573333332,-1.2674947380000001,-2.7588282426666666,13.632397013333332,-17.607514063333333,-2.5746031203333337,-1.8396972016666673
647,5.391451,-5.517506440666668,2.3320547343333335,-152.88435873333333,2.5221597353333336,-2.3174817959999996,10.414183081333332,-22.25211652333333,-12.900062881333334,2.2938762506666666
648,5.399784,-5.7157387733333325,2.3335394063333332,-152.91208903333333,-3.058698018333333,-1.747488419,10.389765738666666,-23.94491513666667,-0.1847128273333333,-3.764300108
649,5.408117,-5.920275847333333,2.308697899,-152.9055125,1.9608345826666664,-1.9397691550000002,13.209648767333334,-24.866074883333336,-3.6570107949999997,0.04955965300000006
650,5.41645,-6.160005728333334,2.1677033106666665,-152.9190368666667,0.25326172500000005,-2.5109465916666664,12.133842434666667,-28.99376742,-17.346405346666668,-3.8686465916666664
651,5.424783,-6.398165702666667,2.145029823,-152.93961586666668,-2.0126620033333333,-1.3353427150000001,12.76310332333333,-28.75789133666667,-3.0446171213333333,-3.197961191333333
652,5.433116,-6.613287766666667,2.104994217333333,-152.9526418,0.6695402760000001,-0.9579977593333333,12.715156239999999,-26.066445033333334,-5.27125899,-2.645282129666667
653,5.441449,-6.858794848,1.95600003,-152.96544393333332,0.366321782,-2.8468871513333336,12.710072599,-29.678980510000002,-18.189062753333335,-4.062204202333334
654,5.449782,-7.090544700333333,1.897182226,-152.9787089,-1.0569872109999998,-0.08182219666666679,11.391407331666665,-28.056504566666664,-7.493927996,-2.9174337090000004
655,5.458115,-7.279988765666666,1.8760940036666665,-152.99913026666664,-0.4795039746666667,-1.0292758149999999,10.400176844666667,-22.93805059,-2.815236489,-3.1831768156666667
656,5.466448,-7.485321680666666,1.734340191,-152.98913066666668,1.3762247363333333,-1.9861705303333332,11.009519577,-24.974426903333335,-17.71096039,-1.4632613066666667
657,5.474781,-7.683207194,1.6695034103333333,-153.00996396666667,-1.9348915616666666,-1.118807867,13.008977253333333,-23.914580660000002,-8.080211322666667,-3.9738969606666665
658,5.483114,-7.824841181333333,1.632434527,-153.0042521,0.40186411633333335,-0.7277245520000001,11.529343128333332,-17.35424073333333,-5.0929484359999995,-0.3712360066666667
659,5.491447,-7.979768593999999,1.4759090043333334,-153.01036580000002,0.32589275666666667,-2.3482596079999998,9.238172213,-18.85461616666667,-19.108735403333334,-3.763740937
660,5.49978,-8.130891482333334,1.4071334996666665,-153.0013682,-1.1374160049999997,-0.8087396670000001,11.283283234333332,-18.449317930000003,-9.009308022666668,-0.5597907953333333
661,5.508113,-8.242159207666667,1.3430603743333334,-153.0096079333333,-1.5025297106666666,-0.5691347913333332,13.074736276666668,-13.625457446666667,-8.069941838,-2.5196685393333333
662,5.516446,-8.357905705999999,1.2719019453333333,-152.98556006666666,0.4399214636666666,-1.5681162376666666,11.513069470666666,-14.23197651,-9.558248837999999,1.1521882166666666
663,5.524779,-8.46959877,1.2371522586666668,-152.98708596666665,-1.9208462236666666,-1.4602639973333333,8.502214907666668,-13.675697963333333,-4.786182562666666,-1.252177596
664,5.533112,-8.557141622000001,1.2206558136666665,-152.95945233333336,-0.220614137,-0.8303281863333334,14.432353656666669,-10.879715916666667,-3.0501734413333335,2.527139028
665,5.541445,-8.628012021,1.2569295863333334,-152.96585589999998,-2.592200040666667,-0.821236551,16.03428491,-8.804655076666666,3.8258364596666663,-0.5626809199999999
666,5.549778,-8.693963050999999,1.3063186006666667,-152.95077003333333,0.733139694,-1.7011301916666666,12.320278488,-8.221291065333334,4.8890365760000005,2.213586906666667
667,5.558111,-8.756272951333333,1.3457984029999999,-152.96118669999998,-1.0380449790000001,-1.616245384,11.333523116666667,-7.764486313,4.281309048333334,-0.9688800173333334
668,5.566444,-8.823988278666667,1.3853441376666666,-152.9684499,0.9880458663333335,-1.7809229296666667,13.74818802,-8.365311146,4.124297937000001,-0.609085242
669,5.574777,-8.889838854666666,1.4407617450000003,-152.99213666666665,-1.6180316333333333,-1.5329708653333334,12.533183416666667,-8.133664925666666,6.330939134,-2.256243065
670,5.58311,-8.95672671,1.524759094,-153.02314246666666,-0.781918496,-2.2622494696666666,12.018621605,-8.203096548666666,9.924052876666666,-2.576728264333333
671,5.591443,-9.030712445666667,1.6075265006666666,-153.04588823333333,-0.8649805386666666,-0.8408221403333335,16.026073456666666,-9.132670243333333,9.650176526000001,-1.598648707
672,5.599776,-9.103309631,1.681499501,-153.07473756666667,-0.291571498,-1.1245403883333334,17.705505686666665,-8.877864678333333,8.612745125,-2.4831636746666668
673,5.608109,-9.163115183333334,1.7715412176666667,-153.09250386666665,-0.03528298933333337,-2.0112105473333335,14.716008823333333,-7.447741190333333,10.416759965999999,-0.8373978433333334
674,5.616442,-9.220865567333334,1.8562933206666665,-153.11080933333335,-0.057006438666666694,-2.145240215,12.411893843333333,-7.131977717000001,9.691859880333332,-1.0086246726666666
675,5.624775,-9.273035685333333,1.938329359,-153.12050883333333,-0.6515180863333333,-0.313383465,13.608006156666667,-6.521273295,9.225185075333334,-0.03692709900000013
676,5.633108,-9.319340388,2.005509535333333,-153.13845823333332,-0.083580449,-2.1801496843333332,16.205413183333334,-5.77358977,7.696856021666666,-1.2731642526666667
677,5.641441,-9.341982841333333,2.0617577233333333,-153.14213056666668,0.4843743743333333,-1.7609966196666669,16.867238363333332,-3.0339976153333335,6.145098050333334,0.20104614899999987
678,5.649774,-9.348150571,2.1074986456666664,-153.16537983333333,-0.4742884636666667,-1.6037136613333332,14.806776046666668,-0.9001055063333334,5.172816435333334,-2.3299265106666667
679,5.658107,-9.355581919333334,2.135190407,-153.16961163333335,0.2810400923333333,-1.0816636683333334,15.528987566666666,-1.209196732,2.7750248909999997,-0.4141310006666665
680,5.66644,-9.360495567333333,2.156700134333333,-153.19787596666666,-0.30054813100000005,-1.656949459,14.480289776666666,-0.7347871759999999,2.4056463640000003,-3.3882809480000002
681,5.674773,-9.360897382333334,2.1846358776666666,-153.20499166666664,0.3837430876666667,-1.5966210763333333,12.091729163333333,-0.32980040699999985,2.7742176853333333,-0.7672701926666666
682,5.683106,-9.3657945,2.2112872996666666,-153.23498023333335,-1.4812310536666669,-1.524895042,13.466627439999998,-0.7461085916666667,3.1384270986666665,-3.4839161633333333
683,5.691439,-9.364702860666666,2.2281068166666667,-153.23066203333335,0.812721523,-1.0072557383333332,14.533241906666666,-0.2248546483333332,1.3222879173333333,0.38487954900000004
684,5.699772,-9.343043009666667,2.2355267206666665,-153.24896239999998,-0.8747440976666665,-1.4717927573333334,15.748701093333333,2.413274824333333,0.545805057,-2.4922562486666666
