time,Euler_X,Euler_Y,Euler_Z,Acc_X,Acc_Y,Acc_Z,Gyr_X,Gyr_Y,Gyr_Z
0.0,-3.56828618,9.176697731,-155.3099518,0.155101448,2.112473726,7.167058468,54.00649261,33.56435776,9.459920883
0.008332999999993262,-3.03112936,9.408976555,-155.2619171,-3.342744112,-0.123314656,8.182384491,62.74593735,27.05288315,6.815579414
0.016665999999986525,-2.418612003,9.679679871,-155.1681366,0.724107563,1.958480597,9.882915497,70.83252716,31.47748756,12.16829777
0.024998999999979787,-1.74752152,9.979269028,-155.1216583,-2.501099825,1.655690789,9.364631653,78.79924011,35.28039551,6.330971241
0.03333200000008674,-0.978350461,10.25993156,-155.0283203,-1.889964819,0.380181402,7.766257763,89.52723694,32.96659851,11.35730362
0.04166500000008,-0.127897978,10.50503159,-154.968399,-1.251814961,0.669270158,9.228574753,99.97971344,28.89527321,6.889667988
0.04999800000007326,0.706081986,10.8057766,-154.8625031,0.077943787,0.193156138,6.751879215,96.92263031,35.70974731,11.83523369
0.058331000000066524,1.613965631,10.99544144,-154.8164063,0.227527797,0.225208282,5.117815495,107.1223068,22.41821098,4.504605293
0.06666400000005979,2.592939854,11.22946453,-154.6833649,-2.702379227,1.309661865,17.87836266,113.5952301,28.19878578,14.15389347
0.07499700000005305,3.531579971,11.45748997,-154.6091003,-1.947624207,-0.83019805,10.21635246,110.1064758,27.34390259,6.798185349
0.08333000000004631,4.556575298,11.64045238,-154.4774323,1.026774645,-0.52360785,6.145798683,119.0342941,22.55374336,13.42294312
0.09166300000003957,5.556130886,11.81589031,-154.3948517,-1.394085169,0.512347817,15.8598938,117.1551743,21.37866402,7.343066216
0.09999600000003284,6.555586815,11.9371233,-154.2602234,-1.485963702,-2.52098012,9.949494362,115.8086014,15.69896412,13.71637249
0.1083290000000261,7.578341484,12.08104706,-154.1759033,0.947082579,0.695492208,10.2078104,119.8476791,17.90997314,7.230901718
0.11666200000001936,8.561579704,12.15831852,-154.0697021,-2.343562126,-1.762170315,9.554581642,114.5149231,10.49705315,10.56244659
0.12499500000001262,9.536664009,12.19512177,-153.9776764,-1.008967042,-1.297355294,10.21162796,113.9028397,5.612361431,9.501645088
0.1333280000000059,10.50531006,12.29618549,-153.8744049,-1.062009931,-1.345817089,14.03781033,112.8166428,13.61687469,9.344524384
0.14166099999999915,11.39826393,12.30329514,-153.8032684,-0.074648075,-1.230794787,10.05122089,104.5571747,1.973915935,7.55905056
0.1499939999999924,12.23235321,12.35844326,-153.7272491,-2.689129353,-4.148588657,12.98000431,97.35336304,7.872024536,6.898291111
0.15832699999998567,13.02868748,12.36744595,-153.6486053,-0.122314639,-1.427471638,13.46223736,92.7609024,2.622469187,8.293067932
0.16665999999997894,13.77287197,12.38019657,-153.6023102,-1.5977844,-3.514792204,11.17847824,87.32928467,2.318167686,4.453922749
0.17499300000008589,14.41824818,12.3801899,-153.5112305,0.846037686,-1.457613111,8.761547089,74.32099915,2.151465416,9.888334274
0.18332600000007915,14.99750614,12.40791607,-153.4910736,-4.181461811,-2.589916945,15.22913074,68.21543121,3.393964052,0.972307563
0.1916590000000724,15.55163193,12.44843102,-153.3755646,-1.290551662,-4.350123882,6.939795017,62.73190689,7.808437824,11.31209469
0.19999200000006567,16.02280426,12.37655258,-153.4070282,1.147136092,-2.230481148,13.15179062,56.58417511,-9.728904724,-1.670872688
0.20832500000005894,16.43857002,12.48223877,-153.3082428,-5.689982891,-2.825095654,17.93575478,46.55823898,14.96559906,7.105596542
0.2166580000000522,16.72991562,12.45766163,-153.321701,3.377984285,-1.956409335,9.77890873,34.55199051,-3.699647665,-1.134302139
0.22499100000004546,16.97184944,12.57409286,-153.2458344,-5.75947094,-4.03288126,10.84823132,26.27355194,15.50022125,3.989663363
0.23332400000003872,17.14551353,12.56848431,-153.2489777,1.469941616,-1.23513341,8.625092506,20.17202568,-1.174080133,-0.61940366
0.24165700000003199,17.31255531,12.75886917,-153.173645,-5.98482132,-2.960021019,12.87829304,17.27741814,23.98645782,1.192484498
0.24999000000002525,17.40347672,12.81120205,-153.1741638,1.305460215,-2.493026733,6.873064518,10.1818018,5.554358006,-2.395622969
0.2583230000000185,17.44716835,12.99984741,-153.1246185,-3.752258539,-2.733561039,14.28899288,3.129408121,22.88793182,-1.714592218
0.2666560000000118,17.42152214,13.15014267,-153.086441,-1.673003912,-1.208392739,13.15354061,-4.849928856,18.12262917,-1.607549906
0.27498900000000503,17.34998703,13.41889763,-153.0276031,-2.992918968,-2.978721619,13.01124191,-10.99231052,32.38238144,-3.545680046
0.2833219999999983,17.23746681,13.61945534,-152.9846039,-1.415501118,-2.872616529,2.642889023,-15.4381218,24.05202675,-2.821845531
0.29165499999999156,17.08502579,13.85883999,-152.936142,-1.045591116,-0.614087403,12.49249744,-20.46095657,28.66673088,-3.544937611
0.2999879999999848,16.90578651,14.18309975,-152.864502,-4.306420803,-2.350136995,12.48991966,-24.31322861,39.23297119,-3.854359865
0.3083209999999781,16.68424988,14.48251343,-152.8071136,0.084400974,-1.769337535,12.22870541,-29.07797432,35.87724686,-4.458600998
0.31665400000008503,16.43672752,14.88443375,-152.7284851,-4.602068424,-2.965894222,9.247067451,-32.80924606,48.41492462,-5.453952789
0.3249870000000783,16.1294136,15.17620564,-152.6719055,1.929943323,-0.535808682,7.81918335,-39.42839813,34.99890518,-3.9894526
0.33332000000007156,15.80862808,15.65846539,-152.6044769,-6.30581522,-3.14755106,14.24865913,-41.35370255,57.36904144,-8.873425484
0.3416530000000648,15.50231361,16.03690147,-152.5184326,1.476766586,0.43243888,10.08356571,-40.3657608,45.96062851,-3.15693903
0.3499860000000581,15.16329861,16.56139374,-152.4598541,-5.064232826,-1.746368885,11.34710312,-43.35810471,62.06943893,-10.58693027
0.35831900000005135,14.80118561,16.94546318,-152.3770294,3.81801486,-1.44737792,4.174170017,-47.10780334,46.53411102,-3.187114477
0.3666520000000446,14.42706585,17.460186,-152.3509674,-3.816001415,-1.344348907,8.497937202,-46.51812744,60.11245346,-13.13840389
0.37498500000003787,14.07249546,17.92407227,-152.254364,-2.165052414,-0.066273876,12.96096134,-46.86086655,56.22637939,-3.463034868
0.38331800000003113,13.7060461,18.47756767,-152.2393494,-1.971354485,-1.996231318,12.38588524,-45.23051453,64.47640228,-14.72750187
0.3916510000000244,13.3779974,18.95340347,-152.1468811,-2.634438038,-0.02915952,13.84054756,-43.71434784,57.52587509,-3.618488312
0.39998400000001766,12.97651386,19.47258186,-152.1592712,3.601424217,0.074757427,4.170256615,-48.37876511,59.93402863,-16.00847054
0.4083170000000109,12.6165638,19.9197998,-152.1146545,-4.413934708,-1.770070195,10.70181274,-45.78758621,53.00172806,-7.436715126
0.4166500000000042,12.24287987,20.50008583,-152.0940704,-0.154937714,-0.217528,12.72484875,-46.3814888,68.09814453,-13.1607008
0.42498299999999745,11.89197636,20.90517807,-152.0806274,-5.427005291,-0.508167088,12.92038727,-43.46728516,47.40473557,-9.153562546
0.4333159999999907,11.55218792,21.48831367,-152.062149,1.528780341,-1.863918304,5.42673111,-42.25909805,68.53636932,-12.62361336
0.44164899999998397,11.17015934,21.83120728,-152.0856781,0.692895055,-0.203506172,7.070888996,-45.59038544,39.37618637,-11.14430428
0.44998199999997723,10.80009842,22.39844704,-152.0809326,-1.470417976,-0.455704242,11.46115303,-45.30021667,66.52481842,-12.8842926
0.4583150000000842,10.42448997,22.70973206,-152.0936279,-1.875306249,-1.851819158,7.227940559,-45.27959442,36.00917053,-8.726488113
0.46664800000007745,10.11114407,23.25758934,-152.1107483,-1.110105395,1.045309424,17.39192009,-37.47576141,63.95905304,-14.00757408
0.4749810000000707,9.751028061,23.59816742,-152.150238,-0.310293913,-1.533269286,6.640507221,-42.11782074,39.05994415,-11.79795265
0.48331400000006397,9.400974274,23.99708748,-152.1730194,-1.865935564,0.4737297,15.73687363,-41.57834625,46.40081787,-10.85517025
0.49164700000005723,9.059631348,24.36538124,-152.2242584,0.972957075,-1.951248527,0.737509072,-39.23218918,42.27574539,-13.08993816
0.4999800000000505,8.72023201,24.60247612,-152.2743378,-1.063337445,0.21431835,16.81362343,-38.90938187,26.88038826,-10.22337818
0.5083130000000438,8.373915672,25.03951073,-152.3291168,-3.20620966,-1.194420218,10.94573879,-39.58728027,50.5271492,-14.16008759
0.516646000000037,8.04265976,25.20210075,-152.3889771,2.636101961,0.048169795,3.555053949,-37.37202454,18.00741386,-9.640291214
0.5249790000000303,7.719128132,25.56686592,-152.4667816,-6.581448555,-0.09904734,23.64003944,-35.61131287,41.75419617,-14.82143593
0.5333120000000235,7.405138493,25.79714775,-152.5081635,2.925163269,-0.840650499,-2.23592329,-36.19244385,26.43369865,-8.492415428
0.5416450000000168,7.080803871,25.99454689,-152.6155243,-1.632557392,-0.742068768,11.28214359,-34.08268738,21.59102821,-14.94754505
0.5499780000000101,6.828454494,26.28521538,-152.6384583,-0.128528267,-0.013865,5.075397015,-29.73479843,33.95571136,-7.091185093
0.5583110000000033,6.524856567,26.35597801,-152.7605591,1.019408226,-0.728091061,8.419865608,-30.72389603,6.460338593,-14.49677467
0.5666439999999966,6.266780376,26.64701653,-152.7898865,-5.976713657,-0.405206859,19.52802086,-30.06607056,33.99600601,-7.431624889
0.5749769999999899,6.001928329,26.82681084,-152.8959961,2.978519678,-0.722608447,2.843098402,-26.84239006,19.7882328,-14.07826519
0.5833099999999831,5.748950481,26.95034027,-152.9475403,-5.123355389,-0.657063484,18.55174446,-28.22284317,13.8241806,-7.41671133
0.5916429999999764,5.507370472,27.20948029,-153.0257568,0.043446429,0.203456908,11.35363388,-25.50428391,29.6808815,-11.83187103
0.5999760000000833,5.259023666,27.31023788,-153.0886536,-0.994632959,-2.06961441,3.465171814,-27.00892639,11.05958271,-8.22140789
0.6083090000000766,5.003832817,27.41554451,-153.1805267,0.158549964,0.2540344,18.5874939,-26.34234047,11.26257515,-11.34954834
0.6166420000000699,4.761263371,27.59561729,-153.2509918,-3.61502409,-1.084868908,9.851246834,-25.86307907,20.5488224,-9.718280792
0.6249750000000631,4.518632889,27.62261963,-153.3230743,2.233453274,-0.724903941,1.390260339,-25.8949585,2.16270113,-8.367997169
0.6333080000000564,4.289264202,27.7594738,-153.4035339,-4.740427494,-0.573030591,19.24611282,-23.69802475,15.37916851,-10.18873501
0.6416410000000496,4.059745312,27.81606483,-153.4709167,3.365198612,-0.436886102,4.910439491,-24.55940628,5.803716183,-8.096051216
0.6499740000000429,3.821851492,27.83500862,-153.5675659,-3.264323711,-1.130089879,8.767903328,-23.79151344,1.233185172,-10.79189682
0.6583070000000362,3.605784893,27.90224266,-153.6124115,-1.290206313,-0.174086288,14.97511578,-24.20157623,7.29574585,-5.734622002
0.6666400000000294,3.372788906,27.99548149,-153.7217255,-2.316023827,-1.271003246,8.148048401,-22.4684124,10.13600731,-12.64980316
0.6749730000000227,3.154700994,27.96258163,-153.7675934,0.348382264,-1.256679773,9.430549622,-24.3756218,-4.666122913,-5.095801353
0.683306000000016,2.930660725,28.07237244,-153.865097,-4.849499226,0.062172305,17.56610489,-22.04444695,12.28522301,-11.41219902
0.6916390000000092,2.702051401,28.09711838,-153.9019623,0.481340647,-0.92919749,5.263383389,-26.13934135,2.327477217,-4.509875298
0.6999720000000025,2.440317154,28.08999634,-154.0236511,-0.9026407,-1.298897862,9.848901749,-25.19043732,-1.749555826,-13.22860813
0.7083049999999957,2.205981016,28.12789345,-154.0576935,-3.049672842,-0.213402167,16.98913765,-26.98263931,3.949474096,-4.252836227
0.716637999999989,1.944516063,28.16264534,-154.1782837,-1.015374541,-0.701580703,6.207313061,-25.2085247,3.389163017,-13.29933071
0.7249709999999823,1.697730541,28.12203789,-154.227951,-1.449066043,-2.303490639,7.761667252,-27.59090614,-5.484241962,-5.564056396
0.7333040000000892,1.420996308,28.13223076,-154.3455505,-0.841905177,-0.195180416,14.8093071,-27.21478653,0.571338832,-12.86983109
0.7416370000000825,1.143022776,28.12352753,-154.3955383,-2.014898539,-1.474350929,8.689880371,-31.31573868,-1.610112429,-5.732778549
0.7499700000000757,0.825608075,28.05101013,-154.5204773,1.14042151,-1.051259398,4.917106152,-31.69339561,-9.237143517,-13.47353649
0.758303000000069,0.516951919,27.99394417,-154.5801849,-4.228236198,-1.606442809,14.04514599,-34.46125031,-7.368916988,-6.711270332
0.7666360000000623,0.185959667,27.97705841,-154.7006683,1.303688526,-0.555140913,11.6851263,-33.5975647,-2.414118767,-13.15238667
0.7749690000000555,-0.167411551,27.89374924,-154.7727203,-2.938112497,-1.396620393,7.743946075,-39.14383316,-10.44503975,-8.100385666
0.7833020000000488,-0.527334034,27.79511642,-154.8740845,-0.384095311,-0.189852476,11.74899387,-38.1739769,-12.07802486,-11.224123
0.791635000000042,-0.87392801,27.76580238,-154.9583893,-3.384211779,-1.320165157,11.8511982,-37.6660881,-3.854972839,-9.457889557
0.7999680000000353,-1.239281297,27.62185478,-155.0590057,3.368652105,-0.146041051,6.202833176,-38.89848328,-17.38026237,-11.40606403
0.8083010000000286,-1.61596024,27.47422791,-155.1495514,-5.207185745,-1.280002236,14.84442997,-40.96546173,-17.91547394,-10.53804779
0.8166340000000218,-1.96793294,27.37566566,-155.2324982,-0.188631684,0.13512449,12.61816883,-38.32461548,-11.85251999,-9.600844383
0.8249670000000151,-2.324014425,27.22948456,-155.3293915,-2.444083452,-0.386846244,8.520373344,-38.18484116,-17.58896637,-11.44686794
0.8333000000000084,-2.675910711,27.01821327,-155.4019165,0.206548139,-0.60171628,11.17620564,-38.93606949,-25.2967701,-9.243785858
0.8416330000000016,-3.021069765,26.88222504,-155.5059357,-4.801735878,-0.430190682,15.05870914,-36.55112839,-16.19270134,-12.38972569
0.8499659999999949,-3.355716467,26.70416641,-155.568985,1.157247424,-0.781998873,4.360425949,-37.42771149,-21.2628994,-8.335116386
0.8582989999999882,-3.72409153,26.4581871,-155.6739349,-2.182145119,-0.812369287,13.72691536,-39.35931015,-29.2120266,-13.52895832
0.8666319999999814,-4.067929745,26.2906971,-155.7308502,-2.628376961,-0.777818203,16.31363487,-38.91024399,-19.94287109,-7.874598503
0.8749650000000884,-4.441334248,26.07261276,-155.8499603,-0.905305624,0.156744316,5.407035828,-39.29106522,-25.5936451,-15.197752
0.8832980000000816,-4.789135933,25.79371071,-155.8986053,-2.187243938,-1.145306349,10.99657249,-39.87159348,-33.24433517,-8.33191967
0.8916310000000749,-5.157502651,25.60812569,-156.0166016,-2.413331032,-0.970416844,14.96629429,-38.85295105,-21.52549934,-15.10517883
0.8999640000000682,-5.537324905,25.34401512,-156.0830841,0.491478294,-0.945668578,2.873792887,-42.83975983,-31.1938324,-10.5304985
0.9082970000000614,-5.946098328,25.01823235,-156.1983643,-1.330099344,-0.611964285,14.32240677,-43.9562645,-38.09230042,-16.83247185
0.9166300000000547,-6.336511135,24.82069206,-156.2684479,-3.731220722,-1.618964791,12.13181019,-44.00341034,-23.06369781,-10.52347946
0.9249630000000479,-6.750524998,24.46732521,-156.3768616,2.355454922,0.603668749,2.878623962,-45.04788971,-41.22814941,-17.04428482
0.9332960000000412,-7.172025681,24.17464638,-156.4586945,-5.421412945,-1.730724573,16.95380783,-47.23581314,-34.09119415,-13.54961205
0.9416290000000345,-7.607642174,23.91166306,-156.5698242,1.671842933,-1.475270629,6.835531235,-47.63083649,-30.17555809,-16.60022545
0.9499620000000277,-8.056050301,23.52709579,-156.6432343,-2.784628391,-0.597506583,7.826518536,-50.9709549,-44.93411255,-14.68844318
0.958295000000021,-8.519051552,23.23099709,-156.7516785,-2.229263067,-0.129358381,18.3547554,-51.18636322,-33.88634491,-17.40916061
0.9666280000000143,-8.982821465,22.94231796,-156.8530884,-3.08318615,-1.826835752,9.292849541,-51.59088898,-32.85439301,-16.74431419
0.9749610000000075,-9.479282379,22.53601074,-156.9406128,-0.405911416,-1.045513749,8.734153748,-56.30700684,-47.018013,-17.84737206
0.9832940000000008,-9.967388153,22.22981834,-157.0466309,-3.228227377,-1.404403448,11.9078846,-54.44301605,-34.5526123,-18.21235847
0.991626999999994,-10.48856258,21.84355736,-157.1366577,2.099140882,-1.379262209,3.492095232,-59.27760696,-44.28321838,-18.55225372
0.9999599999999873,-11.07177353,21.38824272,-157.2132416,-3.852944136,-2.103689909,11.42004013,-67.12583923,-52.30935669,-19.50867462
1.0082929999999806,-11.64567471,21.0525074,-157.322113,-0.651245952,-0.476272553,14.8642664,-64.9294281,-37.54689407,-20.34154129
1.0166260000000875,-12.2626524,20.63829231,-157.4191895,-2.848004103,-2.264796495,10.44340515,-70.43094635,-46.60219574,-21.837883
1.0249590000000808,-12.90588379,20.17985153,-157.4810791,-2.202214479,-0.682305694,15.70374775,-75.3890152,-52.62044907,-19.245327
1.033292000000074,-13.57373047,19.81229401,-157.5944519,-1.759818196,-1.430434585,11.14577198,-76.08187866,-40.25325775,-23.33104515
1.0416250000000673,-14.2699461,19.27685928,-157.6408539,2.444910526,-2.215218067,-0.298192054,-82.47471619,-61.54919815,-21.01806831
1.0499580000000606,-15.01690388,18.74448204,-157.7083435,-4.439374924,-1.403836966,17.65328407,-87.63227081,-60.14233017,-24.24258614
1.0582910000000538,-15.76365662,18.31924629,-157.7841797,-1.58339262,-0.536055267,14.74520016,-87.51076508,-47.35508728,-22.32695961
1.066624000000047,-16.54426193,17.7639904,-157.8443909,-1.896847844,-1.437264323,8.286046982,-92.15122223,-62.41098404,-25.62208557
1.0749570000000404,-17.31731224,17.24238205,-157.8589172,-3.60734129,-0.261509866,13.61823273,-93.03401947,-59.84394455,-20.28544426
1.0832900000000336,-18.11483383,16.74367714,-157.9402313,1.499515653,-1.063895941,3.293085814,-93.63141632,-54.55195999,-27.39600945
1.0916230000000269,-18.91467857,16.0720253,-157.9046631,-1.235741258,-0.845001936,6.41452837,-97.97925568,-78.17430115,-22.17578888
1.0999560000000201,-19.72440529,15.63232899,-157.983551,-5.131067753,0.532731652,19.90843201,-95.43065643,-47.25328827,-26.12508392
1.1082890000000134,-20.51584816,15.03583336,-157.9639435,-0.521477044,-1.896384001,5.032248497,-96.38697815,-68.43728638,-22.9593544
1.1166220000000067,-21.30121231,14.48960781,-157.9725647,-5.313641548,0.645067215,23.13375664,-94.83734131,-61.37799835,-24.36549187
1.124955,-22.08945084,14.06629467,-157.9774475,-0.750707626,0.037979513,-0.078208908,-95.23690796,-47.4345932,-19.77172852
1.1332879999999932,-22.84608269,13.398592,-157.916748,0.533108294,0.820421278,10.67463112,-93.39067841,-77.28120422,-24.09030724
1.1416209999999865,-23.58947563,13.03647804,-157.9190674,-4.449283123,-1.100615859,12.70781898,-89.93401337,-40.27376938,-17.84428978
1.1499539999999797,-24.29709625,12.38115788,-157.8032227,0.351094991,1.27165401,5.133077145,-88.86456299,-77.97717285,-19.41534996
1.1582870000000867,-24.96621513,12.02753353,-157.8020325,-3.842543602,0.265780121,12.69120884,-81.11591339,-39.07790756,-18.02417946
1.16662000000008,-25.57726669,11.44852257,-157.690033,-0.534205675,0.607365131,7.492967606,-76.95423126,-69.08831024,-17.6225853
1.1749530000000732,-26.16492081,11.06791306,-157.6528778,-5.173818111,1.41921103,16.32268906,-72.17897034,-43.44883347,-16.46319199
1.1832860000000665,-26.6807785,10.58667946,-157.5534515,-0.731822908,1.033564925,8.316607475,-65.03421783,-57.58731842,-15.06813717
1.1916190000000597,-27.16888046,10.15681648,-157.4859619,-3.566256046,1.152110577,11.40787601,-60.82024765,-50.04529953,-16.72114372
1.199952000000053,-27.58961868,9.756124496,-157.4196167,-2.411815166,1.363307238,9.252285004,-52.74919891,-46.9654808,-15.03265381
1.2082850000000462,-27.98523903,9.328522682,-157.3222961,-2.828931093,-0.129179254,8.422134399,-50.2001152,-51.21180725,-14.19657707
1.2166180000000395,-28.31966591,8.986011505,-157.2654419,-1.462368965,1.43068409,9.235095978,-42.09699631,-40.09549332,-13.33214664
1.2249510000000328,-28.61869812,8.549939156,-157.170517,-2.45293498,0.335045516,8.888015747,-38.40869141,-51.81407928,-15.51431942
1.233284000000026,-28.87333679,8.262627602,-157.1115723,-1.906152487,0.32177642,8.088876724,-32.46326447,-34.27609253,-10.34220409
1.2416170000000193,-29.07979965,7.858146191,-157.0121002,-1.635079384,0.89081651,9.580805779,-27.23812866,-48.63373566,-13.63892841
1.2499500000000126,-29.2774868,7.582029343,-156.943573,-1.328745127,-0.016065337,9.246712685,-25.69340134,-33.5831871,-8.960463524
1.2582830000000058,-29.42482376,7.204697132,-156.8647766,-2.78715682,0.285800636,10.76874828,-19.68266296,-44.50852203,-14.48808289
1.266615999999999,-29.55464935,6.95876646,-156.7827759,-2.116354227,-0.472502708,8.798686981,-17.65598869,-31.17950058,-5.954419613
1.2749489999999923,-29.6455555,6.601243019,-156.7164459,-1.436406732,1.164370537,11.30255222,-12.63501263,-41.65386963,-14.78543377
1.2832819999999856,-29.71657562,6.347674847,-156.6416321,-2.407702684,-0.571392179,11.50789738,-10.38809395,-31.52449608,-7.273552895
1.2916149999999789,-29.78278732,6.048679352,-156.6132507,-2.707462549,0.633844674,9.471434593,-9.100083351,-33.27774811,-15.32998562
1.2999480000000858,-29.79592133,5.791721821,-156.5211792,-1.790074825,-0.959082484,10.51193523,-3.565377474,-32.87705612,-5.776246548
1.308281000000079,-29.81198692,5.534972191,-156.5176086,-2.57619381,1.200053215,13.60978985,-2.755582094,-27.39350319,-15.40789986
1.3166140000000723,-29.80739594,5.279459,-156.4279327,-3.254907131,-1.661527157,9.379561424,-1.312064767,-32.58369064,-5.955315113
1.3249470000000656,-29.78829193,5.09116888,-156.4398041,-1.235159874,0.938251138,14.09063148,1.636148453,-19.3478775,-12.92315674
1.3332800000000589,-29.77020645,4.863863945,-156.3621826,-4.024799824,-1.646015525,10.96850681,0.512400329,-28.95780945,-5.471050739
1.3416130000000521,-29.73950195,4.7059865,-156.3679962,-2.496896267,-0.31738764,10.34085464,2.959635973,-16.54951477,-10.46884727
1.3499460000000454,-29.68211365,4.522395134,-156.3203125,-2.111506939,-0.242746174,12.08319378,5.578821659,-22.61832809,-5.977776527
1.3582790000000386,-29.66571808,4.3846035,-156.3147736,-2.092600822,-0.83526361,11.25051403,1.13159883,-15.14252472,-8.072814941
1.366612000000032,-29.63485909,4.245281219,-156.2884979,-3.062926054,-1.754413962,7.893046856,2.619683981,-16.75150871,-5.540385723
1.3749450000000252,-29.60517883,4.109148979,-156.2689514,0.784090936,-0.404659659,8.740023613,2.60423851,-15.80178452,-6.506093979
1.3832780000000184,-29.57592773,4.001371384,-156.2813416,-3.410809755,-0.982731342,10.62755299,2.771755695,-11.164711,-7.707940102
1.3916110000000117,-29.56872177,3.903975725,-156.2440643,-3.151864052,-1.450288653,14.08910465,-0.229375526,-12.81362534,-2.350464821
1.399944000000005,-29.55452919,3.827625751,-156.2627411,-1.753079534,-0.916970253,10.0194273,1.012261748,-7.503587723,-6.528069496
1.4082769999999982,-29.53203011,3.746956825,-156.2409821,-3.145577908,-0.516347647,11.90276051,1.741371036,-10.15289402,-2.971456766
1.4166099999999915,-29.55657578,3.714734077,-156.2536011,-0.981508255,-1.684790254,7.295258522,-3.692497253,-3.271808624,-3.259232044
1.4249429999999847,-29.57753372,3.615512371,-156.2324371,-1.721759677,-1.418291688,5.837154865,-3.464761019,-12.05249691,-4.137185574
1.433275999999978,-29.57839775,3.567854404,-156.2315063,-1.815985918,-0.98383069,9.989195824,-0.954668164,-5.681800842,-2.767387629
1.441609000000085,-29.58709145,3.558134794,-156.2454376,-2.825212717,0.112420507,15.60624313,-1.724350452,-0.637000501,-2.489959955
1.4499420000000782,-29.63048363,3.551519632,-156.2528992,-2.926020145,-1.791012645,14.818326,-5.998188496,-0.910995901,-1.20507288
1.4582750000000715,-29.66987038,3.579360485,-156.2667847,-3.06956768,-1.252193213,5.569258213,-5.409495831,3.280043364,-0.254810363
1.4666080000000647,-29.68728065,3.522686958,-156.2649536,0.988424659,-0.539574385,6.277607918,-2.950376272,-6.681115627,-3.215611458
1.474941000000058,-29.74060059,3.557803154,-156.2949829,-2.956549168,-2.183080912,13.97084332,-6.961283684,4.998477459,-1.500917435
1.4832740000000513,-29.82180786,3.595252752,-156.3205414,-3.211087942,-0.640313387,11.90673447,-10.40155697,4.755833626,-0.463361472
1.4916070000000445,-29.8938694,3.627731562,-156.3569946,-1.130342126,-1.117586493,9.170227051,-9.158960342,5.107312679,-2.309226036
1.4999400000000378,-29.9128685,3.683399916,-156.3736725,-3.137305737,-1.267865539,8.809095383,-3.003294945,6.109648705,1.57405889
1.508273000000031,-29.99121094,3.694049358,-156.3742218,2.058337212,0.519208193,8.978825569,-10.18373394,0.694184244,0.116864949
1.5166060000000243,-30.07531357,3.731579065,-156.4003296,-4.217265606,-2.572886944,6.232688427,-10.7431736,4.780628204,-0.46802336
1.5249390000000176,-30.1017952,3.755655527,-156.400238,-1.768961906,-0.121110395,11.29866123,-3.966364384,2.048665047,0.993947625
1.5332720000000108,-30.15465736,3.841552496,-156.4607086,-2.952385426,-0.758771062,17.24222183,-6.718487263,11.86360645,-1.107047439
1.541605000000004,-30.21589661,3.891438484,-156.4694061,-1.314827442,-1.069644332,11.21519184,-8.06320858,5.250854969,1.649467349
1.5499379999999974,-30.27265167,3.939703465,-156.502182,-1.256709576,-0.755209446,2.523324251,-7.399849892,6.29286623,-0.495097518
1.5582709999999906,-30.30253029,3.927679062,-156.4954071,1.016724229,-0.812486231,10.37671471,-4.428444862,-2.101084471,-0.491972595
1.566603999999984,-30.3529377,3.969013929,-156.5287476,-4.613950729,-2.136692286,16.27665138,-6.631807804,5.610785961,-0.967142284
1.5749369999999772,-30.40028191,4.02135849,-156.5332947,-3.223533869,0.592947781,9.739892006,-6.429505825,5.248882294,2.243512392
1.583270000000084,-30.43253708,4.027721882,-156.5739746,-0.300227582,-2.07275033,7.888537884,-4.386872768,2.438615799,-3.842801094
1.5916030000000774,-30.44684219,4.075240135,-156.573822,-2.593383074,-0.916966438,10.84779358,-2.504354954,4.460091591,2.441023827
1.5999360000000706,-30.49689674,4.058989048,-156.5783997,-0.375751406,-0.238694131,4.581674099,-6.83003664,-2.091479301,-1.488059044
1.608269000000064,-30.5099678,4.071971893,-156.5764923,-1.872389197,-1.679259419,11.62207603,-2.371109486,0.779120982,0.524233699
1.6166020000000572,-30.5084362,4.056582928,-156.5781403,-2.591824055,-0.838150799,12.89136982,-0.66420275,-2.187635183,-1.12492609
1.6249350000000504,-30.52505875,4.142382145,-156.603775,-3.833202839,-0.454165816,14.8362236,-2.561116457,9.982367516,2.119053125
1.6332680000000437,-30.5424614,4.100944996,-156.5926971,-0.071761653,-1.563542604,7.495121002,-3.050194263,-5.656443596,-1.400868177
1.641601000000037,-30.55326271,4.168801785,-156.6115875,-2.10833478,-2.06902051,10.05055428,-1.91763556,7.714278698,1.729230165
1.6499340000000302,-30.58125114,4.131918907,-156.5857391,-0.113215789,0.382640421,5.637742519,-4.450063229,-6.111889362,0.439271301
1.6582670000000235,-30.5975399,4.178025246,-156.615799,-3.932877064,-2.50432682,16.60128403,-2.480277538,6.147582531,-0.744528949
1.6666000000000167,-30.59537888,4.155755043,-156.5800629,-1.754893303,-0.682749748,10.79819965,-0.921830595,-5.21039629,2.357060432
1.67493300000001,-30.59707642,4.240626812,-156.6178131,-2.578844786,-0.01635511,8.946638107,-0.656313598,10.61829281,0.832885325
1.6832660000000033,-30.61344719,4.180664539,-156.58992,-0.382066101,-2.04148531,5.272464752,-3.083518744,-8.609021187,-0.783078432
1.6915989999999965,-30.62488174,4.226524353,-156.6059113,-1.633273244,-2.510759592,12.2177906,-2.016608715,5.263942719,0.692903519
1.6999319999999898,-30.63584709,4.195709705,-156.5627136,-1.514429927,1.122873664,8.097226143,-2.563652039,-6.519643307,2.546452045
1.708264999999983,-30.64423561,4.241038799,-156.6023712,-3.254034758,-2.518705845,15.39287567,-1.442849874,6.652003765,-1.773068428
1.7165979999999763,-30.632061,4.217024803,-156.5700073,-2.843268156,-1.563495278,8.64645195,0.306487113,-5.174869537,1.874180675
1.7249310000000833,-30.62334061,4.280063629,-156.6106567,-1.063898206,-0.261294574,12.70673084,0.619672358,8.541514397,-0.794707239
1.7332640000000765,-30.64077187,4.242405891,-156.5785217,-2.007815123,-1.824423552,5.688549519,-3.250574827,-6.586188793,1.041077852
1.7415970000000698,-30.66073036,4.278120041,-156.5964355,-0.753597498,-3.025072098,12.35052776,-3.021518946,4.33318615,-0.121808499
1.749930000000063,-30.66459274,4.281122684,-156.566864,-2.240536451,0.920955956,7.046691895,-1.599545002,-2.220485449,3.2433002
1.7582630000000563,-30.66803551,4.331267834,-156.587738,-3.534126282,-1.44799006,19.03461075,-1.010456085,6.002888203,0.458097816
1.7665960000000496,-30.68746567,4.35118103,-156.5669556,-2.59851408,-3.159119844,6.058422565,-3.391914129,0.072552323,3.350918531
1.7749290000000428,-30.69821739,4.387189865,-156.5712891,0.574059546,-0.59703213,8.883872032,-2.036408663,3.533855438,1.296374917
1.783262000000036,-30.72932625,4.395616055,-156.5680389,-2.330920219,-0.998113334,2.936990023,-4.634716511,-0.052150581,0.858038545
1.7915950000000294,-30.73142815,4.356821537,-156.5452576,-0.211431965,-1.89324224,14.41459751,-1.245697141,-5.841300964,-0.499400765
1.7999280000000226,-30.72877884,4.422513962,-156.5732117,-4.64801836,-1.279913187,11.58125591,-0.295101643,7.771680355,1.14404726
1.8082610000000159,-30.72711182,4.367443085,-156.5371552,-1.171357989,-0.690345526,15.71469021,-0.916566908,-8.33145237,-0.131516278
1.8165940000000091,-30.73787689,4.471897602,-156.5944061,-4.940718651,-2.916047096,6.796982288,-1.634175658,13.55536366,0.517074704
1.8249270000000024,-30.72981453,4.389294624,-156.5433044,3.700256586,-0.351841331,8.430591583,-0.294102639,-12.09132671,-0.27166456
1.8332599999999957,-30.74752045,4.477603436,-156.592514,-6.312552452,-2.434216738,10.36417961,-2.539088011,11.3954792,0.357408255
1.841592999999989,-30.73680115,4.379842758,-156.5084381,2.282897234,-1.142252684,8.217234612,-0.278477967,-15.67173958,2.186059952
1.8499259999999822,-30.73414803,4.537716389,-156.5950165,-7.669845581,-0.817677498,18.09879112,0.25548929,20.85877037,0.776303709
1.8582590000000891,-30.75316238,4.467952251,-156.5312347,2.087773561,-2.386635542,4.927911758,-3.66839385,-11.54284954,1.814832687
1.8665920000000824,-30.74679947,4.62530756,-156.5975647,-7.374576092,-2.133882999,11.15506554,0.522850692,19.56032753,2.839454174
1.8749250000000757,-30.74075317,4.573539257,-156.5285034,6.347483158,-0.668436885,2.183892965,-0.724985301,-10.00960827,3.461802483
1.883258000000069,-30.75165749,4.666628838,-156.5817413,-9.726668358,-2.056708813,14.68080616,-1.665360808,12.12714958,0.250776172
1.8915910000000622,-30.75564575,4.682591915,-156.5333557,2.852475405,-2.132202864,3.771574497,-1.738873601,-1.760184646,5.490539074
1.8999240000000555,-30.75729561,4.814679146,-156.6187592,-8.445557594,-0.550206602,23.09922028,-0.22153759,18.10966682,-0.65190804
1.9082570000000487,-30.78981972,4.914202213,-156.6122437,1.504257679,-2.008449554,7.393226624,-4.756794453,9.415447235,6.317405224
1.916590000000042,-30.8025074,5.054673672,-156.6765594,-7.257406235,-1.028619647,10.96199608,-1.727321863,17.67642593,2.050842762
1.9249230000000352,-30.82168579,5.192540169,-156.6762085,4.148193836,-0.791324914,2.659681559,-3.092073917,13.74235916,8.04744339
1.9332560000000285,-30.84224129,5.363388062,-156.7546234,-6.532980442,-2.323413372,14.53827477,-2.478946686,21.67345619,2.47350359
1.9415890000000218,-30.8386898,5.574671268,-156.7382965,-0.261560202,0.138588354,6.763149738,-0.546121418,20.32194901,14.20972347
1.949922000000015,-30.77102661,5.817897797,-156.8261108,-3.63692379,0.053544231,8.774909973,8.280359268,29.68204308,5.994620323
1.9582550000000083,-30.65496826,6.045932293,-156.8064575,-1.298932076,-0.155351669,12.05642986,12.89668655,21.87911797,15.53090763
1.9665880000000016,-30.50893974,6.3481493,-156.9048767,-3.369652271,0.851871967,11.012187,17.9031868,36.41469574,8.441222191
1.9749209999999948,-30.29891014,6.608465195,-156.8837585,-3.482007742,-1.1850003,7.823415279,24.13541412,25.22138405,17.51835442
1.983253999999988,-30.02772522,6.935002804,-156.9809265,0.433766931,1.126870275,7.326624393,33.01361465,38.91156006,9.789693832
1.9915869999999813,-29.71204376,7.194544792,-156.9821625,-4.766336918,-0.137170583,10.89630604,37.11636353,26.63346291,14.92302227
1.9999200000000883,-29.31226349,7.522363186,-157.0566101,-0.458109111,-0.008763779,7.680477619,48.20465469,37.80031967,11.81766701
2.0082530000000816,-28.86699295,7.81559515,-157.0741272,-4.037471771,0.360942185,7.400809765,52.93029785,31.31565285,14.82553387
2.016586000000075,-28.35378265,8.132481575,-157.1469116,1.804134965,0.341244936,8.199731827,61.87412262,36.72254181,10.79559135
2.024919000000068,-27.79319763,8.400123596,-157.1637268,-5.0539608,-0.650177658,8.62665081,66.77761078,28.83091927,12.89228249
2.0332520000000613,-27.1512928,8.700663567,-157.1991882,1.500707626,-0.126412526,8.363300323,76.73160553,33.15052414,13.08643341
2.0415850000000546,-26.48303032,8.938418388,-157.2001038,-3.671085358,-0.320803702,9.520884514,79.4270401,25.06477165,12.31236553
2.049918000000048,-25.77479172,9.208860397,-157.2169342,1.326464653,-1.175413847,8.697849274,84.37213898,29.24325371,12.694314
2.058251000000041,-25.03321457,9.399062157,-157.2012177,-3.233857393,0.198865727,11.80009651,87.90387726,19.37127876,11.0115242
2.0665840000000344,-24.26865196,9.633669853,-157.1915131,-0.981392443,-0.834140778,10.96596622,90.61219025,24.34492302,13.00359249
2.0749170000000277,-23.46897507,9.795822144,-157.1417999,-3.78056097,-1.29973197,10.96702862,94.17381287,14.96701908,12.79137897
2.083250000000021,-22.66236305,10.03431129,-157.1283264,-0.444262683,-0.504180849,11.13448811,95.57390594,24.97777367,12.86641216
2.091583000000014,-21.85489845,10.13315296,-157.0567322,-2.252655029,-2.413676739,12.3919735,94.61169434,7.326665401,11.85988426
2.0999160000000074,-21.0459938,10.36387444,-157.0248413,-1.961327672,-0.914833903,12.98039341,95.44387054,23.68393135,13.82592773
2.1082490000000007,-20.25920105,10.41782665,-156.9265594,-0.779421747,-2.878448725,3.857719183,91.50926208,1.519947052,12.67605305
2.116581999999994,-19.46123695,10.60649204,-156.8779907,-1.673285246,-1.464366555,15.24482918,93.75778198,18.6790638,13.21767998
2.1249149999999872,-18.70936012,10.68608475,-156.7913971,-1.188865304,-2.180195808,7.160591125,87.5271759,5.240670204,12.31260395
2.1332479999999805,-17.94366455,10.84632587,-156.7100525,-4.876024723,-1.573497295,15.09274483,89.14037323,14.61731911,15.20816612
2.1415810000000874,-17.19328117,11.00138569,-156.61409,0.059807193,-1.963095069,6.930593014,87.08390045,13.87989998,15.93573856
2.1499140000000807,-16.44870758,11.10657024,-156.5042877,-2.971095562,-0.996922433,6.227798939,85.91507721,7.751725197,16.03053284
2.158247000000074,-15.68731594,11.26450348,-156.398941,-0.184263214,-2.329702854,6.815253258,88.13610077,14.33225441,16.69889832
2.1665800000000672,-14.93380451,11.38423538,-156.2733154,-2.960832357,0.315599352,15.82088661,86.58377838,9.420788765,17.89913368
2.1749130000000605,-14.18085957,11.54578114,-156.1620331,-2.366161108,-1.920504808,12.83321285,86.91809082,15.02563286,17.08106041
2.1832460000000538,-13.36566448,11.70443153,-156.0268555,-4.004844189,-0.193135917,9.638014793,93.73623657,14.24902248,19.54158211
2.191579000000047,-12.53917027,11.85671902,-155.9017334,-0.357594877,0.84254849,9.71405983,95.33455658,14.06867313,17.95820045
2.1999120000000403,-11.66179466,12.02456474,-155.7784729,-2.323112965,-1.446328163,5.781904221,101.4088669,16.20488739,17.93913841
2.2082450000000335,-10.71234798,12.15701866,-155.6192017,-1.411842108,0.812116742,13.0963459,109.1516037,11.51883698,20.95768356
2.216578000000027,-9.757410049,12.38325405,-155.4941101,-2.478488207,0.392740875,6.606052876,110.6408615,23.70101166,18.57928276
2.22491100000002,-8.693193436,12.53885078,-155.3375244,-1.93050313,-0.595776141,8.476395607,122.8742065,15.04210186,20.64321899
2.2332440000000133,-7.562206268,12.7561388,-155.1843414,-1.903299689,1.170774937,14.94588566,130.9844666,22.89074326,20.54526138
2.2415770000000066,-6.419658661,12.92152786,-155.010437,-2.925973177,-0.711704612,6.860198021,131.6923065,16.77509499,22.14968491
2.24991,-5.185877323,13.09219456,-154.8515778,-0.086524509,0.070671506,7.764298439,143.0796814,18.10249329,19.56017494
2.258242999999993,-3.943389654,13.19143486,-154.6706848,-2.780639648,-0.277018726,13.34375286,143.3878632,9.742030144,21.55761147
2.2665759999999864,-2.715795755,13.35359192,-154.4993286,-1.103196502,-1.59516561,7.985425949,141.9278564,17.85131454,20.04500961
2.2749089999999796,-1.395633817,13.44634724,-154.3256531,-1.785412788,-0.151874974,10.84545898,152.8148193,9.948843002,20.19954109
2.2832420000000866,-0.077095598,13.5487318,-154.1342163,-0.728287518,-0.145606548,16.58894157,152.1926727,11.55944633,21.47220993
2.29157500000008,1.20495677,13.59880924,-153.9459381,-2.78623271,-1.921038032,7.815546513,147.769043,5.779287338,21.44044685
2.299908000000073,2.533582926,13.64140511,-153.7627563,-0.821275175,-1.347453594,9.893835068,153.5943604,5.339489937,20.16488838
2.3082410000000664,3.871413708,13.67663097,-153.5752258,-3.75007844,-1.381947398,14.37084579,154.4521027,4.994690895,21.13515472
2.3165740000000596,5.148504257,13.69802761,-153.3873138,2.301619053,-0.978841126,9.039689064,147.1161041,3.835639715,21.17273903
2.324907000000053,6.384051323,13.68524647,-153.24263,-3.453266144,-2.004372358,9.589097977,143.3820038,-0.277560949,16.4752636
2.333240000000046,7.637962341,13.73074341,-153.0561218,-2.467131853,-2.557326078,11.08064842,144.3677673,7.626769543,20.4479599
2.3415730000000394,8.875951767,13.63265228,-152.9405823,-0.171535403,-1.977364898,10.90150261,144.5040894,-10.16038227,14.56110668
2.3499060000000327,10.05892467,13.58983898,-152.8011322,-3.77483964,-3.17150712,19.85033607,137.2226715,-2.839257956,16.42293358
2.358239000000026,11.15651894,13.53883457,-152.6919861,0.503058374,-1.516337633,12.63015366,127.8635483,-4.118495464,13.17893219
2.366572000000019,12.19089413,13.4434185,-152.5894012,-1.915753841,-3.220962048,7.920200348,120.4589005,-9.237279892,13.57166195
2.3749050000000125,13.18900204,13.37483692,-152.4801941,-1.457146883,-2.31159544,16.80462456,115.9551773,-5.674005985,13.78412151
2.3832380000000057,14.12676716,13.28618336,-152.421814,-0.397440434,-3.998025656,6.180193901,110.1229935,-9.173991203,8.671139717
2.391570999999999,15.00837994,13.15160656,-152.3491821,-1.555537701,-2.586073399,13.5576582,103.022583,-13.94375515,11.81059361
2.3999039999999923,15.81511211,13.09490585,-152.3019104,-2.351186275,-3.334758997,16.78589821,94.72773743,-5.534562588,6.669166565
2.4082369999999855,16.54719734,12.94030857,-152.227005,0.043725964,-2.70165062,4.580294609,85.04601288,-15.82381058,13.11960983
2.416569999999979,17.24267578,12.85168171,-152.2157593,-4.221407413,-2.469154596,18.91402817,82.36374664,-10.23881531,3.885971785
2.4249030000000857,17.88836861,12.78598881,-152.1102905,0.029360585,-3.432914019,3.913866758,73.89357758,-4.237691402,13.68143749
2.433236000000079,18.43736076,12.64219856,-152.1299744,-3.506778002,-2.839097977,22.06414223,65.60915375,-17.55691528,2.724200487
2.4415690000000723,18.92492104,12.67004871,-152.0011139,-2.014848232,-3.611231565,8.102212906,54.33788681,7.551621914,12.76113605
2.4499020000000655,19.3232708,12.48391056,-152.0433044,-1.787232995,-2.009168148,5.161837578,48.11470795,-23.16908264,2.18460536
2.458235000000059,19.73861885,12.61256695,-151.870163,-4.477273464,-3.217469931,16.65963745,44.54488373,20.88472939,13.49006081
2.466568000000052,20.03461075,12.48060322,-151.9217072,2.410108328,-1.694582224,-1.970342994,36.074543,-17.3892231,-0.753520668
2.4749010000000453,20.33520699,12.61569118,-151.7596588,-5.995978832,-3.832035542,25.23048592,31.06320572,21.31859016,11.76029205
2.4832340000000386,20.52459145,12.58286381,-151.7494354,2.098297834,-1.829708099,-3.035631895,21.67091942,-3.71857357,2.034373045
2.491567000000032,20.74685287,12.60746002,-151.6535797,-3.361403704,-1.392650366,25.80934143,23.37969971,6.271661282,9.003702164
2.499900000000025,20.9233017,12.73979378,-151.5270844,-0.644711554,-1.281887889,4.838463306,17.05628777,19.66594315,7.72960043
2.5082330000000184,21.04677773,12.66225243,-151.4623566,-1.541179299,-2.695065737,16.8204937,12.32453537,-6.420465469,9.945228577
2.5165660000000116,21.16784477,12.88080597,-151.2751465,-4.931501389,-2.857689381,11.30723,8.776280403,31.91283035,10.53116512
2.524899000000005,21.21592522,12.73428059,-151.2494965,3.847413778,-1.498953342,3.863781929,4.302462578,-15.75606346,8.693460464
2.533231999999998,21.31321907,12.97956085,-151.0381927,-6.855151653,-1.44069314,19.09681892,5.250451565,35.95243073,11.90058231
2.5415649999999914,21.38430595,12.86407661,-151.0415802,6.260757923,-0.276064187,-6.658898354,7.83604908,-13.49906349,4.213427067
2.5498979999999847,21.47754669,12.94666672,-150.9003448,-8.449145317,-1.172143936,30.07047462,6.621192455,14.81854439,11.29387093
2.558230999999978,21.52261925,12.94727898,-150.8660889,4.135170937,-1.844695687,-2.601217747,3.701961756,1.091896415,3.238574505
2.566564000000085,21.60062027,12.893013,-150.8026276,-2.961656094,-0.088925987,8.459555626,6.87602663,-3.771056414,8.834184647
2.574897000000078,21.69851494,12.91996193,-150.7738647,-0.828099012,-0.151346266,20.27548981,10.19004536,3.799654007,1.473036051
2.5832300000000714,21.78945732,12.85850906,-150.7032928,-0.786845326,-2.425898314,1.463757634,8.246004105,-4.232854843,9.937669754
2.5915630000000647,21.87229156,12.7558279,-150.7543945,-1.189888597,-0.384540349,15.36029053,10.5122757,-14.10873318,-1.429607511
2.599896000000058,21.9727726,12.77191734,-150.6445465,-3.927740574,-2.501059532,14.3247776,8.368749619,6.147533417,10.74134541
2.608229000000051,22.01555824,12.59961128,-150.7129059,3.565753698,-1.561272502,4.385703087,6.147533894,-22.61361313,-0.136780068
2.6165620000000445,22.10813713,12.52309799,-150.6718903,-5.299357891,0.67084676,11.37631035,9.265400887,-7.14847374,7.439285755
2.6248950000000377,22.20404625,12.35190868,-150.7291412,1.718227625,-0.071588419,13.91778851,12.20240974,-22.00074387,1.073762059
2.633228000000031,22.31795502,12.29346085,-150.6743164,-5.836513042,-3.968019247,6.822053909,11.49084187,-4.498781681,8.142573357
2.6415610000000243,22.38256645,12.05473614,-150.7667084,5.683922291,1.19899714,8.04887104,9.303750992,-31.0630722,0.407740533
2.6498940000000175,22.46105385,11.99058914,-150.7363586,-8.59394455,-3.898517132,16.95346832,7.884406567,-6.196390152,5.768722534
2.6582270000000108,22.53837204,11.82609653,-150.7543945,3.190342903,0.988356233,11.16086769,8.938794136,-19.49489784,5.135566235
2.666560000000004,22.60018349,11.71035862,-150.792984,-5.398426533,-2.660791636,5.097096443,7.589332104,-15.00584412,0.683733642
2.6748929999999973,22.67348862,11.48397541,-150.8088684,2.871032715,1.159913421,12.9231081,8.393137932,-26.2382946,8.271495819
2.6832259999999906,22.73745155,11.46146011,-150.8243561,-8.68806839,-3.54998517,12.75028992,7.272816181,-3.637375116,-1.101155996
2.691558999999984,22.81501961,11.27740192,-150.8173676,3.685536623,1.12447691,12.517169,8.358146667,-20.4924221,8.849247932
2.699891999999977,22.85979843,11.22292709,-150.8630829,-5.282976151,-4.134482384,6.598629951,5.671568394,-8.554592133,-2.881678581
2.708225000000084,22.89050865,11.04886246,-150.8470612,3.870157719,0.194737449,10.05464268,2.528932571,-18.9575386,9.395599365
2.7165580000000773,22.91539383,11.04542542,-150.8996887,-9.224040985,-1.833666086,18.56714249,3.42689085,-3.234514952,-6.010048389
2.7248910000000706,22.96800423,10.94896317,-150.8221436,2.440232277,0.618856132,12.68459034,3.75331831,-7.546492577,12.46021366
2.733224000000064,22.97714615,10.97211456,-150.8632965,-5.493379593,-2.904665947,5.368486881,1.266329408,0.225392491,-6.007102013
2.741557000000057,23.01317978,10.83954525,-150.8130341,3.167630911,-0.009804465,7.002721786,2.396968126,-12.7765379,11.2057066
2.7498900000000503,23.01881409,10.89972019,-150.8419189,-5.366483688,-1.500734091,13.56902695,0.561143935,4.874812126,-6.416264534
2.7582230000000436,23.04740906,10.86770439,-150.7497559,-1.691626668,-1.340812325,14.95151615,0.556482017,0.267604709,11.03595734
2.766556000000037,23.04142761,10.96276379,-150.7722168,-1.653194785,-1.044015765,9.479312897,-0.971599221,9.017913818,-7.361711025
2.77488900000003,23.03381538,10.8557682,-150.7266388,-0.985084057,-1.327994227,6.805747986,-2.735523939,-10.15940189,9.506788254
2.7832220000000234,22.99377632,10.960783,-150.7275696,-1.228833675,-2.155075073,11.07997608,-5.550451756,11.11344147,-5.487056255
2.7915550000000167,22.95779228,10.89091969,-150.6864166,-5.184257984,-0.710496128,16.81899261,-6.040375233,-6.272722244,7.273201466
2.79988800000001,22.88999367,10.99624348,-150.6519165,1.736140966,-1.936774611,6.075743675,-9.684077263,12.78172207,-1.637005925
2.808221000000003,22.79379272,10.9144392,-150.6434784,-2.40709424,-2.102222443,5.886800766,-12.52410698,-9.106988907,4.264630318
2.8165539999999964,22.6991539,10.91243172,-150.6453857,1.81840229,0.410238445,10.79558659,-12.07852077,-0.751393616,-0.572119534
2.8248869999999897,22.59826851,10.89036846,-150.6496582,-7.509580135,-1.410459399,13.7195158,-12.79548931,-3.084056616,0.092275299
2.833219999999983,22.52400017,10.9301796,-150.6040497,1.897846699,-0.880613446,11.54184628,-10.71108055,6.031730652,2.673499107
2.8415529999999762,22.40266991,10.86982822,-150.6699524,-4.798210144,-0.276775807,8.225841522,-13.85338593,-10.105793,-4.871675014
2.849886000000083,22.26826859,10.91708851,-150.6346436,4.021707535,-2.130687475,6.632331371,-17.69157791,6.384414196,1.23730886
2.8582190000000764,22.11602783,10.84673405,-150.7150574,-6.634531975,-1.705115438,14.81951523,-17.23492813,-11.84161949,-6.046422482
2.8665520000000697,21.95808792,10.92330647,-150.655426,1.997707844,-0.075793289,14.72701168,-21.06528664,10.71135426,2.60562253
2.874885000000063,21.79046822,10.92088509,-150.7281952,-9.071805,-1.420590997,11.35279274,-19.24759483,-3.910988092,-8.309850693
2.8832180000000562,21.62568283,10.94528961,-150.6760712,4.671637535,-1.693576336,6.753891945,-21.72236633,4.550204754,4.166041851
2.8915510000000495,21.40701866,10.96943665,-150.7729797,-5.70120573,-1.088149071,6.369390011,-24.8162899,-1.939869761,-12.15004349
2.8998840000000428,21.20724869,10.95720482,-150.7463684,4.111590385,-1.654793262,8.38560009,-25.34306717,-0.670145512,2.998390675
2.908217000000036,20.97253609,11.04262352,-150.8392181,-8.475708008,-0.749045074,16.79513741,-26.82742691,5.18239212,-14.35361671
2.9165500000000293,20.75863266,11.07403946,-150.7778473,2.825624943,-1.577903628,13.96260548,-27.84090233,5.654231071,4.951580524
2.9248830000000225,20.48204231,11.16180038,-150.8925934,-5.941724777,-0.665684402,9.717794418,-31.32535172,4.652152538,-16.81566048
2.933216000000016,20.20347023,11.15457535,-150.8826141,4.569447517,-3.059693575,5.425923347,-34.42067337,-0.847242951,0.945409477
2.941549000000009,19.84733009,11.19220638,-151.0172119,-6.975275993,-2.171058655,14.91363907,-40.39635849,-1.630784273,-16.89605141
2.9498820000000023,19.48659134,11.22203445,-151.0102539,0.616774976,-1.262329698,16.69618225,-44.21203995,3.203436852,-0.89071089
2.9582149999999956,19.02699852,11.29503632,-151.1524658,-5.36727047,-2.77989769,7.976331234,-52.60932541,2.303840637,-19.15322495
2.966547999999989,18.5603466,11.27167416,-151.1960144,3.985920906,-2.85371542,5.303691387,-55.7364502,-4.747484207,-4.405942917
2.974880999999982,18.0125103,11.30724812,-151.3482666,-6.103796959,-0.240203708,10.77811909,-62.95457077,-2.014976978,-18.81257439
2.983214000000089,17.48207283,11.34039593,-151.3922424,0.81665659,-2.487344265,17.71581841,-63.37688065,1.769757628,-6.597481728
2.9915470000000823,16.88700104,11.43793869,-151.5169525,-5.572674751,-1.349388242,9.484031677,-69.24468994,6.401603699,-17.93624878
2.9998800000000756,16.26792717,11.43443012,-151.5877075,4.119739532,-2.076390505,9.857135773,-73.36748505,-3.219622374,-8.311730385
3.008213000000069,15.5535841,11.49275684,-151.7038116,-5.938513756,-1.693720579,9.878561974,-83.74354553,2.539783001,-15.51197815
3.016546000000062,14.84735966,11.61633778,-151.7489319,-1.037191153,-2.56294632,18.55739212,-84.42420959,12.47831154,-9.465405464
3.0248790000000554,14.07657528,11.72356987,-151.8491516,-5.363690853,-1.142563343,8.761647224,-90.85588837,9.073079109,-15.0792141
3.0332120000000486,13.29640961,11.84423351,-151.9012909,2.619657516,-3.376074553,1.826818109,-93.10422516,12.1769619,-9.834664345
3.041545000000042,12.47853565,11.89866543,-152.0140991,-3.449095011,1.309007525,11.72045231,-96.1530304,2.965627909,-14.8330946
3.049878000000035,11.64655495,12.09198856,-152.0786133,-3.887954235,-3.247369766,15.23400402,-98.9913559,20.66071892,-12.71161461
3.0582110000000284,10.82043743,12.26155663,-152.1510925,-2.239474297,1.120230198,9.023534775,-98.09375763,17.85595512,-12.76476097
3.0665440000000217,9.958794594,12.33221817,-152.2538605,-0.754424572,-1.7285254,5.306568623,-101.5332184,5.725718021,-13.83732128
3.074877000000015,9.087482452,12.53711128,-152.3193054,-0.738071382,-1.514116287,11.10422611,-103.6603851,22.5322094,-12.09375381
3.083210000000008,8.2296381,12.64795399,-152.4293823,-4.222099304,-0.267608941,18.50562668,-100.8243713,10.76636505,-15.20177937
3.0915430000000015,7.390529633,12.89227962,-152.4603119,0.201660886,1.042262793,4.253232956,-100.6665573,28.10931969,-8.033213615
3.0998759999999947,6.560826302,12.95260048,-152.6021729,-1.111906648,-1.317845225,4.694861889,-96.52133942,4.727646828,-17.80278778
3.108208999999988,5.793543339,13.08657837,-152.622879,-0.468382537,1.447518349,10.38098145,-92.30789185,15.27600193,-4.597842216
3.1165419999999813,5.021453857,13.25069332,-152.7818298,-4.108371735,0.682031274,10.84733295,-89.06895447,17.41285515,-20.80350304
3.124875000000088,4.356489658,13.44284725,-152.768219,-3.195626736,-1.632058144,12.22982121,-80.96505737,22.66516876,-0.761925817
3.1332080000000815,3.655128717,13.53977203,-152.9422302,1.950715423,3.056966543,9.311436653,-80.05587769,9.742856979,-21.52279854
3.1415410000000747,3.011333227,13.72261429,-152.9460297,-4.666365623,-1.678716183,4.243727684,-77.9390564,21.43210602,-2.17975831
3.149874000000068,2.401799679,13.79753399,-153.0821838,1.258780122,0.772500455,11.53959465,-69.84072876,7.752375126,-17.47362137
3.1582070000000613,1.812462807,14.00202656,-153.1095581,-5.172466755,1.079368949,16.24277687,-70.72316742,23.95878792,-4.550749779
3.1665400000000545,1.245984435,14.16650486,-153.2144165,0.090060517,-0.295217544,3.983628273,-65.67997742,18.96139145,-13.18580532
3.174873000000048,0.78581506,14.27243614,-153.2607422,-3.182155609,-0.314676791,5.992966175,-54.64525223,12.16885853,-6.073638439
3.183206000000041,0.325491518,14.32129192,-153.342865,2.049973011,1.670672894,7.035644531,-53.37831116,5.318976402,-10.81720161
3.1915390000000343,-0.111868188,14.44741631,-153.4195862,-2.513694286,-0.730677426,8.169729233,-50.98668289,14.67175865,-9.407314301
3.1998720000000276,-0.504569888,14.47380829,-153.4841614,-1.291754007,1.152157307,14.48222923,-45.75520325,2.768046141,-8.718640327
3.208205000000021,-0.900339663,14.61493874,-153.5669556,-3.220293522,-0.786874831,10.96467018,-45.78705978,16.60634422,-9.870005608
3.216538000000014,-1.217469931,14.61404324,-153.6387939,-0.655075371,0.620741308,8.159412384,-36.43803787,-0.379859626,-9.599126816
3.2248710000000074,-1.534252167,14.63070393,-153.7277069,-1.930114865,-1.066743374,9.422177315,-36.11027527,1.800157905,-10.73647499
3.2332040000000006,-1.873396635,14.65974617,-153.7828674,1.11410892,0.559254169,7.997279644,-39.59097672,3.255355597,-7.51909399
3.241536999999994,-2.186696529,14.61908817,-153.8957825,-3.149693489,-1.189438343,10.48520088,-34.96029663,-4.85889864,-13.73900604
3.249869999999987,-2.445952892,14.65319633,-153.9310303,-3.122590303,0.728759289,12.46977425,-30.61538696,3.84271431,-5.120084763
3.2582029999999804,-2.701708555,14.61868858,-154.0330048,-0.3141222,-0.509221673,9.595829964,-28.38759041,-4.050357342,-12.47555256
3.2665360000000874,-2.948168516,14.57573795,-154.0645447,-1.768261075,0.553138316,5.494244099,-29.20637512,-5.374536991,-5.072980404
3.2748690000000806,-3.203454018,14.52856731,-154.1796722,-0.106517605,-2.022916317,4.315670013,-27.95166206,-5.38155508,-14.11719513
3.283202000000074,-3.414731264,14.41414833,-154.1954803,-2.874799728,-0.316092879,14.61927986,-25.46448517,-14.00298023,-3.79121685
3.291535000000067,-3.663183212,14.40112782,-154.3287048,-0.813625097,-0.378973156,13.51353741,-26.6266098,-1.050671101,-16.01088142
3.2998680000000604,-3.912757158,14.29316711,-154.3465424,-3.229366064,-1.54043901,9.129358292,-30.01922226,-13.18678474,-4.03965044
3.3082010000000537,-4.193160057,14.18942928,-154.4851837,2.082063913,-2.058312178,7.077738762,-30.34447861,-11.72390747,-17.4279213
3.316534000000047,-4.470250607,14.00159454,-154.5034485,-5.108453274,-0.624478996,13.08661556,-33.31988907,-22.70571709,-4.944169044
3.32486700000004,-4.816387653,13.93629456,-154.6500397,0.976414561,-1.211559653,14.39643383,-38.0804863,-6.875178814,-18.11057281
3.3332000000000335,-5.160747528,13.74920559,-154.6921539,-5.391129971,-2.772014141,8.004699707,-40.72465897,-22.32356453,-7.947958946
3.3415330000000267,-5.574999332,13.59266376,-154.81987,2.748607874,-0.75974983,4.99108696,-46.87762833,-17.755373,-17.04654694
3.34986600000002,-5.980306149,13.34287739,-154.8839874,-5.676665306,-2.478821516,15.07017994,-47.50365448,-29.46344948,-11.3871479
3.3581990000000133,-6.451577663,13.25639439,-155.0254822,-0.103796661,-2.562144995,9.959204674,-53.43735886,-8.973639488,-18.01374626
3.3665320000000065,-6.994837284,12.92255592,-155.1066589,-0.6139642,-2.261572123,7.439715385,-63.67186356,-39.07307816,-14.93425179
3.374865,-7.609315872,12.79227638,-155.247879,-2.809053421,-3.724644661,16.91733551,-70.75839233,-13.85352612,-18.83574867
3.383197999999993,-8.282452583,12.52771473,-155.3218384,-3.281550407,-2.596531391,9.709559441,-79.58420563,-30.67442513,-13.51246738
3.3915309999999863,-9.006773949,12.34074879,-155.4594421,1.443766356,-1.819717646,6.65139246,-84.15512085,-20.20265007,-19.77850151
3.3998639999999796,-9.776997566,11.98079872,-155.5339203,-4.515306473,-2.396035433,10.92198658,-91.34147644,-41.64848328,-16.01872253
3.4081970000000865,-10.56803608,11.89456081,-155.6711121,-0.145264179,-0.246986002,16.08118439,-92.31261444,-7.787813187,-18.14370537
3.41653000000008,-11.42898083,11.43379593,-155.7263031,-1.424768329,-3.488955736,1.324829459,-102.7854156,-53.51253891,-17.20338249
3.424863000000073,-12.3324976,11.2679739,-155.8308563,-3.448758125,-0.827237725,26.31015587,-106.7463989,-17.38601303,-16.5981884
3.4331960000000663,-13.27906036,10.94749355,-155.9234467,-1.826395154,-3.994715214,-3.72854948,-112.3365555,-35.65356827,-19.05256653
3.4415290000000596,-14.22763729,10.64411163,-155.96492,0.89754802,1.247954607,11.9829073,-113.6910095,-34.64643097,-13.8679533
3.449862000000053,-15.21833134,10.34776402,-156.0704193,-5.553589821,-3.992412329,12.83693886,-117.4913025,-31.85828781,-20.82057953
3.458195000000046,-16.1918602,10.14122486,-156.0915527,-2.017205,1.498247147,14.47909355,-117.1684418,-23.63125038,-9.575721741
3.4665280000000394,-17.22626877,9.788087845,-156.2002106,1.010647893,-1.418548703,2.097677469,-122.7819443,-37.55231094,-24.21936417
3.4748610000000326,-18.26752853,9.532394409,-156.2086334,-4.693571568,-2.520304441,15.83470631,-125.5783691,-29.36610413,-10.76613045
3.483194000000026,-19.32992744,9.269268036,-156.3169098,-1.80886519,0.721678734,14.32657051,-126.2719345,-26.45096397,-22.03746033
3.491527000000019,-20.34836197,9.074560165,-156.3197174,-4.50058794,-0.439714551,7.862077236,-122.9535294,-22.31217575,-8.705323219
3.4998600000000124,-21.33992004,8.773180962,-156.3922119,1.50257802,-0.11451827,1.551441669,-118.5272522,-31.43264961,-20.70531654
3.5081930000000057,-22.28504181,8.517663956,-156.3380432,-2.081305504,1.299703598,12.35504532,-115.1856232,-31.30096817,-5.891143799
3.516525999999999,-23.21971703,8.281340599,-156.4073792,-2.424654245,1.915722013,12.5316267,-111.8210907,-23.6568985,-18.43227577
3.524858999999992,-24.07672501,8.059613228,-156.3338318,-4.468002319,-0.141995415,13.84460735,-104.8897324,-28.3243103,-3.130117416
3.5331919999999855,-24.89068604,7.863180161,-156.3909607,-0.946654141,1.994948149,8.90049839,-97.58621979,-19.3134079,-15.89467144
3.5415249999999787,-25.62735367,7.685976982,-156.3232269,-4.297210217,1.038953543,11.78012466,-90.29299927,-23.11423111,-2.253634691
3.5498580000000857,-26.32875061,7.446718216,-156.3373566,0.551943004,1.297316432,8.229016304,-84.79109955,-25.72437859,-14.12151051
3.558191000000079,-26.9691143,7.329857826,-156.2928772,-3.8104527,1.095056653,7.057074547,-78.32105255,-15.35389614,-2.022101164
3.566524000000072,-27.54935646,7.102620602,-156.3150482,-0.048155837,1.28537786,8.479065895,-70.12805176,-23.64963913,-14.9553051
3.5748570000000655,-28.03889084,6.936594009,-156.2508087,-4.513920307,0.973030388,8.712298393,-60.47816467,-21.63864899,-2.986809492
3.5831900000000587,-28.49142838,6.800696373,-156.3007813,-0.008043183,2.102929831,10.84454536,-54.41417313,-12.15808964,-13.10881519
3.591523000000052,-28.85535049,6.617329121,-156.2445831,-4.718687057,0.591838419,9.036753654,-45.25011444,-22.96595573,-5.143939972
3.5998560000000452,-29.14761353,6.458769321,-156.2689056,0.633794665,2.919924498,10.9436121,-35.56057739,-15.83441067,-11.94191265
3.6081890000000385,-29.41357803,6.3439641,-156.2637329,-6.482709408,-1.085522413,8.697083473,-32.77350235,-12.76517582,-6.661783695
3.6165220000000318,-29.58002663,6.18820715,-156.2472382,1.432086706,2.09589529,9.878072739,-21.01019096,-17.82979965,-7.689347744
3.624855000000025,-29.73271179,6.053845882,-156.2563171,-3.801199675,0.219892561,9.336564064,-18.99322319,-13.92288208,-9.381142616
3.6331880000000183,-29.80467224,5.950507164,-156.250946,-1.265418768,0.898376465,9.979745865,-9.520377159,-11.65955067,-5.828084946
3.6415210000000116,-29.84927177,5.81583786,-156.234787,-4.087940693,0.032223061,11.11864376,-6.337808132,-15.42632866,-6.825964451
3.649854000000005,-29.8621788,5.736960411,-156.2338409,0.714475155,0.244536698,8.873754501,-2.372570038,-8.838602066,-4.850209236
3.658186999999998,-29.8443718,5.624421597,-156.2360077,-5.703802109,-0.029924441,13.82928371,1.37542057,-12.03067589,-7.409303188
3.6665199999999913,-29.81295967,5.560732365,-156.2221985,0.14851065,-0.601000726,7.948243141,2.793296099,-8.018587112,-2.619695902
3.6748529999999846,-29.74553299,5.491910458,-156.2306061,-5.119470119,0.165193707,13.95873737,7.402706146,-7.1154809,-5.435852528
3.683185999999978,-29.69617462,5.397130489,-156.2173767,1.214712739,-0.501835346,9.293579102,4.957546234,-11.22344303,-4.524294853
3.691519000000085,-29.5982151,5.352586269,-156.2351837,-6.505516052,-0.389586031,12.18056107,11.16971684,-4.040031433,-4.955638409
3.699852000000078,-29.533741,5.29617548,-156.2178345,1.039748549,-0.190383583,12.89642048,6.730230331,-7.465219498,-1.808979869
3.7081850000000713,-29.45040703,5.257999897,-156.2241058,-5.058410645,-1.330951333,7.8840065,9.282971382,-4.065312862,-3.368836164
3.7165180000000646,-29.35573006,5.198130131,-156.2121277,0.714348257,-0.14209646,11.75654125,10.41389179,-7.521774769,-2.542392731
3.724851000000058,-29.28606796,5.212175369,-156.2272034,-6.213533401,-1.903184533,10.3497982,7.737792492,1.904841423,-1.208403111
3.733184000000051,-29.20576286,5.137441158,-156.1913757,2.315329313,-0.5117836,7.460338116,8.432349205,-10.47394371,-0.910483778
3.7415170000000444,-29.13542557,5.173222542,-156.2367706,-5.15444231,-1.186208725,11.18494511,8.144239426,5.947997093,-3.10813427
3.7498500000000377,-29.08511353,5.145366669,-156.2280731,-0.800547659,-0.992375135,9.07831192,5.125600815,-3.980503559,-0.989554703
3.758183000000031,-29.03068733,5.193725586,-156.2757874,-3.12191081,-1.570894003,13.32709312,6.260029793,7.395483017,-2.627866983
3.766516000000024,-28.97094345,5.197670937,-156.2742615,-2.098366976,-0.446922958,13.53399563,6.33343935,-0.231347769,0.121603586
3.7748490000000174,-28.9650631,5.300315857,-156.3414307,-4.109750748,-1.793064356,13.183074,0.656941116,14.21768188,-1.520409942
3.7831820000000107,-28.93141747,5.311460972,-156.3501587,-0.774572134,-1.302546382,8.880660057,3.31034565,1.116588593,-0.527678907
3.791515000000004,-28.9311142,5.39689827,-156.4011993,-2.981609344,-1.236267328,11.79215527,-0.179299638,11.47590733,-0.836919487
3.7998479999999972,-28.96099663,5.46284771,-156.4357758,-0.667164743,-2.413006544,8.819976807,-4.017695904,8.360090256,-0.041085239
3.8081809999999905,-29.01906013,5.504978657,-156.4774933,-1.314098954,-0.970039487,9.254962921,-7.275441647,6.39145565,-2.369675159
3.8165139999999838,-29.05659866,5.56885004,-156.5201111,-2.489221811,-0.699597359,13.10572624,-4.839246273,8.603962898,-0.978258848
3.824846999999977,-29.12898064,5.65797472,-156.5618896,-2.843803167,-1.607500553,11.06283379,-8.983143806,11.32493782,0.3787193
3.833180000000084,-29.19660759,5.728570461,-156.6086731,-2.49681282,-1.054140925,10.4009819,-8.390533447,9.545312881,-0.987659454
3.8415130000000772,-29.27191925,5.754554272,-156.6435852,-0.813089311,-1.155272484,5.972455502,-9.405061722,4.31101799,-2.579200268
3.8498460000000705,-29.34375572,5.850162029,-156.6941376,-1.051300049,-0.83657372,7.635980129,-8.840986252,12.38398647,0.114713378
3.8581790000000638,-29.429636,5.838945389,-156.7099152,-2.202928305,-0.85089606,11.38836479,-10.89880562,-0.696425498,-2.763443232
3.866512000000057,-29.51236725,5.944450378,-156.7685699,-3.339946032,-1.8752774,14.64415646,-10.04009247,13.88846493,-0.103584006
3.8748450000000503,-29.5862999,5.960453987,-156.7989349,-1.605737209,-0.282179654,9.447401047,-9.281037331,3.011017561,-2.666313887
3.8831780000000435,-29.65977669,6.067757607,-156.8551331,-2.907042742,-0.727433681,10.9930191,-8.951945305,13.91453838,0.321061701
3.891511000000037,-29.72028732,6.036292553,-156.8650818,-0.456593484,-1.431944013,7.930490494,-7.922202587,-3.138025999,-3.361407518
3.89984400000003,-29.78147697,6.156742096,-156.9262543,-1.295048475,-1.095430732,8.837022781,-7.404871941,15.57462406,0.623360932
3.9081770000000233,-29.84486008,6.09121418,-156.9380951,-1.747790813,-0.016301099,9.327591896,-8.241611481,-6.566670895,-5.596915722
3.9165100000000166,-29.89703178,6.208133698,-157.0028076,-3.753551722,-2.077410936,17.61185455,-6.273593903,15.40516186,0.100907318
3.92484300000001,-29.94904709,6.160002708,-156.9943542,-1.100106478,-0.969973803,6.769834995,-7.138253212,-5.956463337,-2.469622374
3.933176000000003,-29.99001122,6.248828411,-157.0457458,-1.974944472,-0.812407494,8.874400139,-5.099103451,11.67772388,-0.158219159
3.9415089999999964,-30.02877998,6.15789175,-157.0279694,0.353428096,-1.692206264,6.701209068,-5.666920185,-10.95713139,-4.082397938
3.9498419999999896,-30.07892799,6.242525101,-157.0673218,-3.699016809,-1.154524446,11.38024044,-6.36290884,10.50394917,0.883319676
3.958174999999983,-30.11519623,6.12538147,-157.0264587,1.015899658,-0.178241089,7.10607481,-5.667048931,-15.05446243,-3.29224968
3.966507999999976,-30.14680672,6.20648098,-157.0797272,-5.54840517,-1.343384147,18.08902931,-3.963700533,10.9615221,-0.739969611
3.974841000000083,-30.18606567,6.119553566,-157.0513611,-0.540052354,-1.940700293,5.844876766,-5.862919807,-11.16550159,-2.780528069
3.9831740000000764,-30.20680618,6.209846973,-157.0986176,-3.719015121,0.037177306,17.64983368,-2.737957001,11.55085564,0.453615338
3.9915070000000696,-30.25085068,6.136817455,-157.0779419,0.067958057,-1.549372077,4.349805355,-6.338524342,-9.260417938,-2.743335962
3.999840000000063,-30.27308846,6.185650349,-157.0951385,-3.071038961,-2.367813349,11.96720028,-3.31298399,5.415463924,1.108276725
4.008173000000056,-30.31498146,6.155589581,-157.0909729,0.711459517,0.227352858,3.930433512,-5.867990494,-3.81162858,-1.853061676
4.016506000000049,-30.35031891,6.14065361,-157.0925598,-3.535658598,-2.057121754,14.76809692,-5.091981888,-2.147907257,-1.11473155
4.024839000000043,-30.39974213,6.167200565,-157.1227112,-2.103746176,-2.223443747,10.52391911,-6.327793121,4.119884014,-1.954161525
4.033172000000036,-30.45869255,6.171617031,-157.1121979,-3.431949377,-0.713730216,13.69571877,-8.085978508,-0.890376389,1.326420307
4.041505000000029,-30.52503777,6.212723255,-157.1697693,-1.17368114,-1.066000342,5.105691433,-8.002886772,7.288774014,-3.874768019
4.0498380000000225,-30.59033394,6.163405418,-157.1414337,-0.879975259,-2.152519941,11.50495052,-9.08508873,-7.555381298,-0.077303767
4.058171000000016,-30.67275047,6.222351074,-157.188797,-3.188448906,-1.037716269,6.244616508,-10.06432056,8.520026207,-1.719688773
4.066504000000009,-30.72641945,6.142763615,-157.1434479,1.812007785,-0.812205017,5.785467625,-7.91561985,-11.74763775,-0.151457012
4.074837000000002,-30.79606628,6.213220596,-157.2087708,-6.46054697,-1.514882803,17.22846985,-8.300577164,10.8058424,-2.834267378
4.0831699999999955,-30.85274315,6.145094872,-157.1603851,1.347777963,-1.397259116,2.790864229,-8.321707726,-10.76691914,0.864032209
4.091502999999989,-30.91751671,6.221863747,-157.2369385,-7.118793011,-0.114931509,23.58641624,-7.569698811,12.14846134,-3.571239471
4.099835999999982,-30.97955322,6.183804035,-157.2207031,1.814182878,-2.59215045,2.845145941,-8.564299583,-5.769939423,-0.482956439
4.108169000000089,-31.0057354,6.194065571,-157.2508545,-5.848852634,0.812463999,18.10883331,-3.539003372,2.460964441,-2.910993338
4.116502000000082,-31.06600571,6.221163273,-157.2672729,1.297227263,-2.178076029,0.792494297,-7.938107491,2.909175158,0.251749486
4.1248350000000755,-31.08936119,6.137756348,-157.240799,-2.560236454,-0.922438562,14.6145916,-3.93109417,-10.64845371,-2.924889803
4.133168000000069,-31.1438694,6.226234436,-157.2882233,-2.377999783,-1.154179811,10.39431572,-6.846276283,11.14092731,0.871691108
4.141501000000062,-31.16464043,6.101329803,-157.2151031,-0.590559065,-0.959819853,6.891523838,-4.218998432,-17.78622055,-0.751009583
4.149834000000055,-31.17735481,6.22776413,-157.2902069,-4.350794315,-1.151260376,12.47217941,-1.475252151,16.74954796,0.407663435
4.158167000000049,-31.16817093,6.13028717,-157.2272644,1.138233423,-0.459296435,4.650758743,-0.497274876,-14.34115505,-0.092877224
4.166500000000042,-31.18033028,6.187461376,-157.273819,-6.109779358,-0.799168766,22.40808678,-1.777269721,7.867912769,-0.967296124
4.174833000000035,-31.17056274,6.168941021,-157.2527618,0.171731129,-2.821634293,0.475188047,0.114508428,-3.648901463,0.538987517
4.183166000000028,-31.16031075,6.17628336,-157.2535706,-4.906549931,-0.865350962,18.18821335,0.315067887,-0.094388455,0.638037741
4.191499000000022,-31.15788269,6.248152733,-157.3048248,0.283431441,-0.91682905,3.292591572,0.171935558,10.09796524,-1.231250644
4.199832000000015,-31.17316055,6.147016048,-157.252533,-1.728824019,-2.282248259,9.738046646,-3.439992905,-14.52317333,-0.659336209
4.208165000000008,-31.1496067,6.25373745,-157.3170013,-4.576733589,-0.719251692,12.25699043,2.876722574,14.49193573,-0.41512996
4.216498000000001,-31.15497589,6.1708951,-157.2596283,1.424788952,-2.27425313,2.465059519,-2.320521832,-12.96761703,1.012927771
4.224830999999995,-31.12714005,6.211401939,-157.2991791,-5.352840424,-0.115232818,17.22587585,3.064602613,6.1536026,-1.98533392
4.233163999999988,-31.11226273,6.223891258,-157.3072968,0.538179874,-1.764441848,2.379822493,0.967718601,0.911162317,0.167401835
4.241496999999981,-31.09000969,6.162743092,-157.2762756,-4.801545143,-0.450711727,21.06694221,1.482513547,-8.639964104,-1.084224939
4.249830000000088,-31.08393478,6.302358627,-157.3609009,-1.35659647,-1.36069417,9.868869781,0.906116605,18.68998337,0.222703025
4.258163000000081,-31.05257034,6.206764698,-157.3094482,-1.568879128,-2.081694365,5.091385841,2.304321051,-13.4403019,-1.123184443
4.266496000000075,-31.02524948,6.36610651,-157.3891907,-4.806474209,-0.516489804,21.75859451,3.401610374,20.42788506,1.911194086
4.274829000000068,-30.99749565,6.336596966,-157.3809357,-0.026281415,-1.544872999,-3.338381767,2.435311794,-3.987368107,-1.441927791
4.283162000000061,-30.96555519,6.401347637,-157.4000092,-3.209191799,-1.336143613,21.31972504,3.154508829,6.952613831,2.282958746
4.2914950000000545,-30.94930458,6.487054825,-157.4460449,-0.451445878,-0.940777361,5.550025463,1.783685803,11.19678879,0.124165013
4.299828000000048,-30.93250275,6.466923237,-157.4123077,-2.364716291,-1.835299134,8.065695763,0.614062905,-5.068929195,2.527164459
4.308161000000041,-30.90502167,6.560371399,-157.4452362,-3.625563622,-0.611617386,14.49230385,2.959302187,11.19043732,1.93337512
4.316494000000034,-30.88676834,6.610836983,-157.4572601,-0.140295565,-1.914428711,3.02017808,1.412228107,5.029060364,2.153631926
4.3248270000000275,-30.85078621,6.594738007,-157.4320068,-2.63166666,-0.98801899,16.12432861,3.182965755,-3.648312807,1.130010366
4.333160000000021,-30.81095695,6.713198662,-157.4893036,-3.44285965,-1.074120283,13.71865559,4.642415047,14.84428596,1.62979579
4.341493000000014,-30.76094627,6.680751324,-157.4564819,-0.878010929,-2.694108963,2.517986536,4.755039692,-5.793274879,0.905271173
4.349826000000007,-30.70463753,6.774924755,-157.4841309,-4.301088333,-2.033994198,17.93066216,6.196942806,10.48174381,3.245593548
4.358159000000001,-30.65921974,6.8335495,-157.504837,0.019568807,-0.663901091,3.716533422,4.958288193,6.861553669,1.009213567
4.366491999999994,-30.62876511,6.818751335,-157.4752655,-2.25365591,-2.713391542,8.349874496,2.278424501,-4.248530388,2.445992708
4.374824999999987,-30.5763607,6.908627033,-157.5000916,-3.873417139,-0.219678253,13.41307735,5.858039856,10.34240055,2.484618902
4.38315799999998,-30.53351402,6.995981216,-157.5097504,-0.628470242,-2.27541399,2.79279685,4.326667786,8.685699463,4.658961296
4.391491000000087,-30.49008369,7.025982857,-157.484375,-4.05441618,-0.990091801,15.92299271,4.052569389,1.119482994,3.971397638
4.399824000000081,-30.44561577,7.249486923,-157.5565186,-1.657347679,-1.257581711,10.2017622,5.460868835,26.57753944,6.470992088
4.408157000000074,-30.40778732,7.341852188,-157.5305634,-1.387128472,-1.980620265,3.419555187,3.356745481,7.544877052,7.817746639
4.416490000000067,-30.36748886,7.616945744,-157.5824127,-4.682226658,-0.189811885,21.62060356,4.686603069,30.69263649,11.66884518
4.42482300000006,-30.30012703,7.832962513,-157.5965424,-1.624112368,-0.281881869,0.856278598,7.524122715,22.77436066,11.18509102
4.433156000000054,-30.14022827,8.126534462,-157.6130676,-5.756962299,0.826442182,12.64408302,18.48892975,30.49856377,16.37541962
4.441489000000047,-29.94483757,8.487936974,-157.6714325,-0.602418244,0.076079711,3.710589409,23.67297935,40.56570435,15.25192356
4.44982200000004,-29.63941765,8.836330414,-157.6820831,-3.950996637,2.146410704,9.290906906,35.85459137,35.97005844,20.04395866
4.458155000000033,-29.24581146,9.305391312,-157.7394562,-1.134527206,1.86188221,7.323686123,47.53337479,51.91222763,21.288414
4.466488000000027,-28.74287415,9.707940102,-157.7323456,-2.97454977,2.160326719,7.094694138,59.20123291,40.90143585,24.55389023
4.47482100000002,-28.10889435,10.25557613,-157.779129,-3.988500357,1.92224884,11.58326149,76.26925659,59.9780426,25.9627037
4.483154000000013,-27.34910202,10.75248814,-157.7797241,-1.321932673,2.58199954,5.796642303,90.16320801,51.89588165,28.0848484
4.4914870000000064,-26.47566414,11.2662735,-157.7669678,-3.465794563,1.465599537,11.3285265,103.7402802,53.85076141,28.7856102
4.49982,-25.48702621,11.85079384,-157.7828369,-3.132937431,1.809410334,7.131187439,118.0082932,63.04984665,29.32372093
4.508152999999993,-24.36588669,12.41530132,-157.750824,-2.084094763,2.807485819,11.33557224,132.9511414,59.40258789,31.49563599
4.516485999999986,-23.13531685,12.96708298,-157.6982727,-0.839987516,1.926228762,8.293874741,145.2959747,57.4047966,32.4282608
4.5248189999999795,-21.778759,13.5333252,-157.6327209,-1.670442343,3.053447008,4.755929947,160.2082825,59.42659378,32.57449722
4.5331520000000864,-20.28009796,14.13577652,-157.5485687,-4.895098209,2.175804377,14.55005932,176.6491699,63.51580048,34.63467026
4.54148500000008,-18.68545532,14.68741322,-157.4123993,-0.071132064,0.877797186,10.01361084,186.4030151,56.60428238,36.7129631
4.549818000000073,-17.01067352,15.20588493,-157.2580414,-2.304942846,2.521119118,9.959482193,195.4295197,53.36103821,35.38255692
4.558151000000066,-15.23738766,15.6997633,-157.0712128,-2.403069496,0.053742193,10.90608883,206.0488586,50.48693466,36.75939941
4.5664840000000595,-13.39500237,16.20093155,-156.8691559,-2.713581562,-0.116254941,13.50559998,213.7647705,52.20526886,36.38839722
4.574817000000053,-11.51449394,16.5533905,-156.62117,0.843754172,0.13521257,6.985310078,216.4997101,34.69656754,36.54453659
4.583150000000046,-9.597729683,16.91540337,-156.3795319,-2.701352358,-0.828275859,16.26432419,221.0736847,37.31229782,33.98478317
4.591483000000039,-7.651971817,17.26235962,-156.1062927,-0.002200741,-0.685784996,9.73538208,223.0872192,36.0194931,36.77015305
4.5998160000000325,-5.714160442,17.42810059,-155.8232574,-0.330911547,-0.005465254,12.65011215,221.8394318,15.62126732,33.22103119
4.608149000000026,-3.7692945,17.72760201,-155.5214233,-4.263550758,-2.934100628,17.92837143,221.6756287,32.51855469,36.92363358
4.616482000000019,-1.858380318,17.76374626,-155.2144623,2.913623095,-1.383850098,6.434435844,217.4744873,2.18786931,34.09854889
4.624815000000012,0.02993203,17.88420105,-154.9083557,-4.835876465,-2.215693712,18.31907272,214.5851135,13.44902229,34.73797989
4.633148000000006,1.874476314,17.86601257,-154.6041565,3.668396235,-4.07263279,4.605518341,209.3172302,-2.058416128,34.29681015
4.641480999999999,3.636978865,17.8116169,-154.314209,-5.462137699,-1.063661456,21.95416832,200.0714264,-5.3732934,32.93850327
4.649813999999992,5.351140022,17.73449898,-154.0306396,1.303009033,-3.702615499,12.08869648,194.4901123,-7.139931202,32.5534935
4.658146999999985,6.992092609,17.55554008,-153.8028564,-2.572959185,-3.356794119,16.33139801,187.8566589,-18.99661064,27.74929047
4.666479999999979,8.49859333,17.41770172,-153.5594635,-1.080319762,-2.800394058,17.33123207,171.1840515,-13.08650875,29.35919189
4.674813000000086,9.937277794,17.16419983,-153.414566,-1.896159887,-5.342084408,7.006626129,166.7003326,-27.81349182,20.80101776
4.683146000000079,11.30526257,16.94643593,-153.2529602,-2.427425146,-4.708528042,17.91796112,157.6529541,-22.71657944,22.565979
4.691479000000072,12.51286697,16.69349861,-153.1732025,0.175311312,-2.196266174,13.09304333,141.368454,-28.25647926,14.76840401
4.699812000000065,13.65094376,16.47467422,-153.0876923,-4.484475136,-5.294692993,12.4513588,132.8246002,-23.79872322,15.05179405
4.708145000000059,14.69342899,16.26378059,-153.015152,-1.991861463,-3.359248161,16.10857201,121.867981,-22.93814087,13.83562756
4.716478000000052,15.6186533,16.0656662,-152.9547729,-2.076835632,-4.569255829,11.97754192,108.1980438,-21.57507706,12.46344471
4.724811000000045,16.41973495,15.8663826,-152.8834686,-1.76978004,-5.771211624,14.74074078,92.99652863,-21.16188431,14.04425716
4.733144000000038,17.13883972,15.76492691,-152.7967529,-3.977302551,-4.139081955,13.97648048,82.64795685,-9.213600159,12.6340313
4.741477000000032,17.71964073,15.54175091,-152.716568,0.680323482,-4.273193836,7.096436501,66.31920624,-23.22330475,16.4012413
4.749810000000025,18.25531769,15.51925564,-152.6144867,-9.017497063,-3.815654755,19.63177109,60.19361115,0.630560517,11.59302807
4.758143000000018,18.66715622,15.36902237,-152.5123901,6.900208473,-3.695589304,-3.094996452,45.37537003,-13.80815125,16.44992065
4.7664760000000115,18.99010277,15.36359215,-152.4361877,-11.38292694,-4.318110943,27.47908401,35.52389145,1.783098459,8.088150978
4.774809000000005,19.24619293,15.30544662,-152.3018188,6.979670525,-3.429194689,-2.186054945,25.68245316,-1.94486475,16.51805687
4.783141999999998,19.45062256,15.19633484,-152.2748108,-7.810630798,-0.717841804,18.46033859,22.87574196,-11.76267719,6.822188377
4.791474999999991,19.66093826,15.28791332,-152.1049957,1.164087892,-3.430436611,11.94983864,19.09520721,16.49077606,14.38966465
4.7998079999999845,19.75075531,15.11975098,-152.0810699,-2.900538445,-1.299365282,13.74076271,9.226597786,-18.50936508,8.946505547
4.808140999999978,19.85026741,15.30427551,-151.8825531,-4.08630085,-3.083116293,16.9046936,4.904630661,28.17577171,13.67000866
4.816474000000085,19.8746376,15.17761326,-151.8399811,1.869480133,-2.763087988,-7.81700325,0.786779761,-13.06564331,9.33527565
4.824807000000078,19.94821739,15.29739571,-151.6718445,-7.77822876,-1.397596002,27.66283989,2.7412498,19.69770432,12.9463501
4.833140000000071,19.99548721,15.30404282,-151.5637817,5.706506729,-0.606169224,-9.596251488,1.457078695,4.577789783,11.01897717
4.8414730000000645,20.05025673,15.28553867,-151.481308,-8.17754364,-2.591120958,20.46119308,3.174948454,0.736447692,9.271930695
4.849806000000058,20.1159153,15.41936779,-151.2980957,1.824057102,-1.069850802,12.30131912,1.266560674,21.91866684,13.9351902
4.858139000000051,20.10342216,15.27912998,-151.287262,-0.260843307,-0.494582891,1.243870854,-2.630044699,-15.81884289,6.502239227
4.866472000000044,20.21905136,15.40614414,-151.1198578,-3.948556423,-0.234351933,18.42835999,7.77137661,20.54146385,12.46910667
4.874805000000038,20.31022072,15.31980705,-151.1072388,0.620530546,-1.526590466,5.379502296,9.753121376,-9.66012764,4.498589516
4.883138000000031,20.39260674,15.25679874,-151.02034,0.677573681,-0.506605744,14.25892258,6.349807739,-4.033371449,11.59757519
4.891471000000024,20.49937439,15.28467941,-150.9866333,-5.444970608,-0.526735961,11.79399204,10.96003723,4.051314354,2.02702117
4.899804000000017,20.64385414,15.12561989,-150.9159851,4.64434433,-2.052574396,1.860389233,14.32785511,-15.4386816,13.9058876
4.908137000000011,20.76444054,15.01054001,-150.9661102,-5.697455883,-0.232716843,16.35952568,15.24868393,-15.41672707,-1.012326121
4.916470000000004,20.94090652,14.97170353,-150.845871,-0.272513717,-1.108119607,9.876419067,16.66205406,0.165071011,14.22378445
4.924802999999997,21.08833885,14.77338028,-150.9312744,0.027536839,0.040015444,7.523803234,19.53705597,-26.21480942,-1.170059323
4.93313599999999,21.26037025,14.61584473,-150.8653107,-2.047857523,-2.256806135,13.21940517,17.85399246,-15.30433655,13.50499916
4.941468999999984,21.42840385,14.50292015,-150.9210358,-3.129726171,0.28629905,13.98388004,21.05956078,-15.42279911,-1.554323792
4.949801999999977,21.616045,14.32609272,-150.8631592,-0.205305725,-3.357737303,4.393743038,20.00750923,-17.71058846,13.58332729
4.958135000000084,21.7775898,14.10766315,-150.9691315,1.465862155,1.279645562,7.206284046,21.72298622,-29.35850906,-2.224804163
4.966468000000077,22.00860786,13.99314404,-150.9183197,-7.506667614,-2.255949974,15.79728985,25.46549797,-10.985466,10.15176105
4.97480100000007,22.20937157,13.80567837,-150.9985504,2.128238678,0.944895208,15.95513344,25.61988258,-24.80661964,-0.651959836
4.983134000000064,22.37916565,13.6658802,-150.9890442,-4.640820503,-4.408695698,3.586029768,19.32752609,-15.53893661,6.929973602
4.991467000000057,22.53896523,13.5036087,-151.0812531,1.426743865,0.707094312,12.44402409,20.98945808,-22.55142975,-2.959547997
4.99980000000005,22.70292091,13.43418217,-151.0590515,-7.512762547,-4.045022964,19.59954262,18.28207588,-7.13397646,5.135053635
5.0081330000000435,22.80527878,13.26871872,-151.1218872,5.591651917,-0.617530644,4.227255344,13.23671436,-21.5945034,0.453922957
5.016466000000037,22.90597153,13.16083813,-151.1611023,-5.999543667,-2.186591148,8.202702522,12.38826561,-14.14666939,0.347982287
5.02479900000003,23.0242691,13.020854,-151.1869812,0.174865529,0.138740331,18.40514565,14.11295033,-17.09335709,3.311294556
5.033132000000023,23.11569595,13.02438641,-151.1653595,-6.104397297,-3.836820364,8.872197151,9.6179533,0.941643417,1.698031783
5.0414650000000165,23.15678406,12.87045288,-151.2006836,2.299282551,-0.480216533,7.007266045,5.094251156,-19.05556297,3.002078772
5.04979800000001,23.17794609,12.89746475,-151.1739349,-7.144794941,-3.927842617,18.39598846,1.056062102,3.772553921,1.141587973
5.058131000000003,23.17898178,12.88542938,-151.1169739,-0.521496892,-0.550820172,6.976976395,-2.187353134,0.848766088,6.232801437
5.066463999999996,23.1305809,12.90602207,-151.1351471,0.936461091,-2.608568668,1.099701524,-6.085352898,0.99753356,-3.383281708
5.07479699999999,23.09606743,12.83941078,-151.0980225,-3.844224453,-0.770570159,15.10494614,-5.922242165,-6.094011307,6.672829151
5.083129999999983,23.07551003,12.95470333,-151.0680542,-1.266080737,-0.520673692,12.51807308,-4.033908844,13.66236496,-2.65711832
5.09146300000009,23.04908371,12.89455795,-151.0417938,-2.505680799,0.136214703,6.774228096,-4.663020134,-5.883359432,5.191096306
5.099796000000083,22.99875259,12.90020275,-151.0483856,2.379832268,-3.306490421,14.51630688,-6.624071598,-0.118747592,-1.431784391
5.108129000000076,22.94333076,12.9619379,-150.9605103,-7.170384884,0.437740475,16.99416542,-9.79726696,10.38519001,6.112120628
5.11646200000007,22.87296867,12.97534752,-150.9645081,5.099678516,-2.077176809,4.422394753,-9.096999168,0.862392902,-1.513468504
5.124795000000063,22.82574654,12.90392208,-150.9261932,-6.5360322,0.369774222,11.67338085,-7.48319912,-6.604093552,6.996720791
5.133128000000056,22.78485489,12.96475792,-150.9196625,3.185055494,-0.644534886,13.23033142,-5.841095924,6.58663702,-2.582453012
5.141461000000049,22.7610836,12.9835577,-150.8548126,-8.031479836,-2.307689905,7.347911835,-5.385956764,4.568799496,5.657736778
5.149794000000043,22.73319626,12.917346,-150.8903351,7.797363281,-0.055499755,7.194242477,-3.147426128,-9.372530937,-1.213858724
5.158127000000036,22.68017578,12.93391991,-150.854538,-8.756061554,-1.440966129,15.93969917,-8.108239174,3.004179001,2.63389945
5.166460000000029,22.67015839,12.91091728,-150.8530273,2.511614323,-0.630745709,11.84406281,-1.997526169,-2.915770769,0.77141118
5.174793000000022,22.64171791,12.88688469,-150.821228,-5.427632332,-2.230101585,4.916342258,-5.052176952,-1.676554084,4.081410408
5.183126000000016,22.57897758,12.79026985,-150.8609161,6.240962505,-0.445072621,8.788321495,-7.225725651,-12.92532921,-0.282986104
5.191459000000009,22.56767273,12.81779385,-150.8254089,-10.68821526,-1.474817634,13.90792561,-3.08743763,4.197981358,2.107910872
5.199792000000002,22.56004333,12.6951046,-150.8635406,5.422177315,1.204843521,11.26608467,-0.655801296,-15.74604702,1.07353127
5.2081249999999955,22.53142548,12.69789886,-150.8469086,-6.387821198,-3.473295212,6.982845306,-4.658615112,0.610758662,1.210003614
5.216457999999989,22.48901558,12.56310463,-150.90271,4.894879341,0.558916688,9.5685215,-4.37475872,-17.880867,-0.299020648
5.224790999999982,22.4610405,12.56701279,-150.8871613,-9.033585548,-2.309145927,17.44091034,-4.551060677,0.682632208,1.04305017
5.233124000000089,22.43468857,12.47065353,-150.8961182,4.261915684,-0.009153036,9.187905312,-3.676539421,-11.52433205,2.99065423
5.241457000000082,22.40004349,12.43558311,-150.9188385,-5.646845818,-1.934390426,6.039065361,-4.356647968,-5.351658821,-1.317263126
5.2497900000000755,22.39089966,12.25025845,-150.9471741,3.247102976,0.863961637,7.310548306,-1.116678596,-22.2650795,4.947711945
5.258123000000069,22.37613106,12.25967503,-150.9555054,-7.086711884,-2.985010624,12.99001026,-2.346929789,0.226929307,-1.793355227
5.266456000000062,22.35343552,12.10148811,-150.9839478,1.766965628,0.398712605,15.93928337,-2.748357058,-19.26029587,3.682777405
5.274789000000055,22.33007813,12.15594864,-150.9820251,-5.878772259,-2.395661354,8.077952385,-3.637554646,5.682172298,-2.736241102
5.2831220000000485,22.31355476,12.00643444,-151.0050507,3.040653467,1.099923015,10.23901176,-2.148087263,-18.05906677,3.860309362
5.291455000000042,22.27998543,11.98647976,-151.0496979,-4.055208683,-2.760163784,8.649809837,-3.701026917,-4.650623322,-4.401063442
5.299788000000035,22.24954987,11.88354397,-151.0555573,0.402756691,0.647100925,10.20236397,-4.251040459,-12.12662411,3.591435909
5.308121000000028,22.23652077,11.87512398,-151.0908203,-6.336905956,-2.636745691,13.41242409,-1.477070332,-2.949965954,-3.911344528
5.3164540000000216,22.2158165,11.80086708,-151.0802765,1.528694272,1.487904072,15.64871693,-3.486481905,-8.215715408,4.064992428
5.324787000000015,22.19563866,11.85464668,-151.1099243,-6.146896839,-3.854510784,5.759055614,-2.478740931,4.212684155,-6.12221241
5.333120000000008,22.17245102,11.71559048,-151.1118317,3.847765446,0.949177086,8.439992905,-3.472599745,-15.97327328,5.637349129
5.341453000000001,22.12960052,11.78550053,-151.1533966,-4.700653076,-3.578536987,5.596187592,-4.915372372,5.481843948,-8.14545536
5.349785999999995,22.11290932,11.65687275,-151.1600342,0.829342127,1.478176117,11.21649742,-2.578841448,-15.02823162,4.636804581
5.358118999999988,22.10148239,11.73019218,-151.2024994,-5.76258707,-2.795277834,14.01520157,-1.125233412,5.826611519,-8.39368248
5.366451999999981,22.10270119,11.6801157,-151.1596375,-2.171880722,0.359888732,17.38510513,-1.633881092,-4.107832432,6.474626541
5.374785000000088,22.05509377,11.75737858,-151.2276459,-2.944497108,-1.725893617,11.51621628,-4.842064381,5.141481876,-11.35051441
5.383118000000081,22.03104782,11.72500515,-151.1750336,0.086551204,-0.747691214,7.12353611,-4.903589249,-1.717690825,6.734098434
5.391451000000075,21.97544479,11.78094864,-151.2562714,-1.86945951,-1.759869695,6.749473572,-5.4749403,2.202709436,-11.82278919
5.399784000000068,21.92580032,11.71713734,-151.2246857,1.629614115,-1.146109939,9.798651695,-7.466012478,-6.151105881,5.853275776
5.408117000000061,21.88825035,11.83230019,-151.2824554,-6.393560886,-1.52061522,13.73358059,-3.8783288,9.842565536,-11.9152832
5.416450000000054,21.8699913,11.77439976,-151.2449036,-0.217443541,1.079004645,16.559618,-3.845516443,-5.241236687,6.230548382
5.424783000000048,21.81106949,11.91337204,-151.2932587,-5.107624054,-2.740811825,10.06395435,-6.66613245,12.92070866,-11.93628788
5.433116000000041,21.77851105,11.88755035,-151.2616272,1.616645455,0.315692872,5.043716908,-5.423635006,-1.93451488,4.148596764
5.441449000000034,21.72327805,11.94321632,-151.3399963,-3.154214382,-1.786055923,7.533651352,-5.473583698,2.347404242,-11.48288822
5.449782000000027,21.6821537,11.95541191,-151.2946472,1.548531771,-0.402422786,9.307768822,-6.794098377,2.893038034,3.957309723
5.458115000000021,21.63009834,12.03599262,-151.3730774,-5.875488758,-1.320892215,16.11943245,-5.07771492,5.143095493,-12.58575916
5.466448000000014,21.60688782,12.0771513,-151.2993011,0.89901489,-0.771004438,12.18803883,-5.365773201,7.34387064,5.776227951
5.474781000000007,21.55033684,12.16824341,-151.3704376,-3.796009779,-1.142638445,11.87013435,-5.779417515,6.650340557,-12.24060822
5.4831140000000005,21.49956703,12.1442728,-151.3153534,2.102420807,-0.844234049,7.769298553,-8.215947151,-0.741224766,6.615017891
5.491446999999994,21.41475296,12.22999763,-151.3991547,-4.278316021,-1.311757803,9.944952011,-8.841959,5.532740116,-13.37050533
5.499779999999987,21.38462639,12.23362827,-151.3078766,-1.749176383,-1.081487656,13.92153168,-6.66712904,3.87570262,9.357942581
5.50811299999998,21.29180908,12.32223988,-151.3996277,-2.644407988,0.821405768,13.57071304,-9.582672119,5.542575836,-14.3520937
5.516446000000087,21.23643875,12.37438774,-151.3062286,-3.447258234,-4.592794418,3.697898626,-9.772601128,9.366885185,7.482239246
5.5247790000000805,21.13268471,12.39535618,-151.407959,2.972797394,1.852159023,8.659104347,-10.61887169,-2.410530806,-12.48627758
5.533112000000074,21.04462242,12.44801521,-151.3411255,-5.421482563,-2.653793573,9.931444168,-13.02435398,8.279431343,4.58224678
5.541445000000067,20.97220802,12.52902794,-151.4024658,0.141543716,1.434277654,11.86578941,-7.884599686,6.052093029,-10.65462589
5.54977800000006,20.92606926,12.59114075,-151.352356,-7.51438427,-2.575097322,15.91303062,-7.575642109,8.623788834,2.366307259
5.5581110000000535,20.84983826,12.70252895,-151.3650055,3.87417388,0.400308132,8.72274971,-9.601140022,11.51310062,-6.610189915
5.566444000000047,20.77914238,12.74068451,-151.3876038,-5.730134964,-2.432924747,5.871462822,-8.616552353,2.904001236,-4.550035954
5.57477700000004,20.67879486,12.82868671,-151.3728943,3.349146843,-0.231960148,13.20209599,-13.22043037,10.03936005,-2.588447094
5.583110000000033,20.55040359,12.91446209,-151.4290009,-7.631885052,-2.876335621,14.70813179,-14.63710403,6.887784481,-10.21544647
5.591443000000027,20.39584732,13.02002048,-151.3956451,2.727230072,-0.662532568,9.848450661,-20.23218155,12.78334045,-1.237552285
5.59977600000002,20.18004799,13.0890255,-151.5146027,-4.08011961,-3.897351265,6.322640896,-23.40225601,2.510491371,-16.36535454
5.608109000000013,19.92926407,13.09970665,-151.5010071,2.126571178,-0.438816011,9.730051041,-31.25190353,1.302779555,0.594647825
5.616442000000006,19.6173172,13.23515129,-151.6468048,-6.298760891,-2.95268631,15.79219532,-34.17927933,9.09502697,-21.97868347
5.624775,19.29470062,13.27186108,-151.6248627,-0.625944555,-2.186105967,10.37917233,-40.10651779,4.560070515,0.488630682
5.633107999999993,18.888237,13.41250706,-151.7873077,-1.424902916,-1.747833133,11.72537422,-45.00766754,9.3085289,-23.89572716
5.641440999999986,18.42978668,13.38742065,-151.7964172,-1.236963987,-2.981609583,7.335096836,-55.55186844,-3.638921738,-0.502322078
5.649773999999979,17.92015266,13.5778017,-151.947525,-3.795087576,-1.477745295,21.97492599,-57.65899658,15.76842213,-24.32968903
5.658107000000086,17.35358429,13.59975624,-151.9680023,-2.607014418,-4.276634216,4.429113865,-68.20227814,1.34146142,-3.532781124
5.66644000000008,16.71253777,13.70023918,-152.1445007,2.24101305,0.590914607,10.44366932,-72.65906525,5.06458807,-23.6582737
5.674773000000073,16.04298782,13.69704342,-152.2029724,-6.066196918,-4.432247162,8.025003433,-79.47805786,-2.735820293,-6.89257288
5.683106000000066,15.34290504,13.86061859,-152.3404694,-0.334245473,0.381870031,21.46281815,-80.81015015,14.12555885,-21.18538666
5.691439000000059,14.56776905,13.86031818,-152.4545593,-3.255373955,-4.463107109,-0.373978466,-90.52948761,-3.912756681,-13.29409027
5.699772000000053,13.72756481,13.91983509,-152.6149445,2.285055876,-0.602461636,18.64579201,-96.93804932,1.922864556,-20.30993462
5.708105000000046,12.83136845,14.00425529,-152.7395477,-9.495614052,-3.791093111,12.29891777,-104.7307434,6.080585003,-16.90814972
5.716438000000039,11.91592216,14.07268333,-152.84935,5.058073044,-0.526547074,10.80502701,-107.3888626,4.843792439,-14.6930418
5.7247710000000325,10.8763752,14.04238796,-153.0586243,-5.295509815,-3.868592739,2.924105167,-119.4415283,-8.824476242,-23.62293625
5.733104000000026,9.865424156,14.09992027,-153.1497345,0.492932498,0.521323204,24.88759232,-119.3885422,4.445599079,-12.12162781
5.741437000000019,8.734926224,14.0958147,-153.3896332,-3.394048691,-5.533608437,-4.02065897,-129.4455109,-5.443928719,-27.93052864
5.749770000000012,7.576285839,13.92160225,-153.5132294,3.459530354,-0.118011884,21.56800652,-136.1807709,-23.17302895,-11.72711372
5.7581030000000055,6.321173668,13.99180222,-153.7762909,-8.98787117,-4.379721165,9.19466877,-143.7990723,4.209946156,-31.88889313
5.766435999999999,5.038877964,13.64127064,-153.891037,8.874853134,0.290428579,2.75397706,-151.3225403,-43.6186142,-9.588643074
5.774768999999992,3.69435668,13.66241264,-154.1972809,-12.13749504,-4.581211567,21.68967819,-153.4670868,-0.635810494,-36.26306915
5.783101999999985,2.352165222,13.36663437,-154.2629852,9.406308174,1.92443192,2.797761202,-159.9572754,-36.28649521,-6.227736473
5.791434999999979,0.923311412,13.20960426,-154.607193,-9.082070351,-3.598995686,12.81859589,-162.7685242,-20.43068314,-40.10521317
5.7997680000000855,-0.484147996,12.95398331,-154.6475525,1.507345796,-0.278001934,14.9746542,-168.2949371,-31.13414001,-6.092657089
5.808101000000079,-1.979943991,12.76948166,-154.9893188,-3.533694744,-1.727751136,3.820088863,-171.1662445,-21.7214222,-40.91113663
5.816434000000072,-3.466108322,12.33331108,-155.0315857,0.252082586,-0.051103815,16.68979454,-177.7961731,-52.44514465,-8.693222046
5.824767000000065,-4.991414547,12.25462341,-155.3819275,-6.172515392,-0.982819319,14.90037346,-174.8846741,-6.83499527,-42.12583542
5.833100000000059,-6.494425297,11.76941967,-155.4172974,2.510066748,-0.540726244,-0.796547294,-180.1165924,-57.90539551,-10.8882637
5.841433000000052,-8.077864647,11.54196262,-155.7262878,-4.799797535,-0.118864432,23.01360321,-183.3216248,-22.91562462,-39.94604111
5.849766000000045,-9.575737953,11.20251274,-155.7386017,-3.825610161,-0.754577398,9.395672798,-180.2219238,-40.48597336,-8.016856194
5.858099000000038,-11.12911701,10.91742611,-155.9783173,2.166362524,1.355924845,3.796537161,-181.6869965,-29.02737808,-34.38082123
5.866432000000032,-12.60290241,10.5142622,-156.0100861,-4.411156654,-1.518577218,7.193185329,-176.9827271,-47.1099205,-13.59590244
5.874765000000025,-14.07092953,10.20116711,-156.1759186,-0.448210359,2.591735601,19.00455093,-173.3841553,-32.49002838,-28.17911148
5.883098000000018,-15.49747944,9.948641777,-156.239212,-5.952430725,0.865723968,14.68032837,-170.7849579,-28.08311653,-14.44937325
5.891431000000011,-16.91580391,9.593179703,-156.3705292,1.804540038,1.873784781,5.633097649,-168.3238373,-37.07452774,-27.27668953
5.899764000000005,-18.27633286,9.294880867,-156.4004822,-4.177039623,-2.359141588,3.742034197,-163.6144257,-33.82930756,-13.57488251
5.908096999999998,-19.57675934,8.963062286,-156.5039825,1.74282074,3.606540442,10.28660393,-154.8778992,-34.13512421,-24.97388268
5.916429999999991,-20.78076553,8.624319077,-156.5179596,-7.889956474,0.152068406,18.06197739,-145.1693573,-38.44450378,-14.88342285
5.9247629999999845,-21.98262978,8.381534576,-156.5871735,2.275218248,5.19298172,12.34575462,-143.7930145,-24.58106804,-18.73046303
5.933095999999978,-23.06270027,8.110771179,-156.6200104,-8.590999603,-0.357004464,6.321146965,-129.9755707,-29.42364311,-15.38215637
5.941429000000085,-23.9887104,7.816328526,-156.6408691,3.725330353,4.386945248,9.285833359,-111.5701828,-31.85278893,-16.83792686
5.949762000000078,-24.86966896,7.500760078,-156.6293335,-6.752899647,2.424736023,9.689826965,-106.8237534,-35.99250412,-13.74813461
5.958095000000071,-25.65951538,7.274633884,-156.6318512,2.398213863,3.940169096,7.123781204,-95.53610992,-24.85839844,-12.31412601
5.9664280000000645,-26.32983971,6.979745388,-156.6479797,-6.127556324,-0.897417307,5.944868088,-81.10745239,-31.91451073,-16.64496231
5.974761000000058,-26.90032768,6.729944706,-156.584137,1.125004411,4.150049686,10.28340244,-70.16340637,-30.65353012,-7.090055943
5.983094000000051,-27.44066811,6.464207649,-156.6151428,-3.618895054,1.294718623,9.295598984,-65.3082962,-27.6327095,-17.31281471
5.991427000000044,-27.90995789,6.248247147,-156.5676422,-0.024810247,1.705601692,9.490049362,-57.73712158,-26.02868652,-7.480099678
5.9997600000000375,-28.25963402,5.968422413,-156.5920715,-5.40659523,1.132626176,9.516026497,-42.52711868,-29.17638016,-17.9348526
6.008093000000031,-28.53310204,5.738155842,-156.5184174,-0.296931475,2.402634144,7.660988331,-34.50587082,-28.93427277,-5.865875244
6.016426000000024,-28.77446747,5.49474287,-156.5570526,-2.694546223,0.9100281,13.47078419,-29.38036919,-24.35628128,-17.60984039
6.024759000000017,-28.97121048,5.285755157,-156.4875488,-1.743488789,0.314131767,6.455528259,-25.18156433,-26.41793823,-5.30012989
6.033092000000011,-29.06655312,5.012988567,-156.507782,-2.144914865,1.351754308,8.248322487,-12.0849638,-28.37337875,-17.58139801
6.041425000000004,-29.15139198,4.863389969,-156.4530487,-2.393606663,1.182799697,14.59380054,-11.53286648,-19.31316757,-3.477594852
6.049757999999997,-29.19504929,4.606503963,-156.4745178,-1.408539295,0.126274914,8.433486938,-5.890765667,-26.62663269,-16.80000496
6.05809099999999,-29.18201828,4.427345753,-156.4125824,-3.303831816,0.958561897,11.91769409,0.191658601,-22.82995605,-4.47734499
6.066423999999984,-29.17679214,4.233533382,-156.4377441,-1.903855681,-0.118529133,11.32530403,0.011308689,-19.69686699,-13.68407726
6.074756999999977,-29.12345314,4.07692194,-156.3708801,-3.174308538,-0.057068016,11.31277084,5.033442497,-20.75683784,-2.627176285
6.083090000000084,-29.07840347,3.89150238,-156.38591,-1.375330806,0.677017212,12.9588356,4.701455593,-19.36006355,-12.22788143
6.091423000000077,-29.01528168,3.777605295,-156.3507538,-5.398071289,-1.567099452,10.20500755,6.505517006,-14.43972015,-3.41532588
6.09975600000007,-28.93791389,3.648783684,-156.3507996,0.421302259,1.030519009,14.66956711,8.45937252,-14.27246284,-7.401209354
6.108089000000064,-28.88943291,3.530912161,-156.3384247,-5.901103497,-1.804428339,10.46515083,4.939309597,-13.54478455,-6.001980782
6.116422000000057,-28.81685829,3.471165895,-156.3645325,-1.050883412,0.04468834,11.12557316,8.081739426,-5.460314751,-6.219136715
6.12475500000005,-28.763731,3.375343561,-156.3501282,-3.414401531,-1.224862337,13.37215137,5.485993385,-11.35422802,-4.485642433
6.133088000000043,-28.73701286,3.36305666,-156.3811798,-0.670478523,-0.889337003,7.064550877,2.608208179,-0.176635757,-4.022203445
6.141421000000037,-28.68866539,3.285221815,-156.3959045,-3.92300272,-1.554146647,8.263750076,5.116021156,-7.790518761,-6.494309902
6.14975400000003,-28.66562462,3.286613464,-156.3839264,0.422661573,-0.790893316,13.83691311,1.866752625,-1.208479524,1.275115132
6.158087000000023,-28.69685173,3.262714863,-156.4393768,-3.943002701,-1.463602662,11.43135929,-4.155192375,0.225725457,-7.663088322
6.166420000000016,-28.71168709,3.290774584,-156.4290924,-3.119449854,-0.676026165,10.26479053,-2.668721437,1.722723722,2.581364155
6.17475300000001,-28.73596191,3.309886217,-156.5003052,-2.166149616,-1.878164291,13.3977108,-3.207671165,5.666343212,-6.839590549
6.183086000000003,-28.78388214,3.381718874,-156.5055237,-2.780632496,-0.014696265,10.00515938,-6.531067371,7.22883749,3.461905003
6.191418999999996,-28.83900261,3.407400608,-156.5642853,-0.944736183,-1.061358929,2.836742878,-6.984233856,5.645801067,-5.142263889
6.1997519999999895,-28.87271309,3.461090803,-156.5718384,-0.681234121,-1.731312633,8.299803734,-4.810353756,5.45471859,2.172740459
6.208084999999983,-28.91162682,3.459635019,-156.5978394,-2.90392065,-0.264073223,16.88370895,-5.268335819,0.904221117,-3.269119501
6.21641800000009,-28.99420738,3.596642256,-156.639328,-3.023132801,-0.513336122,11.45703602,-10.42310143,16.18775368,3.424919128
6.224751000000083,-29.04683113,3.626001835,-156.6893921,-3.20491457,-1.094342589,11.81010723,-6.72414732,5.541806698,-3.993259907
6.233084000000076,-29.11163521,3.716995478,-156.6999512,-2.110429764,-1.186767578,11.43630505,-8.517809868,9.552944183,4.016657352
6.2414170000000695,-29.1970787,3.778071404,-156.760437,1.027380824,-0.429422438,5.281130791,-10.56518078,9.484349251,-3.215175629
6.249750000000063,-29.2649498,3.814644575,-156.7679291,-3.625435114,-1.1448704,9.573566437,-8.90847683,3.673606157,1.149400234
6.258083000000056,-29.3414917,3.884206057,-156.8327332,-2.014609575,-0.658599734,15.84377193,-9.450206757,10.63019085,-3.139882803
6.266416000000049,-29.40006065,3.919687986,-156.8375244,-2.007431746,-1.175404072,10.02775192,-7.814289093,3.402121305,1.371066093
6.2747490000000425,-29.48199272,3.987799168,-156.9025269,-1.833613038,0.118108355,8.61529541,-10.08268738,10.49578094,-3.220094442
6.283082000000036,-29.5594635,3.972412825,-156.9125366,-1.502131104,-2.420870304,6.702148914,-10.03909206,-1.603016019,-2.178849697
6.291415000000029,-29.62880516,4.010226727,-156.9280853,-0.151680291,-0.082985312,9.616359711,-8.978941917,4.418494225,0.16350849
6.299748000000022,-29.71523666,3.990437746,-156.9640656,-3.071392536,-0.333680421,11.1128521,-10.89693737,-0.520378888,-5.141597271
6.308081000000016,-29.79593849,4.01705265,-156.9621277,-1.434437633,-1.925700545,12.43323421,-10.48733997,2.211289883,1.325523973
6.316414000000009,-29.84107018,4.013038635,-157.006012,-2.254941702,-0.10418883,12.86147118,-5.876060486,1.614017367,-5.040933132
6.324747000000002,-29.92790222,4.001767635,-156.9776459,-1.886325598,-0.248380899,11.35473061,-11.44549179,-3.311203718,1.812271237
6.333079999999995,-29.99040222,3.968569279,-156.9946899,-1.507823586,-2.988304377,8.898631096,-8.187514305,-3.023607254,-3.983244658
6.341412999999989,-30.06381607,3.936641932,-156.9559631,-0.380532205,0.249145061,7.22394228,-9.917653084,-6.083638191,1.63694191
6.349745999999982,-30.15751648,3.906977892,-157.0032196,-2.348982573,-1.433409929,13.41452789,-11.68818569,-0.831899107,-6.908082962
6.358079000000089,-30.23114586,3.865754366,-156.9382935,-3.265755177,-1.7942698,10.1860075,-10.14987373,-8.631230354,3.771479368
6.366412000000082,-30.27820206,3.876256943,-156.9898987,-1.319847465,0.762763441,12.39192677,-6.060738564,3.619586229,-4.946518898
6.374745000000075,-30.34063911,3.825985193,-156.9393158,-3.283951044,-1.255639672,10.45022488,-8.688324928,-8.710992813,1.724568367
6.383078000000069,-30.36698341,3.827382803,-156.9634705,-1.29463625,-1.414897561,11.09149837,-3.801434517,1.019920468,-2.650433064
6.391411000000062,-30.42229462,3.774748087,-156.9019775,-1.725748658,-0.059939668,7.766267776,-7.914031982,-9.620862961,2.69701314
6.399744000000055,-30.477705,3.760759354,-156.9277344,-0.453506351,-2.031707525,7.422470093,-7.280179977,-0.474862278,-3.743161917
6.408077000000048,-30.50335503,3.699523687,-156.8710632,-4.455815315,-0.625426531,9.19135952,-4.307878971,-10.22218037,1.659943342
6.416410000000042,-30.53506851,3.733085155,-156.9132233,0.557497144,-0.361651391,11.47503185,-4.313053131,5.437940598,-2.533529758
6.424743000000035,-30.55820274,3.689272165,-156.8677979,-5.652537346,-2.734528303,14.69228363,-3.916211843,-7.738751888,1.554950595
6.433076000000028,-30.58866119,3.736916542,-156.9054718,-0.166212171,0.533738554,13.42749405,-4.198557854,6.619757175,-1.200718641
6.4414090000000215,-30.61259651,3.71471715,-156.8876953,-3.894257784,-1.11087501,9.101722717,-3.797746181,-3.822617531,0.016687674
6.449742000000015,-30.65021133,3.761412859,-156.9120178,-0.860013783,-1.588722348,10.99349976,-5.16413784,5.699437141,0.136844069
6.458075000000008,-30.68197823,3.711663961,-156.8937073,-3.051056147,-1.655781388,6.721827507,-4.743601799,-6.699146748,-1.622149467
6.466408000000001,-30.71237373,3.793454647,-156.922348,0.664315641,-1.430785298,7.723311424,-4.261953354,9.577944756,1.859555125
6.4747409999999945,-30.73921204,3.744437456,-156.925827,-4.269605637,-0.662220538,13.3849659,-3.98073411,-5.290364265,-3.822566271
6.483073999999988,-30.78360176,3.852871418,-156.9521332,-2.571710825,-1.817831635,15.2322588,-5.961843491,12.17225933,3.756649017
6.491406999999981,-30.80433083,3.831150532,-156.9583435,-1.278369665,-0.502697468,6.803591728,-3.225088596,-2.305639982,-2.432481527
6.499740000000088,-30.84174728,3.944198132,-156.9932251,-3.057079554,-0.647142529,9.498271942,-5.052408218,13.16483402,3.182658434
6.508073000000081,-30.88666534,3.894940138,-157.0081177,-0.52380681,-2.860146523,7.555505753,-6.054257393,-4.605644226,-5.022516251
6.5164060000000745,-30.90809441,4.006207943,-157.0225677,-2.494551182,-0.812451839,8.119106293,-3.299549341,11.71404457,5.198448658
6.524739000000068,-30.93694878,3.950843096,-157.0413361,-0.384799182,0.761363268,10.96315002,-4.092155933,-4.991138458,-5.801112175
6.533072000000061,-30.9647274,4.079785824,-157.0700531,-4.861115932,-4.20906353,14.14351559,-3.94349122,14.39836693,4.849454403
6.541405000000054,-30.97963142,4.046653748,-157.0907135,1.022745848,1.079630971,10.64709663,-2.401565075,-2.583221197,-4.627211571
6.549738000000048,-31.00607491,4.165195942,-157.1296997,-6.449708939,-1.412298083,10.75366116,-3.69072938,13.9356184,3.199281931
6.558071000000041,-31.01066017,4.109045506,-157.1278381,2.512805939,-2.376223087,8.208855629,-1.353020787,-6.336577892,-3.738116026
6.566404000000034,-31.01964188,4.237016201,-157.1745605,-4.622318745,-1.496527433,10.17636967,-1.526890516,15.36397076,3.020648956
6.574737000000027,-31.04909706,4.144664288,-157.1579132,2.943169117,0.06425564,5.391785145,-4.468070984,-10.96899128,-4.467430592
6.583070000000021,-31.06311989,4.267929554,-157.2163086,-7.681779861,-3.634543419,19.32034302,-2.032054424,15.57713318,1.580027223
6.591403000000014,-31.09945679,4.22116518,-157.1903687,3.642709494,-0.067399405,4.734381199,-5.376069546,-6.85460043,-0.696656048
6.599736000000007,-31.10573959,4.289485455,-157.2327271,-9.071159363,-1.507165313,14.55797768,-1.241368294,8.925473213,-0.145898685
6.608069,-31.12566376,4.233618736,-157.2136078,5.442436218,-2.041274309,3.866440296,-3.348856211,-7.370008945,-1.965277672
6.616401999999994,-31.15986633,4.234229565,-157.2202148,-7.468595505,-1.048274994,15.0649147,-4.912938595,-0.264543831,-0.641406178
6.624734999999987,-31.1890583,4.220120907,-157.2174225,4.85595417,-1.052256584,-0.004236485,-4.316203594,-2.069604874,-1.049594522
6.63306799999998,-31.21221542,4.117815495,-157.173584,-7.400197983,-1.797771096,20.3880825,-4.030553818,-13.96670055,-1.858415365
6.641401000000087,-31.24388504,4.163815975,-157.189682,1.142905474,-1.560948014,5.719065189,-4.446503162,5.272754192,0.753890932
6.64973400000008,-31.2427578,4.024168015,-157.1274109,-4.552074909,-0.311943531,10.76576042,-1.27131176,-18.96644974,-2.266706705
6.658067000000074,-31.25743294,4.12351799,-157.1753082,-2.518131733,-0.649925351,20.00050926,-2.141990423,12.7196846,0.82645613
6.666400000000067,-31.27451134,4.015991211,-157.1361084,-3.082567453,-1.987320781,4.07041502,-3.264074087,-14.28982544,-2.550282001
6.67473300000006,-31.26095963,4.089635849,-157.1540527,-1.761986732,-0.315838397,15.76386547,0.991437316,8.22128582,2.293665171
6.6830660000000535,-31.29189682,4.014646053,-157.144043,-0.753376603,-2.191405058,1.13869071,-4.688225269,-9.20327282,-3.404567957
6.691399000000047,-31.29865837,4.015581131,-157.1133881,-2.202643394,-1.602080107,17.23072433,-1.855239034,-2.25863719,2.735843658
6.69973200000004,-31.33111382,4.067099571,-157.1600342,-3.026268959,-1.293047071,6.053828716,-4.392687321,7.293870926,-1.31585443
6.708065000000033,-31.33603096,3.994742393,-157.089447,-1.303388953,-1.201160312,11.77933693,-1.973116159,-12.25585079,2.241796732
6.7163980000000265,-31.34004974,4.117642403,-157.2038879,-4.166085243,-1.648589015,13.95580292,-0.404346436,18.79097939,-3.72559166
6.72473100000002,-31.37318039,4.031658173,-157.123642,-1.257925749,-1.111792564,7.933001995,-5.446791172,-14.25532341,2.373607635
6.733064000000013,-31.39735603,4.175364971,-157.2512512,-3.0747509,-2.017869234,13.71556187,-2.71211338,21.69261551,-3.664937735
6.741397000000006,-31.44179916,4.094537258,-157.1750793,1.901073098,-1.723278165,4.100245476,-6.778962612,-13.47734261,2.265694857
6.74973,-31.47344017,4.222575665,-157.274704,-5.464226246,-0.517054021,9.661524773,-3.83604002,18.34127045,-1.755395293
6.758062999999993,-31.49124336,4.168567181,-157.2166138,2.948776484,-2.339066505,3.432620525,-3.433755398,-9.604200363,2.084461212
6.766395999999986,-31.53481674,4.252356052,-157.3036041,-7.367814064,-0.438090056,21.43821144,-5.370434761,13.01985741,-3.216533422
6.774728999999979,-31.56743813,4.2914958,-157.2970734,-0.108684935,-3.510797262,1.916930676,-4.760431767,3.146158457,2.666634083
6.783062000000086,-31.56948662,4.385033607,-157.3600311,-5.2984972,0.998306453,20.79349709,-0.5963763,12.45022392,-0.039189786
6.79139500000008,-31.61237335,4.475307465,-157.4066772,-0.516290665,-2.036960602,5.593297482,-5.500298977,11.70425987,0.465141743
6.799728000000073,-31.61745834,4.517688751,-157.421524,-3.136113167,-0.296391606,13.32868767,-1.395899177,4.21575737,1.638376236
6.808061000000066,-31.64565659,4.70974493,-157.5097809,-2.484481096,-1.783695698,10.42973995,-3.318146467,24.71230507,2.638843775
6.816394000000059,-31.66407394,4.69199419,-157.4872894,-0.125194728,-0.975319982,3.927695036,-3.357949257,-4.258161545,1.632894754
6.824727000000053,-31.66419983,4.930916786,-157.6098785,-4.002270222,-2.758716583,12.99404049,0.430819005,31.65039635,2.115648031
6.833060000000046,-31.68012619,4.955601215,-157.5892944,-0.320911497,-0.217234671,5.325350285,-3.060823917,0.161689848,4.163222313
6.841393000000039,-31.68391609,5.17682457,-157.7012787,-3.982182741,-1.190856576,20.71626091,-0.054148532,29.17523575,2.094182968
6.849726000000032,-31.6893692,5.265110493,-157.7052155,-0.646634817,-2.827462912,2.23079133,-1.551787138,8.217059135,5.641932487
6.858059000000026,-31.64927292,5.476584911,-157.779953,-5.102563858,0.477852225,16.68087578,4.863698006,25.83759499,5.266968727
6.866392000000019,-31.61906624,5.649434566,-157.8259735,0.392557144,-0.99766165,1.489060163,3.203663349,19.4461422,6.760893345
6.874725000000012,-31.49492836,5.843655586,-157.8657532,-2.834757566,0.57931459,11.79877853,14.58897018,21.89976311,7.692767143
6.8830580000000054,-31.34680176,6.05561924,-157.9029236,-1.845401883,0.44220981,10.68735218,17.27091026,22.91434669,10.05583572
6.891390999999999,-31.10317993,6.294537067,-157.9269409,-2.431789637,1.548406959,5.893090248,28.7605648,25.55445099,11.95565414
6.899723999999992,-30.76102829,6.513873577,-157.9500275,-1.947370291,0.89486146,7.924421787,40.39297485,22.90589714,11.74203777
6.908056999999985,-30.31326485,6.811676502,-157.9667358,-2.41369319,3.183788061,12.06148624,53.18183136,31.34310722,15.98670673
6.9163899999999785,-29.77273369,7.02351141,-157.9586487,-0.392259985,0.654899478,6.717285156,63.73896408,20.36753654,14.29222584
6.9247230000000854,-29.09840965,7.340829372,-157.9483643,-5.256892681,3.979812384,10.19232178,79.98330688,32.11328506,19.32221603
6.933056000000079,-28.31461143,7.619976044,-157.9630432,-0.013204896,1.05063343,8.871267319,93.26844788,29.09646988,15.29440403
6.941389000000072,-27.42502403,7.879464149,-157.8912048,-3.509980202,1.610836864,10.66924381,104.8092117,23.08582878,21.65202904
6.949722000000065,-26.44387054,8.215677261,-157.9197998,-1.628221154,2.548043489,5.644526482,117.1939468,36.44425583,15.96363449
6.9580550000000585,-25.32622719,8.504855156,-157.8524017,-1.833075166,1.053421497,8.017334938,132.1636505,27.27951431,21.89111519
6.966388000000052,-24.12071609,8.735933304,-157.8146362,0.00670171,2.031262875,10.63827133,142.9543762,22.31544876,16.36176872
6.974721000000045,-22.80106735,9.084161758,-157.7561646,-3.747456312,2.820186138,6.548992634,156.4947662,35.12627029,22.54070282
6.983054000000038,-21.32360077,9.318272591,-157.6759644,0.138193339,2.193870783,10.41918659,174.7557373,21.61807442,19.84360123
6.9913870000000315,-19.75477219,9.559504509,-157.5270538,-3.334550381,2.187093258,12.97980118,184.5552521,20.47702408,26.20526314
6.999720000000025,-18.10862732,9.868005753,-157.440094,-2.021300793,2.08647275,10.5556221,194.8262482,30.99830818,21.92192268
7.008053000000018,-16.34255028,10.0837059,-157.2702179,-1.958185554,0.082544506,8.961547852,207.6268921,18.33091545,26.38541985
7.016386000000011,-14.54883575,10.2592001,-157.1100006,0.865260482,1.587674499,9.59724617,210.9871979,14.75122452,23.55173111
7.024719000000005,-12.68388176,10.51762199,-156.9456482,-4.564291954,0.155376554,14.40740395,219.4673615,25.12578201,25.69813156
7.033051999999998,-10.77755642,10.58904362,-156.7436066,2.461875439,0.152141243,7.018490791,223.598175,3.207083464,24.0237484
7.041384999999991,-8.852059364,10.76887035,-156.5443878,-7.279670715,-0.088219494,19.65198135,225.8605957,16.81173706,26.3688221
7.049717999999984,-6.923389435,10.80089092,-156.3264313,4.463499069,-1.185221553,7.326107025,225.8713684,-0.066446342,24.70191765
7.058050999999978,-5.002672195,10.8238306,-156.1137085,-4.955550671,-0.687045336,13.57394314,224.9277649,-0.313788533,24.76894379
7.066384000000085,-3.097629786,10.80950642,-155.8864288,0.744988263,-0.616481841,10.73126793,222.8426819,-3.99866128,25.17377281
7.074717000000078,-1.204758883,10.7717886,-155.659668,-2.360279322,-2.872218132,17.28378487,221.2795868,-5.974576473,26.08459091
7.083050000000071,0.613285959,10.68170929,-155.4323883,-0.487786949,-1.826171637,10.92117882,212.4620514,-11.39971828,25.22257614
7.091383000000064,2.411773682,10.52317142,-155.2515717,-1.162792087,-2.805390596,13.67715645,211.0554199,-18.90147209,21.36603165
7.099716000000058,4.140127659,10.46983624,-155.0426331,-1.642231822,-1.548868895,18.82805443,202.1875153,-5.491149426,23.56176758
7.108049000000051,5.758820534,10.23948765,-154.9217529,-0.582614839,-2.97106576,6.762430668,190.8619385,-26.75607491,16.14440155
7.116382000000044,7.350156307,10.09235001,-154.7621155,-4.150015354,-4.314914227,9.487418175,186.7587891,-15.84446335,20.28279305
7.124715000000037,8.88620472,9.890569687,-154.7088165,0.283583313,-2.802824497,16.41648865,182.441864,-23.52929878,9.199357033
7.133048000000031,10.28809834,9.747865677,-154.6252594,-4.679938316,-3.338823557,17.18758202,165.7004395,-15.69504738,12.1279335
7.141381000000024,11.55696297,9.578021049,-154.6013641,1.259521127,-4.898650169,13.7393446,151.0053558,-19.92482376,6.181980133
7.149714000000017,12.72055626,9.537510872,-154.5244293,-7.020617962,-4.536137581,14.50365162,137.2836609,-3.292944193,9.459328651
7.1580470000000105,13.7557497,9.328688622,-154.5089111,5.441777229,-2.204193354,6.829211712,123.1395035,-24.41854477,7.070408344
7.166380000000004,14.73978615,9.3445158,-154.4174194,-9.592704773,-5.366064072,17.56714439,115.4919052,4.052642822,9.569067001
7.174712999999997,15.61577606,9.113762856,-154.3796844,6.669599533,-1.791798472,7.749632835,103.6142349,-26.0016861,11.10594559
7.18304599999999,16.36429024,9.128638268,-154.2775574,-10.16307068,-5.629259586,25.52420807,87.06728363,4.59754324,10.68017101
7.1913789999999835,16.96852493,8.977737427,-154.2098083,4.080706596,-3.821552515,2.352492332,70.44778442,-15.49215031,12.42686749
7.199711999999977,17.50465202,9.047404289,-154.081131,-9.93223381,-4.104197979,19.28845596,61.11112976,12.05180931,11.62835217
7.208045000000084,17.93914795,8.969104767,-154.0041809,4.463733673,-2.892500162,0.29522112,49.91062164,-6.620732307,11.08885193
7.216378000000077,18.34383202,9.05700016,-153.9082031,-5.736510277,-2.948925734,17.88606453,45.95309448,13.11045456,7.067916393
7.22471100000007,18.66153908,8.939291,-153.8435059,2.04730773,-1.503362179,6.316441536,36.12799072,-11.40777683,11.29585457
7.2330440000000635,18.92202568,9.069929123,-153.7513275,-5.400463581,-4.79406023,21.86850357,28.72658348,17.9062748,4.833372593
7.241377000000057,19.0935421,9.038372993,-153.6694946,0.224090546,-1.999495029,5.899436474,18.25103378,-0.867477655,9.944947243
7.24971000000005,19.23129272,9.250459671,-153.53508,-4.96546936,-3.740352392,12.33622742,13.16814995,28.81336594,6.228914261
7.258043000000043,19.38138199,9.20759201,-153.4346619,1.475902677,0.560693741,1.905152917,15.29273891,-1.367160201,12.47099876
7.266376000000037,19.51834869,9.429215431,-153.2922516,-4.361653328,-2.045190811,12.09326839,12.87432957,30.23875046,6.588692188
7.27470900000003,19.64584923,9.390651703,-153.1954498,3.609881163,-1.142434716,6.042294502,12.61479568,-0.965861857,11.88886261
7.283042000000023,19.7511158,9.566878319,-153.0892334,-4.026943207,-1.661919355,14.62902737,9.742828369,23.69475746,4.25026226
7.291375000000016,19.86471367,9.477169991,-152.9965363,0.436689526,0.01874157,13.94312096,11.00547886,-6.857701302,13.51142311
7.29970800000001,19.93444633,9.721232414,-152.8744507,-3.834986925,-2.314189196,13.77286148,5.135721684,32.00515366,3.156585455
7.308041000000003,20.03228378,9.576704025,-152.8300018,3.480148077,-0.059995007,7.871489525,10.06028938,-14.94832039,10.41110134
7.316373999999996,20.13622284,9.779763222,-152.7171173,-5.923341751,-1.744782567,9.46062088,9.411175728,27.01961899,3.718229055
7.324706999999989,20.26472092,9.605657578,-152.7028046,4.66795969,-0.106951699,0.799420595,14.34596348,-19.47026062,8.343341827
7.333039999999983,20.43172264,9.684711456,-152.6347046,-6.491814137,-0.824174643,19.24263191,17.88631439,11.24556446,3.797914028
7.34137300000009,20.57831955,9.464186668,-152.6502075,5.528883457,-0.478721827,3.727139473,17.11479378,-25.87500954,7.095648766
7.349706000000083,20.73727036,9.530348778,-152.5970306,-7.639957905,-2.028586388,17.30540276,17.23965263,9.199598312,2.630825758
7.358039000000076,20.90439224,9.224497795,-152.6400146,7.67667532,0.521420956,-2.9473629,20.11008453,-36.56035233,7.831115723
7.366372000000069,21.12236023,9.204792023,-152.6368408,-11.20088863,-1.232930183,26.43994904,25.31611443,-2.523131609,0.741340399
7.374705000000063,21.34878349,8.949819565,-152.6494141,9.974601746,1.327517748,-3.756214619,26.62384415,-29.5044136,9.236262321
7.383038000000056,21.5602932,8.766047478,-152.7389832,-10.33989143,-2.466841221,21.43610001,26.25834465,-24.85720825,-2.273086548
7.391371000000049,21.80254745,8.628190994,-152.6978149,5.350795746,-0.977629364,8.017956734,27.53812981,-14.01606941,10.19074726
7.3997040000000425,22.00385475,8.329845428,-152.8475647,-5.633137226,-0.93527019,5.781169415,26.03184128,-40.29588318,-3.588536263
7.408037000000036,22.24347496,8.192389488,-152.8055725,1.561817169,-0.994926274,18.58493805,27.24723244,-13.84793949,10.37176418
7.416370000000029,22.46257401,8.015628815,-152.9413452,-4.293768883,-2.050755501,3.53115654,27.81739044,-26.20091057,-7.305701256
7.424703000000022,22.69391251,7.745671749,-152.9405518,2.240519047,-0.116996348,14.74357605,26.96252251,-30.32248878,12.06707764
7.4330360000000155,22.86435127,7.658177376,-153.0545807,-8.048920631,-2.216100454,16.91910362,21.51821327,-15.3785162,-8.893369675
7.441369000000009,23.04456139,7.431648254,-153.0268402,3.920953512,-2.551394939,1.306814671,20.40182114,-24.190979,13.18267441
7.449702000000002,23.18060112,7.299868107,-153.1688995,-5.854744434,0.784216642,12.30049324,17.74326324,-21.62652779,-9.79330349
7.458034999999995,23.32300568,7.161019802,-153.1229858,0.922596216,-3.23118782,15.10136223,15.60948944,-13.59834671,11.13926315
7.466367999999989,23.4431324,7.104523182,-153.220047,-5.502187252,-0.728318214,5.248338223,15.09791946,-11.25892067,-8.371707916
7.474700999999982,23.55130768,6.958488464,-153.1785583,3.446653843,-1.798787355,7.350063801,11.58612919,-14.5471487,11.0614996
7.483034000000089,23.64034843,6.975885868,-153.2465973,-9.331071854,-1.425920963,22.46224403,10.91424084,-1.780010581,-8.715758324
7.491367000000082,23.72722054,6.893085957,-153.1590881,3.778982878,-1.314496517,6.082354546,8.371771812,-5.358627796,13.07856846
7.499700000000075,23.75353432,6.88920784,-153.2369843,-5.083723068,-0.347835302,6.037107468,3.518768549,-4.610844135,-8.75996685
7.508033000000069,23.84314346,6.880860806,-153.1400452,0.224115834,-2.682523012,17.41370392,8.572510719,3.29625845,10.51401901
7.516366000000062,23.87519264,6.953748226,-153.1602478,-4.79168272,-0.058865279,12.04838848,3.382346869,6.578131676,-6.190525055
7.524699000000055,23.88017845,6.90761137,-153.1100006,4.750581264,-3.0131917,5.808535576,-0.915273666,-3.088283062,7.254836559
7.533032000000048,23.86681557,7.048314095,-153.1004944,-8.544159889,-0.299672842,18.74214745,-2.495031595,15.45029068,-6.250617027
7.541365000000042,23.87733078,7.082216263,-153.0112915,1.623723149,-2.083963633,11.55233479,-0.842247367,7.571556091,7.609848499
7.549698000000035,23.82827377,7.176499367,-153.0025024,-2.060390234,0.046336289,7.081803322,-6.768664837,10.32229424,-4.070691109
7.558031000000028,23.80853081,7.200274467,-152.9530334,-0.943977773,-1.633517146,10.63245392,-3.90010047,4.542416096,3.777600527
7.566364000000021,23.82472801,7.387187004,-152.8623505,-4.816933632,-0.55839777,11.40967274,-0.184499443,24.42901421,0.365912378
7.574697000000015,23.80225945,7.388131142,-152.8719788,2.843071222,-0.678316057,6.489343643,-3.333744049,-0.807155728,-1.553784966
7.583030000000008,23.75574112,7.534600258,-152.7920837,-3.941494465,-2.551333427,13.67303276,-7.573825359,19.46876144,1.161516428
7.591363000000001,23.72005463,7.629180431,-152.7572479,-1.349764466,-0.485136777,14.23938465,-5.621992588,11.61099911,-1.23327446
7.5996959999999945,23.69186401,7.746315479,-152.690506,-0.861321926,-0.651077807,5.379815578,-5.197975159,15.61079216,1.164794803
7.608028999999988,23.64645958,7.724482059,-152.7125702,-0.686209619,-0.481950849,11.14126492,-5.879517078,-3.899152756,-1.808057547
7.616361999999981,23.61351204,7.888808727,-152.6112366,-2.351815939,-1.437590837,11.85233116,-6.348286152,22.44447136,2.683438063
7.624695000000088,23.57061195,7.899855137,-152.6549988,-1.08428216,-0.70752573,10.58718204,-5.21436739,-1.312678456,-5.755212307
7.633028000000081,23.51525879,7.943667412,-152.5948334,1.639655828,-2.465300083,8.100970268,-8.378006935,7.22781229,4.00679636
7.6413610000000745,23.43342018,7.968509674,-152.6473999,-4.01785326,-0.140006885,16.54182434,-9.736251831,-0.201507196,-7.375054836
7.649694000000068,23.39210129,8.041526794,-152.5714264,-1.106897473,-1.002272844,12.19316578,-6.963103771,11.1782465,4.351513863
7.658027000000061,23.32240295,8.009637833,-152.6382751,-1.184691072,-0.493837923,5.009644032,-8.032727242,-7.108821869,-6.232302189
7.666360000000054,23.26259041,8.047856331,-152.5839996,1.597430468,-1.457491279,7.240190506,-8.82336235,6.314332485,3.661568403
7.6746930000000475,23.20717239,8.034485817,-152.6556091,-5.404617786,0.01852084,17.92867661,-6.233429909,-5.279248238,-7.645645618
