,time,Euler_X,Euler_Y,Euler_Z,Acc_X,Acc_Y,Acc_Z,Gyr_X,Gyr_Y,Gyr_Z
0,0.0,1.8126874766666667,7.1570510863333325,-37.4074758,-2.1633798283333334,-0.22082850366666662,9.656230767333334,-134.98932393333334,19.481627463333332,-10.525945980000001
1,0.0083329999999932,0.7179037730000001,7.322755177666667,-37.46157326666667,-1.7011426886666667,-0.08065612633333334,8.497183640666668,-130.93884023333334,19.242671333333334,-7.307857197333334
2,0.0166659999999865,-0.34948324166666667,7.442773819,-37.5369161,-1.615163689,0.854693691,13.805093289333334,-127.24852753333333,13.868478140333336,-9.555601279666666
3,0.0249989999999797,-1.4428831986666666,7.563958803666666,-37.61579133333333,-1.0078261196666667,0.9097525006666668,10.086728891333332,-130.3737818,14.209621113333332,-9.624043621333334
4,0.033331999999973,-2.5494221846666663,7.683773676666665,-37.6898524,-0.2737873193333333,0.02701816966666663,7.208474159999999,-131.94648233333334,14.195997240000002,-8.782921155
5,0.0416649999999663,-3.6181637446666666,7.775719324666667,-37.78262586666667,-2.2690472403333337,-0.18452036366666666,10.549217382,-127.16755166666667,11.146267575333335,-10.968338969333333
6,0.0499979999999595,-4.666972637333333,7.871293863000001,-37.8675893,-1.5951218606666666,0.716209531,12.986057279,-124.82679493333335,11.693662644999998,-9.759214877333333
7,0.0583309999999528,-5.749370892666666,7.942955811666667,-37.95851133333334,-1.0579490063333334,0.3572984483333333,9.169604777333333,-128.8049774,9.057679494333334,-10.447556492333334
8,0.0666639999999461,-6.844481944999999,8.000717639666668,-38.059519466666664,-0.29974536100000004,-0.4614724516666666,7.632761318666667,-130.09045916666665,7.723971944333333,-11.728496550000001
9,0.0749970000001667,-7.913748900333332,8.041802724333333,-38.1578064,-2.286516746,0.1277970176666667,10.807938893666668,-127.09801993333333,5.927978275666667,-11.553043683333334
10,0.08333000000016,-8.989012717666666,8.073919455,-38.23686726666667,-0.7631984156666668,0.45616062000000007,13.446253776666666,-128.06071469999998,4.687167564,-9.237750053000001
11,0.0916630000001532,-10.074824332666665,8.085896174333334,-38.349222833333336,-1.8655035000000002,0.018500387333333295,8.715704758666666,-128.84195709999997,3.1257949669999996,-13.37155819
12,0.0999960000001465,-11.145989735,8.074829101666667,-38.42281596666667,-0.486643215,0.3169385793333333,9.640652180666667,-127.66672766666666,-0.1638329833333335,-9.477764924
13,0.1083290000001397,-12.218146643333334,8.022168477333333,-38.50784303333334,-1.5758242806666667,0.539962818,12.044251124666667,-127.67948913333333,-4.655975303333332,-11.626833596666666
14,0.116662000000133,-13.276900293333334,7.9773370423333345,-38.579930600000004,-0.06615096333333333,0.287594666,9.947929540666665,-126.2458013,-3.8440083363333333,-10.012597399666666
15,0.1249950000001263,-14.312088333333334,7.900231679333333,-38.65975443333333,-2.792864253,0.550905784,9.195789971666668,-123.40271760000002,-7.190493106333332,-11.805594443333334
16,0.1333280000001195,-15.342594783333334,7.805643717333332,-38.70410413333333,-0.14219559200000007,0.5561335483333333,12.008527119999998,-123.31871796666667,-10.132199606333332,-8.496455192666666
17,0.1416610000001128,-16.3762029,7.697199980666667,-38.7857895,-2.318453202666667,0.6035406016666667,9.885247549666666,-123.2398707,-10.357876616666667,-13.15842088
18,0.1499940000001061,-17.375459669999998,7.581474462999999,-38.82867686666667,0.6072938043333335,0.07206829133333333,7.857299645666667,-119.638326,-12.300976592666666,-9.386347931
19,0.1583270000000993,-18.346948623333333,7.431992689999999,-38.87227123333333,-2.854938189,1.3035153746666666,14.370162010000001,-116.38361866666666,-15.987493513333334,-10.847879727333334
20,0.1666600000000926,-19.307913459999998,7.303941885666666,-38.9135666,0.16138465200000005,0.8410904706666668,11.369078954666668,-115.09942373333335,-13.499795913333335,-9.961764971333332
21,0.1749930000000858,-20.222587583333333,7.158980846333333,-38.9541575,-3.4446701209999997,0.7684230556666666,7.964247862,-109.67887113666666,-15.222908976666666,-10.777381896666666
22,0.1833260000000791,-21.07674217,7.022974809333334,-38.958989466666665,-0.303374474,1.1192480326666667,12.939263981000002,-102.82905832666667,-15.629095395,-6.6764558156666665
23,0.1916590000000724,-21.899176280000002,6.855239232333333,-38.990671799999994,-3.3803978363333336,2.6009364126666665,11.225630122333333,-98.77636462666668,-17.825752259999998,-11.254216193333335
24,0.1999920000000656,-22.66955948,6.726929823666667,-38.97521716666666,0.4095931373333334,1.691967527,8.769290128,-93.12224071333333,-15.485595386666667,-4.441141366666667
25,0.2083250000000589,-23.367248533333335,6.563978672,-38.985936466666665,-3.386399666333334,1.774806539,11.314289726666667,-84.15983581333334,-17.953356423333332,-9.200554847666666
26,0.2166580000000522,-23.982487996666666,6.421986421,-38.96871946666667,-0.364204824,2.2741511263333334,10.046631335999999,-74.52777608333332,-16.9783659,-5.251736402666666
27,0.2249910000000454,-24.54973284,6.253313541333334,-38.95375566666666,-3.2147872050000004,2.575901428666667,12.64105415,-68.88313547666667,-19.655309043333332,-7.035437504333334
28,0.2333240000000387,-25.066336313333334,6.1140759786666665,-38.9435628,-0.448904852,1.7052422763333333,11.365010897666664,-62.61991501,-16.20836035,-6.203250408333333
29,0.2416570000000319,-25.508441286666667,5.969286600666666,-38.93365476666667,-2.60509189,1.5824448863333334,9.042840639,-53.844253540000004,-16.652409233333334,-6.735456625333334
30,0.2499900000000252,-25.878142676666666,5.830961704333333,-38.910736066666665,-1.2559472723333334,1.665747623,12.960637409999999,-45.15961647,-16.690280596666668,-4.992067496
31,0.2583230000000185,-26.197879156666662,5.694196065333333,-38.913241066666664,-3.1691373983333335,2.6945393880000004,12.243555066666666,-39.000008263333335,-15.052142463333334,-7.886810303
32,0.2666560000000118,-26.483672460000005,5.566888650333333,-38.89649706666666,-0.7802357080000001,1.5541326206666666,10.647149243666666,-35.024790446666664,-15.112185160000001,-5.2510930296666665
33,0.274989000000005,-26.70871162333333,5.457041263333333,-38.90161133333333,-2.5764985683333332,0.8304253023333334,10.465024630333334,-27.640987716666668,-11.968491631,-6.839787801
34,0.2833219999999983,-26.870009106666668,5.343447129,-38.902654000000005,-1.2790372509999999,1.5803010463333333,10.411996525000001,-19.90824031833333,-12.641013463333335,-6.526635011000001
35,0.2916549999999915,-26.990131376666668,5.252863327666667,-38.89087423333333,-3.080960492333334,1.7494321266666668,12.164150713666666,-15.214644114999999,-10.770897071666667,-4.093826293666667
36,0.2999879999999848,-27.09284083,5.175345818,-38.9146703,-1.3913087616666664,1.2086473703333334,11.437974294333335,-12.662617683999999,-7.526553075999999,-7.018886884333334
37,0.3083209999999781,-27.149279276666665,5.128161748,-38.91774243333334,-2.310319066,0.3021169553333333,8.200768948,-7.427993118333333,-5.299522300666666,-3.3600799243333337
38,0.3166539999999713,-27.16716066666667,5.067747513333333,-38.928242999999995,-2.10375152,0.710301141,14.180604616666665,-2.620388468666667,-6.4090534843333336,-4.689680894333333
39,0.3249869999999646,-27.178032556666665,5.0392152470000005,-38.94151813333333,-1.9597112336666667,1.7689748636666665,11.277569452666668,-1.8261540533333334,-2.7502474613333328,-3.4104117153333333
40,0.3333199999999578,-27.16575877,5.021587769333333,-38.96880343333333,-1.89341409,-0.11407795800000002,9.092367331666667,1.102150892,-0.9255874156666667,-4.155897299666667
41,0.3416529999999511,-27.125736873333334,5.0023717880000005,-38.968933099999994,-2.05017519,0.43229538966666664,13.038138072999999,4.169686714666667,-2.455210248666667,-1.5144418083333333
42,0.3499859999999444,-27.084357576666665,4.997398456,-39.00139873333334,-1.8011267883333335,0.33925646533333326,11.640699386,4.648984194,0.7115934293333334,-4.0339732963333335
43,0.358319000000165,-27.047475813333335,5.016623179333333,-39.00996146666666,-2.1621750993333335,-0.20610781533333333,8.630791506666666,3.839155912666667,2.0984759333333334,-0.2961518566666667
44,0.3666520000001583,-26.99526532333333,5.024794419333333,-39.03476203333334,-2.0188596246666664,0.2757392926666667,12.846749306,5.878321965333334,1.6938906513333334,-2.4866000113333335
45,0.3749850000001515,-26.956590016666667,5.067437012999999,-39.05813853333333,-2.213163217,-0.049555371333333355,10.782953260000001,4.212179778666667,5.4084291853333335,-0.6108141146666668
46,0.3833180000001448,-26.927117666666664,5.101258039666667,-39.080378200000006,-1.8942303856666667,-0.4534667333333333,7.732699076333333,3.0889230566666668,4.296083649,-0.8296364546666665
47,0.3916510000001381,-26.896809259999998,5.157431999666667,-39.10154723333333,-1.9402621986666666,0.29240133366666665,14.058986983333332,3.213157157,6.753117203666666,0.33838093299999983
48,0.3999840000001313,-26.88906797,5.199045737333333,-39.13184866666667,-1.8058472276666666,-0.7328969886666666,8.096014499333334,0.568776846,5.5798048179999995,-1.2987101076666665
49,0.4083170000001246,-26.876248680000003,5.268034934666667,-39.156349166666665,-1.4861893356666667,-0.4132796126666667,10.516066234333332,1.1415838053333334,8.294035911666667,0.6981373826666667
50,0.4166500000001178,-26.87717628333333,5.326262633,-39.1700109,-2.2264889479999996,-0.295120258,12.140823363333334,-0.6631526553333332,6.457400084,1.371458769
51,0.4249830000001111,-26.885359446666666,5.392578125,-39.21010846666666,-1.5948900976666665,-0.025617053333333344,9.281276387666667,-1.1766239803333332,8.85903422,-1.1117774246666665
52,0.4333160000001044,-26.904809316666668,5.468788147000001,-39.22364296666667,-1.8583913643333334,-0.3930726846666667,11.468995414666667,-2.888500690333333,8.383805115,2.3579914766666668
53,0.4416490000000976,-26.93429311,5.541590690666667,-39.265909833333325,-2.5202138823333335,-0.7030245416666667,9.926058292666667,-3.7149820726666665,9.651223183666666,-0.9644273916666667
54,0.4499820000000909,-26.967540740000004,5.617355505666667,-39.27101136666667,-1.3812704980000001,-0.08744631700000001,12.063405354000002,-4.614691019,7.888254483333334,3.2465786933333334
55,0.4583150000000842,-27.02206929333333,5.697697798666667,-39.31934866666666,-2.1534257433333335,-0.41252635899999995,9.611662229333334,-6.654587735,10.783543268333332,-1.1901655993333333
56,0.4666480000000774,-27.084101360000002,5.767493566,-39.31282553333333,-1.1895990273333332,-0.4869406923333333,10.192124687333333,-8.207199416,6.609830856333333,4.187116702333333
57,0.4749810000000707,-27.153357823333334,5.845667044333333,-39.35083513333334,-1.6926002103333333,-0.39567023733333334,12.272103629999998,-8.553674935333333,9.984106541000001,-0.1898143290000001
58,0.4833140000000639,-27.243943533333333,5.904652754333333,-39.3489914,-1.5867144863333333,-0.8926094570000002,9.523349126,-11.570401191666667,5.715168555666668,3.0963604053333333
59,0.4916470000000572,-27.338944116666667,5.9848817190000005,-39.376754733333335,-1.4724397063333334,-0.5846940476666665,9.272925219666668,-11.777475673333333,9.641584713999999,1.043746094
60,0.4999800000000505,-27.44270706,6.049534003000001,-39.38292693333334,-2.45061332,0.11845521133333335,11.406709038,-13.065818786333333,6.742444992333333,2.5857915876666664
61,0.5083130000000438,-27.553443273333333,6.115314324666667,-39.40240733333333,-1.1840063633333333,-0.5254361283333333,9.847624619000001,-13.745373723333335,7.6388487813333334,1.173985978
62,0.516646000000037,-27.665649416666668,6.188948790333332,-39.41529336666667,-2.17932417,-0.12695740666666666,10.359308243666668,-13.991100946666668,8.057309151,2.400745987666667
63,0.5249790000000303,-27.787715913333333,6.248860359000001,-39.425163266666665,-1.1767605243333332,-0.5091718236666667,9.957911330666667,-15.229541146666667,6.474990207666667,1.900252382
64,0.5333120000000235,-27.880931216666667,6.315419514999999,-39.43589016666667,-1.4833954973333334,0.35539339966666667,11.697467166666668,-11.744995117,7.176748374999999,2.2558631896666665
65,0.5416450000000168,-27.997594199999998,6.362246513333333,-39.4398041,-1.719685057666667,-0.36089907666666665,10.494808196666666,-14.653109233333334,4.749542074333333,1.8214884203333332
66,0.5499780000000101,-28.091307956666668,6.425102075000001,-39.44635006666666,-1.568936626,-0.24033415333333333,9.657597698333333,-11.848187129333333,6.543538290666667,2.513892412
67,0.5583110000000033,-28.190805436666665,6.472796281,-39.4500885,-1.860292871666667,-0.011552462999999994,12.098622956666667,-12.62382094,4.825650741666666,1.8975456556666668
68,0.5666439999999966,-28.266633990000003,6.528669993,-39.45447539999999,-1.8365077176666667,-0.10445944466666661,10.422277768333332,-9.742320696666667,5.676017343000001,2.364698012333333
69,0.5749769999999899,-28.350999196666663,6.577222665000001,-39.46013896666666,-2.1711763139999998,0.10197872933333334,11.389128047666667,-10.787618953333334,5.016044696333334,1.757862369
70,0.5833099999999831,-28.42504628333333,6.635376930333334,-39.46907553333333,-1.812361439,-0.14877453466666668,9.437459787333333,-9.452665646000002,6.166636387333334,2.047252178
71,0.5916429999999764,-28.484579086666667,6.671526909333333,-39.47192893333334,-1.0427538753333334,-0.21316567033333333,12.027189254666666,-7.857615152666667,3.549774647,1.3416095773333334
72,0.5999759999999696,-28.54064178666667,6.712182045,-39.475682600000006,-1.9476945796666667,-0.06703310200000001,9.811527571333333,-7.358222644999999,4.014545262,1.6201942559999998
73,0.6083089999999629,-28.60084025,6.750620365333333,-39.47495526666666,-1.491546273,-0.637762815,11.056007067666668,-7.974134604,3.5790858693333334,1.8717176516666667
74,0.6166419999999562,-28.655351636666666,6.773225784,-39.474624633333335,-1.1552041966666666,-0.32400265333333333,11.396701492333333,-7.209661960666666,1.8861815546666667,1.0109430253333334
75,0.6249749999999494,-28.709231059999997,6.803060213666666,-39.467292799999996,-1.1422537640000001,-0.586987719,9.200733344666668,-7.329321224666667,2.291556279,2.0735406673333334
76,0.6333079999999427,-28.75654602333334,6.815828005333333,-39.44819136666667,-2.105726182666667,-0.543048829,13.038534163333333,-6.618552287666667,-0.2261393863333332,2.404920657666667
77,0.6416410000001633,-28.81835555666667,6.851743539,-39.442749033333335,-1.6791718950000003,-0.6864106753333333,7.123694419666667,-8.277083554666667,3.045452594666667,2.2022525866666665
78,0.6499740000001566,-28.881406150000004,6.846650918333334,-39.423782366666664,-1.5110528763333333,-0.2967760363333333,13.659269970000002,-8.510795434333334,-2.103987058,1.368081947
79,0.6583070000001499,-28.93528175666667,6.894762198333333,-39.4145457,-2.363475114,-0.2909751136666667,7.436136881333333,-7.422583580000001,4.096736987999999,3.306208848666667
80,0.6666400000001431,-29.008992513333336,6.891870816666667,-39.398106866666666,-1.5077395193333334,-0.7991003093333333,12.320070266666667,-9.760044734333334,-1.730301599,1.237368276
81,0.6749730000001364,-29.057358426666667,6.939852396666666,-39.39687093333333,-1.8938190536666666,-0.09821181033333333,8.214197953333333,-6.615077257,4.535261235,2.4817122223333334
82,0.6833060000001296,-29.13073158333333,6.950658480333334,-39.39033763333334,-1.573912412,-0.6394723556666666,12.987210591666667,-9.587857247333334,0.28184191399999986,0.9992883053333333
83,0.6916390000001229,-29.17832755666667,6.986138502666667,-39.3764852,-1.831778248,-0.1607294306666667,8.704904875666667,-6.643705368,2.501081307333333,3.0689184666666662
84,0.6999720000001162,-29.23342132666666,7.028831005333333,-39.38519540000001,-1.586576601,-0.7083284656666665,11.275549572000001,-7.219471454666667,4.511925856666667,1.2573602696666668
85,0.7083050000001094,-29.27210045,7.025205135666667,-39.35316976666666,-0.7284840739999999,-0.070940862,11.94273281,-5.809877792999999,-2.678019840333334,2.7207618950000003
86,0.7166380000001027,-29.31725947,7.081790606333333,-39.36612193333334,-2.6989224653333337,-1.1150979203333333,7.897457917,-6.003938833666666,6.207443714666667,1.627588391
87,0.724971000000096,-29.374617893333333,7.079245249333333,-39.3296992,-0.8032158093333335,-0.42060054366666666,14.595278423333333,-8.12699175,-2.821288744666667,3.2353257336666665
88,0.7333040000000892,-29.412131626666667,7.111204465,-39.34066263333334,-2.6306483546666666,-0.2966751656666667,6.4702951109999995,-5.098791281666667,3.5120149653333335,0.39656816933333333
89,0.7416370000000825,-29.45248858333333,7.138720830333333,-39.32030486666667,-0.8576746436666666,-0.7375275893333333,13.777414636666668,-5.899731397666667,1.274867495,3.3001891773333334
90,0.7499700000000757,-29.49625524,7.143742879333334,-39.317336999999995,-2.925717155333333,-0.8034393193333335,8.590477626,-5.990073204000001,-0.1473326686666668,0.3161394496666667
91,0.758303000000069,-29.54000791,7.1988790830000005,-39.322428366666664,-0.9839884043333335,-0.7139232953333332,10.248020966333334,-5.993650197666667,5.64631335,2.284670452
92,0.7666360000000623,-29.58996455,7.185772578000001,-39.31474303333333,-2.3648348846666667,-0.23713190333333334,14.18458271,-6.808627923333333,-2.31775538,-0.27140007399999994
93,0.7749690000000555,-29.616762163333334,7.246664206333333,-39.321828200000006,-2.1491256553333336,-0.601430123,5.254399140666667,-3.900190373333333,6.364391484333333,2.428101922
94,0.7833020000000488,-29.641198476666663,7.266602675000001,-39.335075399999994,-1.3541843593333336,0.11192025266666665,15.164671263333332,-3.472142080333333,2.3672847353333335,-0.49056383
95,0.791635000000042,-29.658881506666663,7.2790357273333335,-39.33436330000001,-1.7025088666666666,-0.6503147083333333,7.403296629,-2.8440723020000003,0.8404029213333334,0.39813490733333334
96,0.7999680000000353,-29.67873064666667,7.3381994566666675,-39.36527759999999,-2.4588580133333333,-1.0200745366666666,10.608713784666666,-2.726541618666667,7.508212885666667,-0.023466949666666626
97,0.8083010000000286,-29.703076046666666,7.337242126333334,-39.3635966,-0.8736173113333333,-0.14560174933333336,13.458146730000001,-3.608495503666667,-0.6024967816666672,-0.30137717733333336
98,0.8166340000000218,-29.702050526666664,7.389375687,-39.39245606666666,-2.108708778,-0.8342143443333333,6.097318967333333,-0.24587101699999994,6.64300537,-0.20149445533333324
99,0.8249670000000151,-29.69590377666667,7.415167172666667,-39.40570833333334,-1.030747235,-1.1590581533333333,15.14426772,0.23140748333333327,3.0752924483333337,-0.28150043666666663
100,0.8333000000000084,-29.70388285333333,7.429807822,-39.41083526666667,-2.2049888073333332,-0.17318967100000002,6.062492529666667,-1.601982653,1.3306635913333333,0.05758924266666673
101,0.8416330000000016,-29.70844268666666,7.484085241999999,-39.45498656666666,-1.4454227286666665,-1.7828679083333334,11.396071434000001,-0.6370346149999999,7.882983047666667,-1.8227944373333334
102,0.8499659999999949,-29.714993160000002,7.488057931,-39.45396933333333,-1.6003915963333333,-0.2388677,13.535115876666666,-1.5085932813333336,-0.15600744899999994,0.07927183266666675
103,0.8582989999999882,-29.714256923333334,7.528657436333333,-39.472567266666665,-2.733223359,-0.966810405,5.5183451969999995,-0.3722773116666667,4.943713506,0.027270675000000022
104,0.8666319999999814,-29.707459770000003,7.575402259666667,-39.503807066666674,-1.368689095,-0.30402143333333337,13.642375313333332,0.545122097,6.2216032346666665,-0.7491309540000001
105,0.8749649999999747,-29.70822334333333,7.569369634,-39.50205993333333,-0.7624179673333332,-1.3666086496666667,8.861201127,-0.7915398680000001,-1.115961233,-0.6269767483333334
106,0.8832979999999679,-29.712626776666667,7.612343628999999,-39.524052899999994,-2.8778777123333334,-0.775823786,8.341511886666668,-0.9788096546666667,5.273607889333333,-0.00504181766666667
107,0.8916309999999612,-29.72273445,7.626502513999999,-39.54036203333333,-1.0674622456666665,-1.024456074,14.52615992,-1.664318949,2.0383939743333332,-1.2834782996666665
108,0.8999639999999545,-29.72413126666667,7.615191618333334,-39.53557333333333,-0.9807035626666667,-0.8730656703333333,8.505113285,-0.9737167579999998,-1.9586098986666667,-0.4533079363333334
109,0.9082969999999476,-29.730580646666667,7.633212089666666,-39.56330363333333,-3.0381097,-1.114836564,9.467044987666668,-1.080254773,3.114345391666667,-2.226513187
110,0.916629999999941,-29.736139296666668,7.637082258666666,-39.55953469999999,0.12613332266666674,-1.253131062,12.373258270000001,-1.4738303226666665,-0.33874773966666655,0.3678675093333333
111,0.9249630000001616,-29.75958061333333,7.609297116666667,-39.57131196666666,-2.627358441666667,-0.724570662,8.57010603,-3.3343248566666666,-2.5957851806666667,-3.305188616
112,0.9332960000001548,-29.777225493333333,7.620017687666667,-39.577557899999995,-1.2382893166666666,-1.3362658023333331,10.254818598666667,-2.812071562,0.9916508993333332,-0.30039938299999996
113,0.9416290000001482,-29.793453853333336,7.607372284,-39.602228833333335,-2.9275932710000006,-0.630120784,13.478688873333333,-2.271397928,-0.25691497400000013,-3.7597390806666673
114,0.9499620000001414,-29.818496703333334,7.596665064333332,-39.5945104,-1.6546230016666665,-1.0161208709999998,7.961359978,-3.8618458113333336,-2.0542788506666665,-0.12608613800000001
115,0.9582950000001348,-29.824508666666663,7.616589864000001,-39.63692726666667,-2.4545104106666664,-0.822957615,10.502620698666666,-0.809887886,4.172089298666667,-3.618954062666667
116,0.966628000000128,-29.831209183333332,7.608040492000001,-39.63054656666666,-0.5248816906666667,-0.6405484476666666,12.139455476666667,-1.6319426696666668,-1.7688164713333334,-0.11690332266666668
117,0.9749610000001212,-29.83936119,7.587128321333334,-39.6442286,-2.363958875333333,-0.744203652,7.347231228999999,-1.4688908356666666,-1.7739222049999999,-3.0707668066666667
118,0.9832940000001144,-29.839564643333336,7.597203413666667,-39.6635386,-1.1485369003333334,-1.3495824136666668,12.40339756,-0.4974369306666668,1.7240477399999998,-1.7317656676666668
119,0.9916270000001076,-29.846080783333335,7.560788949333333,-39.667322766666665,-1.325346594,-1.0725907683333331,11.971769015,-1.4284204046666666,-3.966416041,-3.0082424086666664
120,0.999960000000101,-29.84407997,7.549439430333334,-39.6687902,-2.0954180163333334,-0.7230981983333334,8.675832749666666,-0.48760968433333335,-1.5718686579999999,-1.1315132183333334
121,1.0082930000000945,-29.844895679999997,7.5505386990000005,-39.703028366666665,-2.217097958,-1.4355728626666666,11.115697541666668,-0.3319776059999999,1.7323550579999998,-3.908036629666667
122,1.0166260000000875,-29.84254265,7.521693229333334,-39.69998423333333,-0.6601123910000001,-1.195910464,9.908418020666666,-0.4914005993333334,-3.6662851966666667,-1.7054342426666667
123,1.0249590000000808,-29.853363036666668,7.511467139,-39.72437033333333,-3.0419871806666663,-0.9368990309999999,8.273100376,-1.682889859,-0.024637182333333268,-3.5650109449999996
124,1.033292000000074,-29.85794767,7.53512462,-39.7518641,-1.397881925,-1.3018611273333331,12.251797043333333,-0.8726814190000001,3.6007423199999997,-1.7134473126666665
125,1.0416250000000673,-29.86535326666667,7.520000616666667,-39.7676824,-1.6782145103333335,-0.25918905466666664,11.027687074,-1.368662437,-1.0346618093333333,-2.991132339
126,1.0499580000000606,-29.87323888,7.530483245666666,-39.79616293333333,-1.8835013163333334,-1.5431649683333333,7.609871864666666,-1.2328046163333333,2.295236587666667,-2.5872557956666666
127,1.0582910000000538,-29.863362633333335,7.574867725333334,-39.825571700000005,-1.4417346890000002,-0.9942309263333334,13.510752680000001,0.8905301240000001,5.968027243999999,-0.8596051533333333
128,1.066624000000047,-29.879760106666666,7.569624900666667,-39.8434957,-1.706044932,-1.018262684,9.043999036999999,-2.386512558,0.041272958000000116,-2.4550432366666666
129,1.0749570000000404,-29.88991864333333,7.606345335666667,-39.876780200000006,-1.847095887,-1.3560670119999998,9.200722696000001,-1.4640627306666667,5.4148961306666665,-1.7268560730000002
130,1.0832900000000336,-29.902050016666664,7.641555468,-39.9167684,-2.363177930333333,-1.0641715826666667,13.059556963333334,-1.5486282506666669,5.557525187666667,-2.3272711036666665
131,1.0916230000000269,-29.920874916666666,7.655129750333333,-39.939328499999995,-1.4183771510000003,-0.9129019156666667,9.813628515,-2.6160801646666667,2.3539184730000002,-1.9555487633333335
132,1.09995600000002,-29.93050066666667,7.690895239666666,-39.97898353333334,-1.6528555153333333,-1.4128421146666668,8.674783707000001,-1.2491294743333337,5.615840394,-2.270365039666667
133,1.1082890000000134,-29.936353046666667,7.7153204283333325,-40.007135999999996,-0.28241152566666666,-0.309005628,12.215729396666667,-0.9729141393333333,3.816653759,-1.8908984463333331
134,1.1166220000000069,-29.948509853333334,7.708670298,-40.02049,-1.6008268693333332,-1.6442411346666663,9.639092605,-1.9292302526666667,-0.3771607873333334,-2.053873320333333
135,1.124955,-29.95901553,7.718813896,-40.04133096666666,-1.943493108,-1.4022339386666667,8.885099887,-1.6647502879999998,1.906617799,-1.991024375
136,1.1332879999999932,-29.969149273333333,7.724392096,-40.070017500000006,-1.0690547626666667,-0.43420507499999994,12.761844316666668,-1.4851647626666666,1.8012320199999998,-2.919941783
137,1.1416209999999865,-29.987448373333333,7.682979265666667,-40.05825806666667,-0.9288077953333334,-1.9265561303333334,8.742573104,-3.0891197123333334,-5.4035579369999995,-1.69135497
138,1.1499539999999795,-29.98897298,7.674218018666667,-40.072881100000004,-1.8718811673333333,-1.0798787373333332,8.992105802,-0.6833963493333334,-0.5073797406666668,-2.346302231333333
139,1.158286999999973,-29.98844846333333,7.653491814666666,-40.07137553333333,-0.739806539,-0.5682491310000001,11.910224597666668,-0.6863162716666666,-2.6493996776666666,-1.5144715309999999
140,1.1666199999999662,-29.990915936666667,7.596062183333333,-40.0656433,-1.7991019486666666,-2.1297353106666663,9.395945548666665,-1.0872305036666667,-6.772203346,-3.167272647333333
141,1.1749529999999595,-29.99583816666667,7.581709543666666,-40.063916533333334,-2.5612792173333334,-1.1466956533333335,10.435253777666667,-1.3718813856666667,-1.9856115183333332,-1.131090561
142,1.1832859999999528,-30.011931099999998,7.559974034666666,-40.072860733333336,-1.475898067,-0.9506274659999999,12.126118023333333,-2.5270705220000003,-2.20486476,-2.534097433
143,1.191618999999946,-30.03719966,7.516613166,-40.05536143333334,-1.4852748709999999,-1.89377141,11.005312918333333,-3.996042450333333,-5.924295505,-1.256028215
144,1.1999520000001669,-30.057535806666667,7.500342368999999,-40.0540797,-2.0094360906666666,-1.4265820583333333,9.458815575000001,-3.199418723666667,-2.226534525666667,-1.168884317
145,1.20828500000016,-30.082251866666667,7.5090627670000005,-40.05635576666666,-2.0744385916666666,-1.1339437959999998,12.432290394333334,-3.6611920996666663,0.653670788,-0.17488551333333335
146,1.2166180000001532,-30.124354683333333,7.477176348666667,-40.03251646666667,-1.4348292946666668,-1.8873044646666666,7.925458112,-6.1445264816666665,-5.198430538,0.22095263
147,1.2249510000001465,-30.160486856666665,7.480264346000001,-40.033076,-1.8270332416666666,-0.8662095416666666,7.638839880666667,-5.105971416,-0.048005739666666804,-0.30953094600000003
148,1.2332840000001395,-30.22134717333333,7.470833301333333,-40.0273183,-1.5162016873333333,-1.577074667,12.627969106666669,-8.131081739333334,-1.7905715703333334,-0.298730294
149,1.241617000000133,-30.265501023333332,7.4529627163333325,-40.00128936666666,-1.4049337903333334,-1.619327426,8.793396472,-6.390021801,-3.804542104333334,1.1651403533333333
150,1.2499500000001262,-30.310103100000003,7.479686737333334,-40.0222015,-3.1207632220000003,-0.0007392416666666679,8.918799241333334,-5.814666589000001,3.559726477,-0.8688306413333334
151,1.2582830000001195,-30.349322,7.493014494666667,-40.0135422,-0.1337922013333334,-1.8858782449999998,13.977514903333335,-5.559574286,0.4610095706666666,1.2553281136666667
152,1.2666160000001128,-30.392606733333334,7.503168583,-40.01476796666666,-3.5238446789999998,-0.9746604166666666,6.295052210666667,-5.927104870666667,0.6563093663333334,0.16667177299999994
153,1.274949000000106,-30.437220890000003,7.574521382666667,-40.04072573333333,-1.6093175610000001,-0.5402823336666667,10.615018845,-5.723753293333334,8.556117216666665,1.2154216170000003
154,1.2832820000000993,-30.465370179999997,7.5996656416666655,-40.045336400000004,-1.7463547983333336,-1.304790934,14.282981873333334,-4.008862733666667,2.4011682676666664,0.749536554
155,1.2916150000000926,-30.48684629,7.683015664333333,-40.07333376666667,-2.2645575606666664,-1.50285693,5.006727854333334,-2.8748950956666666,9.940404655,1.7270701926666667
156,1.2999480000000858,-30.497631706666667,7.800675233333334,-40.10041553333334,-1.7256559926666666,-0.4628566103333333,13.6733373,-1.6205276746666666,13.316041786,4.076719760666666
157,1.308281000000079,-30.515110649999997,7.878675937333334,-40.115999833333326,-2.3321490513333334,-2.038249572333333,7.915331204666667,-2.534024953666667,8.633398375333334,2.6873688496666666
158,1.3166140000000723,-30.521757763333337,8.057905196999998,-40.16702016666667,-2.415460983666667,-0.3013580593333333,8.626437188333334,-0.7672389746666667,21.13260126133333,5.353677431666665
159,1.3249470000000656,-30.537574766666665,8.180627823,-40.19513446666667,-1.8267303013333336,-1.1092075506666668,13.581665039999999,-2.118025223666667,13.980774560333332,4.183940808333333
160,1.3332800000000589,-30.52068901,8.37266922,-40.23658753333334,-2.852958868,-1.1607411903333333,4.921840032333333,1.9810116093333334,21.877693493333336,7.139143785000001
161,1.341613000000052,-30.488983790000002,8.585843245000001,-40.29685213333334,-1.4637804153333331,-0.6205793866666666,13.442466736,4.133927305333333,25.283871333333334,6.369658629333333
162,1.3499460000000454,-30.430730819999997,8.780310948666667,-40.320922833333334,-1.5749751826666667,-0.8353819053333335,9.502614814666666,6.7275393013333336,21.08450921,9.088268278666666
163,1.3582790000000386,-30.349524180000003,9.032673517666668,-40.391540533333334,-3.092258831,0.2920006116666667,7.069083531666666,10.312836090666666,29.98363304333333,7.617145061666666
164,1.366612000000032,-30.21792666,9.271518707333334,-40.4172821,-1.5305503606666668,0.688925296,15.790322306666667,15.579485256,25.81467692,11.543596586333331
165,1.3749450000000252,-30.024030046666667,9.533607166000001,-40.47195943333334,-2.7646513680000004,-0.23185553133333334,5.726627985666667,23.62266,30.085203166666663,9.695745946666667
166,1.3832780000000184,-29.771220523333337,9.809535347333332,-40.50109356666666,-1.1471541126666667,1.781063159333333,12.920258519999999,30.197144830000003,29.96956316666667,13.186864216666669
167,1.3916110000000117,-29.443220773333334,10.077801065666668,-40.54019416666667,-2.6330726940000004,0.7485827803333333,9.971496901666667,39.46588007666667,29.88107872,11.427272479
168,1.399944000000005,-29.046573003333332,10.347210250000002,-40.559605899999994,-0.8143179816666667,0.19278799466666666,9.861905733333332,47.30109278333333,28.893808363333335,13.471805253333335
169,1.4082769999999982,-28.56550916,10.606630959666665,-40.586977633333326,-2.1365494133333334,2.3360253173333336,9.928321201333333,57.63319269666667,28.453273773333336,11.743941943333335
170,1.4166099999999917,-28.00067520333333,10.86837578,-40.599494933333325,-0.568704923,0.51837796,9.863341175333334,67.35887273333333,27.93554433,13.282134056666665
171,1.4249429999999847,-27.35706711,11.077505113333332,-40.587832133333336,-1.199644501,0.39832928533333334,10.66268635,76.29196929666666,21.187489826666667,12.579147659999999
172,1.433275999999978,-26.641613643333333,11.31943512,-40.580014533333326,-1.5192232826666665,1.558307449,8.156222820333333,84.97562155333333,25.05967013,13.648138046666666
173,1.4416089999999713,-25.834770203333335,11.502059936666667,-40.5348714,-0.3752751946666666,1.0903754233333334,14.450662293333332,95.0903244,16.946670534333332,14.168423336666665
174,1.4499419999999643,-24.936419806666667,11.680823963333333,-40.48460133333334,-1.3670068579999999,0.32745181999999995,7.9037580489999995,105.93421682333333,16.49012947,14.306554156666666
175,1.4582749999999578,-23.946020126666667,11.842045149999999,-40.407114666666665,-1.2232034006666666,1.821721673,12.064925827333333,116.27423859999999,13.481571512666667,15.92838796
176,1.466607999999951,-22.864617666666664,11.969619433333333,-40.309837333333334,-0.8756569129999999,0.6387915413333333,11.902964593333332,126.70991513333331,9.154456375333334,16.362558046666667
177,1.4749409999999443,-21.70420392666667,12.070533116666667,-40.18415323333334,-1.3908108073333334,0.778405845,10.640158333,135.4355977333333,5.262718091,17.91726589
178,1.483274000000165,-20.45581818,12.165186243333332,-40.05730186666667,-1.6226133406666667,1.0858278673333333,11.75852871,145.96061706666669,4.921229124999999,17.68226496
179,1.4916070000001582,-19.114283563333334,12.244866053333332,-39.902799,-0.419250667,0.4501973143333333,11.946551323333333,156.37675473333334,2.5043572983333333,19.850934346666666
180,1.4999400000001517,-17.70534229,12.28039805,-39.7426046,-1.6830403206666666,0.3188447756666667,9.230643908333333,164.3340047,-2.258029009,18.960358303333333
181,1.5082730000001447,-16.239559173333333,12.328592936666666,-39.56560516666666,-1.604947845,-0.048944061000000004,10.604630152,170.61331176666667,-0.9627327323333331,21.222993216666666
182,1.516606000000138,-14.733515423333335,12.305047986666665,-39.3855489,-0.8990279833333332,-0.44720240433333336,12.86997922,175.45543416666666,-8.763991275,19.53261566
183,1.5249390000001313,-13.172504424333335,12.300936063333333,-39.1878077,-1.7871001363333334,0.298230315,9.077355545333333,181.51200356666666,-6.512946128666667,22.109963736666668
184,1.5332720000001243,-11.588324386666665,12.241154989999998,-39.006121333333326,-0.49607025200000004,-1.0950066843333335,14.487126033333332,184.7699941,-12.059440136000001,19.11402003
185,1.5416050000001178,-9.970554511,12.173306783333336,-38.801859533333335,-2.020922422666667,-1.1249697803333334,10.004399935999999,188.22218323333334,-12.882115684333334,21.76214663
186,1.549938000000111,-8.361026286333333,12.080094973333333,-38.61793773333333,-0.8675852916666665,-0.7889707286666666,9.848639488333333,187.7855784,-14.984710373666665,19.202514646666668
187,1.5582710000001043,-6.721564929,11.95000108,-38.431777966666665,-0.5724434453333334,-1.713217099666667,13.91483625,191.35038246666667,-18.740042689000003,19.500188193333333
188,1.5666040000000976,-5.081465482333333,11.813926696666668,-38.2451655,-2.1468354463333337,-1.1976746319999998,10.615406672333334,191.46668499999998,-19.03925323333333,19.722572963333334
189,1.5749370000000908,-3.448406249,11.646419526666667,-38.0778656,-1.3556650479999999,-1.5368482666666665,13.331920623333334,191.1531067,-21.908570609999998,17.973800023333336
190,1.583270000000084,-1.8305227756666664,11.440990765666667,-37.90500133333334,-0.5342838066666666,-2.1416678823333335,12.827117920000001,189.27847796666666,-26.05492846333333,18.860273359999997
191,1.5916030000000774,-0.23541935299999994,11.227114040666669,-37.751503,-2.0015814703333334,-2.0511623623333333,9.659871420666667,187.05410766666668,-26.424144106666663,17.30137634333333
192,1.5999360000000706,1.3267031413333334,10.979298907666665,-37.59790036666667,-0.40276453900000003,-1.8178542753333335,11.769281068,183.16548666666665,-30.10600725666667,18.09013366666667
193,1.608269000000064,2.8586708903333338,10.701717375666666,-37.47583263333334,-0.7757268496666666,-3.5735425949999997,11.019784451,180.31363933333333,-33.24059550333333,15.301693916666665
194,1.6166020000000572,4.329237858666667,10.427652679333333,-37.35868326666667,-1.8241395553333335,-2.420353929333333,14.285082815666664,173.12653606666666,-32.56477419666667,15.361427309999998
195,1.6249350000000504,5.732079347,10.125103632333333,-37.26418303333333,-1.0812795556666666,-2.7066816486666667,11.223548254333332,165.54322813333332,-35.65200678666667,14.091709136666665
196,1.6332680000000437,7.092511813333334,9.793985999666667,-37.19579826666667,-1.014973581,-3.967284361333333,10.981969199333333,161.07656863333332,-39.17348607333333,11.919348718999998
197,1.641601000000037,8.401490688666668,9.482262610000001,-37.13912200000001,-2.173557003,-3.2366905213333332,11.58314069,155.18965146666667,-36.598124186666666,11.33206145
198,1.6499340000000302,9.619955062333334,9.124105452666667,-37.10477956666667,0.0451634426666667,-3.0370221936666666,10.227067946,144.7784195,-42.40814463333333,10.297225474333333
199,1.6582670000000237,10.745008149999999,8.810980955666667,-37.089907333333336,-3.4500846463333326,-3.8058235643333336,11.478927453666666,134.03513336666666,-37.052972790000005,7.8949252759999995
200,1.6666000000000167,11.797440213333333,8.461062908,-37.068456033333334,0.5773837966666665,-2.9138288896666666,13.92745654,125.17271676666667,-41.21675745666667,10.249306998
201,1.67493300000001,12.78073756,8.161471843666668,-37.08367916666667,-3.958796779,-2.782960772333333,9.515717983333333,117.59722648000002,-35.88465627,5.319673856
202,1.6832660000000033,13.686065036666667,7.821669419666667,-37.062301600000005,0.8589462636666667,-4.5075794060000005,13.227505682999999,107.57521310999999,-39.60467910666667,11.34788831
203,1.6915989999999963,14.518078169999997,7.548187732666666,-37.088343300000005,-4.490760724,-2.8021831113333335,6.942682743333333,99.60676572,-32.95436859,4.4529489280000005
204,1.6999319999999898,15.26721096,7.228596687333333,-37.071535733333334,1.7650695643333334,-2.7443940639999997,12.142938612,88.92675527333334,-37.018217086666674,11.418837229666666
205,1.708264999999983,15.96934986,6.996830940333333,-37.0853068,-5.150694768,-3.303492863666667,10.789584000666666,83.80843353333334,-27.625376860666666,5.3522022563333325
206,1.7165979999999763,16.592206320000003,6.7118121786666665,-37.06596629999999,1.1977226236666667,-2.6633354029999996,12.616140044333333,73.77229054666667,-32.64450518,11.396227041666668
207,1.7249309999999696,17.131313323333334,6.501731236666667,-37.08284503333332,-4.498763323,-2.8697432676666668,10.041654268666667,64.25005086333333,-25.11655489333333,4.952882170666666
208,1.7332639999999628,17.632853826666665,6.287918567666666,-37.05003863333334,-0.30415870766666675,-3.254240036,11.043440979000001,59.05742009666667,-23.78672091,10.933002474666667
209,1.741596999999956,18.06803766666667,6.106524467666667,-37.052477533333324,-3.616761123,-2.3254804213333333,9.542177202666666,51.563809713333335,-21.212430953333335,6.0568482086666675
210,1.7499299999999494,18.44054031,5.945112705,-37.02495066666666,0.4866343736666667,-2.326726078666667,9.544483501333334,43.68033409,-17.82142448333333,8.713579814666666
211,1.7582629999999426,18.750005723333334,5.785019079666665,-37.02650706666667,-3.3439162773333333,-2.5218065976666666,6.267251969,36.44578806333333,-18.67391205,5.675526142
212,1.7665960000001633,19.02255948,5.658834775333333,-36.99308266666667,1.3065159320000002,-2.425977865666667,12.189799945333334,31.640911103333337,-13.481776396666666,8.215552965999999
213,1.7749290000001563,19.220418296666665,5.503461837666666,-37.005259200000005,-4.1433207990000005,-1.6861488623333336,13.084364253666669,23.182188351999997,-18.49947579666667,4.451749880666667
214,1.7832620000001498,19.389577866666666,5.414790948333334,-36.96596016666667,0.2509053546666667,-2.347537716333333,9.819024246,19.191167388666667,-8.931009247666667,7.499468962333334
215,1.791595000000143,19.540939333333338,5.331120808666667,-36.94760386666666,-3.9215776919999996,-1.715558012,10.833602827666667,17.279704412,-9.153144358333334,5.073105891666667
216,1.7999280000001363,19.654549916666667,5.250330925,-36.913426699999995,1.7939147156666666,-1.3299076793333333,6.5342762279999995,12.589179277666666,-8.260691404333334,6.543081283333334
217,1.8082610000001296,19.72647222,5.184555530666667,-36.886876433333335,-3.5126455623333332,-1.6325920026666667,6.064018727,7.662469546666666,-6.783504007666667,5.298881054
218,1.8165940000001228,19.76299858333333,5.082363525999999,-36.8576762,1.076002757,-1.1824929020000001,8.920845827666668,3.3976391156666668,-10.860668739666666,6.895191510666667
219,1.824927000000116,19.807209013333335,5.030526479,-36.8283056,-3.411234617,-0.537674919,14.700396379999999,4.3250157536666665,-5.096723434,5.015840292
220,1.8332600000001091,19.833661396666667,4.923318226999999,-36.79722853333333,1.1386259993333332,-0.9350406926666667,14.516052246666668,2.1655770936666667,-11.34213594766667,7.3328447343333325
221,1.8415930000001024,19.867991763333332,4.862910827333334,-36.766461699999994,-2.9247314136666667,-0.435595798,8.643143573,3.145322402,-5.998002638999999,5.529482921
222,1.849926000000096,19.92269707,4.764501651,-36.743642166666675,0.3029705383333335,-1.1124576333333334,6.5260505669999995,5.616141319333334,-10.680100757666665,6.087165117333334
223,1.8582590000000887,19.98070081,4.692561149666666,-36.70623526666667,-1.8045056863333333,-0.40009458866666653,9.43560044,5.922042732666667,-6.990163168333333,6.8400530816666665
224,1.8665920000000824,20.00543594333333,4.540908972666666,-36.71681973333333,0.6116072936666667,-0.05053848033333338,9.626933258333333,2.323930263333333,-18.023703733999998,4.607763131333333
225,1.874925000000076,20.036854426666665,4.4511977830000005,-36.69005836666667,-2.0990353623333333,-1.4488129613333334,5.575608253666666,2.8714371523333333,-9.405980279333333,6.395798206666666
226,1.883258000000069,20.124787013333332,4.276332855333333,-36.71301523333333,0.5064702433333333,0.3352882473333334,15.42860635333333,9.996535300333333,-21.11701393,4.288311322333334
227,1.8915910000000624,20.206183749999997,4.157836357666667,-36.708089199999996,-1.8310289386666667,-0.6170811653333333,8.828309057666667,9.100374220666668,-13.535350799666666,5.119569778333333
228,1.8999240000000557,20.302428563333333,3.9413863023333335,-36.7485377,1.0659345783333334,0.6005633276666668,11.054881412999999,11.100614387666667,-26.523987766666668,4.118655165
229,1.9082570000000487,20.40554873,3.810967366,-36.74516296666666,-3.3348258729999998,-1.593638917,5.100315650333333,11.785387836333333,-14.903082845999998,5.458284218666666
230,1.916590000000042,20.52644221,3.545514424666667,-36.80953723333334,2.3400241139999998,0.566415716,15.379742306666666,14.161516826666665,-33.03798548333333,3.60630091
231,1.9249230000000352,20.65285873666667,3.3860300383333333,-36.82773336666666,-4.103732347666667,-0.7493236463333334,6.606825987666666,14.76437569,-19.040844283,4.318801077333333
232,1.9332560000000285,20.775772093333334,3.1111002759999997,-36.88699596666667,2.9919077953333333,-0.8056379953333334,12.94529343,14.332559906666667,-33.888060886666665,4.662941931
233,1.9415890000000215,20.924833933333332,2.9145859083333328,-36.93550113333333,-6.131451209333334,-0.5230932039999999,8.591990551333334,17.606492993333333,-24.455272355333335,2.664607012333333
234,1.949922000000015,21.06393242,2.667261481666667,-36.97187043333333,3.110552907,-0.06639977299999995,13.52143701,16.12286059,-29.79778989,6.128673394
235,1.9582550000000083,21.192200343333337,2.4176661373333332,-37.067270900000004,-3.827971975,-1.5830134153333333,9.911751907666666,15.290923116666667,-32.41636594333334,-0.15390849099999984
236,1.9665880000000016,21.325665156666666,2.1879954736666667,-37.094388333333335,1.031404217333333,-0.496886303,5.342273254999999,15.404491901333335,-27.38637511,6.490628404333333
237,1.9749209999999948,21.46224721333333,1.9454893469999999,-37.1899694,-3.438008229,-0.024988184333333423,17.65768878,16.218949,-31.627163570000004,-0.34332656899999997
238,1.983253999999988,21.564522426666667,1.6897147200000002,-37.237838733333334,1.1105424563333333,-2.252235452333333,3.1478319166666666,11.697549500333333,-31.172140756666664,5.474721907999999
239,1.9915869999999811,21.66822433333333,1.5259028226666669,-37.318028766666664,-5.623093526000001,-0.479303022,14.323047953333331,12.189867021,-22.17936198,-2.0681737263333333
240,1.9999199999999744,21.772435503333337,1.2575271526666667,-37.35053,2.4915914933333334,-0.19430759066666667,10.799477575333334,11.813359260333334,-31.856109616666668,7.911628085333334
241,2.008252999999968,21.84688377666667,1.0892245473333333,-37.44197843333333,-4.576700886333334,-1.2649156746666668,8.136268457,8.625668047333333,-23.196228029999997,-3.0368863743333327
242,2.016585999999961,21.933860143333334,0.8893741766666666,-37.45454660000001,1.2475932440000002,-0.6323267716666666,9.979611872666666,9.741168497333334,-23.316198983333333,7.074722250333333
243,2.0249189999999544,22.009102506666665,0.733211845,-37.52841949999999,-4.004644472666667,-0.37016121533333335,10.611016114333333,8.573934555333333,-21.079199793333334,-1.5576111476666668
244,2.033251999999948,22.04884338333333,0.537634651,-37.5525055,1.0777360596666667,-0.9822759826666667,11.947154045333333,4.09192879,-23.31977335666667,5.701984743333334
245,2.041584999999941,22.09998321333333,0.45211698633333336,-37.59710186666667,-4.5440410773333335,-0.07330642133333336,14.201501843333332,5.589758157666666,-11.907143593,-1.431896528
246,2.0499180000001616,22.150064466666667,0.31599732233333333,-37.59205626666667,0.6082574129999999,-1.290152848,11.728291194,5.345156014,-15.369339741666666,6.258525331666667
247,2.058251000000155,22.20004908,0.24139958633333336,-37.64080046666667,-4.044303337666666,-0.8700971373333334,10.552634239,5.37672774,-10.907461643666666,-2.3537947333333333
248,2.066584000000148,22.22900645,0.14622773733333333,-37.6203308,-0.23209834133333315,0.0006007153333332793,10.564617633666666,2.8239869086666665,-10.109677633333334,6.123212417
249,2.0749170000001413,22.23194503666667,0.16187021133333332,-37.6244405,-3.7438170063333334,-1.010267536,8.882282258666665,-0.27667641633333345,1.1238032976666668,-1.539005776
250,2.0832500000001346,22.251652399999998,0.139359325,-37.59575396666666,-0.5995166303333334,-1.387362619,6.3189193406666675,1.7104207673333331,-1.6495219883333334,3.7590429783333335
251,2.091583000000128,22.27484131,0.1731310586666667,-37.58296966666666,-1.959770852,0.33176511533333336,9.094131469666667,2.1207777660000002,3.899349133333333,-0.4572566150000002
252,2.099916000000121,22.286542893333333,0.20501730833333334,-37.54603323333334,-1.6077838343333335,-0.3524808686666667,12.892490066666667,0.7564393876666667,4.755950292333332,2.1535341740000002
253,2.1082490000001144,22.29372406,0.29341255633333335,-37.5051702,-0.5698649883333333,-0.7161859869999999,10.303399561333334,0.18164745966666684,11.232663471333334,0.15318596366666667
254,2.116582000000108,22.31402651666667,0.3251497546666667,-37.46819813333334,-1.792304694666667,-0.008063872333333352,11.862172443333334,1.772449573,4.74306496,2.206136931666667
255,2.124915000000101,22.353932696666664,0.4199801383333333,-37.43618519999999,-1.5136208943333331,0.32967127366666665,14.491751353333333,4.090935667,11.546950657000002,-1.122142792
256,2.133248000000094,22.39404233333333,0.48531059899999995,-37.3817164,-1.0198556583333336,-0.2230736166666667,12.59386158,4.111225923,9.279274067000001,2.596749851333333
257,2.1415810000000874,22.422259646666664,0.5745811513333333,-37.34351856666667,-0.5712396903333333,-0.7976547876666666,6.3908899623333335,2.6845944426666666,11.192927042333332,-0.22636147333333323
258,2.1499140000000807,22.45586077333333,0.6673186933333333,-37.292310066666666,-2.1332915226666667,-0.1169624973333333,11.609452248000002,3.301824638,12.168061893666666,0.9891836643333334
259,2.158247000000074,22.49773852,0.7470255260000002,-37.240364066666665,-0.31651224699999997,-0.9093458453333333,10.784095445,4.286320706000001,10.771351498333333,1.7300411213333333
260,2.1665800000000672,22.52954673666667,0.8131164513333333,-37.20219423333332,-1.0546998433333334,-0.45588118833333335,6.986821494,3.089486996333333,8.615853865333333,0.771726847
261,2.1749130000000605,22.567093529999998,0.8901001013333333,-37.161181166666665,-1.364545415,-0.47312887533333337,9.305371285333333,3.770898342,9.966457527333333,0.6314421993333333
262,2.1832460000000538,22.605556489999998,0.9361958356666666,-37.128051766666665,-1.1099186736666664,0.20333723733333334,11.998048463666668,3.880053083,6.164979457666665,1.1103173096666665
263,2.191579000000047,22.629873276666668,0.9703318823333333,-37.101386999999995,0.4696400186666667,-0.5918803213333333,7.088364919,2.2019490079999997,4.573477069666667,1.0448218186666667
264,2.1999120000000403,22.67305247,1.0027653673333334,-37.089233400000005,-1.7411048813333334,-0.8777035476666666,10.599185624333332,4.478776872,3.678618421,-0.579069622
265,2.208245000000033,22.723363239999998,1.0063563236666668,-37.062166833333336,-0.12013947966666667,0.16159336766666668,13.204291976666667,5.326740816333333,1.2176415123333333,2.485058904
266,2.216578000000027,22.751247406666664,0.9910365246666667,-37.07508086666666,-0.8762221956666666,-0.7353938123333333,7.908158301333333,2.690779527,-2.7688477836666667,-1.139521862
267,2.22491100000002,22.786338170000004,0.9620812223333334,-37.073753366666665,-0.28000992533333324,-0.935606666,9.449869156666667,3.544976155,-3.5729083206666665,1.1700753966666668
268,2.2332440000000133,22.822397233333334,0.9044899470000001,-37.09321846666666,-1.3679422936666665,0.273093447,11.894798913333334,3.6771034396666664,-7.719030143,0.1775454333333332
269,2.2415770000000066,22.829419456666667,0.8596288563333333,-37.10325113333334,-0.4203498763333333,-1.195017914,8.339684168666667,0.23684620866666664,-5.8674576279999995,0.5895372626666667
270,2.24991,22.828329083333333,0.7681865393333333,-37.146952299999995,-1.2544664890000001,-1.043825507,10.896027404666667,-0.7512059213333334,-12.622223853000001,-0.985055586
271,2.258242999999993,22.81348800666667,0.6981052953333334,-37.159037266666665,-0.3272821903333332,-0.23856870333333327,13.014110246666666,-2.3898085840000003,-8.728423119,1.5960445403333334
272,2.2665759999999864,22.793940223333333,0.6064939403333334,-37.19922893333334,-2.062033325666667,-1.1462430753333333,9.622224968,-2.9566000053333332,-12.458137193333334,-0.5767729279999999
273,2.27490899999998,22.77683194333333,0.5276568333333334,-37.2132365,-1.0489443936666667,-0.6247762043333333,11.541881560666667,-2.663112084,-9.781903108,1.7972527343333333
274,2.283241999999973,22.74164963,0.42340719699999996,-37.249186200000004,-1.649425307666667,-0.38790160433333337,9.273160934666665,-4.849966684999999,-13.666499615666666,0.45269763766666654
275,2.291574999999966,22.685132346666666,0.33914446833333334,-37.257769266666664,-0.37352693099999995,-1.5333142676666667,9.346330482666666,-7.374386469666665,-10.144762676333334,2.6073379119999998
276,2.2999079999999594,22.63132794666667,0.219529291,-37.300079333333336,-2.1686286530000003,0.20141050466666668,10.633653800666666,-7.137250084000001,-15.67111365,0.4404670396666666
277,2.3082409999999527,22.569342296666665,0.13854136066666667,-37.300855033333335,-0.1220999556666665,-0.8903624763333334,12.684739113333334,-8.040202934,-9.419367314666667,3.3192085423333335
278,2.316573999999946,22.515999476666668,0.019134183666666676,-37.33746336666666,-2.3927495876666667,-1.2240563133333333,8.792697588333334,-7.088353316,-15.383738836666666,1.039088527666667
279,2.3249070000001666,22.44505882,-0.054601312000000034,-37.3424123,-0.9251300423333332,-0.3408656416666667,11.853326162,-9.116326012333333,-8.815700173333333,2.500440557
280,2.33324000000016,22.37181155,-0.16673327999999998,-37.36827853333333,-2.4136389890000003,-0.120448927,11.19286982,-9.478878817666667,-14.090306360333335,1.8491317433333334
281,2.341573000000153,22.292957943333334,-0.211955254,-37.36134083333333,-1.3235117693333331,-1.3955332043333335,8.495121638,-10.024990080666667,-5.108635584333333,2.5038218296666663
282,2.3499060000001464,22.213877359999998,-0.3032617806666667,-37.388239533333326,-2.6163481076666666,0.23066443199999997,11.648187000666667,-10.204948902,-11.832785448333333,0.7556846139999998
283,2.35823900000014,22.12665558,-0.3174347726666667,-37.365361566666664,-1.569114049333333,-0.5719913936666667,10.891862553333333,-11.020283381666667,-0.9470778703333336,2.848914147
284,2.366572000000133,22.036891936666667,-0.36024252566666676,-37.36598206666667,-2.572866201666667,-0.1891084116666667,9.843770026666666,-11.430307071333333,-5.269020873666666,1.4401219689999998
285,2.374905000000126,21.95082537,-0.3453307696666667,-37.349431333333335,-1.0996087986666667,-0.9431298573333334,10.600683051999999,-10.935245197999999,1.9873666366666667,0.8152884896666664
286,2.3832380000001194,21.85968272,-0.35800854866666665,-37.32426963333334,-2.3398327826666665,0.9658720493333334,11.73067538,-11.603793144333332,-0.7713122376666668,2.9194892243333332
287,2.3915710000001127,21.769338609999995,-0.2956917506666667,-37.29940286666666,-1.5037295223333331,-1.898018519,9.859897455,-11.400022826666666,7.633794943666667,-0.3645753873333331
288,2.399904000000106,21.69069417333333,-0.28973836466666664,-37.276011133333334,-1.8456711769999998,0.24844519799999998,9.473333040666667,-10.135012307333334,1.1835911966666666,1.8280754090000004
289,2.408237000000099,21.614676156666672,-0.20199819166666666,-37.23468016666667,-1.176937709,-0.16645430999999997,12.13287862,-9.679821967333334,11.194337209666665,0.35847981633333337
290,2.4165700000000925,21.543790183333332,-0.17191183133333332,-37.20230359999999,-2.2257934413333333,-0.44976224533333337,10.038994154666668,-9.189394634333333,4.264100871,1.763749758333333
291,2.4249030000000857,21.477496463333335,-0.07857397166666669,-37.17429606666667,-0.8833231926666668,-1.0211375556666666,10.388190585666665,-8.555810770333332,11.222940603333333,-1.3554720080000002
292,2.433236000000079,21.416831333333334,-0.029717360666666675,-37.12770843333334,-1.7753692469999998,1.3788646479999997,12.846840223333333,-7.942091465,6.966908456,2.5241328873333333
293,2.4415690000000723,21.365881603333335,0.06949086,-37.10625713333333,-1.0399924516666665,-2.0445490283333334,9.497453371666667,-6.738402843333334,11.614889462,-2.2858581543333334
294,2.449902000000065,21.320657093333335,0.11463994766666669,-37.06956226666666,-1.8597598870000003,0.5115051566666667,11.003516989,-6.141239962333334,6.11251398,1.5816402433333339
295,2.458235000000059,21.278414406666666,0.233245025,-37.03675843333333,-0.8104812056666667,-0.10709808266666669,12.699543953333333,-5.660555203666667,14.274628956666666,-1.8630261423333332
296,2.466568000000052,21.23496183,0.2755583326666666,-37.00127406666667,-2.283384164333333,-0.27046297,8.985033353,-5.922980944333333,5.740688403666667,1.5698496503333335
297,2.4749010000000453,21.196110406666666,0.408352733,-36.968564366666676,-1.2765223583333332,-1.2125619450000003,11.491891383999999,-5.267189592,15.86246522333333,-2.470638116
298,2.4832340000000386,21.15792338,0.4858773573333333,-36.911582966666664,-1.6134607000000003,1.1249463356666667,11.831390063333336,-5.306712150666667,10.599712373333332,2.4167915976666667
299,2.491567000000032,21.121175769999997,0.6194265806666667,-36.8720652,-2.6000495156666665,-1.515921881,8.309717338333334,-5.04327786,16.229149179999997,-1.7475573219999998
300,2.499900000000025,21.08292389,0.7435195843333333,-36.7934087,-0.8864161893333334,0.12188578666666666,12.507007913333332,-5.377176841,16.741599720666667,2.8317766186666673
301,2.5082330000000184,21.05240249666667,0.9091764493333333,-36.747253433333334,-2.8768684866666665,-0.49796928199999996,9.121754804333333,-4.342310190333333,20.117001533333333,-2.3368643123333332
302,2.516566000000012,21.01202583,1.047312399,-36.65253956666667,-0.9393231670000001,-0.323823919,10.720070994666665,-5.720434189,19.006265956666667,4.0755119330000005
303,2.524899000000005,20.977514266666663,1.2597810626666668,-36.60494993333334,-2.7189020913333337,-0.38788696133333334,11.698791185666666,-4.861632108666666,25.423545833333332,-4.170853694333334
304,2.533231999999998,20.939091996666665,1.4191582996666667,-36.50332386666667,0.39583114766666655,-0.729288856,9.688587982666666,-5.575661977,21.679635363333333,3.9796988170000005
305,2.5415649999999914,20.909641903333334,1.644246022,-36.46830493333333,-3.7060592966666666,0.16755486033333333,11.380709010333334,-4.262067476666667,26.275527956666668,-6.139304955666667
306,2.5498979999999847,20.86434046333333,1.8181703883333336,-36.36232503333334,1.1152763963333334,-0.9199810029999999,11.520617166,-6.484088897666666,23.497377396666668,3.8572540780000004
307,2.558230999999978,20.82080523333333,2.030271967,-36.34196216666666,-2.9240311783333333,-0.9750949740000001,9.467792194,-5.9348139909999995,24.206192653333332,-7.153390089666666
308,2.566563999999971,20.781716030000002,2.2029218276666667,-36.23929343333334,0.00386666266666665,-0.008599321000000012,10.652468522333333,-5.803757349666667,23.21572177,3.5782852173333333
309,2.5748969999999645,20.74098142,2.3903025783333334,-36.23356119999999,-2.0148341456666667,-0.6083187856666666,11.882185299,-5.543490489333333,20.816622416666664,-7.696445148333333
310,2.5832299999999577,20.698397316666668,2.5482843716666665,-36.146197,-0.06745097533333329,-0.33128623166666665,10.483733495666668,-6.212714036333334,20.924517313333336,2.519489924333333
311,2.591562999999951,20.624439236666664,2.7171818416666667,-36.1340154,-1.7872637806666667,0.08289484166666661,11.612430890666666,-9.586088656666666,19.01961549,-6.148631016333333
312,2.5998959999999443,20.556038536666666,2.8740893203333333,-36.05789693333334,-0.8924866516666666,-1.0198277830000002,11.434116361333333,-9.290949663333333,20.318324089,1.3237321376666666
313,2.608229000000165,20.472623186666667,3.0140961013333336,-36.03763326666667,-2.0231321456666667,-0.7019811173333333,9.831271806333334,-10.780971527333334,16.142464001666667,-3.943961898333333
314,2.616562000000158,20.397979736666667,3.1485109330000003,-35.9900131,0.12797205666666667,-0.4414349796666666,9.252328713666666,-9.888443313,16.592949866666668,-0.8728345436666668
315,2.6248950000001514,20.330561956666667,3.2647713026666665,-35.9709727,-1.8776877226666666,0.5410874983333334,12.17824936,-8.875288644333333,13.422581831333332,-3.0583314099999996
316,2.6332280000001447,20.240848543333332,3.3948535920000005,-35.9214198,-0.8333656736666667,-0.9868176706666668,10.124554317666666,-11.725291569333331,16.192815146666664,-0.4182200036666665
317,2.641561000000138,20.134016033333335,3.507062991333333,-35.89694466666666,-1.6394613783333334,0.551475505,11.060892742666667,-13.66141383,13.205228012000001,-2.2260998886666665
318,2.649894000000131,20.036724090000003,3.594872236,-35.871457400000004,-0.7384999393333334,-1.4523435036666665,9.496952058,-12.497432076,10.431040605,-1.3317863739999998
319,2.6582270000001245,19.961567560000002,3.6759388446666663,-35.84467316666667,-0.4734943906666667,0.10736934566666669,12.19012737233333,-9.885179520333333,9.782351174333334,-0.6800750493333331
320,2.6665600000001177,19.87729072666667,3.739854256333333,-35.84101106666667,-1.9886690976666666,0.36743704499999996,12.006432533666667,-10.763799351333333,6.845952512333334,-2.7846693993333336
321,2.674893000000111,19.768876393333333,3.842014392,-35.80734506666666,-0.2978717086666667,-0.09990110000000002,8.630595842333333,-13.932615596666666,12.468809287333334,-0.6754691776666668
322,2.683226000000104,19.66950670666667,3.8950886726666667,-35.834353166666666,-2.122471293,-0.67656902,10.847229004999997,-12.351455370666665,4.438452740333333,-5.635000943666667
323,2.691559000000097,19.59427897333333,3.967027267,-35.80791219999999,-0.5796670716666666,-0.21715329100000003,11.715930940333335,-9.911989850666666,8.758354423333333,-0.23860971099999992
324,2.6998920000000908,19.49549166333333,4.035293897,-35.8414866,-1.7744396926666666,-0.225733171,11.790023486333332,-12.219841639,5.949086744333333,-6.856842517666667
325,2.708225000000084,19.367897033333332,4.119918108,-35.835535666666665,-0.39564500733333335,-1.0481112993333335,9.789466856999999,-16.034668290000003,9.402485687666667,-2.968922257333334
326,2.7165580000000773,19.22322782,4.205902099666667,-35.8720067,-2.3725358696666667,-1.4341809353333332,11.246408940666667,-17.687009493333335,7.8373023669999995,-7.949744065666667
327,2.7248910000000706,19.05046781,4.276882887,-35.88904063333333,-0.350976805,-1.117142332,10.250521977,-21.232862153333333,6.930968443666667,-5.099930366
328,2.733224000000064,18.841485340000002,4.374270359666666,-35.94590246666666,-3.108024915,-1.4658670826666667,10.947149909333334,-25.194660823333333,8.337500572333333,-10.784544945
329,2.741557000000057,18.56028366,4.472969134666667,-35.96610006666666,0.521273881,-1.7181286416666666,10.108304978000001,-34.21915880666667,10.032803217,-6.3893162016666665
330,2.7498900000000503,18.222129823333333,4.607798099666667,-36.02842963333334,-4.176504214666667,-1.7776710986666666,10.681844710666667,-40.613928476666665,12.48995002,-12.742991766666668
331,2.758223000000044,17.803065616666668,4.739082972333334,-36.042775466666676,0.20323173200000003,-2.725884835,10.872949283333334,-50.78288014666666,14.014802298333334,-6.862035910333333
332,2.766556000000037,17.317557653333335,4.896672408,-36.12688446666667,-3.330107967,-2.2438425223333334,9.127624033666667,-58.04704920666668,14.489616391666667,-15.859389623333334
333,2.77488900000003,16.74278609,5.064301490666667,-36.14139813333333,0.42659697899999993,-3.0056170623333336,10.612106324666668,-69.45774968333335,18.30219364,-7.860653081666666
334,2.7832220000000234,16.087607383333335,5.2498998640000005,-36.2240677,-4.001420299333334,-2.022638042666667,10.745429041000001,-78.38004558333334,18.12020031733333,-16.318306286666665
335,2.7915550000000167,15.322262763333333,5.49407355,-36.241671266666664,-0.9528906843333332,-3.59080108,9.747815292333334,-92.27494813333334,27.205595016666667,-10.148586272666668
336,2.79988800000001,14.473026276666667,5.736399650666667,-36.32019806666667,-3.8195400040000003,-1.9241816600000001,11.209195455333335,-101.63695272666666,25.281645456666666,-17.073670706666668
337,2.808221000000003,13.531006493333335,6.038453896666667,-36.35088603333333,-0.2539395493333334,-3.028649171333333,9.044008095333334,-113.30074562666668,33.83036486666666,-12.420269330000002
338,2.8165539999999964,12.502559026666667,6.312033017666667,-36.4302063,-2.618132223666667,-2.3777374823333335,11.234423639666666,-123.03741966666666,29.498759589999995,-17.218027116666665
339,2.8248869999999897,11.377153078333334,6.665433883666666,-36.47436270000001,-1.8550779023333333,-3.3282705939999997,9.274233500333333,-135.07648980000002,39.8301239,-14.097237902666668
340,2.833219999999983,10.176111855333334,7.005777200333333,-36.53777313333333,-2.919579664666667,-1.2293245593333333,12.243152617333335,-143.86539206666666,38.42195574333333,-15.590948105666667
341,2.841552999999976,8.870014667000001,7.398471991,-36.59698483333333,-0.769801577,-3.608486652333333,9.030525685,-156.48286946666667,44.71211115666667,-14.907409506999999
342,2.849885999999969,7.4990975063333325,7.759082476333333,-36.65388486666666,-1.5420827069999998,-1.8302464086666668,9.656068962333334,-164.25218710000001,41.672425589999996,-13.464148838666665
343,2.8582189999999628,6.040359894333334,8.142299493333335,-36.730832400000004,-1.0813239713333334,-1.8195204833333334,10.440043130333335,-174.41269939999998,43.93121592,-14.968685148333334
344,2.866551999999956,4.542064945,8.527064958999999,-36.8029734,-1.6697920163333333,-1.5089267493333332,11.207880338333332,-179.20068866666668,45.08702214666667,-13.31650448
345,2.8748849999999493,2.9785343903333334,8.915780385666666,-36.9090144,-2.5638996213333334,-2.009668052,11.223467985,-186.34987893333334,45.093449910000004,-16.01114606766667
346,2.8832179999999425,1.3650515079999999,9.273406028666669,-36.986752833333334,0.9379349553333333,-1.1094418366666667,9.715768814333332,-192.81822709999997,42.503228506666666,-11.385662159666666
347,2.891551000000163,-0.3104199173333333,9.602032343666666,-37.147473633333334,-1.753055354,-1.5800219776666669,9.749856314666667,-198.51856483333336,38.641726813333335,-20.251939773333334
348,2.8998840000001564,-2.006895420333333,9.942104659666667,-37.23953756666667,0.5961217683333334,-1.8065840799999997,10.985803922666667,-202.4044596,40.9769427,-10.700459957333335
349,2.9082170000001497,-3.7158406970000004,10.222117425666667,-37.43715413333333,-2.929311196,-0.26099077833333334,11.474132062,-201.56196593333334,34.15395864,-22.295075100000002
350,2.916550000000143,-5.438322385333333,10.487824439,-37.5432892,0.9213985899999999,0.04995711666666669,11.289613723666667,-205.1017456,32.57545789,-10.610024135666666
351,2.924883000000136,-7.176657198333333,10.743293443333334,-37.76777649999999,-2.228760083333333,0.34916631400000003,9.551491418666666,-204.2625885,32.77161534333334,-23.36936188
352,2.933216000000129,-8.877300105000002,10.925619126666666,-37.888226833333334,1.0096209943333332,0.8005337913333334,9.00455618,-202.0477956,23.435701053333332,-11.805087564333334
353,2.9415490000001228,-10.540767668,11.117893536666665,-38.104443833333335,-2.7837833763333335,1.0715245876666668,12.709493,-195.30681863333334,26.46032397,-21.627272923333333
354,2.949882000000116,-12.13736248,11.260803856666667,-38.23453013333333,1.0596793093333332,0.9543814163333334,11.754729270666667,-189.25281776666665,19.536395710000004,-12.174802620666666
355,2.9582150000001093,-13.693348563333332,11.358227093333332,-38.44189959999999,-1.343834897,1.7929571469999999,10.823444683666667,-182.4789378,16.429657791666667,-21.90195338
356,2.9665480000001025,-15.171266873333332,11.465413093333332,-38.58096313333333,-0.04020827999999995,2.3806417383333334,12.170510607666666,-174.75184123333335,16.211555800000003,-13.078460373
357,2.974881000000096,-16.574390093333335,11.48678462,-38.7711741,-1.876586914,1.371438185,9.757753373333331,-164.44920349999998,8.142680802666666,-21.483318963333332
358,2.983214000000089,-17.906164806666666,11.523803710000001,-38.918833400000004,0.991692143,2.190135896,12.828130402666668,-156.91986083333333,8.935033876333334,-15.77449767
359,2.9915470000000823,-19.140586216666666,11.496620179999999,-39.09946953333333,-1.3192908963333332,2.5510147213333334,10.137946604666666,-144.4530919,3.2614715899999998,-21.68422698666667
360,2.999880000000076,-20.266031896666664,11.450009665000001,-39.216415399999995,-0.6554471056666666,2.8350873389999998,12.477117221333332,-132.82473246666666,-1.188931307,-15.330908143333332
361,3.008213000000069,-21.302771253333333,11.358322145666667,-39.365180966666664,-0.09536441166666661,3.1549681030000003,12.332021076666665,-121.53265125,-4.525822479666666,-20.646032333333334
362,3.016546000000062,-22.207352956666664,11.257763861,-39.46246083333333,-0.8133548796666666,2.615204175,8.716272038,-106.84918976,-7.5239415166666666,-15.385375342666668
363,3.0248790000000554,-22.982744216666664,11.096581458333333,-39.544283533333335,-0.33659864500000003,4.071753343,13.74184958,-91.73804092333334,-14.564949672,-16.853857676666667
364,3.0332120000000486,-23.664130529999998,10.936293282333333,-39.6173528,-0.9179245506666667,2.4784981013333334,10.939797082666667,-80.66072972666666,-14.80610307,-15.767215412333334
365,3.041545000000042,-24.222456616666665,10.763103804666668,-39.66707863333334,-0.5289810003333333,2.785899519666667,8.235599676666666,-66.55904134,-17.017572085,-14.189327876666667
366,3.049878000000035,-24.67438316333333,10.550662678666667,-39.698020933333325,-1.8436451156666667,3.4491157530000005,16.470840453333334,-54.06141471666667,-22.240248676666667,-14.101508935666667
367,3.0582110000000284,-25.029715216666663,10.360793113666666,-39.720067333333326,-0.8763211570000001,2.874556501666667,10.113999365,-42.8978405,-19.979694686666665,-12.346688273
368,3.0665440000000217,-25.29978943,10.148082414333333,-39.742747,-1.5133818786666666,1.6202299593333336,9.878418606666667,-32.50238958666666,-22.458824793333335,-13.504563171666666
369,3.074877000000015,-25.46866353333333,9.945673305666666,-39.730855299999995,-1.106955876,2.6903175113333333,13.478522936666666,-21.246792872,-22.955549876666666,-9.579703329666666
370,3.083210000000008,-25.583686189999998,9.744248549,-39.76144153333333,-2.32196937,1.3724817433333334,9.860233941666666,-13.808465443666668,-20.75107002,-13.870681124999999
371,3.091543000000001,-25.633082073333338,9.554326691333333,-39.74464416666667,-0.9732545313333332,1.7626312176666665,9.255544344999999,-7.017365616,-21.83756892,-8.470414322000002
372,3.0998759999999947,-25.6458683,9.380657675666667,-39.77497353333333,-2.562232713,0.5999972476666667,13.470962206666664,-1.587845087,-17.70446968,-12.510472137666667
373,3.108208999999988,-25.61478805666667,9.214095276,-39.7629954,-1.08970956,1.305325508,11.831365901333333,2.765932619333333,-19.07190005,-7.762665588333333
374,3.1165419999999813,-25.581750236666664,9.071719326999999,-39.80427803333333,-2.6594012379999996,0.12261275466666666,9.427299658,4.122834667666667,-13.755365053333334,-12.042899451000002
375,3.1248749999999745,-25.500300089999996,8.942089239666666,-39.798538199999996,-0.45451460300000024,0.0798437,13.124233882333334,8.907600084999999,-14.755004087666668,-6.538509210000001
376,3.133207999999968,-25.430294036666666,8.820650577666667,-39.833724999999994,-3.307548523,0.195713816,10.526384988000002,8.443471271333333,-11.799905456666666,-10.320794103666667
377,3.141540999999961,-25.359030406666665,8.731002012666666,-39.83224743333333,-0.8871010343333333,-0.381426847,9.769136431666666,7.818532625666667,-10.179896672666667,-4.951398532
378,3.1498739999999543,-25.301506676666666,8.640331427,-39.86657206666667,-2.142101129,-0.3174328006666667,12.925519623333335,6.899007797333333,-8.534532865333333,-8.620469333
379,3.158206999999948,-25.246121086666665,8.572627544666666,-39.860984800000004,-1.4456449183333329,-0.22387938199999993,9.984881082333333,5.833104720333334,-8.030272088,-3.336583058
380,3.166539999999941,-25.20318349333333,8.509541034666666,-39.884106966666664,-2.1166619063333334,-0.6357499093333333,12.010211308999999,4.953682700666667,-6.115062236666667,-6.005630135666666
381,3.174873000000161,-25.174907686666668,8.472686767666668,-39.87768556666666,-0.763771395,-0.7445593873333333,9.859550317666667,2.566747268,-4.725160757666667,-1.6544704833333335
382,3.1832060000001547,-25.165771483333334,8.413675467,-39.89103446666667,-1.6450950006666665,-0.7177573593333332,11.926502543333333,0.6848349966666666,-6.176707109,-4.757430632666666
383,3.191539000000148,-25.165661493333335,8.399311065333334,-39.88111623333332,-1.6241973486666668,-0.8449505963333334,10.902530353333333,-0.8932195503333329,-2.4566698086666663,-0.14586033933333328
384,3.1998720000001413,-25.214824043333333,8.369481563666668,-39.90051016666666,-2.1560938756666665,-1.1815156343333333,10.546153070666668,-6.222489633666666,-2.7173552513333328,-3.893172343333333
385,3.2082050000001345,-25.27210617,8.366683483333334,-39.89644113333333,-1.1009695039999998,-1.2807644606666668,9.310338656333334,-7.658362468,-0.8990254003333332,-0.17579054833333338
386,3.216538000000128,-25.358246483333335,8.352040449666667,-39.91681926666667,-1.6079228716666665,-0.5341711886666666,11.870156290000002,-10.671204567333334,-0.9992120263333334,-3.266391833666667
387,3.224871000000121,-25.473814646666668,8.359180927333332,-39.92214966666667,-1.5187580583333335,-1.3084970713333333,7.723017215,-14.467825572333334,0.6538852453333336,-0.6595580576666666
388,3.2332040000001143,-25.605952579999997,8.341580708666667,-39.94313556666666,-1.1430300076666666,-0.8225422006666667,12.291881244333334,-16.16977247,-1.2844693409999999,-3.474422574
389,3.241537000000108,-25.750286739999996,8.359082222,-39.96284483333333,-1.5753608943333335,-0.865081181,9.571071944000002,-17.681296026666665,2.5034554006666663,-1.6223593156666667
390,3.249870000000101,-25.925118126666664,8.367533525,-39.98610433333334,-1.66933314,-0.6236287256666667,10.230482738333334,-21.269033116666666,1.6652031440000001,-2.363674330333333
391,3.258203000000094,-26.09538841,8.391376336333332,-40.01072946666666,-1.7892525993333332,-0.7163818313333333,11.162777903333334,-20.692668913333332,3.4520284323333335,-1.8003737526666665
392,3.266536000000088,-26.29766146333333,8.402496020000001,-40.036636333333334,-1.3232679216666667,-0.43805115433333336,10.832866667666666,-24.496770859999998,2.1042821406666667,-2.4878137906666664
393,3.2748690000000806,-26.495738346666666,8.433497269666667,-40.062383000000004,-1.621003191,-0.6249362033333333,9.071012336999999,-23.966266630000003,4.275995652,-1.4876414936666666
394,3.283202000000074,-26.698106766666665,8.440828800333334,-40.075350433333334,-0.20489405599999996,-0.175601475,12.946870485666667,-24.739303586666665,1.0419528483333333,-1.333563278
395,3.291535000000067,-26.894468943333333,8.441529273666667,-40.091753633333326,-1.34992073,-0.505032947,9.0402352,-23.92884318,0.5423564909999999,-2.114204132333333
396,3.2998680000000604,-27.099294663333335,8.442026297333333,-40.0920461,-1.00824819,-0.5549874103333333,11.555319307666666,-25.26702626333333,-0.3665484586666666,-0.35321614633333326
397,3.3082010000000537,-27.302595776666664,8.423299471333333,-40.09195966666667,-1.8049264846666668,0.02468744899999999,10.131400744999999,-25.049126306666665,-2.410283645,-1.4361399410000002
398,3.316534000000047,-27.499872203333336,8.402157148,-40.09076436666667,0.06454091266666666,-0.28760298100000004,10.080696583666667,-24.413926443333335,-2.7535573643333335,-1.3829775626666665
399,3.32486700000004,-27.68777529333333,8.370594819333332,-40.07806143333333,-2.3743202836666666,0.1602137286666667,11.384103138666667,-23.416893006666665,-4.461070061,-0.8389008840000001
400,3.333200000000033,-27.879243849999998,8.347633044,-40.06767523333334,-0.6454720596666667,-0.7594149073333334,8.843129953333333,-23.87886174666666,-3.4620135609999996,-0.5133180619999999
401,3.3415330000000267,-28.055379866666666,8.287065824,-40.0520808,-1.2643738286666666,0.48018591099999997,12.50667286,-22.034046809999996,-7.694699524666667,-2.186816692333333
402,3.34986600000002,-28.224391936666667,8.261113643333333,-40.032813999999995,-0.8791833209999999,-0.5742100476666666,8.383151848999999,-21.352286656666664,-4.271081707,0.21864755966666669
403,3.3581990000000133,-28.368075686666668,8.192407767,-40.0050939,-1.6857381609999997,0.10226203999999996,13.383420626666668,-18.361746786666668,-9.228902577666666,-1.416740983666667
404,3.3665320000000065,-28.509512580000003,8.172186692666665,-39.99082693333333,-1.2784279186666667,0.1473702963333333,7.655416329666667,-17.980715433333334,-3.3909080819999997,0.0014814140000000142
405,3.374865,-28.633262000000002,8.101118087666666,-39.966944399999996,-1.7632639159999999,-0.7065413396666668,13.753324506666667,-15.897639273333334,-9.255880989,-1.9807580906666669
406,3.383197999999993,-28.72537168,8.087721665333333,-39.94993083333333,-1.8067639073333333,0.470965246,7.775283336666667,-12.100042501666666,-2.832029899,0.660177032
407,3.3915309999999863,-28.816933950000003,8.034276008666666,-39.936175066666664,-1.7231346766666666,0.24745285533333336,13.03142611,-11.879598618333333,-6.810284495333334,-2.051598303
408,3.39986399999998,-28.873078030000002,8.019397735666667,-39.91586303333333,-1.903682669,-0.4236210186666667,9.301215489666667,-7.808939615,-3.182112258,0.9080246686666666
409,3.408196999999973,-28.9402078,7.984488487666667,-39.913350433333335,-1.6471877493333331,0.17108033099999997,12.280403137333332,-8.801884651,-4.225188493999999,-2.1450770696666663
410,3.416529999999966,-28.977636970000002,7.963674068333333,-39.887029000000005,-1.6850926279999998,-0.029308219666666652,11.607481639999998,-5.605090936333333,-4.153434119,1.1997965576666665
411,3.42486299999996,-29.016319276666668,7.957958857,-39.88731893333334,-1.936141213,-0.4452699523333333,9.164402643666667,-5.370302518,-0.9821391103333333,-0.7815415410000001
412,3.4331959999999526,-29.03776995,7.903551101333332,-39.856506366666665,-0.033575217000000025,-0.22583973400000001,13.32163207,-3.7320671576666666,-7.9392016703333335,-0.28214509866666665
413,3.441528999999946,-29.07036908666667,7.909974893,-39.859657266666666,-2.956750253666667,-0.6671118423333334,8.195025763333334,-4.630042473333334,0.4565953413333335,-0.39547532766666665
414,3.4498620000001665,-29.114925383333333,7.868215243333334,-39.829498300000004,-0.39257837333333345,-0.7048067153333332,14.332816123333332,-6.507506370666666,-6.578842002666666,0.39371642966666665
415,3.45819500000016,-29.144831976666666,7.855759302666667,-39.83213043333334,-2.3410529146666668,-0.21551203233333335,8.000344117333334,-4.281125068666667,-1.5474758146666663,-1.4493090313333334
416,3.466528000000153,-29.18046506666667,7.8382366496666664,-39.815602633333334,-0.7807838720000001,-0.9161759639999999,12.76648267,-5.2673330106666665,-3.24242119,0.3667276056666667
417,3.4748610000001463,-29.209386823333332,7.809912045666667,-39.803619366666666,-2.460227688,-0.5798056573333333,9.090793609666667,-4.3392779033333335,-4.065261045,-0.83452034
418,3.48319400000014,-29.24906857666667,7.828862190333333,-39.81433103333333,-1.1675614020000002,-0.4617776523333334,10.048532167666666,-5.3636427719999995,2.1663115806666666,-0.3583986313333334
419,3.491527000000133,-29.292835233333335,7.791645368,-39.80261740000001,-2.2521218063333333,-0.6781084536666667,13.2098465,-6.103663444333333,-4.984052342333333,-1.3723297416666667
420,3.499860000000126,-29.319632213333335,7.829576651333333,-39.80911509999999,-2.1349945863333333,-0.2708363733333333,5.9721738496666665,-3.878529231,3.8895772300000004,1.221086204
421,3.50819300000012,-29.352455136666663,7.826150099666667,-39.81485493333333,-1.213290145,-0.13517892866666667,14.657216073333332,-4.550552725666667,-0.42284835866666665,-1.2187466400000002
422,3.5165260000001126,-29.369453430000004,7.842617193666666,-39.82068886666667,-1.7312470886666667,-1.2683595819999998,6.682864983999999,-2.664849818,1.5997671283333335,0.04686979433333338
423,3.524859000000106,-29.40108553666667,7.893859545666667,-39.84417213333333,-2.2938630186666664,-0.3714367746666667,12.56892999,-4.1693360010000005,6.329351027666665,0.14302142800000003
424,3.533192000000099,-29.432506559999997,7.89960289,-39.849500033333335,-1.3027529566666667,-0.39204504199999995,10.873949686666668,-4.3495320479999995,0.4469769003333335,-0.5083658493333334
425,3.5415250000000924,-29.44236628333333,7.975754102333333,-39.892074566666665,-1.753167987,-0.851596763,8.344014805,-1.266751905,10.047208388333333,-0.36759854866666664
426,3.5498580000000857,-29.46015676,7.997226397333333,-39.90174613333333,-1.354681829666667,-0.5586386023333333,14.396042823333334,-2.653933763333333,2.3354893933333325,-0.01330658033333335
427,3.558191000000079,-29.469696046666666,8.067797184,-39.943133033333325,-2.3038229146666667,-0.4193622096666667,5.295504172666667,-1.1885176100000001,9.400161108666667,-0.5644267796666665
428,3.566524000000072,-29.485460283333335,8.129984855666667,-39.9852422,-1.286615024,-0.8245273233333333,14.979455313333332,-1.9027663466666667,8.497173469333333,-0.9940628806666667
429,3.574857000000065,-29.498258589999995,8.164180278666667,-40.00975543333333,-1.8642576736666667,-0.6726879180000002,9.591638406666666,-1.7931843800000002,4.603723703,-0.925681457
430,3.5831900000000587,-29.497215273333335,8.257266362666668,-40.06367746666667,-1.983621955,-0.4402831196666666,8.431364855333333,0.29975080499999995,12.426199276666667,-0.4036121366666667
431,3.591523000000052,-29.498605093333335,8.293453852666667,-40.08714296666667,-0.6322440006666666,-0.7116259723333335,13.876718523333333,-0.4434934853333334,4.7361164890000005,-0.6757549050000001
432,3.599856000000045,-29.489966076666665,8.332720121,-40.11096446666667,-1.1530795893333334,-0.604940951,7.051619688666666,0.755500434,5.037201563333333,-0.44213585066666666
433,3.6081890000000394,-29.502648670000003,8.39318196,-40.149976099999996,-1.8010808726666667,-0.919836283,13.169435503333332,-1.5871432623333332,8.202805201333334,-0.9055741630000002
434,3.616522000000032,-29.511488596666666,8.412770112333334,-40.1576462,-1.0557753643333332,-0.8369122149999999,11.70476977,-1.572381089,2.0213999753333334,0.10093704833333339
435,3.624855000000025,-29.505962370000002,8.456685702,-40.18825786666666,-2.101693630333333,-1.0118754106666668,8.398752052333334,0.43703452500000006,5.991883915333333,-1.0316006743333335
436,3.6331880000000174,-29.504217146666665,8.486094157,-40.20344286666666,-0.6148764986666667,-0.9842431196666667,12.176151913333333,-0.21607331433333346,3.49493442,-0.12205609699999997
437,3.641521000000012,-29.50541814,8.499489307333334,-40.20506033333334,-1.588564356,-0.5688467819999999,8.442725499333333,-0.8322492440000001,1.1148938536666666,0.15527772900000011
438,3.649854000000005,-29.520029066666666,8.529136816666666,-40.23375956666666,-2.166902145,-0.9507316750000001,9.731470424333333,-1.9596170483333333,4.317848522,-1.5139124396666668
439,3.658186999999998,-29.51876131666667,8.541966755999999,-40.238767,-0.4196258779999999,-1.0545621016666666,13.403516766666668,-0.47466582066666674,1.2608516210000003,-0.250340606
440,3.6665199999999913,-29.528738023333336,8.531302134,-40.2526169,-2.051078548,-0.25649523,8.743612288333333,-1.6397378046666669,-0.7606998483333333,-2.359297196
441,3.6748529999999846,-29.524511973333333,8.553788026,-40.25619506666667,-1.1180529606666665,-1.0917545456666666,10.669337271333333,-0.163384656,2.1882454156666666,0.48030105233333337
442,3.683185999999978,-29.52401034,8.540627479666666,-40.27152763333333,-1.34585764,-1.411846777,12.210888544666666,-0.3635940156666666,-0.9638127486666669,-2.6279478866666666
443,3.691518999999971,-29.537863413333337,8.520463148666666,-40.258061733333335,-0.986884018,-0.5118609166666667,8.071202993666667,-2.6084084759999997,-3.2618447939999995,-0.2604114613333333
444,3.699851999999965,-29.54518381666667,8.536686897333333,-40.290873233333336,-3.0298517546666663,-1.4544507066666668,11.89277458,-1.048382173,3.162295212666667,-2.7796782256666663
445,3.7081849999999577,-29.557650883333334,8.518096764666666,-40.2800217,-1.196564857,-1.022712993,12.498719213333333,-2.3889627853333333,-2.944809198666667,-0.4546014666666667
446,3.716517999999951,-29.565223693333333,8.507504463333333,-40.293485000000004,-2.012275475,-0.187626862,8.266629697333334,-1.3923599123333334,-0.7840774656666666,-2.3147029480000003
447,3.724850999999944,-29.57421938666667,8.526406447,-40.30306753333333,-1.7380777293333336,-1.3918142716666668,11.746458371333333,-1.6423504350000002,2.141277343,-0.29763317133333334
448,3.733184000000165,-29.584741593333334,8.505523522666666,-40.302190133333326,-0.47687437133333327,-1.2321540516666667,10.480890909000001,-1.954972545333333,-2.7186099690000005,-1.4014230866666664
449,3.741517000000158,-29.603024163333334,8.488099893,-40.301984166666664,-1.785027352,-0.5176808933333333,9.350708961333334,-2.9178882440000002,-2.192851821666667,-1.484456072333333
450,3.7498500000001513,-29.623430886666668,8.487480322666666,-40.303988133333334,-1.4309254686666666,-1.5887258053333333,12.13174375,-3.160920501,-0.43472481766666665,-0.5218815800000001
451,3.7581830000001446,-29.643443423333334,8.465293248666667,-40.290540033333336,-1.8682322103333335,-0.8173786353333333,11.481678963666667,-3.3393319646666666,-3.5004159610000003,-0.35316058
452,3.766516000000138,-29.673933666666667,8.458677609666667,-40.2905324,-2.3976182143333333,-0.6944376033333333,6.491395632333334,-4.405123432333333,-1.1625405936666666,-0.6777398786666667
453,3.774849000000131,-29.690165840000002,8.464963595,-40.29107413333334,-0.716334661,-1.7352885006666667,12.024634043333334,-2.6866984763333335,0.29198924700000006,-0.12325142299999998
454,3.783182000000125,-29.726583480000002,8.424227873333335,-40.272837333333335,-1.178365131,-0.7935730219999999,9.430060545,-5.4051765603333335,-5.814628004333334,-0.7931193013333333
455,3.7915150000001177,-29.760609946666666,8.419246514666666,-40.26780446666666,-1.9795698126666668,-0.5628191433333333,8.094542503333335,-4.904404799333333,-1.1713776986666664,-0.2678565976666667
456,3.799848000000111,-29.794704436666667,8.412472883666666,-40.27166496666666,-1.5131203833333335,-1.5289891956666668,15.80788485,-4.78112332,-0.978331724666667,-1.070239534
457,3.808181000000104,-29.834118526666668,8.379504204,-40.264320366666674,-1.8240796129999997,-0.8269702396666667,8.403010845666666,-5.543343783666667,-4.231796920333333,-1.6734420656666666
458,3.8165140000000974,-29.870274226666666,8.399813175333334,-40.277409866666666,-2.694239298333333,-1.1143396296666668,9.241328557333334,-4.8975573379999995,2.4209251403333334,-0.4605610070000001
459,3.8248470000000903,-29.90800158,8.384802659333333,-40.283818566666675,-1.1750061116666666,-1.439838484,12.825914703333334,-5.130449811666666,-1.5580029886666666,-2.021846831
460,3.833180000000084,-29.945482889999997,8.364779790333332,-40.277402233333326,-0.9247411043333335,-0.474104263,7.923832099000001,-5.336483240333333,-2.9478401593333334,-0.806225203
461,3.841513000000077,-29.999704996666665,8.366837024666667,-40.301358533333335,-2.524136186,-1.3400092523333333,11.231005031333334,-6.822885831000001,1.2684980233333334,-2.8137281736666666
462,3.8498460000000714,-30.045589446666668,8.362002373000001,-40.29936726666667,-0.645514816,-1.4489130973333333,13.149133996666668,-6.248801867,-1.1037596066666666,-0.3676069976666667
463,3.858179000000064,-30.093459446666667,8.332069556,-40.30999500000001,-2.1550985773333333,-0.4650359056666667,8.753707885666666,-6.261387348333334,-2.8296518523333334,-3.380622506
464,3.866512000000057,-30.129462560000004,8.342912038333333,-40.31352233333334,-1.4654389616666668,-1.27245456,9.340232213,-5.012189070333333,0.8801009656666667,-0.03324731166666665
465,3.8748450000000494,-30.16356150333333,8.321740309666666,-40.32056936666667,-1.5005609986666666,-1.0730334523333334,11.110269866666664,-4.6943082013333335,-2.1548489726666666,-2.4738357266666666
466,3.883178000000044,-30.209828056666666,8.293905099333333,-40.306892366666666,-1.324689249333333,-0.7869909706666666,6.803760288666666,-6.491420825333333,-4.1616821286666665,-0.5686830233333334
467,3.891511000000037,-30.243475596666666,8.288245519,-40.32163493333333,-1.724059532,-1.020251864,11.599190710000002,-4.5450284876666665,-0.06317341299999997,-2.369133194333333
468,3.89984400000003,-30.281656896666664,8.252839247333334,-40.3148168,-0.9323904860000001,-0.9506491023333333,13.095396993333333,-5.393705368,-4.552188078666667,-1.7234410043333337
469,3.9081770000000233,-30.30461375,8.227114359666666,-40.30770110000001,-1.7772964836666667,-0.39742022766666674,8.298070907333333,-3.5915298463333336,-3.449849109,-1.3145097293333332
470,3.9165100000000166,-30.32004928666667,8.221707662,-40.324200966666666,-2.7648417550000004,-1.4315705103333334,10.846762338666666,-2.3191427386666668,-0.051911592333333235,-2.301289767
471,3.92484300000001,-30.327426276666667,8.195467313,-40.312726366666666,-0.15994459366666663,-0.9430371023333333,11.646758395,-1.7990798550000002,-3.7767677306666663,-0.893847123
472,3.933176000000003,-30.355649313333334,8.161630153666666,-40.312550900000005,-2.9483342570000004,-1.234314422,7.553495723666667,-4.114718039666667,-3.9890759786666674,-2.3139859043333337
473,3.941508999999997,-30.36841519666667,8.168375651333333,-40.31727600000001,-1.1782437366666667,-0.8942744733333333,11.999327026666668,-2.1922667226666666,0.6308147113333333,-0.5833001036666666
474,3.9498419999999896,-30.383398056666667,8.131472269666666,-40.31409706666667,-1.491809537,-0.35799343899999997,13.488920846666666,-2.5670842923333335,-4.503520805,-2.182593186666667
475,3.958174999999983,-30.39946301666667,8.1093901,-40.308044466666665,-0.9397209883333333,-1.9476094246666669,7.782494385,-2.742068052,-3.031061172333333,-1.1494259636666666
476,3.966507999999976,-30.400924683333333,8.116248448333332,-40.31762186666666,-3.068011363,-0.9162031810000001,10.827539284000002,-0.773396204,0.8087698616666666,-0.8696160613333334
477,3.9748409999999694,-30.40883382,8.089553356000001,-40.30563606666666,-0.29677080866666666,-0.9850809303333334,10.894612313666665,-1.8711539706666669,-3.8813598949999997,-0.8156341066666667
478,3.9831739999999622,-30.415177663333335,8.074381669,-40.29784393333333,-2.577569524333333,-1.1613395610000001,7.4184320779999995,-1.632873535,-2.4998944106666667,-0.4364495276666666
479,3.991506999999956,-30.42271169,8.102796395666667,-40.3083776,-2.039212624333333,-1.226908803,11.092244782666667,-1.5079654260000002,3.205950895333333,0.14688056166666666
480,3.999839999999949,-30.427050906666665,8.106963952333333,-40.301592500000005,-1.7179466883333336,-0.4700721603333333,12.502951619666666,-1.3440642753333334,-0.4514385066666667,0.6526207926666666
481,4.008172999999943,-30.42670440666667,8.144663016,-40.30984496666667,-2.253971487333333,-1.4572505949999999,6.481413046666667,-0.5877057213333333,4.021763960666667,0.9713729893333332
482,4.016506000000163,-30.402887343333333,8.234231472,-40.33834840000001,-1.548277604,-1.2000161809999998,13.847718556666669,2.5715502896666664,10.501148781333335,2.212182700666667
483,4.024839000000156,-30.390935260000003,8.286337058,-40.332651766666665,-2.332109531,-0.751424551,9.406806946000001,0.6235699853333333,4.664151706666666,3.302921374666667
484,4.03317200000015,-30.368717193333335,8.437693437,-40.38740793333334,-3.4673434100000002,-1.1269435879999998,7.050081571,2.8381285416666664,18.523393829333333,3.182349642
485,4.041505000000143,-30.34111468,8.589588642,-40.41777803333333,-2.2076041796666668,-0.8702360886666667,16.256691933333332,3.1048045556666666,17.170219103666664,5.622446457666666
486,4.049838000000136,-30.289517083333333,8.779465675333334,-40.46412660000001,-3.8115611873333335,-0.48084841133333334,6.477462967,6.301507235666667,21.979486466666668,6.442735988333333
487,4.058171000000129,-30.22862053,9.038156827,-40.5253016,-2.318823457,-0.4381165903333333,11.870532669999998,7.686023156999998,30.125740053333335,8.836203256333333
488,4.066504000000123,-30.133660633333335,9.274673144333333,-40.57165020000001,-2.234612027666667,-0.08748569100000003,11.341198286,11.59290249966667,26.836896896666662,9.236415864
489,4.074837000000116,-30.00791486,9.593070031666667,-40.635642999999995,-2.481593221666667,-0.18980904399999998,6.005185683666667,15.588338691999999,36.51739629333333,12.021020573333333
490,4.083170000000109,-29.822493236666663,9.882948877333334,-40.68474576666667,-1.4097987413333335,1.0052566923333333,15.353748006666665,22.54913171,32.60280036666666,12.013753571
491,4.091503000000103,-29.567897796666667,10.207276026333332,-40.7293625,-1.5677024423333332,0.23938123399999997,6.009423891666667,30.761233013333328,36.06988144,14.15484333
492,4.099836000000096,-29.240664803333335,10.534546851333333,-40.78835043333334,-2.1990052066666665,1.1855156023333333,11.638228096666666,39.81876754666666,37.173529306666666,12.906829199999999
493,4.108169000000089,-28.82825279333333,10.86524232,-40.8182907,-0.394328316,1.0449693203333332,11.732676186666666,49.43098576666667,36.03139686666666,15.681663196666667
494,4.116502000000082,-28.358263649999998,11.173414546666669,-40.8696111,-2.424933155333333,1.4306834143333331,9.076215744333332,56.858270010000005,34.892608643333325,12.138722419999999
495,4.124835000000076,-27.798262276666666,11.526215236666667,-40.90577443333333,-0.9597266963333334,0.12413455033333332,11.297026634333333,67.338871,39.029170986666664,15.567441623333332
496,4.133168000000069,-27.155349733333335,11.81484032,-40.9299316,-1.1450804669999999,1.3377189836666667,11.736377716666667,77.04101562333334,31.575928370000003,13.284361203333333
497,4.141501000000062,-26.436731976666664,12.14599164,-40.950174966666665,-2.155253788,1.3961963456666666,7.564355054666666,86.03440603333333,36.23432540666666,15.239069303333332
498,4.149834000000055,-25.64897918666667,12.443280856666666,-40.96587876666667,-1.3453751799999998,-0.09696186600000002,14.207050960000002,94.24384816333334,32.454566953333334,13.71132374
499,4.158167000000049,-24.781236016666668,12.72708384,-40.93897246666666,-0.8567238946666667,0.9350155196666666,8.660573163666667,102.75533039,29.17739423,16.96792157666667
500,4.166500000000042,-23.852870303333333,13.028694473333333,-40.92527263333334,-1.7380492886666667,1.285335064,10.167732239666668,110.32280730000001,31.898248033333335,15.961139039999999
501,4.174833000000035,-22.83973503,13.282994270000001,-40.87149046666667,-0.7394498786666666,-0.33752747366666663,13.709499676666667,119.45600383333334,25.250115076666663,17.555846533333334
502,4.183166000000028,-21.778008143333334,13.542682646666668,-40.81094363333333,-1.8452109496666667,0.1803059976666667,6.172137737333333,125.04292806666666,25.754236860000002,18.034447033333333
503,4.191499000000022,-20.643122356666666,13.787556646666667,-40.72541553333334,-0.4992958406666667,1.1658640900000001,12.563757260333334,133.11552176666666,23.570686976666668,19.511122386666667
504,4.199832000000015,-19.435464226666664,13.978520713333333,-40.60906726666666,-0.8667083980000001,-0.3394883323333333,10.109025635666667,140.9207051666667,16.530757268666665,20.400924683333333
505,4.208165000000008,-18.166661263333335,14.19271469,-40.487559,-2.200251499666667,0.5299246556666667,10.421642303,147.95411173333335,19.431857426666667,21.539926526666665
506,4.216498000000001,-16.837192216666665,14.365974110000002,-40.3304774,-1.0942806153333333,0.41278507833333333,14.717235246666668,154.21018983333332,13.967940966666667,23.486145653333335
507,4.224830999999995,-15.443095523333334,14.516215006666664,-40.15973663333333,-2.318947752,0.6073410163333334,10.068866095333334,161.4179586,11.415586629666668,24.15732193
508,4.233163999999988,-13.987508456666667,14.676039693333331,-39.97102103333334,-1.2790750363333334,0.2662861,12.659351983333332,168.26019796666665,12.543706575333333,25.594271339999995
509,4.241496999999981,-12.491787273,14.774679183333333,-39.77669016666666,-1.3870397806666668,-0.9992926516666668,10.991384505,172.79750566666667,5.935524026333334,24.835971193333332
510,4.249829999999975,-10.949742633999998,14.895115216666667,-39.56410723333333,-1.1330646226666667,-0.4496580756666666,10.079875469,177.79708863333335,8.669582166666666,26.527876536666668
511,4.258162999999968,-9.397730828333332,14.962707836666667,-39.36578623333333,-1.029228151,-0.24711679899999997,12.452434857333335,179.30745953333334,3.448818284666667,24.216123579999998
512,4.266495999999961,-7.813399314666667,15.019375803333332,-39.15455883333333,-1.2852511306666667,-1.973594427,8.376689275,182.85010276666665,2.567246357666667,24.85057449333333
513,4.274828999999954,-6.222113212,15.046535173333334,-38.95207466666667,-1.4229781626666667,-0.7899911203333335,13.762066526666667,183.84709673333336,-0.07032529499999995,23.74894015
514,4.283161999999948,-4.6453019976666665,15.038536389999999,-38.74414063333333,-1.2500944933333333,-1.5804242689999999,9.918026130000001,182.03419493333334,-3.7036103406666663,23.70153999
515,4.291494999999941,-3.075546682,15.032980600000002,-38.544191999999995,-1.4015588563333334,-2.6214610339999997,13.970410666666666,181.42544046666669,-2.637580832,22.669738130000002
516,4.299828000000161,-1.5289882023333332,14.968723616666665,-38.33169303333333,-0.735662331,-0.8346037863333334,13.028926213333333,178.31685893333335,-9.118954181333333,23.909763336666668
517,4.308161000000155,-0.007926940999999873,14.906489053333333,-38.15334826666666,-2.0507582823333332,-2.7236359913333335,9.539209047666667,176.26699826666666,-8.188836257,20.26387469
518,4.316494000000148,1.4954992146666664,14.811225893333335,-37.944264733333334,-0.839964889,-3.224297205666667,14.450666426666666,173.2966868,-11.559360345,24.079033533333334
519,4.324827000000141,2.94701306,14.696099599999998,-37.77403513333333,-0.9461558063333334,-1.6473046143333334,8.680394173,168.23245240000003,-13.524351120666665,19.958740233333334
520,4.333160000000135,4.34168458,14.556751886666667,-37.5996755,-1.042498951,-2.5190998713333332,10.887672422333333,161.35710143333336,-15.904398916666667,20.89928055
521,4.341493000000128,5.698389609666666,14.408052763333336,-37.43849943333334,-1.7337921063333335,-3.273907264,10.838174819333332,157.14250693333335,-16.666739146666668,19.98633957
522,4.349826000000121,7.0103208210000005,14.209330873333334,-37.305608133333344,-0.8697573443333333,-2.396273652666667,11.677856764,152.78234356666667,-22.490544,17.59599113666667
523,4.358159000000114,8.276653766333334,14.05458927,-37.18276723333333,-2.476233522333333,-3.1814843813333336,12.520687261666666,147.55999246666667,-17.032153446666666,16.19556713
524,4.366492000000108,9.470219135999999,13.82389291,-37.084081000000005,0.26535284500000006,-2.0064933893333334,13.84474309,139.66463726666666,-26.08687528,15.309044200000002
525,4.374825000000101,10.616680145333333,13.675649326666667,-36.99329120000001,-4.419106086333333,-2.2079163393333334,10.204257328333332,134.21439110000003,-16.150107025666667,12.964779537333333
526,4.383158000000094,11.691008883333334,13.47578017,-36.91116589999999,1.122736653,-3.82307148,13.114415804333333,125.94156643333334,-22.134259543333332,13.569142023333333
527,4.391491000000087,12.70014286,13.303396543333333,-36.853627533333324,-3.953327417666667,-3.1300866606666666,8.048631906333334,118.72931924333334,-19.248121897,10.529899597333333
528,4.399824000000081,13.644757273333333,13.156291006666665,-36.7657776,0.3303613663333335,-2.830347061,11.066579501,110.31648001,-15.271077476666667,13.395903590000001
529,4.408157000000074,14.520855903333334,12.971497216666668,-36.72699226666668,-3.376215661666667,-3.2080106733333333,11.70811526,103.32410684,-20.817813556666668,9.512515546333333
530,4.416490000000067,15.323139506666665,12.880126636666667,-36.62909953333334,0.1552677313333334,-3.193446874333333,7.221690178,93.06366984333333,-8.040532908000001,13.167208673333334
531,4.42482300000006,16.05611356,12.710412346666667,-36.587916033333336,-3.340366363333333,-2.2822648483333334,12.937812803333335,86.07468668666667,-18.75523599,9.922234854333333
532,4.433156000000054,16.729759853333334,12.645774526666665,-36.4853465,0.08518743500000021,-3.4370874563333333,8.174138149333332,77.51866150000001,-4.459391166666666,13.147993405666668
533,4.441489000000047,17.34488233,12.494575500000002,-36.43909963333333,-3.111601193666667,-1.6209799843333332,16.74539757,71.83163833666667,-16.201918603333336,10.242376804000001
534,4.44982200000004,17.900984446666666,12.449051220000001,-36.3453344,-0.2901159129999999,-3.403781255,6.546121596,63.65422439666667,-2.3052766796666666,11.635659058333331
535,4.458155000000033,18.405033746666668,12.334435143333332,-36.29127246666666,-3.5849603020000003,-1.400355756333333,17.447802863333333,58.35291926,-11.529318810333335,9.959724902666666
536,4.466488000000027,18.847313563333334,12.322294236666666,-36.19485473333334,-0.14135471966666677,-2.8362571400000003,0.9077906406666666,49.947368623333325,1.8211905263333332,10.750804901666667
537,4.47482100000002,19.256797153333334,12.264334996666667,-36.1368154,-3.227048655666667,-2.3275828363333333,11.943877537333334,46.924844103333335,-4.773609915333334,8.367506662666667
538,4.483154000000013,19.61566034666667,12.261928556666668,-36.03672793333334,1.6822424730000003,-1.9623592393333336,5.689307173,39.88973617333333,3.1432599029999992,10.568806964000002
539,4.4914870000000064,19.919411976666666,12.21997261,-35.98047383333333,-3.8734969046666663,-1.8932487169999999,11.626224835,34.3283329,-2.958610296333333,7.471706389666667
540,4.49982,20.19672266666667,12.219584783333334,-35.896662400000004,0.8773509509999999,-1.0852592686666667,11.429001648333333,30.510718663333336,2.8289272573333335,8.701803843
541,4.508152999999993,20.465543746666665,12.192258836666667,-35.824170433333336,-4.065274059666667,-0.7387933336666667,16.811438243333335,29.70012029,-0.546561638,8.765158337
542,4.516485999999986,20.695836383333333,12.188182516666666,-35.75340016666667,1.680463523,-2.9141558406666666,7.745446921666667,25.22418308,1.9635130573333333,7.365283488333334
543,4.52481899999998,20.92313258,12.173201243333333,-35.682373033333334,-3.0496999023333338,-0.5092432003333334,10.909952482000001,24.753232956666665,0.8423536626666669,8.060925960333334
544,4.533151999999973,21.117527643333332,12.138216656666666,-35.627184566666664,0.7617841363333335,-1.2960748276666667,4.971587339,21.29110495,-2.0984096539999997,7.0150597889999995
545,4.541484999999966,21.29736201,12.1308225,-35.5559489,-3.130160560333333,-1.8611544766666668,10.500346342,19.065640130000002,1.7493197120000001,7.723096925666667
546,4.549817999999959,21.435370766666665,12.074422203333333,-35.5245895,1.4462984799999996,-0.9096940166666666,6.781075916,15.126860300333334,-5.47634824,5.337342262333333
547,4.5581509999999525,21.581896466666667,12.033762296666666,-35.47195433333333,-2.887768467333333,-0.10729455700000001,11.439875760333335,15.55179278,-2.7170308416666664,7.151925722666667
548,4.566483999999946,21.69948005666667,11.95074749,-35.46277363333334,1.2822560466666668,-1.690232118,11.568395613,13.257787704666667,-9.361095109999999,4.124303539333334
549,4.5748170000001664,21.859574,11.893787699999999,-35.4361369,-3.199208001333334,-0.19746739133333335,10.787380059999998,17.817331316666664,-5.583471339,5.164763292
550,4.58315000000016,21.993651073333336,11.814521153333333,-35.420557666666674,1.1205975413333333,-0.69672437,11.158327102666666,15.029209453333332,-8.517916363666666,4.9852236906666665
551,4.591483000000153,22.124371846666666,11.72891585,-35.4158503,-2.480943044,-1.0633150686666666,12.151835125,14.844839096666666,-9.731633503333335,4.039491653333333
552,4.599816000000146,22.242234546666666,11.656678516666666,-35.40783436666667,0.41403484333333324,-0.9643477200000001,4.897294441333334,13.292282738333332,-8.093291283333333,3.7825406989999997
553,4.60814900000014,22.38579559,11.53121249,-35.40443166666667,-2.823655764,0.47662315766666663,17.144405363333334,16.406396866666665,-14.170694987,5.822162230666667
554,4.616482000000133,22.503698983333333,11.48465252,-35.39505260000001,0.3246782226666669,-1.7864083846666665,6.535052537000001,13.32659626,-5.163767655666667,2.719613343666667
555,4.624815000000126,22.630661646666667,11.363784156666668,-35.40298463333333,-2.346981684333333,-0.223873034,12.558848221,14.71215757,-14.157238087666668,4.392886797666667
556,4.633148000000119,22.753702163333333,11.334415116666667,-35.37088773333334,-0.21773807233333345,-1.8022428353333335,6.075807490333333,13.395454091666664,-2.205210367333333,4.445726474
557,4.6414810000001125,22.871167500000002,11.191590943333333,-35.38503776666666,-2.013293425,-0.23320907366666663,17.671386083333335,13.692105767333333,-16.834281206,4.864615599333333
558,4.649814000000106,22.998592373333334,11.17534987,-35.33226266666666,-0.9256880283333334,-0.4723842023333334,1.7239405713333333,13.4387509,0.211714268,6.087608814333334
559,4.658147000000099,23.111866633333335,11.030513762666667,-35.33798469999999,-1.6154568690000002,-1.452686578,16.94619306,13.009195007,-16.655884903333334,5.909317811333334
560,4.666480000000092,23.218937556666663,10.987043699666666,-35.29799653333333,-0.4819649853333335,-1.3903921646666666,5.104310394,11.254989783333334,-3.362846602333333,6.0249210993333335
561,4.674813000000086,23.30169042,10.868179958333334,-35.29479983333333,-1.5539762923333333,-0.8127140996666666,12.060945350666666,9.175175905666668,-13.343762238333332,5.694771449
562,4.683146000000079,23.38911056666667,10.759257318333335,-35.28057859999999,0.06558394433333319,-0.8871174656666666,9.009478887666667,9.403560480000001,-11.733852705333334,6.481282234000001
563,4.691479000000072,23.44815445,10.670442897333333,-35.279904699999996,-3.2917019526666667,-1.3629471856666668,11.267724353,6.488676626666667,-10.172308128000001,3.8752210139999996
564,4.699812000000065,23.511447903333334,10.525548299333332,-35.29020183333334,2.4183021386666668,-0.9314992429999999,9.509373187333333,7.036131541666666,-16.924800554,5.3948723476666665
565,4.708145000000059,23.55093193,10.447006226333334,-35.2924525,-5.337065378666668,-1.3201064863333334,8.680596351666667,4.241013050333334,-9.153169630999999,3.104958154333333
566,4.716478000000052,23.59419505,10.298870087,-35.30991873333333,3.0770000866666667,-0.8418707846666665,14.525421142333334,4.789816250666667,-17.574787457333333,4.864435355
567,4.724811000000045,23.6229585,10.174688656999999,-35.35021213333333,-4.756123026,-0.6754132510000002,4.1128888130000005,3.711443901333334,-15.977298417333332,1.214221696
568,4.733144000000038,23.66430855,10.044351578,-35.350474,2.3892450133333334,-0.764157295,15.583417256666666,4.253863215333333,-14.822643597999999,5.800054987333333
569,4.741477000000032,23.701183956666668,9.915912308333333,-35.401692700000005,-5.8171564736666665,-0.9079241606666667,8.918294588666667,4.879154761666666,-16.920695780666666,0.330952525
570,4.749810000000025,23.72867457,9.757029532333334,-35.42560323333333,3.7364348570000003,-0.5929865043333333,8.830367643333332,3.0494828419999997,-19.05738476266667,4.7029458716666666
571,4.758143000000018,23.769515990000002,9.647946672666668,-35.476702366666665,-7.101575134666667,-0.2988695923333333,14.804230369999999,5.350356657,-14.786823749666667,-0.5906473286666668
572,4.766476000000012,23.82579867,9.514011385,-35.48070016666667,3.230362931666667,-1.3177609689999998,8.227635385333334,6.112898707666666,-15.342484154666666,5.6921419303333325
573,4.774809000000005,23.864569346666666,9.393119810666667,-35.552983600000005,-4.871446053333333,-0.3385434446666667,10.57925701,5.474182843666665,-17.10723718,-2.2888634203333336
574,4.783141999999998,23.93047714333333,9.266230583333332,-35.55583696666667,2.8599101356666665,-0.40097564466666663,7.4182871183333345,7.236731529333333,-14.518772283999999,5.482784226666666
575,4.791474999999991,23.9974397,9.189890543333334,-35.61119076666666,-7.280427455666666,-1.4796122910000002,12.58601443,8.535134633333334,-11.414988139333333,-2.6334430380000002
576,4.7998079999999845,24.060194016666667,9.07907931,-35.606424999999994,4.293513456666667,-0.28442540766666663,10.928448518666668,6.735145092000001,-12.367225328666668,5.545388937333333
577,4.808140999999978,24.108664193333336,9.016825675999998,-35.6661784,-7.0113307633333335,-0.8386273186666666,9.86163473,6.365198294333333,-10.104164281000001,-3.7917699913333336
578,4.816473999999971,24.17106056,8.920082092333333,-35.6454188,3.689382314333333,-1.4733357426666667,13.776483856666665,6.382214468,-10.025656622000001,6.656090259333333
579,4.824806999999964,24.22742335,8.899291674333334,-35.690879833333334,-8.096834023666666,-0.31191269033333335,11.700064979666665,7.030632138333334,-4.868774931666667,-4.2497832476666675
580,4.833139999999958,24.278383889999997,8.819751898333333,-35.66003926666667,5.147006590999999,-1.3515265386666666,8.710225422333332,4.821881195,-7.633437395666668,6.925066949333334
581,4.841472999999951,24.303257623333334,8.772147337666667,-35.7083664,-6.655155976666667,-1.6888502043333335,11.162921269,3.273343125666667,-7.961167613333333,-3.2211265863333334
582,4.849805999999944,24.329705556666667,8.701068401333332,-35.67460123333334,3.5863998733333333,-0.04462003799999998,8.104577224333333,1.8547825216666667,-6.554240304333334,6.82108911
583,4.858139000000165,24.324181876666668,8.677397887,-35.7249298,-6.652048111,-1.4606764116666666,12.762614886666668,-0.3483749626666666,-5.467777888333333,-4.663289388
584,4.866472000000158,24.335143406666663,8.631218115333333,-35.673619566666666,3.0191179513333335,-1.5073570956666666,10.388395309666667,-0.28096695766666674,-3.0012670359999998,7.3986466716666675
585,4.874805000000151,24.30195236333334,8.608024915333333,-35.72181703333333,-6.252741018999999,-0.3499368503333333,10.826932905666666,-3.7193198203333337,-5.333486318666668,-4.480814104333333
586,4.8831380000001445,24.271010716666666,8.585647900666666,-35.6746114,3.920099099333333,-1.7514792976666664,10.532098133333333,-5.225347359333333,-0.6020627023333333,5.775225003666667
587,4.891471000000138,24.23905118333333,8.581284364,-35.70715333333333,-7.258670806666667,-1.0118321576666667,10.714728672999998,-3.871476829,-2.495142301,-3.6905170283333333
588,4.899804000000131,24.203009286666667,8.577298164,-35.64698533333333,3.1486338773333333,-0.9551682573333333,10.965165458333333,-6.051726700333334,2.0396832823333333,6.271778757666667
589,4.908137000000124,24.128679273333333,8.588811079666666,-35.67930856666666,-5.990266641333334,-1.2293109746666666,9.175332705666667,-8.951984248333334,-0.7390557923333333,-4.441457748333334
590,4.916470000000118,24.04785029,8.579035918,-35.61995443333333,3.783825794666667,-2.0279981296666665,9.456341903333334,-11.418551287333335,1.3501389223333329,6.4809797609999995
591,4.924803000000111,23.96471087,8.600831667666666,-35.646163933333334,-5.840204398000001,0.5081765353333333,11.396204315333335,-10.147811095666667,0.690120379333333,-4.287644068333333
592,4.933136000000104,23.879464466666665,8.60807991,-35.58012900000001,1.8878394366666666,-2.174590647,12.432933487666666,-12.041327476,3.5282029310000005,6.395684717666668
593,4.941469000000097,23.774819689999998,8.641728719,-35.59825643333334,-5.359523931999999,-0.35001099599999996,10.969867071000001,-12.899132409333333,2.4238894786666667,-3.9047805456666667
594,4.949802000000091,23.669566473333333,8.667584101666668,-35.5347468,1.482417504,-1.0579164823333331,9.750545818,-14.393782296666666,5.4601960783333325,5.306660969666667
595,4.958135000000084,23.565413156666665,8.695885816999999,-35.537501033333335,-4.074177384333333,-0.36974940700000003,12.468585969666668,-13.133570671,2.563495000333333,-1.988049586
596,4.966468000000077,23.463145573333335,8.740585009,-35.4910787,0.9744162159999998,-1.237831374,9.498006025,-13.715090116666666,6.690234502333333,2.5250995150000004
597,4.97480100000007,23.351949056666665,8.772054513333334,-35.47971089999999,-2.593205769666667,0.09717088933333325,10.817642848333335,-14.25361284,3.574467380666667,-0.602361102666667
598,4.983134000000064,23.27180735,8.834075927666667,-35.4452667,-0.9412634373333333,-1.284707794,10.814183237999998,-10.8452185,8.046892920333333,0.45969494333333333
599,4.991467000000057,23.18207931666667,8.866048177333335,-35.40839893333334,-1.0987047353333332,0.21389708899999996,10.049740313,-12.145970661,4.836540936666666,2.2045885706666666
600,4.99980000000005,23.092269896666664,8.934280713333331,-35.396883633333324,-2.186905443666667,-1.1516323143333334,9.571426391666666,-11.572322051999999,7.637032188999999,-2.3699058703333336
601,5.008133000000044,23.01374054,8.961530685666666,-35.33934023333334,0.13118669866666652,-0.3393065433333334,9.340780258333332,-11.18914922,5.235081355,4.6256551749999995
602,5.016466000000037,22.94571241,9.013115883,-35.3509954,-2.2717695833333336,-0.9143779276666667,10.693804424,-8.530510662666666,4.707538644333334,-4.140601635
603,5.02479900000003,22.892101923333332,9.011650085333335,-35.29514313333333,-0.3472687106666667,-0.6628958183333333,11.631301243333333,-8.186204115666667,1.9837331773333335,5.822479725666667
604,5.033132000000023,22.827783586666666,9.065436681333333,-35.318417866666664,-1.3104541303333332,-0.713948851,10.552768070333334,-7.875024636666666,4.423314174,-5.495799541666666
605,5.0414650000000165,22.773827233333336,9.058341662333333,-35.27072906666667,-0.9722453953333335,0.33819964533333335,13.448101363333334,-8.066576480666667,0.973020822,5.188099543000001
606,5.04979800000001,22.704427719999998,9.118039449333333,-35.28271486666667,-2.6098225116666667,-1.2266830703333333,8.929813386333334,-8.683914024666667,5.5996054803333335,-4.5419247946666665
607,5.058131000000003,22.655880609999997,9.098322232666666,-35.25684103333334,-0.6325899760000001,-0.46975497433333335,11.594457627666666,-6.9807643090000004,-1.4297011693333335,3.3851821423333335
608,5.066463999999996,22.61307589333333,9.150794029000002,-35.269159933333334,-3.054269354,-1.165687581,8.882240931333333,-5.499552090666666,4.783604423,-4.246486306
609,5.07479699999999,22.58144951,9.137672424333333,-35.23590853333333,0.8216162520000001,0.5879178696666667,14.642203333333335,-5.081126371666667,-0.35880849733333325,3.908707281
610,5.083129999999983,22.530468620000004,9.198325793,-35.250513733333335,-3.563001138,-0.375070034,8.806379954999999,-6.4383311270000005,5.582922380333333,-4.882257382333333
611,5.091462999999976,22.476814906666664,9.198820750000001,-35.2075297,-0.01270496866666663,-1.0838524696666667,12.070764539666667,-7.902311564666667,1.5809320606666664,4.329079150999999
612,5.099795999999969,22.444643023333338,9.245588620666668,-35.233507800000005,-1.9717485903333334,-1.3302430313333333,9.480006218,-3.9846573473333335,3.531776328666666,-5.476832071666667
613,5.108128999999963,22.432332993333333,9.240330696333332,-35.19372046666667,-0.5567443073333332,0.3818246573333333,13.257700603333333,-2.8871638773333337,0.807808717,4.27902019
614,5.116461999999956,22.40363884,9.317657470999999,-35.199587533333336,-2.6282417176666666,-0.6789773653333334,8.015394688999999,-3.9648748240000002,7.863306839333333,-4.594408641333334
615,5.124794999999949,22.36409378,9.317414283666666,-35.17951966666667,-0.45098556100000003,-0.7478932913333333,12.995636623333334,-5.7616284686666654,0.49142217666666665,1.9244021573333334
616,5.133127999999942,22.34481112333333,9.383554458666667,-35.17577359999999,-3.0258197386666663,-0.9303088286666666,7.041273277333333,-3.040200829333333,7.053029141333333,-3.027154604666667
617,5.141461000000163,22.334304173333333,9.387682597,-35.166875233333336,0.9902838070000001,0.14339749000000004,15.51603380666667,-2.054411153,0.48814797400000004,0.5427014829999998
618,5.149794000000156,22.321953456666666,9.444594065333334,-35.163798033333336,-3.146447976333333,-0.5228274266666667,8.741395473666666,-2.2163954576666667,6.013347019666667,-2.6360975900000003
619,5.15812700000015,22.27730878,9.461545628000001,-35.15111796666667,-0.16672194000000004,-1.64556698,10.577369689666666,-6.211046298333334,2.0660057466666664,0.32835346466666654
620,5.166460000000143,22.266067503333332,9.486168225333333,-35.1613159,-1.2614291186666666,0.3780897266666667,11.152253309333332,-1.8152640663333333,1.7671225866666669,-2.7659366923333337
621,5.174793000000136,22.250723519999998,9.492635407333333,-35.15918986666667,-1.2749681966666666,-0.9017850716666667,12.62605699,-2.473276282,0.409998814,-0.3914413353333333
622,5.183126000000129,22.224763233333334,9.525243439999999,-35.15205379999999,-1.649924477,-0.661990608,9.011509577333333,-3.9086683593333333,3.4271122613333334,-1.2507944106666666
623,5.191459000000123,22.171735766666668,9.536509831666667,-35.17484283333334,-1.3106975356666668,-0.703161955,10.85079511,-6.476001104999999,-0.1925249296666666,-3.3998892306666666
624,5.199792000000116,22.144286473333334,9.547157287666666,-35.1602758,-2.1552971006666666,-0.626310542,10.103611311,-4.2416834843333335,1.3065609333333335,0.533830285
625,5.208125000000109,22.104942320000003,9.573738733666666,-35.17773433333333,-0.8859695793333332,-0.7541374209999999,12.328616460666668,-4.924878915333333,1.7571326889999996,-3.4963003
626,5.216458000000102,22.06473477666667,9.580862997333334,-35.17088826666667,-1.3290187766666666,0.7724714279999999,11.005888937333333,-5.617368539,0.5581774513333331,-0.18146399666666677
627,5.224791000000096,22.003109613333336,9.618481952333333,-35.186248766666665,-2.318033983333333,-2.1343066096666665,8.487750213666667,-7.643762588000001,3.0792631306666665,-3.761416594
628,5.233124000000089,21.96371015,9.608198485,-35.17781066666667,0.11405505733333336,-0.40776073933333334,13.86601575,-5.54721155,-1.311039448,0.7671336329999999
629,5.241457000000082,21.908544539999998,9.649903617,-35.20457966666667,-2.291624427,-0.174608499,8.417019367666667,-6.6460195376666675,3.027308782,-5.205354889
630,5.249790000000076,21.83846155666667,9.647087097666667,-35.18039446666666,-1.4806335466666667,-0.8205684026666665,11.087101459333335,-9.539455572333333,0.22307427733333318,2.1754896243333337
631,5.258123000000069,21.762804666666668,9.686775525666667,-35.213874800000006,-1.4350891313333332,-1.3565449713333333,9.199573994666666,-8.988133906333333,2.5547598206666664,-5.7459522089999995
632,5.266456000000062,21.675567626666663,9.670038223999999,-35.2095871,-0.6585932373333332,-0.32975749166666674,14.51383432,-11.235544996333333,-2.119006594,0.8260719476666667
633,5.274789000000055,21.56754239333333,9.712690034333335,-35.22251126666667,-2.075083355,-0.695159356,6.065014521333334,-13.302999498,3.8034201216666665,-3.5899252096666667
634,5.2831220000000485,21.43849182,9.680539447333333,-35.2497584,0.14954624566666663,-1.2781412003333334,14.44292322666667,-15.642855961666667,-5.180184126,-1.9050430063333332
635,5.291455000000042,21.29843203333333,9.696338017666667,-35.27759806666666,-2.640510569,-1.5048920713333331,8.376064777000002,-16.875812533,0.17414736733333344,-4.043221315
636,5.299788000000035,21.10078176,9.700442950666668,-35.297861766666664,-0.35046076766666673,-1.5210725863333334,14.017916361333334,-23.963215509999998,-0.8501366576666668,-2.8177860973333337
637,5.308121000000028,20.865525566666665,9.704690298666668,-35.352427166666665,-2.773257106666667,-1.3062716326666666,10.021431922333333,-27.760871253333335,-2.221959609666667,-6.491016546666667
638,5.3164540000000216,20.576842626666664,9.743712424,-35.36795553333333,-0.8855183916666666,-2.521364212,8.754333972666666,-34.95127233,3.2701047259999996,-3.811886310333333
639,5.324787000000015,20.230138143333335,9.720426242666667,-35.4579239,-1.1616702083333335,-2.140919725,13.09758377,-40.44346873,-6.716635068666666,-9.351721445333334
640,5.333120000000008,19.837692259999997,9.794892948,-35.48078156666666,-2.480673375333333,-2.4226799013333338,8.257229964,-47.24320856666666,7.017608484999999,-5.989482164666666
641,5.341453000000001,19.344065986666667,9.819186845666666,-35.55995686666667,-1.0063003106666668,-2.1552116873333333,15.258860906666667,-58.26271566,-0.782701969,-10.176859376666668
642,5.349785999999995,18.797435123333333,9.888819058000001,-35.610054,-2.870564659,-2.380885442333333,6.052576144666666,-65.18927638000001,5.501379726666667,-8.753978570000001
643,5.358118999999988,18.16438166333333,9.967414853666666,-35.67470296666667,0.07639505466666659,-2.8888730206666664,12.177271840000001,-75.23916880333333,6.1229541696666665,-10.574706077
644,5.366451999999981,17.451480229999998,9.997598966666667,-35.77054343333334,-2.1781542696666665,-2.6775184473333336,10.071144104333333,-84.19818367999999,-0.5022080726666669,-12.617680866666666
645,5.374784999999974,16.688609760000002,10.152446746,-35.8149414,-2.7154874203333335,-2.449195742666667,7.724269868666667,-91.20957439666667,15.855869134666667,-10.478148144
646,5.383117999999968,15.819136936666666,10.213662465333334,-35.91899873333333,-0.696968079,-2.487316807,17.191904066666666,-102.76608021,3.1388998036666664,-14.620459873333333
647,5.391450999999961,14.885056813333335,10.325890540333333,-35.991193133333326,-2.6384627816666666,-3.1392355760000004,2.924040556,-111.16584013333333,10.340597787,-12.01595688
648,5.399783999999954,13.878245669999998,10.472156843666667,-36.08073170000001,-0.7594138383333332,-1.79109929,15.111597380000001,-119.50936636666667,13.9586943,-15.113898596666667
649,5.408116999999947,12.808551153333333,10.572225887,-36.16318003333334,-2.5569444496666667,-2.0270414453333334,11.624887468666666,-127.19287363333332,9.019450903666668,-12.621575356666666
650,5.416449999999941,11.664500869666668,10.749332746666667,-36.244176233333334,-0.41888697933333346,-3.439771811,3.9002541303333333,-136.09983826666667,18.327602624333334,-14.172598203333331
651,5.424783000000161,10.425179959333335,10.808415096,-36.36329653333333,-1.6675900419999998,-1.947300434,16.80931854333333,-146.68774413333335,3.818572085333333,-15.676656723333332
652,5.433116000000155,9.170328455666667,11.001921016666666,-36.42823283333333,-2.053326606666667,-1.280760646,3.4761794409999998,-149.75768533333334,21.215597786666667,-11.755969046666666
653,5.441449000000148,7.855063279666666,11.132801693333334,-36.5490468,-1.3453024726666662,-2.1443030833333334,18.287321726666665,-155.69062296666667,13.017178853333334,-16.65218894
654,5.449782000000141,6.523687045,11.251105626666666,-36.617670700000005,-1.1776964666666665,-1.2468047340000001,4.301308234333334,-158.82724,12.712318678,-10.537428539666665
