,time,Euler_X,Euler_Y,Euler_Z,Acc_X,Acc_Y,Acc_Z,Gyr_X,Gyr_Y,Gyr_Z
0,0.0,21.211779595,-2.6805404425,15.944820400000005,1.205815077,-0.1490514055,12.833926675,-3.1915535925,13.675243855,0.42867970450000037
1,0.0041664999999966,21.210980415,-2.513574481,16.018001549999994,-4.0656225085,-0.929784954,9.5998015405,0.03616732349999996,21.090532305,0.7012150290000001
2,0.00833299999999325,21.208320620000002,-2.4193284515,16.0700874,0.3029491904999997,0.131508399,11.0647063265,0.29811137900000007,11.99140167,1.535689354
3,0.01249949999998985,21.20237255,-2.213674128,16.141502349999996,-1.752709746,-0.457667194,11.918367385,-0.6429496555,25.34081268,-1.1455194950000003
4,0.0166659999999865,21.22183704,-2.1089059115,16.21445465,-1.3049166200000002,-0.22410958999999997,9.073594093,3.043278396,14.057166574,3.383526923
5,0.02083249999998315,21.240068434999998,-1.9263833165,16.26766204999999,-1.4802448750000001,0.14684158550000004,13.092007160000001,2.3993315695,21.909384725000002,-2.1609325405
6,0.02499899999997975,21.25761509,-1.7784203294999998,16.362209299999996,-1.307589054,-1.3548751175,8.07528615,2.6106166245000004,19.87991667,3.9106560965000003
7,0.02916550000003325,21.30450535,-1.6136743425,16.386238099999993,-0.8861973289999998,1.1085838080000001,12.171656604999999,5.4458386895,18.710764885,-4.6968575695
8,0.03333200000002985,21.31464958,-1.4379994269999998,16.49293515,-2.952649981,-2.2227301600000002,10.294455052,1.958887756,23.427352905,4.0709697305
9,0.0374985000000265,21.357902525,-1.2387601135,16.501159700000002,-0.28871774650000015,-0.321412653,8.647066832,4.9715918305,21.8992548,-7.9982981665
10,0.04166500000002315,21.359666824999998,-1.0688253045,16.601520550000004,-2.431121916,-0.0669095515,12.851171015,0.8552852870000001,22.48824978,3.6341683265
11,0.04583150000001975,21.39637375,-0.8210760205000001,16.622005449999996,-0.6527764800000001,-0.991833419,8.861398697,4.5096904040000005,27.78964138,-8.757584573
12,0.0499980000000164,21.41294575,-0.6550542415,16.725406649999996,-2.717961371,-0.45792362099999995,13.570888995,2.271221697,22.241189005000003,4.11338532
13,0.05416450000001305,21.43984127,-0.3791386335,16.762767799999992,-0.1361329255,-0.106537253,8.581265211,3.055057526,31.7586174,-8.160735129999999
14,0.05833100000000965,21.46053696,-0.221301984,16.8479271,-1.981191337,-0.9446323809999999,13.190106865,2.9626911875,20.4285717,2.4430997375000003
15,0.0624975000000063,21.477900505,0.06621415900000002,16.904727899999997,-1.0506626365,-0.5933119649999999,9.884407519500002,1.8901658655,33.913028715,-6.530592084
16,0.06666400000000294,21.484819414999997,0.22430782,16.95946885,-1.6925017835,-0.601032108,10.866437435,1.2628717425000002,19.11263752,-0.9749419690000001
17,0.07083049999999955,21.459430695000002,0.526549399,17.022609700000004,-1.24686566,-2.1687844995,8.858809948000001,-2.9742964805,35.763462065,-6.4204522355
18,0.0749969999999962,21.41219616,0.6902416345,17.0507851,-1.019843966,0.0990171695,13.568659305,-5.5639834404999995,18.639131550000002,-4.1947297455
19,0.0791634999999928,21.30151844,1.012742311,17.130973800000007,-1.8939982655,-3.3717652559999998,10.9100103395,-13.625647545,38.862176895,-5.3693342805
20,0.08332999999998945,21.129755019999998,1.160206884,17.128036500000007,0.27301812150000004,-2.2807669639999997,13.225191595,-20.105822085,15.41619873,-6.8446980725
21,0.0874964999999861,20.899448395,1.5114138125,17.2078438,-3.6910321715,-3.0579108,6.4749143125,-28.072373390000003,42.077631,-6.413863182
22,0.0916629999999827,20.577610964999998,1.6872240905,17.19462205,1.103010461,-1.9515376684999999,16.725586890000002,-38.04500103,18.222220895,-9.041617394
23,0.09582949999997935,20.195667264999997,2.0453656915000002,17.26315305,-4.9707050325,-3.021392107,3.7908910515,-45.94653702,42.352891920000005,-7.478967428
24,0.0999960000000328,19.68058014,2.3014512065,17.257423399999993,2.250830069,-3.4205880165,16.740468025,-61.58269882,27.79835987,-11.254763125
25,0.10416250000002945,19.083151819999998,2.5418851375,17.261199950000005,-3.1438816335000004,-3.2488615515,7.4953076815,-71.94017410000001,26.653274539999998,-9.391414881
26,0.1083290000000261,18.370952605,2.9101037979999997,17.274730700000006,-0.05400347700000019,-3.8637695315,11.961606026,-84.931087495,41.432220459999996,-12.734826564999999
27,0.1124955000000227,17.567734715,3.0672272444999997,17.245658899999995,-1.2241357565,-1.681780219,14.387272355,-96.45213699,16.1448617,-9.3583915245
28,0.11666200000001935,16.69708538,3.512533903,17.285999299999993,-3.8043362945,-3.0809373855,2.6835309265,-104.10041810000001,51.549627305,-11.2295727745
29,0.12082850000001595,15.699302675,3.7088022235,17.254940000000005,2.7512425485,-2.631692171,21.78981972,-119.35812375,20.771850585000003,-10.298591852000001
30,0.1249950000000126,14.649187565,4.002803087,17.240337350000004,-3.397046015,-3.7314275505000003,2.183106899,-125.61922455,32.746579170000004,-11.086188795
31,0.12916150000000926,13.493383885,4.3214433195,17.238742849999994,-0.06834357950000003,-1.757204771,15.903573990000002,-138.959816,36.3323288,-9.7033443445
32,0.1333280000000059,12.327692984999999,4.527935505,17.214908599999994,-2.762366831,-0.13297444599999997,6.270103454499999,-138.97312929999998,22.622619630000003,-8.219804286
33,0.1374945000000025,11.067878725,4.981015682000001,17.231021900000002,-1.9933657870000001,-2.652065158,12.875457285,-151.6181641,52.922948835,-9.365116357
34,0.14166099999999915,9.781673908,5.102137088999999,17.175876649999992,2.1192225815,-0.8910316975,11.309205296,-153.0580444,12.156979563,-9.210018875
35,0.14582749999999575,8.476638794,5.529989004,17.16350175000001,-3.728757143,-1.384224653,9.6347990035,-156.749527,49.75206184,-9.8393895635
36,0.1499939999999924,7.1918132305,5.6905727385,17.1183014,0.7503983970000001,0.437194496,9.654716490999999,-152.97866825,17.444447995,-7.8676857965
37,0.15416049999998904,5.891974926,6.0839977265,17.065410600000007,-3.563592464,0.302516524,10.183240416,-155.6035919,45.480480189999994,-11.883849145
38,0.15832699999998565,4.6455106735000005,6.348153591,17.03704069999999,-1.2840198725,1.0114073455,9.0017571425,-148.55243685,30.33329487,-6.195852935
39,0.1624934999999823,3.4181231260000002,6.6223623755,16.94044495,0.6199867724999999,2.1125358345,12.999625205000001,-146.25566865,31.306994435,-14.0330610275
40,0.1666599999999789,2.2182114124999996,6.9540579319999996,16.913452149999998,-2.8762348,-1.8898902235,10.682955266,-142.96517945,38.661951065,-5.351263582500001
41,0.1708265000000324,1.064421177,7.155523538500001,16.785888700000008,2.4886471625,1.805162787,9.8479385395,-136.830101,23.022811885,-16.10601616
42,0.17499300000002904,-0.0555689845,7.3982229230000005,16.733127599999996,-1.7017103845,0.7493046525,11.488961699,-132.98952485,28.146391870000002,-6.7310779095
43,0.17915950000002565,-1.0779005289999999,7.6084690095,16.60328675000001,-0.5466762184999999,1.3917134405,5.9467163085,-120.91051105,24.67067051,-15.428735255
44,0.1833260000000223,-2.0914052725,7.8211054805,16.530872350000003,-2.079012811,1.2360796925000002,13.221372129999999,-119.86963655,24.839528085,-8.086138247000001
45,0.1874925000000189,-3.03071022,8.033599615,16.387367249999997,-0.49020282150000005,1.4781324865,7.845019579000001,-110.59366985,25.52506447,-16.126274584999997
46,0.19165900000001554,-3.932928562,8.1735305785,16.30879975,-0.9305175545,1.569616914,10.5791378,-106.41776655000001,16.429784295,-8.467467308
47,0.1958255000000122,-4.805886983500001,8.341659784,16.17167659999999,0.2540351745,0.19832998500000001,10.530019046,-102.61598585,20.650633810000002,-14.923119544999999
48,0.1999920000000088,-5.6295068265,8.359614849,16.07791135,0.760567419,0.9962322265,10.8131880755,-96.73001478500001,2.2754448949999997,-11.097428799500001
49,0.20415850000000546,-6.450208186999999,8.447713136499999,15.939868949999997,-0.36233711199999996,-0.537628427,10.073712588,-96.27307891999999,11.5321860325,-15.39522791
50,0.2083250000000021,-7.2275092605,8.397166729,15.856998449999999,-1.295336023,1.5145729185,9.370780468,-91.392993925,-5.7129434345,-10.743029594
51,0.2124914999999987,-8.0252387525,8.4556949135,15.718036650000002,-0.5571834365,-0.09886804199999999,9.453042032,-93.491760255,8.4455087205,-15.629104134999999
52,0.21665799999999535,-8.8066792485,8.3118867875,15.639579750000003,0.9245393275,-0.8359093369999999,11.938005924999999,-92.01612091,-16.567921634999998,-11.90727425
53,0.22082449999999196,-9.6088705065,8.2701816555,15.516712150000004,-0.9381224515000001,-1.016967982,8.211616039,-94.333599095,-3.30781734,-15.41988802
54,0.2249909999999886,-10.387920855,8.0322220325,15.449497199999996,0.044240832499999994,1.6229881645000002,12.39130688,-92.00737380999999,-27.58018589,-13.019307611999999
55,0.22915749999998525,-11.18540382,8.007372856,15.327346799999994,-3.467524171,-1.6047376990000002,5.705509484,-93.84957123000001,-0.9137312470000001,-15.038665775
56,0.23332399999998185,-11.996485235,7.7228355405,15.26771165000001,2.9830223325,-0.1389766035,14.819210055,-96.03330996,-32.864087104999996,-13.96757269
57,0.2374904999999785,-12.809324740000001,7.583647728000001,15.169795949999994,-3.163650274,-0.90212059,5.4947290419999995,-96.18113327,-14.514180660000001,-15.18322897
58,0.24165700000003196,-13.619799140000001,7.285719394500001,15.124191250000003,1.3121266660000002,-0.04896450050000001,15.622707845,-96.266304015,-34.418463705,-13.507891655
59,0.2458235000000286,-14.41846514,7.136462212,15.036670699999995,-4.2226308585000005,0.14472767750000004,4.5826318265,-94.74400711000001,-15.5557255755,-14.688355445000001
60,0.24999000000002525,-15.242896555000002,6.8552806375,14.992256149999996,1.7864496115,-0.007708608999999977,17.189442635,-98.022953035,-32.102626799999996,-13.84960318
61,0.2541565000000219,-16.06748009,6.6181976795,14.938118000000003,-2.581616521,-2.5124229195,4.8566520215,-98.411045075,-26.356135365,-14.126914025
62,0.2583230000000185,-16.916437145000003,6.325979233,14.905700700000004,1.5538596065,0.9631992875,15.08413744,-101.1993904,-33.34724903,-13.814475535
63,0.26248950000001514,-17.732341765,6.084656477,14.860496550000008,-4.479587555,-0.9149493425,5.913339615,-97.569473265,-26.7460928,-14.012729165
64,0.2666560000000118,-18.58672428,5.8265285495,14.826103200000006,0.528822668,-0.6043584049999999,13.4489998805,-101.86716081,-28.956480980000002,-13.73550987
65,0.2708225000000084,-19.418986320000002,5.5452799795,14.806365950000007,-2.132644653,-0.21872000400000002,6.920560239,-99.867984755,-31.846395494999996,-13.45783329
66,0.27498900000000503,-20.265434265,5.2545671464999995,14.797378549999998,1.2784933445,-0.060077756999999996,16.209735395000003,-101.28067779,-33.258888245,-13.014400005
67,0.27915550000000167,-21.049034114999998,4.960128307,14.810733750000004,-3.0982551574999997,0.472166255,6.2626805305,-94.413002015,-34.3290205,-11.209313389999998
68,0.2833219999999983,-21.833527565,4.697458267,14.812927250000001,-0.04793015150000002,1.316375613,13.74765253,-93.99079895,-30.231661799999998,-11.455278397499999
69,0.28748849999999493,-22.54522133,4.4274494650000005,14.842041000000002,-3.2592375875000004,1.451992035,6.4647603035,-85.93327331500001,-32.0259161,-9.250720501
70,0.29165499999999156,-23.22968197,4.1646504405,14.860942850000008,-0.136109453,1.6006972790000003,13.362281325000001,-82.18001175,-30.703217504999998,-10.432025432
71,0.2958214999999882,-23.847131725,3.9323366880000004,14.89043809999999,-2.914353609,0.5439046025000001,9.7208049305,-74.593154905,-27.675103184999998,-8.139500618
72,0.2999879999999848,-24.41200161,3.6428192855,14.927093500000005,0.3951602725,2.524794757,11.772901534999999,-67.990234375,-34.256866455,-10.4761037815
73,0.30415449999998145,-24.936654089999998,3.4354058499999995,14.950611100000003,-2.5535435675,0.068160638,10.874646665,-63.368650435,-24.50465679,-8.054422617
74,0.3083209999999781,-25.369835854999998,3.1533169745,14.998386349999997,-0.673167676,1.9931398035,9.789216039,-52.298995975,-33.8357563,-9.4928741435
75,0.31248750000003156,-25.78055954,2.9701385494999997,15.017414099999996,-2.376897156,0.71582216,11.748197555,-49.624746325000004,-21.517661095,-7.655058384
76,0.3166540000000282,-26.1114769,2.720970333,15.054744749999998,-1.1385789215,0.7421375809999999,8.9854192735,-39.946380614999995,-29.624842645,-9.298480987
77,0.3208205000000248,-26.424407005,2.5467700365,15.069236750000002,-1.181249924,1.1260160805,12.72482252,-37.855047225,-20.226917265,-7.9053988455
78,0.32498700000002145,-26.66999817,2.342512071,15.095695499999998,-2.7817150355,0.477707684,8.035179138,-29.660449985,-24.101655960000002,-8.41911602
79,0.3291535000000181,-26.894080165,2.169909954,15.109554300000006,-0.357672572,0.9106180965,13.29220724,-27.172713275,-19.943192484999997,-8.0750174525
80,0.3333200000000147,-27.068379399999998,1.9914680120000001,15.133357999999994,-2.923428416,0.587440446,7.896485090500001,-21.089638710000003,-21.151522635,-7.428301096
81,0.33748650000001135,-27.221875195,1.836139798,15.141727449999998,0.2846384645000001,0.950441867,13.808130745,-18.674625395,-17.75597286,-7.8241355420000005
82,0.341653000000008,-27.325252534999997,1.6766764525000002,15.173854800000008,-3.6779773234999995,0.083132293,8.051646948,-12.637313365,-19.547947885,-5.619957685499999
83,0.3458195000000046,-27.419359205,1.5514402985,15.172332750000002,0.291233167,1.135385811,13.662879945,-11.44647312,-13.990735050000001,-7.302690983
84,0.34998600000000124,-27.468419075,1.391080588,15.212772399999999,-3.2517650125,0.083303094,8.5066297065,-6.197238207,-20.060821535000002,-4.821587324
85,0.35415249999999787,-27.505758285,1.3086258475,15.202060700000004,0.142837882,0.5306764319999999,13.390799520000002,-4.664167166,-8.893026113,-5.918868065
86,0.3583189999999945,-27.512428285,1.146572605,15.253158550000002,-2.8251254555000003,0.1951345095,10.120317460999999,-1.0980310439999998,-20.8301754,-3.8732643125
87,0.36248549999999113,-27.51050949,1.1193654835,15.230987550000009,-1.2889874875,-0.7739822270000001,10.792046546000002,0.0735256675,-2.3640979525,-4.095953345
88,0.36665199999998777,-27.485715865,0.9532448275,15.286594399999998,-1.133581281,0.6349347830000001,12.250711915,2.6733006835,-21.54495907,-3.542501092
89,0.3708184999999844,-27.459503175000002,0.971829601,15.251064300000003,-2.4399507049999998,-1.14754951,7.491825104,3.0291395185,3.2224886415,-2.9916018245
90,0.37498499999998103,-27.42778683,0.8230039245,15.304935449999995,-0.587777227,-0.163743399,14.955624105000002,3.497855216,-19.58625698,-2.7252978685
91,0.37915149999997766,-27.39200211,0.8546895569999999,15.27407075,-3.734398246,-0.2940822915,6.0492129905,4.106979966,4.3802263439999995,-1.8000724315
92,0.38331800000003113,-27.390513419999998,0.7624508105000001,15.292053199999998,1.0085813065,-1.513586998,16.8914938,-0.039337277500000045,-11.5698232665,-3.467027903
93,0.38748450000002777,-27.370720865000003,0.738375142,15.302001949999998,-3.7181143765,-0.3458737135,5.803600073,2.113821328,-3.8184812665,-0.5294079035
94,0.3916510000000244,-27.384692190000003,0.7272666765,15.27487945,0.4178421275,-0.9109990655,13.766885760000001,-1.834408283,-0.46223437749999996,-3.7387498615
95,0.395817500000021,-27.385878560000002,0.597263515,15.33304214999999,-0.761671424,-1.3123456834999998,12.07278204,-0.469598889,-17.80095911,-1.2316417400000002
96,0.39998400000001766,-27.41733837,0.6497775244999999,15.274311050000001,-3.0421266559999998,-1.2898195685,7.012071789999999,-3.944905877,8.084922314,-3.6139187815
97,0.4041505000000143,-27.476217265000002,0.5270191875,15.327201849999994,0.6515795585,-0.8780775815,16.112051485000002,-7.3266792285,-16.69894266,-1.3636444810000001
98,0.4083170000000109,-27.497570995,0.543829672,15.293083199999991,-4.3131587504999995,0.0707617995,4.4228979345,-2.7971835135000003,2.9056529995000004,-3.0071178675
99,0.41248350000000755,-27.553797725000003,0.5216381400000001,15.287383999999996,0.6115136889999999,-0.991469905,13.983603955,-6.9390957335,-2.7604209185,-2.0188950895
100,0.4166500000000042,-27.599375725,0.42260660250000004,15.311862900000001,-0.8801912814999999,-0.495556116,10.924119950000001,-5.758228302,-12.66561985,-3.172803879
101,0.4208165000000008,-27.66030979,0.468556136,15.281169900000002,-3.078266144,-1.308831662,7.279123545,-7.5443775655,5.85793674,-0.9629286829999999
102,0.42498299999999745,-27.743144985,0.35389850999999994,15.312316850000009,1.7434436679999998,-0.6931940315,16.42171192,-10.171851636,-14.661874770499999,-3.2954256534999997
103,0.4291494999999941,-27.81326008,0.3440259245,15.319660199999994,-5.1535873415,-0.510376498,5.7502381805,-8.6901226045,-2.1738929750000002,-0.03810119649999999
104,0.4333159999999907,-27.90033627,0.35809871549999994,15.282302849999994,0.71958594,-1.1663938164999998,12.76329613,-10.6428122505,2.8260195255,-3.3956475855000003
105,0.43748249999998734,-27.980943680000003,0.26911616349999995,15.324321750000003,-1.109180927,0.083356511,12.754971505,-9.9543082725,-12.51370859,-0.7881180944999999
106,0.44164899999998397,-28.06849289,0.29216940700000005,15.292144749999999,-2.671530724,-0.8868660775,6.709600687,-10.780673978500001,3.484893799,-2.38433969
107,0.4458154999999806,-28.177038189999998,0.23875749099999993,15.309883149999997,0.45373529199999996,-1.2546543479999999,15.265515324999999,-13.2785306,-7.3978348975,-1.355422586
108,0.4499820000000341,-28.26930332,0.18001583249999997,15.33251955,-2.1780086755,-0.257204422,8.7238008975,-11.366972445,-8.228870212,-1.2374303935
109,0.4541485000000307,-28.366379735,0.2065459785,15.293426500000002,-1.133339852,-0.6934173105,10.057364225,-11.843685624999999,4.308635652,-2.8069171305
110,0.4583150000000274,-28.46735096,0.11839383800000003,15.340587649999996,-0.899428278,-0.7473813890000001,14.09115267,-12.424054621,-12.760035994999999,-0.3201010824999999
111,0.462481500000024,-28.544080735,0.132735461,15.320110299999996,-3.0857053995,-0.3514983955,5.7513697145,-9.4692447165,1.9651628730000001,-1.5900871625
112,0.4666480000000206,-28.648340225,0.1340337695,15.311614999999996,0.17743667949999997,-0.5326131885000001,13.186743735,-12.780878065,-0.136210084,-1.058169216
113,0.4708145000000172,-28.737888335,0.01967218500000001,15.355678549999993,-0.9175909535000001,-0.756718129,12.056880952,-11.0499587055,-15.320596219999999,-2.2050532105
114,0.4749810000000138,-28.80971718,0.09588062749999998,15.312553400000006,-3.3031232955,-0.828751542,8.003450153,-8.866830349,9.7707953455,-0.3736798465
115,0.4791475000000105,-28.918541904999998,0.014206439000000015,15.338088999999997,1.197120041,-1.607072771,15.116192340000001,-13.2673335065,-10.769495485,-2.2530800104999997
116,0.4833140000000072,-28.99211121,0.01264324750000001,15.347469350000004,-3.691906929,0.1980088055,6.327950358500001,-9.1831841485,-1.4872775079999998,0.6079922915
117,0.4874805000000038,-29.08908081,0.06617960299999998,15.297248850000003,-1.2511562410000001,-0.7262240795,11.5055937755,-11.844403745000001,7.835915327,-2.365097523
118,0.4916470000000004,-29.179099084999997,-0.01522469500000001,15.345470450000008,-0.1025875209999999,-0.028711557499999985,14.82228851,-11.1397027985,-12.125210764999999,0.036871709
119,0.495813499999997,-29.246664045,0.05741709449999999,15.286811850000007,-2.6994990115,-1.4876415135,5.7739446165,-8.408175230000001,10.3205857285,-2.1749113205
120,0.4999799999999936,-29.33419323,0.022645622500000018,15.303588900000001,0.3963032515,-0.6940152275,15.724792484999998,-10.7515001295,-5.3805863845,-0.46996381849999996
121,0.5041464999999903,-29.401785850000003,0.004680335499999966,15.315071099999997,-2.2079254985,-0.474874287,8.4748032095,-8.358111144,-3.2536100145000004,-0.12380641699999995
122,0.5083129999999869,-29.471834180000002,0.10013809800000001,15.26145555,-3.1117904185,-0.410160482,7.682037115,-8.7553062445,12.355708125,-0.2263849375000001
123,0.5124794999999835,-29.53388023,0.061187029000000004,15.281711549999997,1.1614828405,0.04732218399999999,14.518349645,-7.6524450779999995,-5.961853981,-0.4088095425
124,0.5166459999999802,-29.56798172,0.0774507525,15.272178649999994,-3.664545059,-0.45665363950000004,7.015994072,-4.4752168655,1.47913903,-0.31823790099999993
125,0.5208125000000337,-29.616811755,0.14688798750000004,15.228996299999999,0.35106295349999994,-1.3409236075000002,13.03671837,-6.08763957,9.082072257,-0.5980539920000001
126,0.5249790000000303,-29.687602995,0.07621228699999999,15.262500800000005,-0.9664484115,-0.575228486,12.721502305,-8.811151267,-10.111726286,-0.95204293
127,0.5291455000000269,-29.71948528,0.1606850325,15.216545100000005,-2.9832696915,-0.823286373,6.298391819000001,-4.032058716,10.835570811,0.0033171174999999664
128,0.5333120000000235,-29.767135619999998,0.1740958695,15.19543075,-0.28805980049999996,-0.454948761,13.45203686,-6.0732374195,1.873546943,-1.6484168175
129,0.5374785000000202,-29.813598634999998,0.15113011050000003,15.217014300000002,-1.4584194235,-0.22783786099999997,10.82290888,-5.8053770065000005,-4.3781006335,0.6393250225
130,0.5416450000000168,-29.847501755,0.2192365825,15.159610750000006,-1.981395185,-1.9787617925,7.7507572175,-4.4241039755,9.7466146935,-2.1934496165
131,0.5458115000000134,-29.907880785,0.1994345185,15.17362215,0.373836532,-0.6602382065,15.371856690000001,-7.5180161015,-3.6344817875,0.06599503
132,0.54997800000001,-29.96848011,0.19923770400000002,15.165603650000008,-1.992341995,-0.9718263149999999,9.250962971,-7.586374044499999,-0.284093857,-1.1118499935
133,0.5541445000000067,-30.02218246,0.271637589,15.128398900000008,-2.615005374,-0.5760983155,8.095620632,-6.648937225,9.0440859795,0.25826839349999997
134,0.5583110000000034,-30.071722985,0.27369144549999996,15.116897600000001,0.161256954,0.02427989250000001,12.74576378,-6.3071730135,0.1404110785,-1.3435946105
135,0.5624775,-30.10544777,0.254293054,15.132430999999997,-1.5729584695,-0.6648383325,11.145398615,-4.2899304035,-3.6636748315,0.2216271165
136,0.5666439999999966,-30.136408805000002,0.3207666579999999,15.084159849999999,-1.8952934295000001,-1.363248423,8.342528105,-4.047356606,9.046769141999999,-1.27438505
137,0.5708104999999932,-30.188394545,0.28386726999999995,15.107574499999998,0.35386350749999995,-0.404407516,14.583860399999999,-6.5254508255,-5.97922766,-0.0011398794999999962
138,0.5749769999999897,-30.213885305,0.2935230285,15.108135200000007,-1.9961920974999998,-0.7164265215,9.238820316,-3.3671000005,0.236176014,0.36976706950000005
139,0.5791434999999865,-30.222009659999998,0.345781252,15.0844612,-1.9682641625000001,-0.576051772,9.112267255999999,-1.183986038,6.1284753085,0.49585956350000004
140,0.5833099999999831,-30.2358408,0.35167708999999997,15.087368050000002,-0.587247223,-0.1601911135,12.50572586,-2.038809836,-0.32467323550000005,0.3866724965
141,0.5874764999999798,-30.231945035000003,0.339915678,15.104305299999993,-1.4592654704999999,-0.724032186,11.555827615,0.226570606,-2.95399344,0.817894489
142,0.5916430000000332,-30.225619315,0.4049440475,15.078178399999999,-1.385034919,-1.8535991904999998,8.723546028000001,0.383951008,7.561219810500001,0.930277005
143,0.5958095000000297,-30.245526315,0.38532222800000004,15.088176750000002,-0.421517819,-0.7344008265,13.52492285,-2.6775202305,-3.3805732134999995,-0.34999936800000003
144,0.5999760000000265,-30.25509071,0.39433857800000005,15.101203900000002,-1.653171897,-1.203952581,10.467493536,-1.482449509,-0.5908439159999999,1.6230525375
145,0.6041425000000231,-30.257785795,0.457657397,15.066020950000002,-3.1183708904999996,-0.3633743895,7.329524994,-0.5106452105,7.9793784615,-0.0330935715
146,0.6083090000000198,-30.260813714999998,0.5041327475,15.049602499999999,-0.1291674375,-0.611927986,12.079034805,-0.7459506985,5.0464344025,0.8300358205
147,0.6124755000000164,-30.256290434999997,0.49100284299999997,15.055511500000001,-0.8804373445,-1.3495793645,13.120143890000001,0.32529437500000014,-2.4276147485000004,-0.39098852100000003
148,0.616642000000013,-30.250323295,0.5541045069999999,15.035408050000001,-2.3397938015,-1.035603106,8.334501505,0.331883661,6.988465786,1.45370388
149,0.6208085000000096,-30.256418224999997,0.5807324575,15.019176499999993,-0.6727631985,-1.3466612114999998,11.362290383,-0.9743079545,3.0195403549999997,-0.28542566299999994
150,0.6249750000000063,-30.26348686,0.6042006535,15.028652199999996,-0.578079611,-1.4992350934999998,11.71469307,-1.1861184535,1.1156535745,2.1419072150000003
151,0.6291415000000029,-30.26045799,0.665945645,15.015346550000004,-3.4986661675,-0.034722507000000014,8.965120794499999,0.17107749000000005,6.50134778,2.1341591479999997
152,0.6333079999999995,-30.270140644999998,0.7820529415,14.975578300000002,-1.0677552595000002,-0.812075466,10.82549572,-1.5223694445,13.663351535,2.6258564595
153,0.6374744999999962,-30.277667045,0.8225374385,14.990150450000002,-1.0687778595,-1.737171054,14.8323946,-1.123965502,2.6219433545,3.7381733655
154,0.6416409999999928,-30.275206564999998,0.912628561,14.972763099999995,-1.4856399295,-0.75164558,9.092267512,-0.10287970299999993,9.616769077499999,3.3530248405
155,0.6458074999999894,-30.278621674999997,1.061655134,14.942897799999997,-2.817446232,-1.0191570815,8.170528173,-0.625909656,16.53072262,5.6915557385
156,0.649973999999986,-30.252603530000002,1.1844489875,14.93572615,-0.404775292,0.216318114,12.814822675,2.8219782115000003,12.414420605,6.4376459125
157,0.6541404999999827,-30.1796627,1.3621725735,14.919929500000002,-4.386247396,1.2477870580000001,8.4968185425,8.56284857,18.679696085,8.8494596485
158,0.6583069999999794,-30.067406655,1.613198161,14.849388150000003,-0.629346639,0.13204246,10.046066285,13.292508605,29.540774345,7.522883177
159,0.6624735000000328,-29.893025395000002,1.75612092,14.858413650000003,-0.46226489200000004,1.201214194,13.641717435,20.66587925,13.59810066,9.2869529715
160,0.6666400000000294,-29.645822525,2.0446256995,14.777389549999995,-3.643349767,0.2319458425,4.97441566,29.585899355,34.124521255,8.4566771985
161,0.670806500000026,-29.35913849,2.250202119,14.753337900000005,1.6091229915,0.626820147,16.35646677,34.234151839999996,22.14753151,9.455157756
162,0.6749730000000227,-28.990050314999998,2.461068451,14.725399049999993,-3.2968015675,1.1802591384999999,5.4592984915,44.092187885,22.99603939,9.108544826500001
163,0.6791395000000193,-28.55090904,2.8017395735,14.639057150000006,-0.655136269,0.447290252,12.71779585,52.973272324999996,40.108381269999995,10.40445995
164,0.683306000000016,-28.019262315,2.9471217395,14.665550199999991,-0.13333413000000005,2.183071077,13.184496880000001,63.23757553,13.157689575,10.66186857
165,0.6874725000000126,-27.4338789,3.3074688915,14.575473800000005,-3.8073403835,1.1085723785,4.017236948,70.60907364,42.587825775,10.32416773
166,0.6916390000000092,-26.73423767,3.5222306254999998,14.570594800000002,1.206487596,1.2962623240000002,17.305984975,83.624382015,22.451916695,10.993632795
167,0.6958055000000058,-25.959840775,3.8115278485,14.529621099999993,-3.4959656,1.0374819335,6.496435164999999,92.98530578500001,32.571860314999995,10.715621472999999
168,0.6999720000000025,-25.154561995,4.117004871,14.483127600000003,-0.433711082,0.43376365299999997,10.505191325,96.66289139,34.801006315,10.3945007335
169,0.7041384999999991,-24.234339715,4.336565375,14.480964649999997,-1.003564119,1.324790895,11.222379205500001,110.2103615,23.327871324999997,10.5157427795
170,0.7083049999999959,-23.2518816,4.641120553,14.441295600000004,-1.4630650875,0.8490814865,10.405909535,117.88957975,34.614587785,10.1111688605
171,0.7124714999999924,-22.21052551,4.8673534395,14.446639999999995,0.17467917500000002,0.5509580265,12.8532004345,124.6835823,24.068932535000002,10.8547320365
172,0.716637999999989,-21.10867977,5.0924148559999995,14.464942900000004,-1.984056711,0.656974554,9.8040938395,131.66085055000002,23.60465336,11.57446861
173,0.7208044999999856,-19.94647312,5.3225061895,14.479804999999999,-0.18174147100000002,0.9958329205,10.334345814999999,139.0867462,24.530719755,11.091294285
174,0.7249709999999822,-18.714062695,5.5216186045,14.523231500000001,-0.8802684175,0.8447764215,10.6624221815,147.03199765,20.133522035,12.386561875
175,0.7291374999999789,-17.41568565,5.6950170995,14.569625849999994,-0.1594174575,0.3596877455,10.6497087465,155.0505829,17.35721302,11.4894681
176,0.7333040000000324,-16.040484905,5.861849546,14.641536699999996,-0.376759872,1.214333713,11.581053258499999,163.7878189,15.9874382,13.5673089
177,0.737470500000029,-14.611754895,5.9310421945,14.737777700000002,-0.3768033235,0.6138288975,10.80279827,170.0637436,4.2786148785,13.04529858
178,0.7416370000000256,-13.129765035,6.0420696735,14.828597999999992,-1.3631884455,0.7668130545,7.793560505,176.3280487,9.6115663065,13.28500271
179,0.7458035000000222,-11.57798338,6.0975000855,14.931709300000001,0.4637664335,0.12621079400000002,13.78406906,184.71328735,3.1707104445,13.252865315
180,0.7499700000000189,-9.992723466000001,6.104474306,15.040790550000004,-1.352717906,-0.09876883000000003,10.997114183499999,188.4517517,-2.3758614065,12.594769
181,0.7541365000000155,-8.3951790335,6.1383521555,15.161498999999992,-0.92122525,-0.9953843355,11.8120126705,189.9632263,1.0156561735,14.65626097
182,0.7583030000000122,-6.8000273705000005,6.091753244,15.276721950000002,-0.19836696199999998,-0.7716375145,11.1693301195,189.6155319,-8.054340362,12.17015314
183,0.7624695000000088,-5.185594797,6.100559473000001,15.392608649999993,-1.9613656995,-1.2498675585,10.4704556475,192.0507126,-1.0961136814999999,13.647089005000002
184,0.7666360000000054,-3.5770652294999996,6.0341858864999995,15.4938316,1.061513811,-1.2682258485,13.26776409,191.40358735,-9.601520058999998,10.850382803
185,0.770802500000002,-1.9986602665,5.937325001,15.617034899999993,-1.515059352,-2.0910931230000003,10.16441631,187.65647130000002,-13.034041885,13.879310135
186,0.7749689999999987,-0.42600540849999996,5.8268532754999995,15.708389299999993,-0.263259232,-0.8288204444999999,11.2920136465,187.2854767,-14.214300635,10.005699633999999
187,0.7791354999999953,1.1155836430000001,5.738126277999999,15.818817149999994,-1.959359348,-1.827700257,12.312802795,183.44239805,-11.2815344335,12.98007536
188,0.783301999999992,2.6135898825,5.551086425499999,15.905933350000005,1.154359221,-2.9653333425,10.9539909385,178.42761995,-22.83158779,10.618165492
189,0.7874684999999886,4.090952038999999,5.40017724,15.995464349999999,-1.514352143,-1.658421874,9.923933031499999,176.03484344999998,-18.180766105,11.46061945
190,0.7916349999999852,5.4894547465,5.221314669,16.06718825,0.3766228705,-3.168216467,14.82705069,166.71408085000002,-21.437836644999997,9.823310851999999
191,0.7958014999999818,6.8411808015,4.935382842999999,16.130546550000005,-1.6353729665,-1.552455842,10.4193086625,161.3252182,-34.008200645,10.942198274999999
192,0.7999679999999785,8.184845686000001,4.786672592,16.181941950000002,-0.7810395954999999,-1.8853543995000002,7.1934931275,160.38917545,-17.590897560000002,8.355190277
193,0.804134500000032,9.4506349575,4.4569015505,16.208004000000003,0.775269121,-2.660470605,18.058480260000003,151.40403745,-39.35874176,8.969459533
194,0.8083010000000286,10.670351030500001,4.2648774385,16.240345000000005,-2.8875323534999997,-2.5656176210000003,7.030890225,145.7694168,-22.695958615,7.6834876535
195,0.8124675000000252,11.796361445,3.98454535,16.239357,1.172644198,-3.4117542505,16.174118995,134.87348175,-33.762314795,6.3006044625
196,0.8166340000000218,12.893329145,3.6634482145,16.227020250000002,-2.7558704615,-2.1286765340000002,5.641334057,131.46183395,-38.617739674999996,6.6328277589999995
197,0.8208005000000185,13.926499365,3.4910864829999997,16.212615949999993,0.7107741830000001,-3.3304433820000003,11.52956772,123.84245685,-21.248950004999998,2.975013077
198,0.8249670000000151,14.88114214,3.0791079999999997,16.1608467,-1.2558758260000003,-1.574004352,14.235937595,114.62032694999999,-50.111217495000005,6.1689589025
199,0.8291335000000118,15.759409425000001,2.9617797135,16.133739500000004,-1.6391381025,-3.9561339615,6.193092537999999,105.3414917,-15.152355195,0.3675745575
200,0.8333000000000084,16.54920006,2.5642857555000003,16.0706482,-0.19520068150000003,-2.429353178,18.051102635,94.8395195,-48.600702285,5.9591722485
201,0.837466500000005,17.297740935,2.439065039,16.034873949999998,-2.9927506520000002,-2.9414137605,4.4415022135,89.825107575,-16.314411638,-0.02563530199999997
202,0.8416330000000016,17.93729019,2.1147978904999998,15.978126500000002,0.833092809,-3.8844110965,17.901349064999998,76.69614028999999,-39.84210968,5.307042837
203,0.8457994999999982,18.545777325,1.9783942104999999,15.944858549999992,-3.217895001,-2.1905434135,3.743734121,72.96326065,-17.4819104655,1.0194357635000002
204,0.8499659999999949,19.043802265,1.7353060839999999,15.90018465,-0.10537385900000018,-2.462057412,16.20067501,59.64979935,-30.093686104999996,4.1629000005
205,0.8541324999999915,19.503965375,1.6180219055,15.867664350000005,-2.8715376855000003,-3.8905705215,5.607816815,55.177001954999994,-15.234148980999999,0.6474378110000001
206,0.8582989999999882,19.896690364999998,1.4565713405,15.837947849999992,-0.3373441695000001,-0.9963434935,15.545475485,46.904956819999995,-20.22443819,3.0024957655
207,0.8624654999999848,20.21001911,1.3590944409999999,15.807197549999998,-2.6685922145,-3.388941526,9.726225374,37.528305055000004,-12.907410147,0.26648926699999986
208,0.8666319999999814,20.486256599999997,1.3071970345000001,15.810749050000005,-0.7898455855,-2.4076178070000003,11.683733465,32.83461094,-6.4662745595,2.384227991
209,0.870798499999978,20.700845715,1.18727839,15.773513800000003,-1.9624292254999998,-1.455993474,10.370833636499999,25.66396427,-15.708537100000001,0.6328377724999998
210,0.8749650000000315,20.900863649999998,1.2776435615,15.84597015,-1.2475303409999998,-2.2088063955,10.098168372,23.54663563,12.459572314999999,4.049511373
211,0.8791315000000282,21.05596733,1.113620937,15.809627550000009,-0.9916925430000001,-1.6472758650000001,10.1188473715,18.525847435,-20.599487305,2.7340523004999997
212,0.8832980000000248,21.174663545,1.2833559215,15.91638185,-1.5823587775,-0.44097984549999997,8.167523384,13.707727434999999,22.846993445000003,4.378461092999999
213,0.8874645000000214,21.27250576,1.17485252,15.914825450000002,-1.0940163134999998,-2.8076759575,13.395248650000001,11.5490074165,-12.87512064,4.331738979
214,0.891631000000018,21.38368225,1.2983230350000001,15.996189100000002,-1.6581795215,0.584189206,5.365562439,12.890965940000001,16.591446163,3.4187583325
215,0.8957975000000147,21.423060415000002,1.3376134039999998,16.058616650000005,-0.07875967000000017,-2.1550439,16.331243515,4.3266232015,6.4363472475000005,5.1018888350000005
216,0.8999640000000113,21.502082825,1.3953202965,16.093132049999994,-1.7862913009999999,-1.230556756,5.395590781999999,9.157250403,7.206311941499999,1.0186134574999999
217,0.904130500000008,21.530345915,1.5302571655000001,16.199874899999998,-1.886279285,-0.9214677735000001,10.198031188,2.8460889160000002,19.07776642,5.801337956999999
218,0.9082970000000044,21.527277945,1.5317730905,16.18960575,2.8203382489999997,-2.538311839,10.7302312875,-0.568322286,-1.0275533795,-1.4458468555000001
219,0.9124635000000012,21.59063816,1.6780795455,16.307861299999992,-6.52612257,0.8959135115000001,7.172048091500001,6.9974470140000005,20.842755314999998,6.499711513499999
220,0.916629999999998,21.562719345,1.7180181145,16.307411200000004,6.0730512144999995,-1.3840131759999998,18.346583845,-3.585807085,3.7010141014999998,-1.9913210870000002
221,0.9207964999999945,21.543540955,1.7680641415,16.376598350000002,-6.247767687,-1.9723178745,3.545097077,-2.765806139,7.9258204715,5.2500028610000005
222,0.9249629999999912,21.560998915,1.8707347515000001,16.4006386,2.2903675585,0.44703844200000004,11.328531267,1.7878737450000002,11.799896239999999,-2.0355314609999997
223,0.9291294999999878,21.53423977,1.9127708075,16.47066879999999,-2.3092483649999997,-2.482622862,10.801974297000001,-3.720397353,7.061326027,5.7361989025
224,0.9332959999999844,21.54202938,1.931141138,16.449127199999992,1.1935455795,0.595590651,6.4749696255,0.827928811,0.39150079299999996,-3.4294451180000003
225,0.937462499999981,21.5401783,1.995125413,16.522037499999996,-2.507485509,-0.11397346850000001,14.001366615,-0.771270543,9.621790883500001,5.1055393815
226,0.9416289999999776,21.584225654999997,2.0601829289999998,16.52306745,0.07533681399999992,-0.932265453,10.337316037499999,5.106819868,6.6043560505,-2.9892711640000003
227,0.9457955000000312,21.610460279999998,2.063970447,16.553337099999993,-0.9894115925,0.647576521,10.858271597000002,2.7670230865,1.0066395774999999,2.9977754355000004
228,0.9499620000000278,21.613884925,2.11265111,16.53951645,0.7556865214999999,-2.287840724,10.266330242999999,0.295402549,4.1471048595,-3.9013810155
229,0.9541285000000244,21.697348595,2.188402474,16.599910750000006,-4.6839249125,0.7416432499999999,8.120226145,9.480324028,10.359263419000001,3.134376528
230,0.958295000000021,21.74473095,2.206457317,16.584190350000007,3.0360358954999995,0.312911928,13.129583361000002,5.6021215914999996,0.6435962169999999,-2.758000375
231,0.9624615000000176,21.796121595000002,2.2771688105,16.618831650000004,-3.1093878150000003,-2.5857368705,9.256857393,5.7317178250000005,8.658028841,0.4917173385
232,0.9666280000000143,21.893613815000002,2.2580220105,16.603759750000002,1.38666749,0.9653074775,10.907806395000001,11.622807026499999,-3.4814751745,-1.0528037544999997
233,0.9707945000000108,21.9666481,2.3671348095,16.630508449999994,-3.6443220375000003,0.2655644715,11.1024732595,8.3708295825,12.570745465,-2.122984173
234,0.9749610000000075,22.074988365000003,2.3905271289999996,16.657974249999995,0.2839617729999999,-2.4025204775,7.1852960585000005,12.72814417,3.1833120585000003,1.736171723
235,0.9791275000000041,22.158540725,2.4534026385,16.650669099999995,-0.5046139955000002,1.147117138,14.832205295,9.7669606205,5.8831690555,-3.8315696710000005
236,0.9832940000000008,22.223082545,2.4969905615,16.69238279999999,-0.8760750294999999,-2.952740431,7.9643604759999995,7.411038398,6.068948982,2.3829958460000005
237,0.9874604999999974,22.309061055,2.536570072,16.661724050000004,-1.0316457744999998,-0.8687654435000001,9.155614375999999,10.1996867655,2.240439534,-5.3963692165
238,0.991626999999994,22.363265034999998,2.602688551,16.725620300000003,-1.6917632519999999,0.068778336,8.6390998375,6.0283684730000004,9.5738914015,3.823937177
239,0.9957934999999906,22.44998169,2.6676239969999997,16.682739249999997,-0.4801808295,-0.377308607,10.228284358,10.392152788,4.487301141,-7.9179572455
240,0.9999599999999872,22.47266674,2.6932097675,16.739860549999996,-0.6832600010000001,-2.010694593,14.967103479999999,2.231019199,4.766137123,4.923574984499999
241,1.004126499999984,22.50783539,2.7364044185000003,16.651878349999997,0.532587126,-1.0336452425,8.3410980715,4.477618784,0.030570686000000014,-11.940211771000001
242,1.0082929999999806,22.52726936,2.739881873,16.700736999999997,-2.1711366775,-0.9725194275,12.788229465,1.8732137679999998,1.9085228444999998,5.0399014950000005
243,1.012459500000034,22.546671869999997,2.822011828,16.631881700000008,0.2524375320000001,-1.0196507275000002,9.5747477985,2.5109579115,5.2352747915,-11.62490034
244,1.0166260000000307,22.561653135,2.8348830935000002,16.68293765,-4.0683889985,0.298266053,11.126363277,1.310712621,3.0383545755,4.8307107685
245,1.0207925000000273,22.55529308,2.9619635344999997,16.647377050000003,0.8791343564999999,-0.744619578,12.606271265,-0.7242810729999999,11.758903505,-10.0071582795
246,1.024959000000024,22.591633795,3.0049051044999997,16.691429149999998,-3.868368685,-0.5832333715,8.2012219425,3.8683770484999997,6.029840826,2.644810319
247,1.0291255000000206,22.599473,3.1271160845,16.682571400000008,0.6351701615,-0.6827120185,12.391855715,0.8083406385,12.467135429999999,-6.8288018045
248,1.0332920000000172,22.622703555,3.238098025,16.729873650000002,-2.4724543690000003,-0.43123652049999994,8.3374552725,2.2748263775,13.707369804999999,-0.12639951699999985
249,1.037458500000014,22.655284885,3.344373107,16.74365615,-0.7933108209999999,-0.574992001,11.93733931,3.6219556335,11.74113131,-3.598025441
250,1.0416250000000105,22.67233753,3.5142689945,16.803478200000008,-1.385495156,-0.536486432,11.686146735,1.4072211455,20.844534875,-1.3667125699999998
251,1.045791500000007,22.721889500000003,3.6664505005,16.859939550000007,-2.9862430095,-0.1640176335,10.444805146,5.3311499355,18.78763199,-1.0345079900000003
252,1.0499580000000037,22.742526055,3.8457163569999997,16.901458750000003,1.4920302630000002,-0.76380682,13.336283204999999,1.956953913,21.012345314999997,-3.9219503995000005
253,1.0541245000000004,22.7853117,4.035377860500001,16.97660065000001,-4.6382381915,-1.7478874325,6.595377324,4.3126069905,23.779366494999998,-0.749613643
254,1.058290999999997,22.82425499,4.190640092000001,16.99913025,2.3225353955,0.3568294345,11.307291984999999,4.307828486,17.479659555,-4.9675753115
255,1.0624574999999936,22.84573078,4.3973190785,17.068248749999995,-3.617769003,-2.297175765,7.8607532975000005,1.740168244,25.376026154999998,-2.2080068739999996
256,1.0666239999999902,22.85964012,4.5371382234999995,17.080280300000005,1.9495460390000001,-0.048229806000000014,12.376128675,1.381382465,15.257858275,-5.44469738
257,1.0707904999999869,22.85054302,4.782613516,17.160812349999993,-3.6962484124999997,-1.2779203655,12.999849795,-2.0603023175,30.19083786,-2.7646175284999996
258,1.0749569999999835,22.856438635,4.9462468625,17.182693450000002,0.335041523,-0.4724931195,12.40001631,0.28924798949999975,18.375957969999998,-5.453022718500001
259,1.0791234999999801,22.84359741,5.2022178175,17.269599899999996,-2.88234961,-0.9338755910000001,9.0669002535,-2.673462272,31.648657800000002,-2.5782606825
260,1.0832900000000336,22.867875095000002,5.3832864765,17.299591049999997,0.29776677499999993,-0.4253670275,7.766700984,2.4250147340000003,20.662262915,-5.4049072265
261,1.0874565000000302,22.84630203,5.612357616500001,17.388545999999998,-2.7669383290000003,-0.72245425,11.768940927,-3.8355996009999997,28.75588417,-1.0943625940000001
262,1.0916230000000269,22.815635685,5.820366621,17.415100099999997,1.790430695,-0.6398415785,11.796010494,-4.138743758,23.49721241,-7.029401302
263,1.0957895000000235,22.753474235,6.0392897130000005,17.501743350000005,-2.8331365585,-1.1168183385,14.683719635,-8.774078607,27.50989342,-0.8353959470000001
264,1.0999560000000201,22.730373385,6.254625796999999,17.546333300000008,-0.5960384160000001,-0.8963378814999999,6.2388037445,-3.4622937455000002,25.14657116,-5.4100050925
265,1.1041225000000165,22.673448559999997,6.4619345665,17.619003299999996,-1.6423830984999999,-1.0143179445000001,11.796608925,-8.0464539535,25.575903895,-1.7919596174999999
266,1.1082890000000134,22.5911808,6.6547586915,17.663173699999994,-0.021265364999999998,-1.44456017,8.136046648499999,-10.598413945,22.656567575,-4.324011445
267,1.11245550000001,22.454998975000002,6.8662908080000005,17.731899299999995,-0.9108310415,-1.0296188895,16.442154885,-17.56107855,25.86462021,-2.3534826040000003
268,1.1166220000000067,22.3282547,6.988367081,17.737381000000006,-0.6291749705,-1.731348157,7.134374857,-15.4110507975,13.065361498,-5.248608351
269,1.1207885000000033,22.155400280000002,7.265972853,17.817958849999997,-3.1398875715,-2.523396671,8.8359700445,-22.188690185,33.749297139999996,-3.9314763545
270,1.124955,21.92150402,7.3470699790000005,17.80111695,2.8065522905,-0.643139869,14.834510325,-27.932788844999997,7.541163683000001,-5.769258617999999
271,1.1291214999999966,21.62804222,7.627726078,17.865661600000003,-4.415682316,-3.3085691930000003,7.5677716735,-36.47224617,33.400388719999995,-5.585484743
272,1.1332879999999932,21.24584675,7.6652402875,17.819446550000002,3.5817127225,-3.00485456,16.21046877,-45.250627519999995,1.453104049,-7.019240140999999
273,1.13745449999999,20.83487511,7.908519506499999,17.841052999999995,-5.9541544915,-1.9433456059999998,1.0490889544999997,-49.9037323,27.449740405,-8.3269262315
274,1.1416209999999865,20.29768276,8.08500576,17.838790850000002,3.695052624,-3.9401453735,16.915650845000002,-64.57493019,19.029437065,-7.859279872
275,1.145787499999983,19.678579329999998,8.086948633,17.74518585,-1.0959295035,-2.246705055,12.603032585,-72.948856355,-4.295020938,-10.7589855185
276,1.1499539999999797,19.011381145,8.349160194,17.765583,-3.592114806,-2.5288174745000003,6.927835943500001,-80.55096817,29.7901268,-8.3168933395
277,1.1541205000000332,18.231767655,8.4365029335,17.688095099999998,2.7555685045000002,-3.528117895,16.41578579,-92.43546294500001,6.2871291634999995,-12.28454876
278,1.15828700000003,17.37804985,8.46379137,17.619693799999993,-1.366150409,-2.714562416,8.725936412500001,-101.38919068,-0.07291042800000003,-8.9135866165
279,1.1624535000000265,16.43308544,8.648406029,17.5630455,-2.806078434,-3.02798605,5.567013312499999,-112.6197815,18.53364372,-13.099021915
280,1.166620000000023,15.408390525,8.724222183,17.49032975,1.064048648,-1.8539102075,16.872478010000002,-121.81037905,5.707392931,-10.864170555
281,1.1707865000000197,14.29885435,8.7632718085,17.391223900000007,-1.5354515910000002,-2.8850281835000002,10.376225949,-131.5747528,0.8081484584999999,-12.7903018
282,1.1749530000000163,13.129606725,8.917356968,17.326629599999997,-1.8943397405,-2.4399758575,9.462700846,-139.2774124,15.487577915,-11.815211773000001
283,1.179119500000013,11.889644145,8.9554657935,17.217376700000003,0.4897681475,-1.7873390315,14.311028480000001,-147.01657864999999,0.9516146184999998,-13.866093635
284,1.1832860000000096,10.640657425,9.060096264,17.152164449999994,-2.9050989745,-1.7353930175,4.4437229635,-148.8351364,10.162060973500001,-9.8740329745
285,1.1874525000000062,9.293386936000001,9.1611123085,17.044612849999993,1.153148532,-1.66043967,15.534729005,-159.88311005000003,9.026150164499999,-14.88228607
286,1.1916190000000029,7.9405100345,9.118182182,16.958999650000003,-2.9223059114999996,0.11522296100000007,11.64833832,-160.9031296,-7.270371916,-9.103038787500001
287,1.1957854999999995,6.593077898000001,9.4152121545,16.880359650000003,-2.364424035,-1.3623738585,3.3314077849999997,-160.39944455,33.471256255,-13.972109315
288,1.1999519999999961,5.2131245135,9.282452583,16.771312749999993,3.7096807955,-0.08670929050000004,19.47413397,-163.69758604999998,-17.8471727385,-11.0596199045
289,1.2041184999999925,3.857315421,9.4806814195,16.6609039,-5.682639003,-1.226556927,0.8985892535,-160.75491334999998,21.97083187,-15.129178045
290,1.2082849999999894,2.4761583805000003,9.493676186,16.554401350000006,2.414108068,0.0948012545,20.50758648,-163.8469925,0.16985750200000016,-12.537320615
291,1.212451499999986,1.1796771885,9.58181,16.443897199999995,-4.4675660135,1.529122919,0.9910212755,-153.60540775,9.445305825999998,-13.62652731
292,1.2166179999999827,-0.1519139185,9.6564111695,16.329322800000007,3.443512559,-0.13697382800000002,18.39391041,-157.66404725,8.120093109,-13.826569554999999
293,1.2207844999999793,-1.4332818385000001,9.6132678965,16.209045449999998,-3.0523070095,-0.974218324,5.3521661755,-151.5724106,-5.68835664,-14.521886349999999
294,1.2249510000000325,-2.733385086,9.7240524275,16.07125475,-0.09639070400000001,0.4250656515,12.311730148,-153.39438625,13.168586013499999,-16.027236939999998
295,1.2291175000000294,-3.986417532,9.638913155000001,15.967353850000002,-0.8724681734999999,-0.1965901255,7.617059708,-148.481514,-10.1876158705,-13.09237766
296,1.233284000000026,-5.2617971895,9.6918864225,15.82289505,0.9162258875,-0.532487862,12.402688505,-150.29135895,7.0062035315,-16.75420475
297,1.2374505000000227,-6.4713199135,9.46334982,15.725395199999994,0.03757780799999999,1.5215355154999999,12.323636055,-143.42442325000002,-26.80949974,-14.50422573
298,1.2416170000000193,-7.6890990734999995,9.602699756500002,15.565197000000005,-4.163534284,-0.6118348764999999,4.0020898585,-143.13266755,18.211770055000002,-16.885442735
299,1.245783500000016,-8.9037299155,9.311052322999998,15.48020555,4.0162699225,0.231985554,19.35533428,-144.28713225,-33.88714504,-15.222483635
300,1.2499500000000126,-10.09213686,9.257434367999998,15.341407800000006,-3.2793650035,-0.7921789585,1.641880959,-140.09983060000002,-4.3459069135,-17.472385405
301,1.2541165000000092,-11.285843374999999,9.0758047105,15.243778250000005,1.0761905015,0.58475855,17.399203305,-141.58060455,-19.979241373500003,-15.618442535
302,1.258283000000006,-12.372140885,8.874019622999999,15.159328449999997,-3.115314424,2.546341002,3.996440172,-128.9680252,-22.36973715,-14.917287825
303,1.2624495000000024,-13.48347807,8.78485775,15.04626845,0.24452745899999995,-0.9192110895,12.662239074999999,-131.48094179999998,-8.136930197,-15.673405644999999
304,1.266615999999999,-14.550013065,8.3740274905,15.004722600000001,1.5117821615,0.953254163,14.0519666665,-127.4467735,-47.39259338,-16.749776840000003
305,1.2707824999999957,-15.58365297,8.335819483,14.876422900000001,-4.7475658655,-0.05336041749999998,2.356773943,-122.01612475,-1.1744528265,-16.12046528
306,1.2749489999999923,-16.603463175,7.9962308405,14.827892300000002,3.251937032,-0.022882252499999978,18.71696472,-121.70208740000001,-38.274909969999996,-16.991828920000003
307,1.279115499999989,-17.564397815,7.7650465964999995,14.773055999999997,-3.4480122325,1.1361327989999999,4.1633343695,-114.66329189999999,-25.311053275,-14.61839724
308,1.2832819999999856,-18.554405215,7.521048069000001,14.713348400000001,1.1602162120000001,-0.3472379745,14.660321715,-117.99993895,-26.352407455,-15.99451256
309,1.2874484999999822,-19.45812416,7.1175050735,14.725509599999995,-0.681543231,0.8618041575,12.37886381,-108.8679657,-46.96288681,-14.63519096
310,1.2916149999999789,-20.321505545,6.970505953,14.643116000000006,-3.684301019,1.07993418,3.421114236,-102.566452,-13.947720050000001,-15.462202075
311,1.2957815000000323,-21.144506455,6.584662676,14.656658200000003,2.15180397,0.6611050295,17.0878005,-99.14482117,-44.581876754999996,-15.08196974
312,1.299948000000029,-21.883326529999998,6.3322417735,14.641597750000003,-4.868837833500001,1.806003362,3.618114829,-88.676387785,-28.227797504999998,-13.02064371
313,1.3041145000000256,-22.611405375,6.096819401,14.618721049999998,1.7883724870000002,0.15199859799999998,16.408107285,-87.23120879999999,-25.81916046,-13.403702735
314,1.3082810000000222,-23.244125365000002,5.692148924,14.681098949999999,-1.395354062,1.8456439375,9.1727182845,-76.93286513999999,-48.349746705,-12.264781955
315,1.3124475000000189,-23.821043969999998,5.5313138965,14.638740550000009,-1.8421591520000002,0.36918520200000005,9.184617518,-68.914936065,-16.375133990000002,-12.549861905
316,1.3166140000000155,-24.330544475,5.0968174935,14.736209850000002,1.289773986,2.085072577,16.057951449999997,-62.43105507,-53.06975174,-10.844870093
317,1.3207805000000121,-24.78632641,4.9706151485,14.694335899999992,-5.2070851325,0.47501977500000003,2.983824685,-54.479034425,-12.3927350045,-11.091053011
318,1.3249470000000085,-25.18741989,4.6426415445,14.755748749999995,2.1634370085,1.2008446935000001,19.34908485,-48.908809665,-39.468973155,-10.1786150945
319,1.3291135000000054,-25.517449380000002,4.4395302535,14.775386799999993,-5.581202507,1.4584770425,1.5858280059999998,-40.056207654999994,-23.731150624999998,-8.594945906
320,1.333280000000002,-25.817041395,4.2369066475,14.779212949999994,1.8486349585,0.7473284305,15.643027785000001,-36.14336014,-22.79277754,-10.354405881
321,1.3374464999999987,-26.033816335,3.975254178,14.84161375,-3.8655004505,1.407015726,9.6103811265,-26.801920889999998,-32.205432895,-7.2767858505
322,1.3416129999999953,-26.240773205,3.8981752395000004,14.801433549999992,-1.3274315225,0.33472274199999996,10.2389106725,-24.695632930000002,-6.8596627715,-8.66496706
323,1.345779499999992,-26.397480965,3.5995265245,14.884853350000007,0.1964048745,0.7947848735,14.61634016,-19.6840477,-37.250699999999995,-7.179041624
324,1.3499459999999885,-26.503368375,3.5182083845000003,14.86145785,-3.5515917535000003,-0.08134096449999999,5.231538177,-12.754745960000001,-8.1636495585,-7.157701492499999
325,1.3541124999999852,-26.601583480000002,3.304103017,14.911815650000008,1.542661667,0.2506305055,17.220349785,-12.337113855,-26.389443399999998,-6.272617817
326,1.358278999999982,-26.659845355,3.1524916885,14.926628099999995,-3.37939322,0.06832095249999999,7.069469452,-7.3450193405,-17.717024325,-6.939174175
327,1.3624454999999784,-26.717251779999998,3.0636705165,14.912612950000003,-1.3776010275,-0.7066232565,11.280095575,-6.999333142999999,-9.471017596500001,-6.497627258
328,1.366612000000032,-26.75419426,2.8476486210000003,14.964225749999997,-0.10121372349999996,-0.07064241199999999,13.272867675,-4.9748699665,-26.617553715,-6.4159667495
329,1.3707785000000285,-26.769701955000002,2.799419761,14.941455850000004,-3.828243971,-0.01231774699999999,6.1037676335,-1.9608531,-4.6443414685,-5.2863111495
330,1.3749450000000252,-26.793126105,2.6905294655,14.94313050000001,0.7163814844999999,-0.6543003915,14.152729985,-3.0210909845,-12.446645258,-5.939833641
331,1.379111500000022,-26.816428185,2.5375207665,14.9802094,-2.4000300765,-0.850341618,10.2142095565,-3.2446840110000004,-19.097515105,-4.5688447955000004
332,1.3832780000000184,-26.840111735,2.506733179,14.94763185,-0.7708908915,-1.0793920455,9.6854584205,-2.883695245,-2.1992446185,-5.4554030895
333,1.387444500000015,-26.901950839999998,2.3608220815000003,14.989604950000007,-0.631751165,-1.3098322155,14.572762485000002,-7.8528084745,-18.604642865000002,-3.6354999544999997
334,1.3916110000000117,-26.945747375,2.2829271555,14.992755900000006,-2.70855546,-0.40891262500000003,7.822463989,-5.502347946,-9.206679104,-4.136789203
335,1.3957775000000083,-26.98256588,2.2532573940000002,14.977596300000002,-2.0871788259999997,-0.36896900099999996,10.1207442305,-4.565846324,-3.0559254885,-3.457249403
336,1.399944000000005,-27.030494689999998,2.17787838,14.980403899999999,0.48617505850000003,-1.189526506,13.571500304999999,-5.980149269,-8.896380901499999,-4.067777634
337,1.4041105000000016,-27.099520685,2.104162395,14.994426699999991,-2.6025705335000002,-0.59068954,9.774899723,-8.5954980845,-9.35713792,-2.7656846645
338,1.4082769999999982,-27.186816215,2.097369015,14.968631750000007,-0.8171387985,-1.5913166405,9.601590633,-10.587375165000001,0.0190121605,-3.427325845
339,1.4124434999999949,-27.286750795,2.006382942,14.989391349999998,-0.432215773,-0.9978744685000001,14.23914671,-12.311368465,-11.554788590000001,-3.0167809725000003
340,1.4166099999999915,-27.369375225,1.9721092585000002,14.989742299999996,-2.7223180535,-0.352458984,7.7762272355,-10.160226343,-4.336279392,-2.180828154
341,1.420776499999988,-27.46360302,2.001377463,14.950805700000004,-2.084322512,-0.371281631,9.738820551,-11.36320019,4.558943748,-2.7437269685
342,1.4249429999999845,-27.574106215,1.9446988105,14.965763049999993,0.4530030305,-1.0710664555,14.05323839,-13.550689221999999,-7.5320723055,-1.8418816324999998
343,1.4291094999999814,-27.682958605000003,1.933460772,14.94934465,-2.3989129064999997,-1.1738882365,7.6663491725,-13.249041080000001,-0.9868716000000002,-2.6216683385
344,1.433275999999978,-27.805293085000002,1.935371876,14.936878200000002,-0.2745629255,-1.1555529235,11.821821215,-14.849242685,0.1858631369999999,-1.4238443375
345,1.4374425000000315,-27.946237565,1.8859220145,14.951725000000003,-1.2216778085,-0.9332012829999999,12.289743900000001,-17.194239619999998,-6.784969567999999,-1.4231401085000002
346,1.441609000000028,-28.071955680000002,1.8946072455,14.947280849999999,-2.5021226404999997,-0.2958248335,8.565608024500001,-15.31593227,0.5052345695,-0.301895801
347,1.4457755000000245,-28.196860315000002,1.9341201185,14.915054350000005,-1.1940503715,-0.7654818299999999,10.191933632000001,-15.072983265000001,5.3014183045,-1.3961681719999999
348,1.4499420000000214,-28.342598915,1.8858364225,14.928451500000001,0.979551673,-0.8603292705,14.682571889999998,-17.792286875000002,-6.5852108,-1.5410874185
349,1.454108500000018,-28.492145540000003,1.8642877935,14.923152899999991,-2.300835133,-1.3475684525,8.084513903000001,-18.17633247,-2.6787630615,-2.03576231
350,1.4582750000000146,-28.642783164999997,1.870679617,14.893611899999996,-0.7157186865,-0.7055982350000001,9.8668637275,-18.20839596,1.6502358915,-2.967794061
351,1.4624415000000113,-28.78555012,1.8278022409999999,14.897460949999996,-1.283510208,-0.12261629449999999,12.821080685,-17.357369425,-5.4317500590000005,-2.296515286
352,1.466608000000008,-28.8958807,1.8172408340000001,14.887256649999998,-1.8266429305,-0.16394083199999998,9.520473719,-13.477802754999999,-1.2397482095,-1.9236804845000002
353,1.4707745000000045,-29.007961270000003,1.868523717,14.850585950000003,-2.593891382,-0.5278984604999999,8.9690384855,-13.51241398,6.814047098,-1.0881057235
354,1.4749410000000012,-29.127759935,1.834191203,14.85842135,1.4334653015,-0.593818605,13.83642769,-14.663780690000001,-4.7262499335,-1.493002892
355,1.479107499999998,-29.230208395,1.824390948,14.857147199999993,-2.7871814964999997,-0.950057,8.806757927,-12.534890652,-1.6525091525,-0.9519596995000001
356,1.4832739999999944,-29.320520405,1.8563879724999999,14.8252716,-0.27378362400000006,-0.478900939,10.9170918455,-10.9580278415,4.49939692,-1.674979091
357,1.487440499999991,-29.427146909999998,1.8341017960000001,14.835323349999996,-1.822932184,-0.7471093535000001,12.45985365,-13.041490079999999,-3.6258108614999998,-0.476572011
358,1.4916069999999877,-29.500092504999998,1.8522799015,14.828514100000007,-1.418116689,-0.2515802045,9.622944832,-9.0018863675,1.5859566925000002,0.12026524499999999
359,1.4957734999999843,-29.55484581,1.8988797665,14.806320149999998,-2.557586789,-0.152555153,9.700759885,-6.699500084,5.476496935,0.20805165199999998
360,1.499939999999981,-29.619660375,1.929731071,14.789581299999995,0.7548088535,-0.704102291,12.497003553999999,-7.9841561315,3.4908555745000003,-0.14457953
361,1.5041064999999776,-29.681357385,1.887031615,14.813495650000007,-1.2229909975,-1.152861506,12.056153775,-7.7254591,-6.580476522,-0.270691246
362,1.508273000000031,-29.739421845,1.9490767125000001,14.774227149999994,-1.4032917915,-0.6519984785,8.2376470555,-7.083803415,8.1531722545,-0.7603010535
363,1.5124395000000277,-29.802236559999997,1.9514235255,14.767719300000003,-1.1106553675,-0.4897722305,12.469175815,-7.717345238,-0.0717711445,-0.751271915
364,1.5166060000000243,-29.840162274999997,1.9615405205000003,14.76315305,-1.1857992115,-0.6382859345,10.562654015,-4.829365730499999,0.6460036040000001,-0.1945593285
365,1.520772500000021,-29.865525245,1.9804486034999997,14.757453900000009,-1.664271295,-0.067471793,10.642860889,-3.2284119425,1.6021257045,0.322592117
366,1.5249390000000176,-29.900113105,2.0330441595,14.72845075,-1.4442443550000001,-0.997942656,8.6651632785,-4.3139685395,6.5269229415,-0.18498600999999998
367,1.5291055000000142,-29.945216180000003,2.016168833,14.740867599999994,0.648573667,-1.68422541,14.208157065,-5.6550666094999995,-3.2022792174999997,0.08578214049999999
368,1.5332720000000108,-29.980161664999997,2.012315929,14.7461014,-1.5344111325,-0.3290742265,9.8980798735,-4.500203490500001,-1.3290011285,-0.11015401949999999
369,1.5374385000000075,-30.009051325,2.061463952,14.726966850000004,-1.9382773045000001,-1.0715952815,9.457386494,-3.5984865425,5.544336319,0.751425624
370,1.541605000000004,-30.045592305,2.083103478,14.714790349999994,-1.0698243975,-0.8058150115,10.733995915000001,-4.6204810145,2.2629727425,-0.2064187005
371,1.5457715000000005,-30.075977325,2.102730632,14.721412649999998,-0.8409849030000001,-0.5721628814999999,12.905109405000001,-3.8956304785,0.931205511,1.6463678480000001
372,1.5499379999999974,-30.101180075000002,2.093443155,14.726798999999993,-0.9296528695,-1.0526332255000002,10.415984154,-3.343855143,-1.9976923465,-0.25828114150000003
373,1.554104499999994,-30.133161545,2.146909535,14.710105899999995,-1.3957876865,-1.521266222,9.2044661055,-3.9846594335,5.840167999,1.2725985945
374,1.5582709999999906,-30.17924309,2.1294650435,14.720386500000004,0.03517717100000001,-0.8480240404999999,12.30328417,-5.8420057295,-3.054549098,-0.360731624
375,1.5624374999999873,-30.22237015,2.154012561,14.72070695,-2.18331939,-0.96396485,10.060115337500001,-5.4101171495,1.810138643,1.2913864105
376,1.566603999999984,-30.24977398,2.1793257595,14.711803449999998,-1.704597771,-0.2227004915,10.0895919795,-3.5276182289999998,2.5466124045000003,0.20104610950000001
377,1.5707704999999805,-30.2887249,2.2385426164999997,14.684371949999992,-1.021047145,-1.24350512,9.615728138,-4.7903035880000004,7.078103304,0.509044379
378,1.574937000000034,-30.337478635,2.217586279,14.696205150000004,0.540408805,-1.599585116,13.793513773499999,-6.1756436825,-3.6014130115,-0.2627699525
379,1.5791035000000306,-30.370226860000002,2.2265189885,14.695980050000003,-1.8073012825,-0.31480681250000003,10.3536911005,-4.20561409,0.22199219449999996,0.28040544700000003
380,1.5832700000000273,-30.402347565,2.2462774515,14.686458600000002,-1.5778566,-0.823064178,10.090692043499999,-4.0336596965,1.9199598135,0.0003458854999999206
381,1.587436500000024,-30.423928265,2.2962785955,14.653968800000001,-1.380027592,-0.9123871025,9.004100086000001,-2.6792174575,6.4351480005,-0.563788554
382,1.5916030000000205,-30.453855515,2.2914229035,14.660656000000003,-0.0375455475,-1.2320870165,13.685298920000001,-3.8891124390000003,-1.6237379905,0.18786768600000003
383,1.5957695000000172,-30.499612810000002,2.2895533439999998,14.6602745,-1.165609017,-0.844811084,10.0328292855,-5.737024784000001,-0.8857338135000001,-0.3920450215
384,1.599936000000014,-30.536768915,2.3170488474999997,14.655895199999996,-1.1944162995,-1.3390459715,9.7879629135,-4.713288068500001,2.517469287,0.7868372945
385,1.6041025000000104,-30.569551465,2.319903493,14.651393899999995,-0.9975610079999999,-1.224625766,10.624862194999999,-4.163056135,-0.143343687,-0.5358050245
386,1.608269000000007,-30.600483895,2.337984204,14.65315245,-1.142783105,-0.9014189539999999,11.913249967999999,-3.9936691525,1.158089861,0.8712553974999999
387,1.612435500000004,-30.6302824,2.340664864,14.651786800000004,-1.7289316655,-0.6639278755,9.451925756000001,-3.8126469849999998,-0.35160684600000003,-0.218143627
388,1.6166020000000003,-30.64810467,2.436053872,14.616535200000001,-2.8472298975,-0.5401031224999999,9.3696591855,-2.2544499635,11.29144812,1.960270494
389,1.620768499999997,-30.672080039999997,2.448787987,14.609600049999997,0.663310513,-1.7040641305,12.127366540499999,-3.0593324154999997,1.0325418115,-0.1596663225
390,1.6249349999999936,-30.68166447,2.49090904,14.606452899999994,-1.249543965,-0.447218761,11.26640844,-1.4362158925,3.888529301,1.897163212
391,1.6291014999999902,-30.685935975,2.5090726014999998,14.604923249999999,-0.8003902435,-1.082715869,10.631511687,-0.7100138665,1.2605021594999999,0.7474554775
392,1.6332679999999868,-30.689248085,2.6173105835,14.563373550000001,-3.6058251855,-0.7026089205,7.457337856,-0.48996835949999995,13.055456159999999,1.9873765705
393,1.6374344999999835,-30.68463707,2.684025645,14.536106099999998,0.0545717255,-1.539236009,13.12322712,0.496454835,7.851935625,1.0542500315
394,1.64160099999998,-30.685911179999998,2.746655822,14.526363350000004,-1.7146725950000001,-0.7941592040000001,11.601518629000001,-0.4199325145,6.4368891715,2.4012643095
395,1.6457675000000336,-30.68448734,2.829887986,14.502159100000007,-0.805697739,-0.7752993105,11.890666485,0.10602366900000004,9.3683443065,2.3839173315
396,1.6499340000000302,-30.67451191,2.934581399,14.470325450000004,-2.7252062555,-2.040232718,9.083281992,1.0482561885,12.0245580665,2.8715928795
397,1.6541005000000268,-30.671463969999998,3.0605450865,14.427894600000002,-0.35447514049999995,-1.24090451,11.184904576000001,0.4009461405,14.892516614999998,3.1244763135
398,1.6582670000000235,-30.649910925,3.1559996605,14.415863049999999,-1.922508538,0.11077839149999999,11.609815121,2.379460383,9.868402956,4.3549135925
399,1.66243350000002,-30.586984635,3.3759297134999997,14.349403350000003,-2.941569209,0.28078924899999996,7.8109092705,7.7718384265000005,26.067329405,6.336376667
400,1.6666000000000165,-30.488308905,3.549843073,14.306945799999994,-0.441292182,0.5544166715000001,11.671432019000001,11.841717245,19.829135895,6.005369663
401,1.6707665000000134,-30.324373244999997,3.7484970090000003,14.272689799999995,-2.17061758,1.0212288495,10.35641575,19.700073240000002,21.93577671,8.271541357
402,1.67493300000001,-30.085300445,3.9642443655,14.22924805000001,-0.73310104,0.104524113,10.346058848,28.751758575,24.406707765,8.064011574
403,1.6790995000000066,-29.794465065,4.1942043305,14.1847992,-2.130977869,0.9973979595,9.319280149,35.06233978,25.869194030000003,8.923605442
404,1.6832660000000033,-29.44799423,4.421439171,14.13855740000001,0.236735739,0.4840881735,12.051617625,41.69766235,25.82366848,8.2429928775
405,1.6874325,-29.02335453,4.6443287135,14.11056515,-1.556997478,0.5695609895,10.336396220000001,50.993867875,24.267445565000003,9.898945810499999
406,1.6915989999999965,-28.54033947,4.90189147,14.05454250000001,-0.9247204954999999,0.7822534145,9.653451445,58.223859785,29.695780755,8.577427387
407,1.6957654999999932,-27.969509125000002,5.122223615499999,14.040893600000004,-1.733915687,1.32200253,11.944328785,68.42660140999999,23.359246249999998,10.84329271
408,1.69993199999999,-27.31615734,5.3940496445,13.989692699999992,-0.9996533395,0.684727609,9.4830937395,78.665977475,31.111120225,9.272398948500001
409,1.7040984999999864,-26.60355854,5.6296460625,13.974968000000004,-0.8683073225,0.6748715045,11.543966295,85.47547531000001,25.28903294,11.040513035
410,1.708264999999983,-25.82505131,5.871076584,13.949111950000002,-1.609397441,1.207699299,8.435204506,93.42801666,26.749881745,9.5222034455
411,1.71243149999998,-24.97790718,6.157271385,13.917999299999991,-1.389771521,0.3062807995,10.7501568775,101.82699965,31.90323353,11.14653778
412,1.7165980000000332,-24.073140145,6.346722603,13.919845600000002,0.42841652,-0.0337459485,13.276842595000002,108.2630844,19.987859725,9.13633728
413,1.72076450000003,-23.1271677,6.6135416035,13.909042350000007,-2.519231796,-0.039970606500000005,8.040880203,113.43820575000001,29.146882055,11.387073990000001
414,1.7249310000000264,-22.12561226,6.8332257275,13.922386149999994,0.6906777915,0.0903756325,13.10541153,119.7305565,23.103147505000003,11.163054944999999
415,1.729097500000023,-21.079864505,6.9998455045,13.966094949999999,-0.8417318315,-0.527671725,10.818206785000001,124.63153075,15.95799637,11.95672703
416,1.73326400000002,-20.010787965,7.2372441290000005,13.985939000000002,-1.6225968005,-0.21696760499999998,8.423970701,127.70509335,25.214078905,11.713662145
417,1.7374305000000163,-18.901585580000003,7.403487921,14.04521179999999,0.2276037035,-0.07787388549999999,12.745996954999999,131.98193355,15.747653005,13.07316637
418,1.741597000000013,-17.741745950000002,7.546762942999999,14.115699800000002,-0.754071802,0.1676925715,10.6753609175,137.80171205,13.05773878,12.833610535
419,1.7457635000000096,-16.5450139,7.7175781725,14.183067300000005,-1.0187154409999999,0.23823095899999996,10.90303612,142.3204498,16.51384258,13.4773736
420,1.7499300000000062,-15.312289715000002,7.791923045999999,14.273246749999998,0.446429858,-0.9321403205000001,11.502696039,146.1911316,4.96378243,12.406765935
421,1.7540965000000028,-14.036069869999999,7.9056706430000006,14.356437650000004,-1.9531031255,0.6782728765,7.786652088,151.56025695,9.988609316,12.76144552
422,1.7582629999999995,-12.711194515,7.976667881000001,14.449127150000002,1.3584098665000002,-0.1955386255,14.414247034999999,157.1805267,5.0802791114999994,12.246953009999999
423,1.762429499999996,-11.35081816,7.927789211,14.5681801,0.05422502799999995,0.26741857850000006,11.61224699,161.0394897,-9.410381319499999,12.37144184
424,1.7665959999999925,-9.952912808,7.976419449,14.670661949999996,-2.419071913,0.011991262499999988,7.6081249710000005,165.7641907,2.799762875,12.674365995
425,1.7707624999999894,-8.510786295,7.923621893,14.778362250000008,1.1180303695,-0.7243063595,12.71022797,171.04679105,-9.027402401,11.391837599999999
426,1.774928999999986,-7.0659706589999995,7.882317305000001,14.896018999999995,-1.3291866775,-0.8481985035,10.4123117915,171.1775284,-7.4718493210000005,12.5719018
427,1.7790954999999824,-5.6083960535,7.7866225245,15.001739500000006,0.03108322599999999,-0.975420773,12.34882164,172.9613037,-13.51838684,11.007562635
428,1.7832619999999793,-4.128174305,7.728741407499999,15.120986950000002,-2.423311591,-0.8196543605,10.390382765,175.414299,-8.824198008,13.07890272
429,1.7874285000000325,-2.6504349705,7.628913164,15.218902599999993,0.268698208,-1.7827627065,12.889242174500001,175.55630495000003,-13.34502983,10.696227552
430,1.7915950000000294,-1.167734429,7.505965471,15.326038350000005,-1.341610044,-1.1271123885,10.5130295765,175.96691894999998,-15.880758285,11.662655355
431,1.795761500000026,0.290899247,7.4483163355,15.41803740000001,-1.173549533,-1.867970228,10.297420023,173.3842392,-7.7160804265,10.640250680000001
432,1.7999280000000224,1.7220355275,7.26834321,15.521110550000003,0.041138797999999976,-2.197535455,12.74193287,169.9061737,-22.10804462,12.007579325
433,1.8040945000000197,3.151640654,7.1642205715,15.613822949999992,-1.7013396025,-0.46324354400000006,9.4890296455,169.9617386,-12.7047419545,11.24644184
434,1.808261000000016,4.5462857485,6.9970278740000005,15.698089599999996,0.6761813015,-3.2806740999999997,13.82114172,165.8402252,-20.086773875,10.909712315
435,1.8124275000000125,5.914003849,6.808112383,15.779014599999996,-1.5412440299999999,-1.8903923035,9.493872643500001,162.74604795,-22.411466599999997,11.38182354
436,1.8165940000000087,7.219816208,6.706953049,15.853984849999996,-0.590254426,-2.5273946525,11.466607331999999,155.33181760000002,-11.732910635,10.186827185
437,1.820760500000006,8.4611165525,6.433454751999999,15.906146999999997,-0.570532531,-2.9701014755,13.488049505,148.02037810000002,-32.381477355,10.4076542875
438,1.8249270000000024,9.7041211145,6.336605549,15.984455100000005,-2.3609470725,-2.5175392629999997,5.5619909765,147.83280185,-10.6731386205,10.947057722
439,1.829093499999999,10.867771625,6.063794136,16.014305099999994,2.65194571,-1.762780607,17.16859865,139.03004455,-32.28866291,9.145976543500002
440,1.8332599999999957,11.98372507,5.893113375,16.067451499999997,-3.072906375,-3.1485720875,8.7355055795,132.9440689,-19.51146698,10.188642501499999
441,1.8374264999999923,13.031373025,5.6567468645000005,16.094799049999992,0.586507857,-2.8315489295000003,13.483036515,125.18543245000001,-27.670060155,9.1259386535
442,1.841592999999989,14.047369,5.3947417735,16.108039850000004,-0.7767566739999999,-1.4410562809999998,10.197242258,121.45326614999999,-30.855816840000003,8.9443547725
443,1.8457594999999856,14.995725629999999,5.1870040895,16.13782880000001,-1.5849084260000001,-3.567645073,8.938055516,113.27666475,-23.9265337,9.4590585225
444,1.8499259999999824,15.892603394999998,4.9035348894999995,16.124130249999993,1.375951603,-1.225104153,14.68785429,107.4639969,-33.890247345,7.493215799
445,1.8540924999999788,16.730912205,4.6409261225,16.134658850000008,-3.3776671885,-3.2339987755,9.1253709795,100.28133009,-30.597167015,9.807913303500001
446,1.8582590000000323,17.49811745,4.4207092525,16.126644149999997,1.1831157955,-4.233472466,15.80817175,91.86602402,-26.185028074999998,6.829898118999999
447,1.862425500000029,18.205854414999997,4.098180294,16.088680249999996,-3.240259826,-1.7414674755,8.163816929,85.04267502,-38.959884645,7.272253274500001
448,1.8665920000000256,18.846523285,3.94465971,16.086799600000006,1.855015755,-3.706513405,9.798261641,76.6454277,-18.180129055000002,5.5643441675
449,1.8707585000000224,19.456526760000003,3.5898857115,15.998847950000005,-3.1792073844999997,-2.183260083,11.5138511655,73.64536667,-44.409963605,3.7982270419999997
450,1.8749250000000188,19.982677459999998,3.5071400405,16.009185799999997,-0.7786286174999999,-2.745159626,9.782405853,62.84169197,-9.577799797499999,4.345508158
451,1.8790915000000155,20.44362164,3.1538462640000002,15.8884926,-0.8030247089999999,-2.5251270535000003,13.579986094999999,55.904296875,-45.52033043,0.8623522520000002
452,1.883258000000012,20.85116005,3.1063919065,15.909706100000001,-0.8764405845000001,-2.872066259,8.023720262000001,48.557271959999994,-5.1071126609999995,4.1338829695
453,1.8874245000000087,21.21271229,2.8079857825,15.781982399999997,-1.3902602769999999,-1.506395459,14.2361002,43.910552980000006,-39.655820845,-1.6144192815
454,1.8915910000000051,21.509043695000003,2.773267746,15.816310899999998,-2.225222111,-3.2284339665,8.1740442515,35.168712615000004,-3.0620202995,5.0588608385
455,1.895757500000002,21.748663905,2.5547811984999997,15.702007299999998,-0.23015385849999997,-2.8003883365,13.281600955,29.13333416,-30.152196879999998,-3.250560492
456,1.8999239999999984,21.917220115,2.5039077995000003,15.737491599999998,-1.7596826555,-1.0007182655,7.8724445085,19.8406086,-4.7518908955,5.9914216995
457,1.9040904999999957,22.067626955,2.4203130005,15.68170165,-1.806342602,-2.5253591535,12.1011698225,18.085930825,-12.522260424999999,-2.6127748485
458,1.908256999999992,22.201455115,2.325147867,15.715824149999996,-0.45888857549999995,-0.2345636525,10.0616025935,15.692831995,-9.7043571635,7.877257823999999
459,1.9124234999999885,22.29257011,2.384482801,15.733314500000006,-2.3384734985,-3.255364299,10.0325570105,10.611319063,6.6786512755,-0.937244177
460,1.9165899999999847,22.37440777,2.2237139345,15.746349350000003,0.5415536465,-0.22514063150000002,10.129062175000001,9.542621136,-17.947426319,8.556472301500001
461,1.920756499999982,22.397888185,2.388217211,15.811302199999993,-3.489660263,-1.754217565,10.0874419225,2.2753198445,20.518411635,-0.5111963155000001
462,1.9249229999999784,22.411177635,2.2319951655,15.809539799999996,2.212667465,-2.6609118880000002,11.2836401485,1.3924932479999999,-18.1274128,6.69280386
463,1.929089500000032,22.41779423,2.3953576685,15.878231049999997,-5.223783731499999,1.012805365,8.580342531,0.2365861534999999,20.558293345,-0.06669954950000001
464,1.9332560000000285,22.38920498,2.353539884,15.931022649999996,3.556622669,-2.799996138,13.54666138,-3.908251941,-2.9419423025,7.522920131999999
465,1.9374225000000247,22.37413025,2.3955641985,15.965259550000006,-5.497299432999999,-0.914154738,5.745195626999999,-2.198911965,5.519323826,1.642416954
466,1.941589000000022,22.313401225,2.508619666,16.073451999999996,2.813809395,-0.863348827,12.359185933500001,-8.0575304035,16.76929188,6.621044874
467,1.9457555000000184,22.262159345,2.4980220795,16.079524999999997,-2.8394502400000006,-2.319988608,8.3015177245,-6.412915349,-1.6143181324999998,0.9361043385
468,1.949922000000015,22.21131039,2.5674524305,16.173164399999997,-0.2975358964999999,0.251075089,11.863216400499999,-6.792171955000001,11.258719444,7.0053470135
469,1.9540885000000117,22.149799344999998,2.7194278245000003,16.253765099999995,-2.6136308904999996,-0.774775177,11.83644962,-8.058913946,19.81746769,1.8554255069999999
470,1.9582550000000083,22.110224725,2.686328411,16.295303349999998,2.236850858,-1.2772610785,11.688174725,-5.187145293,-2.513703972,5.862810135
471,1.962421500000005,22.04919434,2.8763304945000003,16.3829651,-4.7708162685,-0.7497677135,9.939838169,-8.077472925,24.35777473,0.959727645
472,1.9665880000000016,22.05716038,2.9151101114999998,16.454826349999998,1.2674123050000001,0.432966333,7.848589659,0.3557300565000001,6.852602542,5.9629246
473,1.9707544999999984,22.04208469,3.073350072,16.524101250000008,-1.4304594995,-0.3075096535,12.952263355,-2.508665383,19.9816308,0.3855206969999998
474,1.9749209999999948,22.050239565,3.1144473550000003,16.580974600000005,0.5177619455000002,-0.770506121,7.9274933315,0.4507335419999998,6.4373572464999995,4.1966555115
475,1.9790874999999915,22.07300091,3.2565803530000004,16.634658799999997,-1.8464925290000003,-0.43829755449999996,11.927219390000001,2.1121699215,17.49363899,-0.6232705115000001
476,1.983253999999988,22.101221085,3.346330285,16.722873700000008,-1.0299009085,-0.28358209100000004,5.609568596,2.6213803295,13.255223514499999,5.458132386499999
477,1.9874204999999847,22.14529419,3.414642334,16.72069165,1.7470681070000003,-0.14600282899999995,13.818273065,5.038288832,6.763081313,-3.503362015
478,1.9915869999999811,22.159355165,3.478605747,16.794376399999997,-2.282522738,-3.148987889,8.232327341,0.984137654,9.7373607175,5.035841942
479,1.995753499999978,22.198979375,3.5431222915,16.781303400000006,1.1136654615,1.8945850135,14.25421953,4.610978365,5.8628617525,-4.568612695
480,1.9999200000000315,22.21433449,3.6375464200000005,16.8486824,-3.0816015455,-1.198390305,8.910605432,1.152794212,12.820994854999999,2.9342322349999996
481,2.004086500000028,22.25851059,3.6298060420000002,16.798637400000004,3.567991495,-1.692577541,12.777910707499998,5.4756075725,-3.8320628405,-5.407197952000001
482,2.0082530000000247,22.316052435,3.6830347779999997,16.8251839,-3.8064122795,-0.039482295499999986,7.217462778,6.4890270235,6.3902075289999996,0.28311425450000005
483,2.0124195000000213,22.35908985,3.6560789345,16.774627699999996,2.132741034,-0.7342465519999999,10.7772550575,5.345646589999999,-5.98068738,-4.584506631
484,2.016586000000018,22.402586935000002,3.7161698340000004,16.783340449999997,-3.681971252,-1.425339192,5.0054472685,4.9517633915,6.333383083499999,-2.0098339315000002
485,2.0207525000000146,22.441129685,3.6989935635,16.744148300000006,1.4541695710000002,1.3247782585,17.89763069,4.706891775000001,-4.3875529545,-3.7443085314999998
486,2.0249190000000117,22.469297410000003,3.7368710039999997,16.731777200000003,-2.985865444,-2.299040079,10.2525959025,3.2976087334999997,2.9094958304999996,-3.3626431825000003
487,2.029085500000008,22.50972652,3.7183607814999995,16.7055359,0.39056336849999984,-0.915104687,14.927016255,4.833131283499999,-3.9546521305000004,-2.260654986
488,2.0332520000000045,22.564481735,3.7808543439999998,16.686855300000005,-1.8308481275000001,-0.6745449155000001,5.1371073725,6.5503355275,5.385803164,-5.130128384000001
489,2.037418500000001,22.659451484999998,3.7746059895,16.666625950000004,-2.0748962165,0.17751210949999996,9.0323712805,11.3239204895,-2.3314336535,-2.1498736145
490,2.041584999999998,22.74648857,3.8744162319999997,16.679485299999996,-1.1603004675000002,-1.3168457445,8.5427830225,10.1726119525,10.957676170500001,-3.3804713485
491,2.0457514999999944,22.8114357,3.8722081185,16.653873449999992,0.474876391,0.348311916,16.23089123,7.768087864,-2.137239158,-2.9191585780000002
492,2.049917999999991,22.84256077,3.9755476715,16.6705551,-2.4385789335,-2.200742036,11.365049840000001,3.4334925409999997,11.493678571,-3.202106357
493,2.0540844999999877,22.899422645,3.97159636,16.6494293,-0.19462662949999998,-1.83767122,12.353109361000001,6.778026817000001,-2.1292028725,-2.3773277999999998
494,2.0582509999999843,22.941976545,4.0961972475,16.66938785,-2.1749124525,-1.367649138,6.249837401,4.773136139,14.009105685,-3.8115911485
495,2.062417499999981,22.980739595000003,4.1186733245,16.681133249999995,-0.6786743405,0.44230175,11.25834227,4.3223960395,2.3227695525,0.029187426000000002
496,2.0665839999999776,22.989419939999998,4.2861844300000005,16.710967999999994,-1.3488899465,-1.532657951,10.947785618,0.6183921099999998,19.214980125,-4.740869284
497,2.070750500000031,22.987969395,4.330499411,16.725181599999992,-0.5286007520000001,-0.924945872,16.489270689999998,-0.5422277449999999,4.8390737775,-0.7227696180000001
498,2.0749170000000277,22.96437645,4.4777452945,16.761276249999995,-1.173734009,-2.478709102,7.786094427,-3.2915211915,17.24916506,-3.1991864144999997
499,2.0790835000000243,22.957523345,4.4975581165000005,16.758846300000002,-0.7076326010000001,-0.3707956670000001,10.2246761345,-1.0499917265,1.3486150504999999,-1.3987039330000002
500,2.083250000000021,22.90541649,4.698915958500001,16.814407350000003,-2.2844284175,-1.7067481279999999,7.2004768565,-6.9176337725,24.116398815,-3.5959008934999996
501,2.0874165000000175,22.844141005,4.764286995,16.819774650000006,0.1879035835,0.326687619,16.585065365,-7.651529311999999,6.7518041135,-2.668241568
502,2.091583000000014,22.77438927,4.9803571699999996,16.896018999999995,-3.3392968175,-1.8960394855000002,9.313390256,-9.279053689,26.736577985,-1.8983040450000002
503,2.095749500000011,22.70392323,5.0337765215,16.897636449999993,1.008794697,-0.8627004919999999,9.8841521745,-8.7079383115,5.270096898,-2.5158495304999997
504,2.0999160000000074,22.6250639,5.248529911,16.969360349999995,-2.469871927,-1.0296642485,8.938448904,-10.37639189,26.3927927,-2.213193545
505,2.104082500000004,22.543520925000003,5.357975483,17.007263199999997,-0.8001801370000001,0.37790444500000003,16.40769291,-10.453293324,13.140304565000001,-1.069868326
506,2.1082490000000007,22.455574034999998,5.613880873,17.107566849999998,-3.1966861485,-1.634056926,7.5321581365,-11.820978877999998,32.24694729,-0.9645295740000001
507,2.1124154999999973,22.406521795,5.748025417,17.149086000000004,-0.020885810499999963,0.12431308649999995,10.1244697595,-6.6211537105,16.05294561,-1.7697841975
508,2.116581999999994,22.328281405,6.0464348795,17.273082699999996,-2.946673393,-0.6344974114999999,9.80586934,-11.0482745185,38.018743515,-0.2181951405
509,2.1207484999999906,22.23850441,6.2181239129999994,17.316528299999995,0.7135263085,-0.953826964,14.853425025,-11.558141232,20.31907177,-3.239017606
510,2.1249149999999877,22.163578035,6.5055966375,17.434596999999997,-2.1934210655,-1.698256433,7.191605091,-10.694334982,36.51704025,-0.29420572549999996
511,2.129081499999984,22.068565364999998,6.6745975015,17.484970099999998,-0.39065291,0.460560717,12.478446485,-12.32612181,20.34046078,-2.281044841
512,2.1332479999999805,21.97078228,7.01926589,17.611881299999993,-2.9162327049999996,-1.2060685009999998,8.022578001,-13.669606685000002,43.277835845,-1.7928396465
513,2.137414500000034,21.879004475000002,7.22859931,17.670017250000008,0.4953404065,-1.339341849,15.379550935000001,-12.122936966,25.17459297,-3.147268176
514,2.1415810000000306,21.777527810000002,7.5630574225,17.78541945,-3.0405806305,-0.5946234650000001,4.786475300499999,-14.082917215,41.638572695,-2.4519082905
515,2.1457475000000277,21.600290299999998,7.8202042579999995,17.853961950000006,1.5737868845,-2.417066574,17.775457385,-22.602692605,30.98276043,-4.0214214325
516,2.149914000000024,21.455696105,8.048228979,17.906867999999996,-1.9405193330000001,-1.262088865,5.029995799,-18.360284325000002,27.03466892,-4.4456306695
517,2.1540805000000205,21.269949914999998,8.443535805,18.013282750000002,-1.6554597465,-0.6664870049999999,10.723387482,-24.355060575,48.07481575,-5.7110741140000005
518,2.158247000000017,21.033302305,8.6149926185,18.0280075,0.7782093885000001,-1.6269193890000002,16.070465085000002,-28.794731140000003,19.108748435,-6.012058735
519,2.162413500000014,20.795180325,9.0200309755,18.131484999999998,-3.476248741,-2.162758052,3.5489321945,-30.70154953,49.074184419999995,-6.1176264284999995
520,2.1665800000000104,20.45239544,9.226932049,18.14398575,3.3680491449999996,-1.646744788,18.627197265,-41.5404129,23.06776142,-7.481952429
521,2.170746500000007,20.076140405,9.4523925785,18.151756299999995,-3.5284861325,-2.531223416,8.826570512,-45.511358265,24.994254115,-8.759699345
522,2.1749130000000036,19.66449547,9.8079409625,18.188503250000004,-0.557762146,-2.5977777245,6.4447180045,-50.275232315,40.878074645,-10.644260406499999
523,2.1790795000000003,19.166358945,10.017079832499999,18.176250449999998,0.38481947800000005,-1.5269872545,13.539304255,-59.75327301,22.48112392,-9.929848672
524,2.183245999999997,18.58889389,10.212314126999999,18.14629745,0.917666912,-2.7928811309999997,13.436283110000002,-68.796735765,20.310256005,-11.148334505000001
525,2.1874124999999935,17.994350435,10.430266379999999,18.128631600000006,-3.5217705964999997,-2.1722457405,7.2655756475,-71.20107269,23.46728325,-10.4141788475
526,2.19157899999999,17.335360530000003,10.723148824999999,18.117092150000005,-0.28119728,-1.4267106955,10.146805287500001,-78.99383163499999,32.425759315,-11.98924303
527,2.195745499999987,16.594364165,10.84934139,18.048046099999993,1.7583554984999998,-2.346502185,17.71033478,-87.60084534,11.40100765,-12.43070793
528,2.1999119999999834,15.805459495000001,10.991319180000001,17.974693300000006,-2.4845907685,-2.9498183730000003,6.8778164385,-93.16334915499999,13.280786509999999,-13.133004665000001
529,2.20407849999998,14.960197449999999,11.263905999999999,17.92451095,-2.2949486969999997,-1.3647522035,6.313966753,-100.500019065,29.264612200000002,-14.59949589
530,2.2082450000000335,14.014082435,11.420938490000001,17.80030825,1.4213789705000002,-3.5162433385,15.395169735,-110.79034039999999,13.932385445,-18.871852875000002
531,2.21241150000003,12.9257288,11.544090744999998,17.630558000000008,-1.3262852790000002,-4.8514534235,13.673740384999999,-126.7976265,9.013412239500001,-23.084446905
532,2.216578000000027,11.761563299999999,11.821886065000001,17.47929384999999,-4.702947736,-2.862572193,7.38138962,-136.14263155,28.06063366,-24.705076220000002
533,2.2207445000000234,10.498591425,12.14019489,17.308300050000007,-1.3653162120000002,-3.1109802725,11.097993375000001,-147.54179384999998,32.89665127,-27.300749779999997
534,2.22491100000002,9.108534813,12.372669219999999,17.131492599999994,0.72732654,-3.8592197895,14.65036583,-162.50220489999998,23.313178065,-25.046789165
535,2.2290775000000167,7.6844940185,12.633858205,16.966148349999997,-3.1639443634999997,-0.8939403445,9.094716548000001,-166.8270111,27.47077274,-23.96777058
536,2.2332440000000133,6.2450349329999995,13.09463358,16.861968999999995,-4.0062123540000005,0.20490398999999998,6.3040035660000004,-170.15854645,52.7503376,-18.62880707
537,2.23741050000001,4.7430999275,13.379596710000001,16.72724149999999,3.696781546,-2.3541971445,18.80930567,-176.7639313,31.823363299999997,-19.175258635
538,2.2415770000000066,3.280464292,13.6051116,16.61233899999999,-2.6897417905000003,0.276974261,7.816098929000001,-172.4955292,25.372900010000002,-15.255348685000001
539,2.2457435000000032,1.828708589,14.069123265,16.485649100000003,-1.9730219244999998,-0.4212917385,5.718322335,-170.8010483,54.259811400000004,-17.463933945
540,2.24991,0.3904836025,14.258645535,16.3640709,2.4355072085,2.1487624645,17.95203781,-169.21051025,21.76854229,-14.5858202
541,2.2540764999999965,-0.9615276454999999,14.610785005,16.23638915,-2.6524616930000002,0.736616969,3.258096814,-158.6520691,41.622901915,-14.852071285000001
542,2.258242999999993,-2.306426406,14.807590005,16.098114000000002,3.7816492315000003,1.207995772,17.34725666,-157.3791046,23.360927585,-15.397838114999999
543,2.26240949999999,-3.5440444945,14.97751808,15.960216500000001,-4.515767932,2.1066728235,3.100390792,-144.4866867,20.472335815,-15.147503855
544,2.2665759999999864,-4.7685956955,15.336507795,15.776340500000003,1.0434761940000001,1.254709005,10.9155311585,-141.50377655,43.766075134999994,-17.689414024999998
545,2.270742499999983,-5.926745176000001,15.323024270000001,15.629360199999994,1.8068464400000002,0.828968823,14.6611318575,-134.5401764,-0.7334436775,-17.30996418
546,2.2749089999999796,-7.0269773005000005,15.593348025000001,15.423854850000005,-2.5239843725,0.12412118949999995,3.8113228085,-125.79050065,34.14149666,-19.51587868
547,2.279075500000033,-8.092482567000001,15.54584217,15.277202600000003,2.5119997855,1.632915497,18.0760355,-123.3465233,-4.1295952815,-17.77159786
548,2.28324200000003,-9.09498024,15.67368174,15.080196400000005,-4.3786348105,1.4818121495,0.59317112,-114.28572085,17.7815599425,-19.81088638
549,2.2874085000000264,-10.084697245000001,15.768533230000001,14.892463699999993,2.173965022,-1.100129336,16.027638435,-112.87667085000001,14.127385376,-19.69808483
550,2.291575000000023,-11.045342445,15.619802,14.719791399999998,0.872228235,0.4679996595,12.208431246,-110.0089073,-14.692881109999998,-22.50130367
551,2.2957415000000196,-11.97607374,15.621875764999999,14.53171919999999,-1.9903823735000001,-0.2147356495,6.045911073499999,-105.83287045,3.872368276,-21.46605873
552,2.2999080000000163,-12.87547636,15.520631315,14.34240725,0.1671289315,0.5431203545000001,10.3849225025,-102.14673995000001,-7.982741356,-23.570500375
553,2.304074500000013,-13.761712074999998,15.392344475,14.181427,-0.059333294499999994,-0.20191928750000002,11.7515892995,-101.428482055,-11.399977923,-21.882280350000002
554,2.3082410000000095,-14.64172888,15.181799885,14.038612399999991,0.660947144,-0.782910526,10.106562135499999,-101.39953233,-21.28740311,-21.791161535
555,2.312407500000006,-15.49510622,15.02231979,13.897628800000007,-1.558186114,0.188085616,8.941335201,-98.229278565,-14.94209051,-20.969148635
556,2.316574000000003,-16.329903605,14.78552389,13.780235300000001,0.0898569525,-0.22772244349999998,12.070435045,-96.854507445,-24.456716534999998,-20.45911598
557,2.3207404999999994,-17.124896049999997,14.532907484999999,13.686416649999998,-0.6705530879999999,0.8042639789999999,11.211844920499999,-92.79018784,-26.60552216,-19.384386065
558,2.324906999999996,-17.90494537,14.270104405,13.602539050000004,-0.31823205950000005,0.02406626949999996,9.558669566999999,-91.267471315,-27.844795230000003,-18.93145275
559,2.3290734999999927,-18.68931675,13.999940395,13.52445985,-0.3038541375,-0.580242038,10.518089295,-92.05983352499999,-28.63710976,-19.025066375
560,2.3332399999999893,-19.43889141,13.645777225,13.49832914999999,0.546648413,-0.017455145499999998,13.46519661,-89.3694458,-39.891233445,-16.8604393
561,2.337406499999986,-20.158883095,13.351901054999999,13.45217135,-2.5274015665,1.4635722635000001,6.778214097,-85.34924316,-32.062461855,-17.249305725
562,2.3415729999999826,-20.855519295,13.088363650000002,13.415336600000003,-0.8075204855,0.30835607449999997,10.293656826,-82.750354765,-28.809589385000002,-15.27955389
563,2.345739499999979,-21.51799774,12.71600914,13.409957899999995,0.6609888934999999,0.3281907885,13.803628446,-79.57872009,-42.142253874999994,-16.95963764
564,2.3499060000000327,-22.125350955000002,12.355993745,13.422782900000001,-1.200102687,0.9045765699999999,10.081133368,-73.39222336,-41.345958705,-14.878962040000001
565,2.3540725000000293,-22.69617462,12.044932365000001,13.3985062,-1.5927028355,-0.21239997449999998,7.827251195500001,-68.092479705,-34.12841034,-17.081237795
566,2.358239000000026,-23.23904419,11.68248463,13.410621649999996,0.47427783149999997,0.12445092200000002,13.983971595,-65.621795655,-41.29971695,-15.823312285
567,2.3624055000000226,-23.74997139,11.30265236,13.431861900000001,-2.3958164455,1.276033461,8.95151758,-62.04466629,-43.503246305000005,-16.10948467
568,2.366572000000019,-24.23015118,11.06060314,13.405235300000001,-2.686925173,-0.2545747905,8.202574253,-57.19999313,-25.94788647,-14.880779745000002
569,2.370738500000016,-24.67113781,10.6886763565,13.42723085,0.684688866,0.4567988065,16.598773004999998,-53.617481229999996,-42.40686226,-16.325489045
570,2.3749050000000125,-25.076942445,10.372948168499999,13.447151200000008,-3.015559435,0.6856832209999999,7.704676628,-49.354496,-36.01342869,-14.11063099
571,2.379071500000009,-25.463339805,10.1358656885,13.426116949999994,-1.1511004864999999,-0.5437705669999999,10.0610032095,-46.104804994999995,-25.36928272,-14.597342015
572,2.383238000000006,-25.80951023,9.78112936,13.4729004,0.46845891250000005,0.7249715925,15.05348921,-42.720346449999994,-41.42816734,-13.71619177
573,2.3874045000000024,-26.124871249999998,9.525412084500001,13.477600100000004,-3.1657100915,-0.105132781,7.763598678499999,-38.149677275,-28.530283930000003,-13.16600132
574,2.391570999999999,-26.41378689,9.2769289,13.482582100000002,-0.306604171,0.1385483685,11.424602029999999,-34.981443405,-27.66420078,-12.934719565
575,2.3957374999999956,-26.671162605,8.985505581,13.522796600000007,-1.8642035125,0.268643446,12.26387644,-31.848703385,-34.108495715000004,-11.591079712500001
576,2.3999039999999923,-26.88118553,8.7454657555,13.538429250000007,-1.7118667365,0.8653230665,8.6985783575,-25.73048878,-27.221700669999997,-11.59504795
577,2.404070499999989,-27.06676865,8.536938906,13.553192150000001,-1.6638222635,0.22639413199999997,9.8358254435,-22.72216129,-23.793964385,-9.9939098335
578,2.4082369999999855,-27.218585015000002,8.2856709955,13.58397674999999,0.11046925200000002,0.9108258484999999,13.129257200000001,-18.975885390000002,-29.15714359,-10.7815103505
579,2.412403499999982,-27.33969021,8.058970213,13.634277299999994,-2.6503829955000002,-0.1358384635,9.7296292805,-15.606249805,-27.617349625,-7.3882980345
580,2.416569999999979,-27.450665475,7.8843901155000005,13.64188385,-1.247506559,0.058608096,9.559191227,-13.661616325,-19.65636158,-9.149435520499999
581,2.4207365000000323,-27.544569015,7.647758960500001,13.710731500000009,-0.108308911,-0.08813959400000004,14.288894175,-12.597502235,-29.671738625,-6.070374489
582,2.424903000000029,-27.61021042,7.4387304785,13.755210899999994,-1.524220556,-0.384051719,8.80902338,-8.803759810999999,-25.318291664999997,-7.248244047
583,2.4290695000000255,-27.668349265,7.306784868499999,13.7760849,-2.1375576855,-0.4605145305,10.382462024999999,-7.506247996999999,-15.887689115,-5.351769924
584,2.433236000000022,-27.72301865,7.0703663825,13.840751650000001,0.7355574069999999,-0.45490676550000003,14.552660939999999,-7.729275466000001,-29.353214265,-6.6170654295
585,2.437402500000019,-27.775335310000003,6.9361846445,13.868568400000001,-4.0127880575,-0.381082043,7.333759546,-6.943540573,-16.50301886,-4.8208501340000005
586,2.4415690000000154,-27.821695325,6.8166372775,13.870902999999998,-0.49633105450000004,-0.933423847,11.248567099999999,-5.8061528204999995,-13.479153155,-6.6967983245
587,2.445735500000012,-27.86953163,6.646283626500001,13.909484849999998,-1.140956238,0.248291127,13.39456844,-6.528104067,-20.93787098,-5.7166576385
588,2.4499020000000087,-27.91785145,6.524731159,13.920257550000002,-1.9511200785,-1.0675014855,9.988277434,-6.168132782000001,-14.14041185,-5.970237255000001
589,2.4540685000000053,-27.95729351,6.4054684635,13.938346899999999,-1.703524411,-1.1642982365,10.528163433,-5.2124910355,-14.367096425,-5.0284912585
590,2.458235000000002,-28.012426375,6.306970358,13.934272800000002,-0.529282123,-0.401424982,11.9264659865,-6.7811391355,-10.840419769,-6.2884111405
591,2.4624014999999986,-28.07875061,6.159209728,13.969177250000001,-0.763528772,-1.4888439180000002,12.770717144999999,-8.647382734499999,-18.324674605,-4.878963232
592,2.466567999999995,-28.145564075,6.092298746,13.961997999999994,-3.0319108965000003,-0.844830144,6.8206300735,-8.171397209,-7.312231304500001,-4.87127161
593,2.470734499999992,-28.212902065,6.0341410635,13.946174600000006,-0.745606691,-0.3113145995,12.551963805,-8.1013748645,-5.974841356500001,-5.168748617
594,2.4749009999999885,-28.28063393,5.922986984,13.97169495,-1.409823418,-0.978577584,12.037814615,-8.687632562,-13.832970620000001,-3.9389704465
595,2.479067499999985,-28.341096880000002,5.8838300705,13.96094515,-1.8048933745000002,-0.392517969,9.230019568,-7.352329254000001,-4.238957405,-3.5851029155
596,2.483233999999982,-28.410373685,5.819145441,13.962821950000006,-0.8911586405,-0.620887175,10.531529425,-8.57223439,-7.5779919625000005,-3.7922456264999997
597,2.4874004999999784,-28.482357980000003,5.7592496870000005,13.964195250000003,-0.642306775,-0.7317147105,12.097723005,-8.870779991,-7.108559847,-3.4899207355
598,2.491567000000032,-28.54042053,5.669282436,13.985595700000005,-1.4051576255,-0.450818017,11.500246050000001,-7.464770319,-11.34662056,-3.2152785059999998
599,2.4957335000000285,-28.594025615,5.6700696945,13.956733700000001,-2.35268271,-0.6379936635000001,7.64610219,-6.3253836635,1.024076223,-3.2225524185
600,2.499900000000025,-28.648621560000002,5.625312567,13.953811650000006,0.07831564899999999,-0.9239602685,13.831542970000001,-6.754301071,-5.2035387755,-3.146395087
601,2.504066500000022,-28.705379485,5.5666987895,13.96660614999999,-1.907670498,-0.4246748795,10.150739671499998,-7.19557786,-7.609426977,-2.2785018084999997
602,2.5082330000000184,-28.753531455,5.5611851215,13.956855749999988,-1.408879578,-0.704153359,9.430801868,-5.9239575865,-0.6834261715000001,-1.6131076815
603,2.512399500000015,-28.809071539999998,5.5253868105,13.949569700000012,-0.7894635425000001,-1.053808272,11.7050333,-6.790929556,-4.04553175,-3.057731032
604,2.5165660000000116,-28.875957489999998,5.4838142395,13.955017100000006,-0.0757212675,-1.215944052,12.33652401,-8.363118408,-5.35851717,-2.107238531
605,2.5207325000000083,-28.95579338,5.419442415,13.965972899999997,-1.2785404325,-1.1716113684999998,9.857199191500001,-9.9167637845,-8.0969622135,-2.809939623
606,2.524899000000005,-29.032869335,5.4468984605,13.933975200000006,-2.7546038624999998,-0.6262520155,7.212638377999999,-9.1769475935,4.0676499605,-2.0437152385
607,2.5290655000000015,-29.106776240000002,5.4069914820000005,13.931472749999998,-0.006635181500000004,-0.770280823,13.698712825000001,-9.037567141,-4.737884879,-2.8017811775
608,2.533231999999998,-29.19280815,5.3702332975000004,13.94062805,-1.025381759,-0.9239823819999999,11.024346829999999,-10.716613294,-5.04810524,-1.49753651
609,2.537398499999995,-29.280223845000002,5.3235859869999995,13.94826504999999,-0.6689282285,-1.078996986,11.129222395,-10.777298448500002,-6.03272295,-2.1510642765
610,2.5415649999999914,-29.370465275,5.3044602874999995,13.945106499999994,-1.9997494219999998,-1.0176565645,8.2897667885,-11.069800375,-2.463378787,-1.7670173645
611,2.545731499999988,-29.46123791,5.266844034,13.945152300000004,-0.06489113000000002,-0.821272202,13.114831925,-11.084586619500001,-4.635395646,-2.4140906335
612,2.5498979999999847,-29.553350450000003,5.2051591875,13.973411549999994,-1.8181745705,-1.119920075,10.0884122825,-11.6511878955,-8.737709523,-1.0609930755
613,2.5540644999999813,-29.640412329999997,5.235841274,13.946395850000002,-1.938106537,-0.31731647250000006,8.6600289345,-10.3715639095,4.0927962065,-1.2172782420000001
614,2.558230999999978,-29.724444390000002,5.2109217645,13.955085749999995,-0.4553916605,-0.6780001815,11.854362485,-10.453356267499998,-3.737264752,-0.9313017020000001
615,2.5623975000000314,-29.80348587,5.1947755815,13.96120454999999,-1.144619763,-0.561855972,11.998324870000001,-9.7788686745,-2.7469159365,-0.5653575135
616,2.566564000000028,-29.85868645,5.157305479,13.980377199999992,-1.019117087,-0.2752946355,11.414886953,-7.1067783835,-5.6629679205,-0.605398908
617,2.5707305000000247,-29.910165785,5.172968625999999,13.962493899999998,-1.8802989719999998,-1.237163007,7.9148533345,-6.219078541,1.994388163,-1.1672598425
618,2.5748970000000213,-29.9611578,5.164141655,13.956512450000005,-0.21160092949999992,-0.596777335,11.968493461,-6.305475712,-1.1846712824999999,-1.47142905
619,2.579063500000018,-30.014277455,5.114952326,13.975471499999998,-0.882516548,-0.9108505250000001,10.675786497,-6.8124325275,-6.957203865,-1.2189494375
620,2.5832300000000146,-30.051491740000003,5.1469552515,13.954521200000002,-2.7768691775,-0.256324064,9.017509459,-4.5171918865,3.979203224,-0.639363274
621,2.587396500000011,-30.084451675,5.1414661405,13.948516850000004,-0.3474710135,-0.9264077845,10.734591482999999,-4.1117441655,-0.9172265829999999,-1.175789416
622,2.591563000000008,-30.115544319999998,5.144794941,13.93827060000001,-1.0703638495,-0.7754268344999999,11.39382219,-3.917498708,0.32341814050000006,-1.2036193609999999
623,2.5957295000000045,-30.136981965,5.107882738,13.950584399999997,-0.043213606000000016,-0.897907078,12.794566155,-2.9154573679999998,-5.278190851,-1.1604336499999999
624,2.599896000000001,-30.151018139999998,5.103969574000001,13.950370800000002,-2.535296917,-0.8801550145,8.0163190365,-1.977104902,-0.9923594594999999,-0.665131226
625,2.604062499999998,-30.157616615,5.1294856074999995,13.922630299999994,-0.783790126,-0.7480226754999999,11.77794552,-0.694267407,3.6084757445,-1.534875423
626,2.6082289999999944,-30.16929054,5.0987460615,13.930984499999994,-1.026551753,-1.5821809175000001,11.72564268,-1.7682149409999999,-4.2645843025,-1.424964726
627,2.612395499999991,-30.18603039,5.106164694,13.915420549999993,-1.152670443,-1.050186753,9.7591803055,-2.0656730084999997,0.9981163515,-1.3891303540000002
628,2.6165619999999876,-30.191874505,5.087855101000001,13.923240700000008,-1.420440078,-0.28289838900000003,10.6129841815,-1.07581079,-2.9663524629999998,-0.6993518915
629,2.6207284999999843,-30.204146385,5.133977890000001,13.8952484,-2.2271205185,-1.2471939029999999,8.667620896999999,-1.4071949125,5.7623323200000005,-0.350729319
630,2.624894999999981,-30.21828747,5.1531352995,13.889678950000004,-0.2444372775,-1.3259594145,13.124837875,-1.914215922,1.7340965865000002,0.1748427675
631,2.6290614999999775,-30.227709769999997,5.1480362415,13.90331264999999,-1.5582111775,-1.1464509070000002,12.2855587,-1.507865146,-2.0507846625,0.8545676695000001
632,2.633228000000031,-30.24390221,5.2088468075,13.885704050000001,-1.472278446,-0.869576067,10.701893331,-2.0462891455,6.7955269815,1.3963920475
633,2.6373945000000276,-30.261693955,5.252876281500001,13.882308949999995,-1.7549622055,-1.356807351,9.095080376,-2.319330646,4.063295126,2.083135426
634,2.6415610000000243,-30.264661789999998,5.348771572,13.846405050000001,-2.2403731345,-0.6142938435,9.086596967,-0.25336966650000003,11.507054329999999,1.6800762415000001
635,2.645727500000021,-30.271039005,5.402705430999999,13.846275349999999,0.05074452650000001,-1.058696058,13.121959685,-0.9741154905,4.889769912,3.0367722515
636,2.6498940000000175,-30.285122875,5.478879689999999,13.822174099999998,-2.550060272,-0.499144405,8.6396989825,-1.7340449985000002,8.722281216,1.7433240415
637,2.654060500000014,-30.30366421,5.6078066825,13.778694150000007,-0.9456452725,-1.4296276570000002,11.057686331,-1.9470086695,15.267220975,3.0942577125
638,2.6582270000000108,-30.335855485,5.6771888735000005,13.75312805,-0.5492805245,-1.3754588365,12.25870943,-3.862402409,8.0873429775,1.2400299909999999
639,2.6623935000000074,-30.359549525,5.794821739,13.721000649999993,-1.409744084,-1.138780415,10.592701913500001,-2.6872665885,13.41125679,3.5917568205
640,2.666560000000004,-30.36493492,5.8876879214999995,13.68950654999999,-1.1501420735,-0.863070935,12.556457045,-0.534985244,10.9097957635,2.0277640815
641,2.6707265000000007,-30.37323284,6.0434885025,13.6379929,-2.619347811,-0.737756863,6.8160059465,-0.6089146885,18.528902535,3.8882741925
642,2.6748929999999973,-30.388689995,6.1980149744999995,13.572341899999998,-0.1417741625,-1.6312772034999998,11.429928780000001,-1.272822734,19.354144095000002,2.271528542
643,2.679059499999994,-30.391678810000002,6.2899706365,13.55487819999999,-0.516718842,-1.16024664,11.73291063,-0.38723611849999995,9.855571510499999,3.5402271745
644,2.6832259999999906,-30.399549485,6.45620513,13.493720999999994,-2.46878624,-0.380844973,9.635654925999999,-0.418965861,20.277747155,3.447075367
645,2.687392499999987,-30.390693665,6.5696899890000005,13.471504199999998,-0.072581917,-1.0391965505,11.5077204715,1.136407733,12.372906685,4.3818659785
646,2.691558999999984,-30.36775875,6.7564141755,13.41196445,-2.488111138,-0.949391976,9.4353141785,3.2821131945,22.348013875,4.751782179
647,2.6957254999999805,-30.321983340000003,6.8907546995,13.395629899999989,0.4649805425,0.0987612905,13.31608963,5.514239788,14.180908205,6.263623475999999
648,2.699892000000034,-30.22803688,7.0103223324999995,13.398094200000003,-1.6936985995,-0.59035109,9.897212027,10.92678595,11.6724166845,7.011995077
649,2.7040585000000306,-30.091742515,7.2283120155,13.337638850000005,-2.5659862755000002,0.633886002,8.450759648,17.035889145,25.527103425,6.695605278
650,2.708225000000027,-29.911060335000002,7.370787859,13.336990349999994,-0.1460458785,0.12382950599999999,11.863897325,21.412104605,14.26347494,8.0605611805
651,2.712391500000024,-29.67377949,7.504729985999999,13.326713549999994,-0.970931232,0.4268939345,10.140557768,28.413493154999998,13.849904535,6.697250843
652,2.7165580000000205,-29.391156195,7.6831877235,13.308479300000002,-1.8364723325,0.4733601435,9.201778413500001,33.88968849,19.08610916,8.27044487
653,2.720724500000017,-29.056818005,7.840819120500001,13.281646699999996,-0.8878693280000001,0.33129689100000004,10.566448215000001,40.337287905,17.358335495,6.222822666
654,2.7248910000000137,-28.669867515,7.9855220315,13.2783127,-0.28394473350000005,-0.08798648049999999,12.180307865,46.182121275,14.80698681,7.5861256125
655,2.7290575000000104,-28.22034168,8.1162188055,13.272483800000003,-1.4743311405,0.718834683,10.4819021245,53.829948425,13.41994953,6.629622698
656,2.733224000000007,-27.710646625000003,8.286216736,13.26930999999999,-1.342205137,0.4284888955,10.142843721999999,60.90413475,17.577231405,8.8220362665
657,2.7373905000000036,-27.1445179,8.4207482335,13.276115399999995,-0.5587082505000001,0.1773431225,10.956044675000001,67.62242508,13.261460305,7.938954353
658,2.7415570000000002,-26.52226925,8.549972057,13.306381250000001,-0.999780402,0.5890529154999999,10.723942278500001,73.835395815,11.635790825,9.7113714215
659,2.745723499999997,-25.840393065,8.7044296265,13.313583399999999,-1.4206258655,0.33842258199999997,9.064884186,81.47900772,15.554613589999999,8.7049031255
660,2.7498899999999935,-25.10159302,8.853157043500001,13.334419249999996,-0.53705433,0.07227714,12.02585125,87.95814514,14.42455292,9.483633996
661,2.75405649999999,-24.33049393,8.9676923755,13.368118299999992,-1.128628284,-0.343159631,11.559430124999999,91.69725418499999,10.111623287499999,9.150607585500001
662,2.7582229999999868,-23.522380825,9.1194167135,13.39375305,-1.967224002,-0.11136482650000001,9.302279472,96.177070615,14.79376078,9.6918745025
663,2.7623894999999834,-22.668134690000002,9.2683534625,13.41576384999999,-0.9221000745,-0.38769909,11.152016634999999,101.88912965,14.720966815,9.1915817265
664,2.76655599999998,-21.789384845,9.379802229,13.45944974999999,-0.6734568625,-0.881629199,10.804886815,104.3016014,9.8145098695,9.359942434
665,2.7707225000000335,-20.903409959999998,9.5053892155,13.5015717,-1.0726836325,-0.6856578885,9.3305046545,105.27664949999999,11.522223948499999,9.8891463255
666,2.77488900000003,-19.988495825,9.599663256,13.558341999999996,-0.036865875500000006,-0.816947326,11.56483078,108.35992815,7.634728669999999,9.757236003500001
667,2.7790555000000268,-19.067775725,9.679447173,13.624130250000007,-1.3032581804999999,-1.3733682185,10.751035215,108.9468727,5.716683626,10.2927928
668,2.7832220000000234,-18.13526344,9.779413224999999,13.68821715,-1.141371727,-0.9342216255,10.25624466,110.30958175,8.3282830715,10.5272121425
669,2.78738850000002,-17.17385864,9.828731061500001,13.775566099999992,-1.255539,-0.738942653,10.5896115285,113.3745155,1.8071876544999999,11.3985734
670,2.7915550000000167,-16.206079485,9.9242629995,13.846366899999992,-0.8637240675,-1.028712362,9.6318216335,114.38153455,7.936272146,10.871480465000001
671,2.7957215000000133,-15.240144725,9.9283881205,13.948753350000004,0.921853185,-1.432729244,12.86409712,113.5894432,-3.5119493605,11.592208385
672,2.79988800000001,-14.25993919,9.95178175,14.044387849999993,-2.7416615485,-0.7004685105,7.6470618245,115.32927325,-0.8272354599999998,11.22331238
673,2.8040545000000066,-13.268990995,10.0324568745,14.125312800000003,-0.6224065575,-1.3396450875,11.68888569,117.0196724,6.420055866,11.380838395
674,2.808221000000003,-12.279430865,9.9743990915,14.236015349999988,0.6269633619999999,-1.206857562,13.73335123,116.17552945,-10.3065247525,10.614513875
675,2.8123875,-11.26906872,9.986296178,14.332973500000001,-1.931678772,-0.15505747499999997,7.755795958,119.0100975,-1.6440574524999998,11.249190805000001
676,2.8165539999999964,-10.230386736,9.96619892,14.430934900000004,-0.238144897,-0.725564748,11.02882814,122.28854369999999,-5.225469589499999,10.691710950000001
677,2.820720499999993,-9.165295124,9.9335174545,14.538631449999997,-1.1446558835,-0.438444726,10.540296080000001,125.3601799,-6.7206232550000005,11.649190425
678,2.8248869999999897,-8.0715589525,9.876394749,14.644191750000005,-0.7009984705,-0.3888610895,9.9919147515,128.76952745,-9.331217289000001,10.950715065
679,2.8290534999999863,-6.9434249405,9.840627668,14.746181499999992,-1.7794278265,-0.536163114,9.801024436,133.0748749,-6.527359247,11.14289904
680,2.833219999999983,-5.7617316249999995,9.771838665,14.858371749999996,0.147943249,0.278272778,12.738320824999999,139.21269225,-10.3584666235,11.95792341
681,2.8373864999999796,-4.5704181195,9.7001461975,14.967826850000002,-1.1605780125,-0.939409986,10.2322182665,140.51753235,-10.4469051345,11.876883509999999
682,2.841553000000033,-3.3595557214999996,9.597693441,15.082057950000006,-0.989225745,-1.50425756,10.229681016499999,142.72450255,-13.88248396,12.197048185
683,2.8457195000000297,-2.129664302,9.554519654,15.186912549999995,-1.709604144,-0.8647005855000001,7.979126452,145.2741699,-6.481401980999999,11.860030655
684,2.8498860000000263,-0.920546301,9.425475122,15.295063050000003,0.6154642849999999,-1.515713811,13.64263201,142.68927005,-16.50824547,11.950110435
685,2.854052500000023,0.3120892795,9.328964233499999,15.398948650000001,-2.595484614,-1.2560760675,8.6891698835,145.67341615,-12.3531026855,11.968010425
686,2.8582190000000196,1.5547954739999998,9.245616435999999,15.506095849999994,-0.183999851,-0.6159122290000001,11.691541670500001,146.81997685,-10.4911084175,12.17896414
687,2.8623855000000162,2.8115060325,9.073887348,15.60017775,0.24527388849999998,-1.2055476305,13.143698695000001,148.7903824,-20.880700115,11.69855547
688,2.866552000000013,4.03178823,8.991827011,15.703842149999993,-2.86359036,-2.050268233,9.7738683225,144.15843965,-9.788438798,12.707849025
689,2.8707185000000095,5.2337040905,8.842811108,15.792777999999998,0.2504787855,-1.462294757,10.975438116,142.36089325,-17.679182055,11.76952648
690,2.874885000000006,6.4339151385,8.712571144,15.873126999999997,-1.356283933,-1.0706682205,10.7810282705,142.24348450000002,-15.249897480000001,10.964327335
691,2.8790515000000028,7.6276235585,8.591658592,15.955177300000003,-1.7222279905,-2.2676299215,11.799024105,141.5462265,-13.924847605,11.199045654999999
692,2.8832179999999994,8.784992695,8.430490494,16.034732800000008,0.793550879,-2.1413815615000003,11.190416812,137.15058900000002,-18.458603855,12.093678475
693,2.887384499999996,9.901885984,8.2656438355,16.1030083,-1.3864526750000001,-1.3508960605,11.302342894,132.6332779,-18.908069610000002,10.929429055
694,2.8915509999999927,10.981160164999999,8.12362957,16.177993799999996,-1.3079984485,-2.8824590445,11.097367285,127.91409300000001,-15.81661987,11.80045462
695,2.8957174999999893,12.029396535,7.889508009,16.218433400000002,0.35164463499999987,-1.8156775829999998,12.165282725,124.89944460000001,-27.2779398,10.0800585745
696,2.899883999999986,13.070405959999999,7.772336483,16.286308299999995,-2.0516870615,-2.1319444174999997,7.781549214,123.5175285,-12.621787548499999,10.848923205
697,2.9040504999999825,13.99814606,7.5210623739999996,16.305439,0.3209743500000001,-3.378318429,16.232575415,110.79097365000001,-29.504735945,9.0613536815
698,2.908216999999979,14.905012605,7.3404066565,16.347423549999995,-2.652857423,-2.6596182585,6.0438268184999995,107.89505005000001,-20.372415545000003,10.168388367
699,2.9123835000000327,15.72737408,7.1365988255,16.344139099999992,1.414552346,-3.080997348,12.16049528,98.49503706,-24.41102791,5.902886391
700,2.9165500000000293,16.537168505,6.902425051,16.362503050000008,-3.0630795954999996,-1.400347054,10.4133572595,96.63729095,-27.029084205,9.7870755195
701,2.920716500000026,17.276506425,6.7364668845,16.3594704,1.3615276815000001,-2.7193387749999998,13.481910706499999,88.539554595,-19.868422510000002,5.2441620825
702,2.9248830000000225,17.943909644999998,6.476494074,16.350921649999997,-2.392818809,-2.6103098395,13.5973835,79.91656494,-30.681297299999997,8.420178175
703,2.929049500000019,18.59441757,6.319683313500001,16.354606649999994,-0.7863982319999999,-2.4381583329999996,7.482515455,77.819667815,-18.413571355000002,6.070778728
704,2.933216000000016,19.191823005,6.054722547500001,16.320297249999996,0.015574693999999889,-2.2224535345,14.1620245,71.828422545,-32.06188774,6.39210093
705,2.9373825000000124,19.763085365000002,5.886677742,16.323043799999994,-1.8573272525,-3.4269304275,5.117995500499999,68.3318634,-19.586918835,6.7698264125000005
706,2.941549000000009,20.220705029999998,5.6349093915,16.27191165,0.1664121745,-1.4345869425,15.394362450000001,55.236467365,-31.144106864999998,4.5347661975
707,2.9457155000000057,20.643877985,5.471298217999999,16.275974249999997,-3.1208019255,-3.358916283,6.0294499395,50.544013975,-18.91737318,7.039827347000001
708,2.9498820000000023,20.98975468,5.243587494,16.207119,1.7913746985,-1.7085804345,18.028519629999998,41.997755049999995,-29.141057964999998,1.9216418865000002
709,2.954048499999999,21.349424364999997,5.107970953000001,16.222850799999996,-4.725673318,-1.8168097735,5.7511310575,42.795864105,-15.2062165725,7.3280236720000005
710,2.9582149999999956,21.61678028,4.911724091,16.1562195,2.8004933595,-3.5582915545000002,17.971083165,32.51894474,-25.467962265,1.168830961
711,2.9623814999999922,21.874920845,4.773207426,16.162631949999998,-5.8276325475,-0.487722918,3.264184475,30.704608915,-15.882302521,6.5552487374999995
712,2.966547999999989,22.064921375,4.6419045924999995,16.125392899999994,3.242210984,-2.1499018965,15.808832644999999,22.92712021,-16.908003805,1.7079208495000002
713,2.9707144999999855,22.245702745000003,4.474798917999999,16.112380950000002,-5.095292898,-2.3783624765,7.329376221,21.588521005,-19.900186065,5.832309246
714,2.974880999999982,22.394723895,4.4262980225,16.1253319,1.3416185379999999,-1.261476278,12.699573280500001,17.568687915,-5.4529709815,3.4370471835
715,2.9790474999999788,22.467288019999998,4.263393164,16.0996094,-2.027769089,-2.580328226,10.821447371,8.6787536145,-19.99467945,4.3777698875
716,2.9832140000000322,22.575608250000002,4.2076267000000005,16.127784700000007,-2.6983216405,-0.593724802,7.290978312,12.586769106,-5.5114742219999995,5.480922313
717,2.987380500000029,22.60831642,4.177073717,16.160957299999993,-0.04206836199999997,-1.711415112,15.042620185,3.344957113,-2.6163531544999996,4.891295253
718,2.9915470000000255,22.648944855,4.046080947,16.158817300000003,-1.4895448685,-2.358629286,5.9984586234999995,4.75343436,-15.235590460000001,5.574235083
719,2.995713500000022,22.68220043,4.112282038,16.219997399999997,-2.241419971,-0.5255388025,12.05516863,3.1835356949999998,9.3931949115,3.4973815679999998
720,2.9998800000000188,22.686349865,4.04752624,16.266700750000005,-0.22859430299999994,-1.8051560525,12.867869375000001,-0.05536520449999993,-5.665593743,7.910720052
721,3.0040465000000154,22.67078304,4.059806943,16.28660205,-1.1204428675000002,-1.3684958815,8.6228368285,-2.3044166565,1.5201600195,1.394554615
722,3.008213000000012,22.619935035,4.094133854,16.37488175,-2.257344007,-1.1508714405,11.2779030815,-7.0091125965,7.236656666,7.9743592735
723,3.0123795000000086,22.597005844999998,4.140956521,16.404033650000002,-0.08005094499999998,-1.224843979,8.125137088,-3.2689911125,5.770228505,0.819373846
724,3.0165460000000053,22.54289055,4.1159290075,16.483081799999994,-0.991584778,-0.31203541149999997,13.982742309999999,-7.327714682,0.18015763150000003,9.612748145
725,3.020712500000002,22.495192525,4.201804161,16.5036888,-1.0061396360000001,-1.094800651,8.2700886725,-6.166352749,9.713950159,-1.899449825
726,3.0248789999999985,22.472532270000002,4.211699963,16.603672000000003,-2.3175991994999996,-0.728832677,9.041188954,-3.7512503265,5.000814915,10.344189404
727,3.029045499999995,22.41041279,4.305449605,16.618782050000007,0.6966795325,-0.03339958199999998,13.6779871,-7.858095646,10.3410115235,-2.8364561795
728,3.033211999999992,22.365063665,4.3004872795,16.687866250000006,-2.6015936135,-2.5881500245,6.8377540109999995,-6.205569147,1.921837568,7.589762451
729,3.0373784999999884,22.312240600000003,4.3845967055,16.680095700000003,1.6868429035,-0.5101895035,11.1679956895,-6.5123622415,8.2514151325,-4.890378594
730,3.041544999999985,22.281628605,4.451990366,16.78506085,-5.574026346,1.107037038,7.0544559955,-4.817648411,11.5568714145,8.2900047305
731,3.0457114999999817,22.271600725,4.5176041125,16.759666450000005,3.500914216,-0.5179547069999999,11.482698915,-1.2009298205,5.422284007,-6.0016267295
732,3.0498779999999783,22.23408985,4.5608985425,16.854404450000004,-3.4792871475,-1.5593500285,13.778271199999999,-5.5818481445,8.3806512355,8.2577295305
733,3.054044500000032,22.23984051,4.606138945,16.809268949999996,2.3324409425,0.7569568900000001,8.733824255,0.9009042979999999,2.272181153,-7.284580231
734,3.0582110000000284,22.25344658,4.646816015500001,16.894390100000003,-4.848253012,-0.31380131850000004,13.078269485,0.611104548,7.666296718,7.385115862000001
735,3.062377500000025,22.275977134999998,4.7523162365000005,16.879238149999992,2.2702008780000003,-1.271935344,8.861403225,2.6606473105,10.346827031,-6.7142925259999995
736,3.0665440000000217,22.325282095,4.79677701,16.948791500000006,-4.943876207000001,0.7474672050000001,9.649813175,5.0081920625,7.353573083500001,5.4513762855
737,3.0707105000000183,22.357858655,4.8894474510000006,16.948268899999995,2.6900547145,-1.6140911575,12.18986177,3.7423106429999997,9.599236725499999,-4.5282131445000005
738,3.074877000000015,22.430465695000002,4.945543766,16.989143399999996,-3.8490993975,-1.0153758824999999,7.905344963,8.079082964,7.327279329,1.7032320500000004
739,3.0790435000000116,22.483670234999998,4.9977619650000005,16.99452209999999,2.217824727,0.08738675699999998,11.623159883,6.1556191445,5.3809041975,-2.0270085334999997
740,3.083210000000008,22.558890345000002,5.1299705504999995,17.02887345,-4.2040777805,-0.276067961,8.3697209355,8.444112777499999,15.445523735,-2.553817033
741,3.087376500000005,22.65311527,5.1830427645,17.054714200000006,0.11116600049999992,-0.5177384165,11.615858556,10.895509239999999,6.425965786,0.16405963899999954
742,3.0915430000000015,22.721936225,5.337345362000001,17.075199150000003,-1.512081161,0.383693099,11.9619593615,7.782369137,17.264620299999997,-5.079150678
743,3.095709499999998,22.822557445,5.42231226,17.1310463,-1.366108075,-1.3350145815,9.832447765000001,11.271617411000001,11.321885349,1.955737114
744,3.0998759999999947,22.901140214999998,5.5330700875000005,17.123127000000004,0.7133364455,-0.8048231305,15.164160254999999,9.322398664000001,11.1302771545,-6.2544270740000005
745,3.1040424999999914,23.005947114999998,5.6295945645,17.170944200000008,-2.6719960275,-1.1756546795,6.4576618670000006,11.831109283499998,12.2159495345,0.49487960350000004
746,3.108208999999988,23.103972435000003,5.727736473,17.151763949999996,1.034778863,-0.669518098,11.867613315,11.8109507555,9.2069177615,-6.9450262785
747,3.1123754999999846,23.215925215,5.862324953,17.214439400000003,-4.2097541095,-0.9234792885,7.2768838405,12.469930175,17.095211025,0.283844471
748,3.1165419999999813,23.3290987,5.990335226,17.217239350000007,0.7200403215000002,0.35802868000000004,11.048983576000001,13.397652145,13.53864574,-5.9934194089999995
749,3.120708499999978,23.419239994999998,6.1247689725,17.285102849999994,-2.7402182744999997,-1.0879648805,11.5715837455,9.733187196500001,17.315504075,0.818727225
750,3.1248750000000314,23.52980137,6.2690932749999995,17.301151249999997,0.847843945,-0.373747438,12.301266195,12.906601425,15.941607949999998,-5.3630530835
751,3.129041500000028,23.60526371,6.3773093225,17.354408300000003,-1.8028129935,-1.3427779149999999,15.688125135,8.1275069715,13.738384244999999,0.417998746
752,3.1332080000000246,23.69114208,6.549806117999999,17.370029450000004,-1.1673343775,-2.1055631635000003,7.145324707,9.955623863,18.99343109,-6.8590795995
753,3.1373745000000213,23.76576233,6.6757977005,17.418388350000008,-1.1735387145,-0.10498753150000001,10.7470440875,8.06854403,15.45798397,-1.0363074540000001
754,3.141541000000018,23.846375469999998,6.8772935870000005,17.447319000000007,-2.3771925720000002,-1.3930548725,6.4375190735,9.1291544445,22.786776539999998,-6.878982305499999
755,3.1457075000000145,23.891919135000002,7.012641668500001,17.49503324999999,-0.311435044,-0.548839532,12.60166407,4.550043702,16.45175266,-1.587385148
756,3.149874000000011,23.90434742,7.2372145655,17.525741550000006,-1.1863703724999999,-1.8531231285,10.4577837,0.907397583,25.39848423,-7.840337276500001
