time,Euler_X,Euler_Y,Euler_Z,Acc_X,Acc_Y,Acc_Z,Gyr_X,Gyr_Y,Gyr_Z
0.0,-28.8413887,9.776799202,-148.4495544,-6.396924973,1.07752943,16.31767082,-29.45907784,-32.3443222,-12.91563129
0.008332999999993262,-29.00718117,9.531204224,-148.4049988,0.73204422,1.33374989,5.880277157,-21.59721565,-28.99999237,-9.557692528
0.016665999999986525,-29.12301445,9.260372162,-148.3674622,-4.13405323,0.72641027,7.051287651,-15.41411304,-31.03271484,-12.34639549
0.024998999999979787,-29.15729904,9.07880497,-148.3717041,-1.995460033,1.62255156,12.77309322,-4.810675621,-19.3466301,-11.15296745
0.03333199999997305,-29.1810379,8.840604782,-148.3171082,-1.97177422,1.038849592,6.670933247,-4.649076939,-28.57773781,-8.725227356
0.04166499999996631,-29.18494797,8.699044228,-148.3361206,-2.87649703,2.119951725,15.59159279,-0.936956048,-14.38655758,-10.19850159
0.049997999999959575,-29.13871002,8.563794136,-148.3303986,-2.269810677,-0.772043049,3.395965099,4.667399883,-14.96879387,-7.758615971
0.05833099999995284,-29.03170586,8.446474075,-148.3447723,-3.056217432,2.57515502,16.25147629,12.25641441,-12.1834774,-8.192343712
0.0666639999999461,-28.95090103,8.355973244,-148.3631897,-2.715763569,-0.300966114,6.824563503,9.241439819,-8.906136513,-7.61917448
0.07499699999993936,-28.83101082,8.297419548,-148.3932037,-1.816239476,1.067456841,12.75550461,14.06521511,-5.122040749,-6.41369009
0.08332999999993262,-28.71739388,8.247415543,-148.4255524,-2.92250824,-0.760784209,9.357535362,13.4139719,-3.875062943,-6.700723648
0.09166299999992589,-28.56229019,8.181253433,-148.4573822,-1.893978477,1.838006735,14.85986519,18.3158493,-5.813062668,-7.091751575
0.09999599999991915,-28.4618206,8.165268898,-148.4770813,-3.904245377,-1.111615777,10.09247112,11.61457157,-1.03290689,-3.416695833
0.10832899999991241,-28.3450737,8.157619476,-148.5252838,-0.392946422,-0.137887329,9.501703262,13.97825336,1.255635619,-5.44314146
0.11666199999990567,-28.22245598,8.136242867,-148.5556488,-4.338018894,0.339857072,15.49892902,14.45188618,-1.014490366,-4.834290981
0.12499499999989894,-28.1219101,8.115784645,-148.5749969,-1.296869516,-1.294876337,7.425478935,11.56636333,-1.62392962,-3.374278307
0.1333279999998922,-28.03001595,8.160129547,-148.6378479,-1.604192376,0.134659126,13.65149307,11.31757355,7.743926048,-4.528840065
0.14166099999988546,-27.95312119,8.095880508,-148.6603394,-2.789807558,0.01877214,9.505905151,8.7697258,-6.118793011,-6.130319118
0.14999399999987872,-27.87261772,8.122551918,-148.7207184,-0.721310437,-1.710646272,8.735659599,9.904949188,5.721196651,-5.283769131
0.158326999999872,-27.82123947,8.103307724,-148.7423859,-2.691298246,0.094304085,11.74580288,5.708619595,-1.339406967,-3.638131142
0.16665999999986525,-27.79470062,8.065484047,-148.7905884,-0.450750232,-1.045730233,8.923010826,3.219581127,-1.807020068,-7.628085136
0.1749929999998585,-27.75516319,8.07817173,-148.8203583,-2.712625027,-0.429631889,11.07394981,4.401140213,2.443726063,-2.609334946
0.18332599999985177,-27.7526226,8.048276901,-148.8476715,-2.902104378,-1.20534575,13.77758503,-0.013076067,-2.13016963,-4.98546505
0.19165899999984504,-27.77243805,8.037071228,-148.8668823,-0.95124507,-0.428083032,11.11176395,-2.913094044,-0.699563146,-2.801543951
0.1999919999998383,-27.81249809,8.056442261,-148.9221954,-3.750405073,-0.778732002,10.14500904,-4.657500267,4.656334877,-5.17421627
0.20832499999983156,-27.87635612,8.018609047,-148.9082794,-1.991321206,-1.461950302,9.551595688,-8.74156189,-5.305054665,-0.926607788
0.21665799999982482,-27.96213341,8.054864883,-148.9586182,0.812032461,-0.559120834,5.495001793,-10.22872639,6.17974329,-3.690230846
0.2249909999998181,-28.05223274,8.039361954,-148.9829102,-4.403355598,-0.240581572,10.78897381,-11.24894142,-0.793311417,-3.715716839
0.23332400000003872,-28.14408493,8.057309151,-148.9973145,-1.445165753,-0.777015328,11.52907562,-11.55871868,2.24011898,-0.939671099
0.24165700000003199,-28.247509,8.099367142,-149.0470734,-2.247211933,0.058300983,13.25232506,-12.43667221,6.680294991,-3.025899649
0.24999000000002525,-28.35869789,8.120173454,-149.0798492,-2.581981659,0.035452712,11.65797424,-13.56774616,3.578206778,-2.687433004
0.2583230000000185,-28.46777344,8.141551018,-149.092865,-1.79255414,-1.046103239,11.67502975,-13.715415,2.505175591,-0.483456016
0.2666560000000118,-28.60438919,8.214108467,-149.1351318,-1.510488868,-0.670591474,9.397955894,-16.4525528,9.582723618,-0.695388317
0.27498900000000503,-28.73365593,8.159287453,-149.1306458,-0.287707537,-0.019903291,8.430499077,-16.4522438,-6.555773258,-2.962991476
0.2833219999999983,-28.85971832,8.206385612,-149.1605682,-1.573295951,-0.498106778,9.379824638,-15.39632416,6.198338985,-0.83442241
0.29165499999999156,-28.98936272,8.161857605,-149.1513824,-2.520656824,-0.117970265,10.14615059,-16.58146858,-5.733708858,-1.904482961
0.2999879999999848,-29.0864048,8.163960457,-149.1728821,-0.200783938,1.075030565,11.96713734,-12.05924606,0.995907128,-2.553060293
0.3083209999999781,-29.18284416,8.159685135,-149.1950378,-4.272746086,-0.022514686,10.38143921,-12.06354904,0.313902438,-2.846087456
0.31665399999997135,-29.22783089,8.130815506,-149.1746216,-0.746754885,0.106094539,11.92381287,-6.523882866,-4.672409058,-0.018608745
0.3249869999999646,-29.27941704,8.118564606,-149.1854095,-2.751614332,0.400129914,9.658263206,-6.883991718,-1.197683215,-2.099406481
0.33331999999995787,-29.31899071,8.082427025,-149.1662598,-0.056391247,-0.173487782,7.482654572,-5.851355076,-5.357666492,-0.58501637
0.34165299999995113,-29.33619499,8.028097153,-149.1437836,-3.29254365,-0.673917532,12.32908249,-3.324791431,-7.543429852,-1.113668442
0.3499859999999444,-29.39736748,8.016792297,-149.1171875,-0.357843846,-0.520144939,7.168294907,-8.565106392,-3.197105169,1.645176888
0.35831899999993766,-29.41638947,7.956667423,-149.1095886,-2.50633502,-0.440927595,9.278103828,-3.299049139,-7.295100689,-2.981125593
0.3666519999999309,-29.46692467,7.962723255,-149.0792542,-1.565985799,-0.761691272,11.83823395,-7.346663475,-1.603925228,3.053268433
0.3749849999999242,-29.49535561,7.906451225,-149.0656128,-3.317458153,-0.529881358,10.72789669,-4.525612831,-7.234292984,-2.158550024
0.38331799999991745,-29.54024124,7.93400526,-149.037262,-0.972096026,-0.283884615,12.81194592,-6.633511066,0.751624107,4.120075703
0.3916509999999107,-29.57577133,7.889012814,-149.0364075,-3.441721439,-0.302841395,8.912606239,-5.169197083,-5.304850101,-2.823444843
0.39998399999990397,-29.59189415,7.911477566,-148.9941711,-1.577428579,-0.076132841,15.67482471,-3.409165621,-0.599872649,5.251841068
0.40831699999989723,-29.63054848,7.898466587,-149.0030823,-3.064431667,-0.540259659,6.832245827,-5.39332056,-1.409461737,-1.911398172
0.4166499999998905,-29.62142754,7.883841515,-148.9706726,0.414752781,0.059922069,10.53788948,-0.215761527,-3.895426035,2.037356377
0.42498299999988376,-29.64442062,7.865871429,-148.9758606,-4.048321247,-0.159776866,11.85025024,-3.57442832,-2.144129276,-1.827511668
0.433315999999877,-29.64025116,7.82033968,-148.9302368,0.658297598,-1.591031551,7.447604179,-1.024992228,-7.895499706,1.567155957
0.4416489999998703,-29.65284348,7.834139347,-148.9409332,-3.352132797,0.582909703,12.51770401,-2.242846251,1.476455808,-0.482994795
0.44998199999986355,-29.64950371,7.748390198,-148.8910828,0.383766294,-0.916094124,7.500320435,-1.187770605,-12.34043884,-0.383150548
0.4583149999998568,-29.63689423,7.772120953,-148.899826,-4.443529129,-0.986875594,13.30076122,0.743683696,2.378512383,0.341079175
0.46664799999985007,-29.64019012,7.721178055,-148.8437653,-1.535204887,-0.71892935,10.5931282,-2.078762054,-9.074498177,2.325363159
0.47498099999984333,-29.63190842,7.72840023,-148.8611908,-2.045154333,-0.695926845,9.671796799,0.361263156,1.164422989,-1.535816669
0.4833139999998366,-29.62505722,7.714401722,-148.8311157,-3.581260204,0.014075172,14.71781445,-0.441371679,-3.693380356,1.833697438
0.49164699999982986,-29.62829971,7.714157581,-148.8266144,-1.685228109,-1.9422822,5.868937016,-1.380799294,-0.917284191,0.307755023
0.4999799999998231,-29.62205887,7.717092514,-148.8096924,-1.692249417,0.192454562,13.07439613,-0.302030265,-1.153857112,1.479580641
0.5083130000000438,-29.63180542,7.698577881,-148.8054199,-0.365178347,-1.867335081,3.567095518,-2.163109064,-2.834304094,-0.759423435
0.516646000000037,-29.60832405,7.661689758,-148.7800903,-2.019073486,0.146484613,12.26696491,1.63270247,-5.803557873,-0.010489029
0.5249790000000303,-29.62215424,7.673272133,-148.7789307,-2.010232449,-1.705746531,9.618678093,-2.594581127,0.511516273,0.662665904
0.5333120000000235,-29.60889053,7.58630228,-148.7319946,-0.614705443,-0.752386987,9.834803581,0.065879807,-12.29648495,-0.747871578
0.5416450000000168,-29.61764336,7.618533134,-148.7559357,-3.10389185,-0.44889912,12.54920673,-1.590682507,4.120767117,-0.673334241
0.5499780000000101,-29.63640213,7.559214592,-148.708786,-3.184827805,-1.342743516,10.17682076,-3.777882338,-9.424565315,0.911815643
0.5583110000000033,-29.63845825,7.601252556,-148.7366791,-1.139716506,-1.692380071,11.8630867,-0.746719003,5.29428339,-0.358304739
0.5666439999999966,-29.65763855,7.549350739,-148.693161,-3.311882019,0.675058067,15.97403717,-3.76878953,-8.438905716,0.974365652
0.5749769999999899,-29.69579124,7.592673302,-148.7022705,-1.036165714,-1.845890999,6.129141808,-5.377977371,4.325654984,1.656651855
0.5833099999999831,-29.70670509,7.511937618,-148.6464844,-0.145742118,0.475451052,9.362272263,-2.966910124,-12.16821194,0.5184834
0.5916429999999764,-29.75374603,7.543897152,-148.6538239,-2.913892984,-1.617570877,13.58410454,-6.471859455,3.031701326,1.173644304
0.5999759999999696,-29.78031158,7.436720371,-148.5711212,0.115375474,-1.435599923,4.665650845,-5.260845184,-16.51351357,1.710314035
0.6083089999999629,-29.81956482,7.486551762,-148.5795746,-3.813973665,0.067507401,15.95443726,-5.515834808,4.964603424,2.115428686
0.6166419999999562,-29.88501549,7.391833782,-148.5168457,-0.236198798,-1.450456262,4.818488121,-9.608298302,-14.03899765,0.370894194
0.6249749999999494,-29.9157753,7.437964916,-148.5193329,-4.608111858,-0.817761838,17.71608353,-4.593029499,4.207010269,2.540752888
0.6333079999999427,-30.00013161,7.415109634,-148.4862518,-0.955624819,-1.286869526,6.923063755,-11.41494751,-4.808112621,1.597483277
0.641640999999936,-30.02673149,7.406739235,-148.4584808,-2.830154657,-0.14411363,11.76943684,-4.577481747,-3.323972464,2.498950481
0.6499739999999292,-30.084795,7.405504704,-148.4501648,-0.291769296,-0.825518012,7.669297218,-7.875571728,-1.088643551,0.339363039
0.6583069999999225,-30.13659477,7.325691223,-148.3816681,-2.517708302,-0.924352765,9.846874237,-8.221236229,-13.15902233,2.353948832
0.6666399999999157,-30.1830101,7.364246845,-148.3951721,-1.253554583,-1.518711925,12.060606,-6.141896725,4.342022896,0.492459327
0.674972999999909,-30.25383568,7.243003368,-148.3128204,-1.147859097,-0.905058384,7.911671638,-10.70312977,-18.29268265,1.256839752
0.6833059999999023,-30.31005669,7.283304691,-148.3252716,-2.510017872,-1.261461735,9.767064095,-7.339055538,4.458158016,0.716558278
0.6916389999998955,-30.37538147,7.184188366,-148.2504578,-0.676571429,-0.880689263,6.318100929,-9.918744087,-15.56448174,1.808672905
0.6999719999998888,-30.43445206,7.178785801,-148.2471008,-2.614576101,0.040679496,15.27693462,-7.91932106,-1.227703333,-0.42661798
0.7083049999998821,-30.49053764,7.140464306,-148.210556,-1.619652271,-1.488507152,7.300888538,-8.238857269,-7.023794174,1.6354177
0.7166379999998753,-30.53046417,7.10980463,-148.1786194,-3.747685432,0.413228601,14.61256218,-6.047226429,-5.566062927,0.965733469
0.7249709999998686,-30.555439,7.097272873,-148.1802673,0.713533819,-0.601029634,6.24474287,-3.947832823,-2.114877939,-0.61014396
0.7333039999998618,-30.55670547,6.993263721,-148.1080627,-4.389156818,0.235277116,17.11122131,-1.99456811,-15.58517551,0.617687345
0.7416369999998551,-30.55467033,7.049736977,-148.1381073,-2.024446011,-1.035409927,10.30566311,-0.285483479,6.750965118,0.658951879
0.7499699999998484,-30.52011681,6.923557281,-148.0473328,-0.749772191,0.568374276,10.22980785,2.042223692,-19.00012016,1.17559123
0.7583029999998416,-30.49842453,6.978736877,-148.0773315,-5.082808018,-1.490421057,14.60623741,2.076110601,6.650146961,0.520404398
0.7666359999998349,-30.43773079,6.87219286,-148.0042267,1.043077469,-0.850753069,1.774993777,5.447354317,-15.89997578,0.578574419
0.7749689999998282,-30.37942123,6.878840923,-148.0134125,-5.98526144,-0.556539595,21.25242996,6.166730404,0.361032665,-0.278260261
0.7833019999998214,-30.34392166,6.873404503,-148.0069885,0.569596946,-1.786611915,5.041771412,3.390402317,-1.41514802,-0.114149831
0.791635000000042,-30.2971344,6.795464516,-147.9767761,-3.555197954,-0.54513979,14.0247097,4.23528862,-10.71657467,-1.446038961
0.7999680000000353,-30.27581406,6.898849964,-148.012619,-2.56656599,-1.593486071,8.294805527,2.291193485,12.40172291,2.125418186
0.8083010000000286,-30.24907684,6.776963234,-147.9848022,0.909835339,-1.651751995,5.741849422,1.853830576,-15.17181206,-4.271263599
0.8166340000000218,-30.22478676,6.905106068,-148.0511322,-5.05031395,-0.606363833,19.16236305,3.083749294,16.79914856,0.475067317
0.8249670000000151,-30.23637009,6.885739326,-148.0659637,0.162404552,-2.81855607,-0.45542711,-2.127070189,-1.948205829,-2.526216745
0.8333000000000084,-30.21135139,6.919167042,-148.0729218,-3.803881407,0.122883387,19.05452347,2.323979855,3.417528391,0.862508178
0.8416330000000016,-30.21414757,7.013316631,-148.1512299,-0.694635689,-1.160960078,6.605264187,-0.148857161,13.61676121,-2.184958696
0.8499659999999949,-30.2230587,6.978848457,-148.1014557,-3.657660961,-0.999535024,12.4047451,-2.576164961,-7.023898602,2.59718132
0.8582989999999882,-30.23401642,7.159065723,-148.240509,-2.221778631,-1.222878695,15.01337337,-0.228927344,26.11731148,-3.120033264
0.8666319999999814,-30.28108406,7.133233547,-148.1954498,-0.925328791,-1.533821225,6.320355415,-7.100818157,-5.846616745,2.629429579
0.8749649999999747,-30.31127357,7.290542126,-148.2959137,-4.345704556,-1.216139913,10.01239681,-3.071493387,21.46460724,-0.568444073
0.8832979999999679,-30.32664871,7.335638523,-148.29216,2.952668667,-0.036710173,0.995036662,-2.679466724,3.981425762,2.674612999
0.8916309999999612,-30.34379959,7.414903641,-148.3522339,-4.331080914,-0.855615437,16.91024208,-2.073331594,11.02208805,-1.254649282
0.8999639999999545,-30.36138916,7.559860229,-148.3948059,-1.475653052,-2.951793194,3.509126902,-2.225403547,17.10598183,3.975381136
0.9082969999999477,-30.36164665,7.600070477,-148.406189,-2.257855177,0.359446436,18.87347221,-0.784858644,4.085317135,1.320516467
0.916629999999941,-30.39527512,7.802561283,-148.5026093,-4.267100811,-1.645201206,9.53233242,-3.264933109,26.29638481,1.952855945
0.9249629999999343,-30.3970089,7.849072456,-148.4904633,-0.513480902,-0.386228561,9.221790314,-1.333745956,3.364865303,4.043898582
0.9332959999999275,-30.41819572,8.122772217,-148.6166077,-4.773656368,-1.667213321,16.21520996,-1.218201637,35.44934464,3.25152564
0.9416289999999208,-30.43945885,8.219545364,-148.6116028,0.140191868,-0.354505867,3.953542948,-3.555217743,9.031579971,6.301255226
0.949961999999914,-30.44721031,8.507637978,-148.7095337,-4.685343266,-2.435819626,11.13623619,0.000230528,35.23003387,7.050760269
0.9582949999999073,-30.45862389,8.729024887,-148.7301331,-0.226689115,0.254435062,5.129118919,-1.917572021,23.46341896,11.25641155
0.9666279999999006,-30.49558258,9.03131485,-148.8184204,-3.987925053,-1.661126971,12.58587551,-3.579606295,36.10584259,8.936971664
0.9749609999998938,-30.47716904,9.379714012,-148.8679352,-3.387040615,0.27378428,7.747708797,2.239455938,38.32845306,16.05184937
0.9832939999998871,-30.49036026,9.767977715,-148.9786987,-2.591195583,-0.415959716,9.619930267,-0.151239559,46.33578491,11.89783669
0.9916269999998804,-30.44076347,10.20964527,-149.0715332,-3.702400923,-0.847316444,7.133697033,6.980281353,50.62979507,17.20671463
0.9999599999998736,-30.365345,10.68275356,-149.1924133,-1.708287477,0.232106432,12.33206367,10.90047836,55.72055054,15.98514938
1.0082929999998669,-30.26130295,11.19702339,-149.2992401,-4.82972908,-0.695338488,7.375434875,14.06697845,59.16381454,19.8127594
1.0166259999998601,-30.09957123,11.75152493,-149.4347229,0.651662052,1.940468192,10.91875744,21.86556244,65.06349182,19.23811913
1.0249589999998534,-29.91497612,12.27758408,-149.542038,-4.920075893,-0.864551187,6.462442398,24.00196838,60.54823303,20.11512184
1.0332919999998467,-29.64546394,12.92077827,-149.6796417,-1.065750122,1.716070056,12.4102602,35.16506577,74.52716064,23.90886688
1.04162499999984,-29.34428978,13.45739841,-149.7815399,-2.286865234,-1.078881621,2.523540258,38.15171814,61.5918045,20.61694908
1.0499579999998332,-28.95236588,14.15269375,-149.911972,-3.938056707,1.923445821,14.14783096,49.99066925,79.80475616,26.92409134
1.0582909999998265,-28.50533104,14.72500038,-150.0110626,-0.064271353,0.36009708,6.036786556,55.9178009,65.5782547,21.92329979
1.0666239999998197,-27.99660683,15.39008999,-150.0965118,-2.514829397,0.314271271,8.86682415,62.93523026,74.52513123,28.61256218
1.0749570000000404,-27.41001129,16.0473938,-150.2231293,-3.23664546,1.63085556,10.59996128,73.90241241,76.56291199,22.50190735
1.0832900000000336,-26.76878738,16.65985489,-150.2437286,-0.169072002,-0.479026079,6.869077206,76.86876678,66.04650116,30.91563988
1.0916230000000269,-26.06350708,17.3275013,-150.3206787,-4.985372543,0.988795042,13.89635563,86.77749634,75.63243103,26.42645073
1.0999560000000201,-25.29202652,18.00851631,-150.3538208,0.360675484,0.13303268,4.047030449,93.01161194,74.8274231,31.55314255
1.1082890000000134,-24.4751339,18.56449127,-150.3457947,-2.187150955,0.379227072,9.926956177,97.20544434,60.08176804,27.55402565
1.1166220000000067,-23.58367729,19.30885696,-150.3399963,-4.009469986,0.301750332,13.91535568,105.9775543,80.84724426,36.53534317
1.124955,-22.64034843,19.8583622,-150.2900696,0.329470932,1.46704185,7.308960438,110.6893234,58.3373909,29.73735046
1.1332879999999932,-21.64670372,20.50647926,-150.1990662,-1.735412955,-2.04006958,11.06907749,114.6994934,67.71017456,38.36619186
1.1416209999999865,-20.60801888,21.04955673,-150.0941162,-1.230278492,2.191551685,7.664125919,119.6619263,56.38448715,33.21618652
1.1499539999999797,-19.51250458,21.68448448,-149.9773407,-4.213175297,-1.110229611,15.4941597,125.5862656,66.62754059,37.95085526
1.158286999999973,-18.37797356,22.1484623,-149.8036652,2.181617737,-1.695210218,4.807776451,127.8521652,46.17852783,35.14303589
1.1666199999999662,-17.19207001,22.66293335,-149.611496,-3.736709356,2.856616497,14.26858425,132.7530975,51.80829239,38.71504593
1.1749529999999595,-15.98585987,23.16405487,-149.4357605,-0.208728552,-0.339023471,8.203353882,135.9844055,51.81469727,34.67892838
1.1832859999999528,-14.70427704,23.49938202,-149.1723785,-0.418510556,-2.026246071,9.962111473,140.5070038,30.65740013,38.19451141
1.191618999999946,-13.40455818,23.9192028,-148.9363861,-1.851911068,1.40972352,14.27719498,143.7545929,42.11406326,36.91943741
1.1999519999999393,-12.07154369,24.24265671,-148.6639252,-2.121348858,-1.121095538,8.546528816,145.8556213,30.81148911,37.23139191
1.2082849999999326,-10.67578793,24.56228638,-148.3674164,-1.133256316,-0.701045096,12.80745125,151.9694672,30.7515583,38.86366653
1.2166179999999258,-9.260867119,24.80429649,-148.0550079,0.555853188,0.322259754,4.507763386,153.3715668,22.24072266,38.13391495
1.224950999999919,-7.828808308,25.01145744,-147.7323608,-3.405011654,0.23308599,15.63737297,154.7207642,18.9077282,37.95439148
1.2332839999999123,-6.36472702,25.23444557,-147.4145508,-1.054898143,-2.610926151,12.67398071,158.7362976,21.82187653,37.12666702
1.2416169999999056,-4.895201206,25.32540321,-147.0517578,-0.457289129,-0.419182718,7.593245506,156.9362946,6.54323101,39.78011322
1.2499499999998989,-3.442719698,25.50463104,-146.731308,-4.741139412,-0.687517524,17.42843056,157.0309143,18.45919991,35.76493835
1.2582829999998921,-1.964138269,25.55900002,-146.3672791,1.395372272,-3.163672209,5.299269199,157.7878418,4.20316267,39.21594238
1.2666159999998854,-0.532013178,25.5592041,-146.0558014,-2.289726257,-0.95649451,11.67278385,154.9664001,-1.17468226,33.26953506
1.2749489999998787,0.899788022,25.64545059,-145.7209625,-3.228981018,-0.769422948,17.17098999,153.6426086,10.01100636,35.73725891
1.283281999999872,2.288087845,25.53575516,-145.4134674,-0.262353897,-4.272574425,7.925045013,149.8944397,-12.69881725,33.19221497
1.2916149999998652,3.671494484,25.54998016,-145.0871887,-4.276788712,0.564163446,16.03002167,148.3180847,3.088396788,34.72715378
1.2999479999998584,4.997509003,25.38524437,-144.8027802,1.717122078,-3.672551394,6.889065742,143.6817322,-17.84823036,31.77873993
1.3082809999998517,6.292033195,25.29004669,-144.506485,-3.804178715,-2.801779509,14.67418575,139.3206024,-8.66044426,32.64029694
1.316613999999845,7.513931274,25.0751152,-144.2551422,0.199057266,-1.835623503,6.290071011,133.029541,-22.7896862,29.75463295
1.3249469999998382,8.706924438,24.90232849,-143.995575,-4.040823936,-3.392995358,20.42712975,129.1968079,-16.995121,30.41508293
1.3332799999998315,9.810346603,24.69265938,-143.7794189,-0.746099174,-2.71019125,14.76675415,120.7637024,-21.50843239,26.84926796
1.3416129999998248,10.84641933,24.4254055,-143.5657654,-2.484457731,-2.062919378,14.75500774,112.8726044,-27.8205986,28.22649765
1.349945999999818,11.79007816,24.17027855,-143.3849182,-2.12812686,-5.183144569,10.85964966,103.5404892,-26.60356903,24.96320152
1.3582790000000386,12.69995308,23.86270142,-143.2190094,1.320109367,-3.104261875,9.318453789,100.2826767,-32.65983582,25.14093971
1.366612000000032,13.51971054,23.53966141,-143.0966644,-2.644667149,-1.556137323,15.58290672,91.69717407,-35.16956329,21.44586182
1.3749450000000252,14.2801733,23.2238102,-142.9472504,-3.236512184,-4.588057518,12.71492958,83.34288788,-33.28504181,24.62391853
1.3832780000000184,14.97196293,22.90724564,-142.8516235,0.237188071,-2.756378174,11.62413406,77.74632263,-34.55569458,19.36720657
1.3916110000000117,15.58704853,22.54602051,-142.7463379,-1.555474997,-3.200761318,6.62215662,68.13499451,-39.18907547,22.20521164
1.399944000000005,16.12914085,22.20500755,-142.6624146,-3.357003689,-2.553097725,14.48091602,60.44454575,-37.2849617,19.69879913
1.4082769999999982,16.65518761,21.93319511,-142.5684662,-3.712913275,-3.866799355,13.52510834,58.0972023,-28.78901863,18.77492523
1.4166099999999915,17.12142372,21.58380127,-142.5175476,-1.473113894,-2.710720062,8.718455315,52.90854645,-38.93463135,17.16780472
1.4249429999999847,17.55560875,21.30195045,-142.4513245,-2.743053675,-2.143804312,19.33401108,48.40818405,-30.52689552,16.68664932
1.433275999999978,17.8923893,21.04262543,-142.4021301,-1.588373542,-3.718185425,8.231862068,37.50621033,-28.43110466,14.27338314
1.4416089999999713,18.17606544,20.74720001,-142.3471985,-4.634053707,-1.616099238,17.19333839,30.90207481,-32.24773407,16.38115501
1.4499419999999645,18.46369934,20.62697601,-142.2597809,-3.0523839,-2.119329929,9.283860207,30.0360775,-11.07633686,13.40635109
1.4582749999999578,18.69357109,20.31105614,-142.2417603,-1.696644068,-3.609601736,3.068393946,26.04319763,-35.73306656,13.54693413
1.466607999999951,18.92177582,20.19282532,-142.1791992,-2.434585571,-2.280669212,13.91366673,24.01021385,-11.62537575,10.80045509
1.4749409999999443,19.08756065,19.92853546,-142.1414642,-2.249642611,-2.975836277,6.73146534,17.55919075,-29.04704285,13.89868164
1.4832739999999376,19.25797844,19.86976242,-142.0562286,-3.338958025,0.645595253,21.03644371,16.19117355,-3.966993093,10.95749187
1.4916069999999308,19.37934113,19.74936676,-141.990448,-2.962384701,-4.564270496,9.521177292,11.10738564,-11.6208353,11.33960438
1.4999399999999241,19.49858093,19.7054615,-141.8808899,-2.565629482,-0.070793375,13.39930725,9.096102715,-1.316431046,12.98068142
1.5082729999999174,19.55501175,19.59382057,-141.83638,-1.007635951,-4.075602531,4.729061127,4.197738647,-11.38933468,8.769496918
1.5166059999999106,19.62973785,19.56024742,-141.7158508,-3.427313805,-1.272544742,11.42072201,3.342965603,0.308446676,13.74657345
1.524938999999904,19.69486618,19.50084686,-141.6787109,-2.291688681,-0.990725338,10.59467983,5.551987648,-5.744414806,5.906565189
1.5332719999998972,19.78817749,19.5116787,-141.531189,-4.904027939,-2.331257582,13.51333141,4.508439064,6.394544125,14.82444572
1.5416049999998904,19.78987694,19.38657951,-141.5239716,3.874491215,-1.070836067,4.294260502,-0.856809139,-14.29485893,5.404630184
1.5499379999998837,19.8248291,19.40120697,-141.4105682,-5.959560871,-1.495584965,9.658278465,-1.103089809,5.536030769,11.03750706
1.558270999999877,19.8231144,19.33361816,-141.3788452,1.785477638,-1.264497042,12.58496857,-2.240439177,-6.856637478,5.686207294
1.5666039999998702,19.8604641,19.38317108,-141.2673798,-7.560140133,-1.747117877,17.30218315,-0.729711294,9.411644936,9.408852577
1.5749369999998635,19.85780144,19.31387711,-141.2193756,3.438595295,-0.424538255,5.664737225,-2.993651152,-6.421220303,7.490012646
1.5832699999998567,19.8728981,19.29169273,-141.1670685,-3.963010788,-3.823663473,7.920327663,-1.042512178,-0.95493722,6.035123825
1.59160299999985,19.86613083,19.17670631,-141.1376038,0.732474864,0.000361855,8.681461334,-2.744040489,-12.28641891,7.385429859
1.5999359999998433,19.87455368,19.2108326,-141.0808563,-5.781059742,-1.518118739,17.59036636,-2.005325794,5.570405006,4.213541985
1.6082689999998365,19.85333252,19.13785553,-141.0339355,-1.083195806,-0.344747692,12.58035469,-5.160128593,-6.872389793,7.533531189
1.6166019999998298,19.84121513,19.16426468,-140.9743042,-2.585710287,-0.654502273,5.570232868,-4.579786777,4.810814381,4.838938713
1.624934999999823,19.81897545,19.05315399,-140.988739,-0.288088232,-1.327049851,4.48577261,-2.864402294,-13.54197979,2.541240215
1.6332680000000437,19.82593918,19.03520203,-140.9519958,-3.460158825,-2.526012659,11.78623772,-1.381926417,-1.078653932,4.207804203
1.641601000000037,19.83338928,18.92636108,-140.9524384,-0.255601406,0.66471839,13.51161957,0.150406808,-12.74665642,3.939495325
1.6499340000000302,19.84074402,18.93400192,-140.9386749,-3.575691938,-1.737361193,12.57505512,-0.432585984,0.926697373,0.716916859
1.6582670000000235,19.84824944,18.85095024,-140.9194336,-0.867815793,-0.839870095,10.58241653,-0.604662538,-9.074649811,4.996389866
1.6666000000000167,19.84718704,18.80138588,-140.9335632,-1.852148175,-0.58344698,8.222346306,-0.358099818,-6.606180191,0.066520169
1.67493300000001,19.87326813,18.68092918,-140.9262543,-1.210706592,-1.874616146,6.946123123,2.090045214,-13.75473309,5.251611233
1.6832660000000033,19.89496613,18.61235428,-140.9616089,-0.294425875,-1.282320619,11.2229414,3.181621313,-9.570285797,-1.423139811
1.6915989999999965,19.93815994,18.53561783,-140.9501343,-5.441196442,0.656114638,15.04046822,3.989545107,-8.656241417,3.923357964
1.6999319999999898,19.96856117,18.47849274,-140.9452209,-0.693958104,-0.929649174,10.4574852,2.681913376,-6.717014313,2.422441244
1.708264999999983,20.01995468,18.41088486,-140.9419556,-4.997164726,-1.923124909,8.360757828,5.290799618,-7.940297127,2.682220221
1.7165979999999763,20.04923248,18.31562424,-140.9676819,1.544696808,-1.360104203,3.53895998,3.708224535,-12.21006393,0.719324648
1.7249309999999696,20.11172867,18.25311661,-140.9640656,-2.324417591,-0.775793612,10.18066216,6.610036373,-7.344179153,2.523335457
1.7332639999999628,20.15537643,18.14435577,-140.9867554,-1.361314654,-0.919816852,11.38366508,5.310112953,-13.61047077,1.620151639
1.741596999999956,20.20178986,18.1294632,-140.9628601,-3.77780056,-1.006762505,13.69788456,3.92789197,-1.179958224,2.733500004
1.7499299999999494,20.23653603,18.02694321,-141.0036316,-1.41368556,-1.143800259,10.91775227,4.909122467,-13.61638737,-0.553177893
1.7582629999999426,20.31455803,17.99289894,-140.9918365,-4.090824127,-1.864566088,13.29673576,8.175143242,-3.807006121,2.237992764
1.7665959999999359,20.35718155,17.86215973,-141.0392303,2.34107995,0.098674282,8.844151497,6.087737083,-17.05692101,-0.063561738
1.7749289999999291,20.40035439,17.81067467,-141.0502777,-4.512160301,-1.433727264,10.54570675,4.839040756,-6.671368122,0.528524101
1.7832619999999224,20.43107224,17.68417931,-141.0900269,0.19367525,-1.614231348,5.282954216,4.363718987,-16.27745247,0.593328238
1.7915949999999157,20.4930706,17.60211182,-141.1233826,-4.335385799,-1.205835938,14.24822426,7.90842104,-11.00248051,-0.571594477
1.799927999999909,20.5651741,17.4913559,-141.134491,-1.873672843,-0.421632081,15.39262009,8.27439785,-13.3564806,3.029114008
1.8082609999999022,20.61056709,17.44514465,-141.1383972,-3.253711462,0.037451636,9.997635841,4.844191074,-5.790112019,1.094061017
1.8165939999998955,20.65451622,17.33324432,-141.1763763,-1.239684463,-1.967596412,6.365840435,5.8597188,-14.56614017,0.217977181
1.8249269999998887,20.70735168,17.25266838,-141.1934814,-2.863647699,-2.032896042,6.941065788,6.206381798,-10.17813873,1.145366311
1.833259999999882,20.77183533,17.11979485,-141.2345428,1.324712992,0.588655353,9.232294083,8.41814518,-17.04444504,0.798677623
1.8415929999998752,20.8254261,17.05287743,-141.256073,-4.71559906,-2.329835653,12.91144753,6.448512554,-8.82452774,0.1057868
1.8499259999998685,20.87390518,16.96605682,-141.2626343,-2.360496998,-0.506052434,12.66818237,5.270308971,-10.46985912,2.562268972
1.8582589999998618,20.91169548,16.89199638,-141.29245,-3.382028341,-2.171400547,13.6590786,4.837555408,-9.964002609,-0.466550469
1.866591999999855,20.97801018,16.7882843,-141.3025665,-1.461160421,-1.365881562,9.935419083,7.530946255,-12.50460339,2.92245698
1.8749249999998483,20.98669243,16.70099068,-141.3450317,-0.405821711,-0.780250609,8.932423592,1.7740165,-11.96829033,-1.244506001
1.8832579999998416,20.99015808,16.61755943,-141.3785553,-2.042377949,-2.004080534,7.940482616,0.789686978,-11.19361401,-0.451873571
1.8915909999998348,20.97775459,16.50384331,-141.4135284,-3.419591904,-1.5029217,10.62911224,-1.026452184,-14.62156677,0.692993164
1.899923999999828,21.00304985,16.4442997,-141.4418488,-1.151059031,-0.969568551,12.65225792,3.221886396,-8.305351257,-0.926761389
1.9082569999998213,20.99667358,16.36630821,-141.4741821,-4.317390442,0.159951881,14.9460659,-0.402361304,-10.5122757,-0.558172643
1.916590000000042,20.98629951,16.33547783,-141.4568329,-1.260458231,-1.482949972,7.920519352,-2.610257149,-3.203252316,2.748202562
1.9249230000000352,20.96203423,16.22784615,-141.5140686,-1.83135581,-0.988035977,6.85675621,-1.717498779,-14.86042023,-1.968646407
1.9332560000000285,20.95902252,16.14741516,-141.514328,-0.658422351,-2.849771023,6.963938713,-1.132392406,-9.489088058,2.982086182
1.9415890000000218,20.9263649,16.05197525,-141.5675354,-1.254244566,1.00214386,11.73974609,-2.877798319,-13.32915115,-2.072768211
1.949922000000015,20.87721062,15.98054218,-141.5736694,-3.461210966,-1.382413149,13.2308054,-6.474394798,-8.727065086,1.95513463
1.9582550000000083,20.83532143,15.93216419,-141.5814362,-4.842925549,-1.472848535,11.53805828,-5.499746799,-6.183877945,0.793605804
1.9665880000000016,20.79261589,15.84913826,-141.6197968,-0.162073851,-1.228677154,11.00258446,-4.644744873,-11.35068035,-1.039592147
1.9749209999999948,20.77001381,15.8579607,-141.6100616,-5.563938141,-0.030198514,15.6384964,-3.757646561,0.946292281,0.24026151
1.983253999999988,20.7082119,15.79221344,-141.6226044,0.225392476,-0.669016838,9.112654686,-7.785255432,-8.355888367,0.997085452
1.9915869999999813,20.64719963,15.79907513,-141.634201,-3.185774565,-1.602300763,6.511643887,-7.668685436,-0.143862367,-1.98196578
1.9999199999999746,20.60962868,15.70882607,-141.677063,-1.025178075,-1.641436577,7.336595535,-3.891046047,-12.34494972,-1.258773327
2.008252999999968,20.57242393,15.70681095,-141.6752167,-2.501589537,0.444100738,14.13104534,-5.249034882,-0.594058096,-0.149215713
2.016585999999961,20.50848961,15.66160679,-141.7037811,-2.45814085,-1.09578681,12.66654682,-7.525808334,-6.702669621,-1.629872322
2.0249189999999544,20.43504715,15.63669395,-141.7090454,-3.339836597,-0.423575789,11.12480068,-9.366293907,-3.455296516,0.038779955
2.0332519999999477,20.39208984,15.61525345,-141.7325134,-2.130809784,-1.123104572,8.842347145,-5.175675869,-3.822245598,-2.084729671
2.041584999999941,20.34967804,15.57503414,-141.7279968,-2.432022095,-0.500054479,12.36665154,-5.959497929,-4.784444809,1.735466957
2.049917999999934,20.26157188,15.58601379,-141.736969,-1.080407023,-0.803368628,5.815304756,-11.06246948,0.409289896,-1.872183084
2.0582509999999274,20.19257355,15.56755161,-141.7550659,-2.463960886,-1.66048193,4.866672516,-8.420386314,-3.244287014,-1.632587552
2.0665839999999207,20.15090752,15.5466671,-141.7583618,-2.516080141,-1.001164675,10.51229095,-5.672566891,-2.949697018,0.065136999
2.074916999999914,20.08917427,15.61961174,-141.7506409,-2.040600538,0.380864382,13.02102947,-8.379608154,8.082548141,-2.607772827
2.0832499999999072,19.98334694,15.6350956,-141.7917786,-4.4560256,-1.985419989,14.45852947,-12.14912701,-0.348084658,-5.542933464
2.0915829999999005,19.89287186,15.75829506,-141.7746887,-3.869472742,-2.089694977,9.3658638,-12.13327408,14.1268177,-3.619305372
2.0999159999998938,19.77939796,15.82233524,-141.8313141,-1.398142695,-0.736216486,13.832901,-12.54891586,4.54496479,-9.201568604
2.108248999999887,19.62084198,15.95312405,-141.8619843,-2.955517769,-2.253780365,9.062502861,-18.74075508,13.13903427,-9.054983139
2.1165819999998803,19.3964901,16.04660988,-141.9308167,0.160112977,-1.776037693,7.221923351,-25.42579651,7.457103252,-11.67432404
2.1249149999998735,19.09934807,16.1813221,-142.0023041,-4.004392624,-4.359978199,10.95264721,-34.00013733,12.10140991,-13.54035664
2.133247999999867,18.74703598,16.29044724,-142.0666962,-4.721232414,-2.088823557,17.12995529,-40.89863205,9.515446663,-11.70824623
2.14158099999986,18.31062698,16.49933624,-142.1646118,-0.396260411,-3.142199039,7.405034542,-49.77567673,19.74035454,-19.08456421
2.1499139999998533,17.77267456,16.5237484,-142.2928162,-1.754358053,-3.799469233,4.92276001,-60.96665955,-2.24813056,-15.37401009
2.1582469999998466,17.15734291,16.75254822,-142.4200745,-2.756857395,-2.673929214,16.52373123,-70.18943024,21.35269928,-22.62833214
2.16657999999984,16.4708004,16.79002953,-142.5354309,-3.517460823,-2.861650229,11.44830799,-79.17807007,0.007248869,-14.43041229
2.174912999999833,15.73527431,17.05901909,-142.6427917,-3.268715858,-0.227434605,18.89061546,-85.2352829,27.14704132,-21.22404861
2.1832459999998264,14.87180614,17.08917427,-142.7894745,2.023761272,-5.573970795,-4.771017075,-99.23612213,-1.41651845,-17.62676239
2.1915789999998196,13.94365501,17.2381115,-142.934906,-5.488616467,-0.808272123,26.88936043,-106.9530182,12.71601391,-21.02490997
2.1999120000000403,12.95160866,17.45968246,-143.0503082,-3.195123911,-2.046101093,11.5218668,-115.7058945,22.32036972,-19.48231316
2.2082450000000335,11.83177948,17.3938446,-143.2542267,1.655082226,-5.519521236,-0.690138817,-127.7770615,-13.17230415,-21.5352726
2.216578000000027,10.70105171,17.54438972,-143.4051971,-2.636520624,0.460326493,19.92661285,-131.040802,13.87629318,-20.91810417
2.22491100000002,9.453187943,17.57211113,-143.5992432,-0.638793528,-3.497433186,7.209163189,-143.4461975,-1.054442406,-22.8670063
2.2332440000000133,8.133355141,17.48613739,-143.8121185,-0.352952033,-2.187680721,12.43051815,-151.4795074,-14.38526821,-22.93847466
2.2415770000000066,6.758215427,17.49232292,-144.0256805,-1.71623385,-1.947209358,14.02497959,-158.0458527,-2.874430656,-24.75481033
2.24991,5.282117367,17.33509636,-144.2674713,-3.02454257,-2.132882595,14.25380516,-169.24263,-22.13313866,-25.99840355
2.258242999999993,3.768387794,17.20521164,-144.5052643,-0.602215707,-1.994728208,11.83092022,-173.9061584,-18.13185501,-26.3592701
2.2665759999999864,2.16966629,17.04831123,-144.7797394,-0.942097545,0.303622127,3.558609247,-182.9433136,-20.89800262,-30.90364265
2.2749089999999796,0.50624764,16.7562542,-145.0475311,-0.981719613,-2.975324154,12.95649433,-191.0021515,-36.20033264,-30.34392929
2.283241999999973,-1.138059378,16.66277695,-145.3352966,-7.628887177,-1.100635409,20.75413132,-188.1838074,-11.50015163,-33.57923126
2.291574999999966,-2.860028982,16.29053688,-145.5865173,4.849153519,-0.472486973,-2.782627344,-198.8207092,-44.08055115,-30.87451553
2.2999079999999594,-4.583478451,15.9348278,-145.8563232,-6.727030754,0.311611414,25.49723434,-198.6254425,-41.04195023,-34.25364685
2.3082409999999527,-6.297093391,15.79628754,-146.0848541,-1.785300016,0.782149851,11.01917648,-198.6236267,-14.40989113,-29.14497757
2.316573999999946,-8.051279068,15.26808071,-146.2969513,-1.011490345,0.565908611,3.447943926,-204.4825745,-60.29306412,-32.69008636
2.324906999999939,-9.748269081,15.02974415,-146.5023651,-1.9198699,-0.421413362,10.11885548,-197.6537781,-24.85810661,-29.39613724
2.3332399999999325,-11.40777111,14.45235062,-146.6497345,-0.54746449,3.291435242,7.204899788,-195.4352112,-65.43702698,-29.97451782
2.3415729999999257,-13.06712055,14.21507072,-146.8394623,-4.167572498,1.01479435,16.17710876,-193.9437103,-23.36120033,-29.10948753
2.349905999999919,-14.62456417,13.74463654,-146.983551,-3.522628784,0.68052721,11.90360737,-183.5108948,-51.26240921,-30.2442379
2.3582389999999123,-16.16354752,13.36515331,-147.1051941,-1.912981868,2.355112553,17.27057457,-181.7491913,-40.30475616,-27.21227074
2.3665719999999055,-17.66875267,12.9838953,-147.2448425,-2.483630657,1.69453156,5.890844822,-177.5984955,-39.49084473,-29.36581802
2.374904999999899,-19.06191444,12.45392609,-147.3105164,-0.30536893,2.859395981,8.947444916,-165.9881287,-58.09505463,-28.62971497
2.383237999999892,-20.42510033,12.06614876,-147.4089966,-3.120276213,3.904541731,10.18619251,-161.8633423,-40.36178589,-27.03287888
2.3915709999998853,-21.67135239,11.58789921,-147.4555511,-1.582333803,0.397313029,4.590842247,-149.0560455,-51.87531281,-26.58942032
2.3999039999998786,-22.80207825,11.13234234,-147.4881592,-2.276740789,4.421322823,13.79581928,-135.7058105,-49.61410904,-24.68399239
2.408236999999872,-23.8999691,10.67045879,-147.4934082,-0.511962056,2.663322449,10.06647587,-132.3566284,-51.03403091,-23.09735298
2.416569999999865,-24.86226463,10.27091217,-147.5022278,-4.735868454,2.166987181,6.658549786,-116.0692291,-43.7063179,-21.18284416
2.4249029999998584,-25.67288971,9.812939644,-147.4639587,-1.759885192,2.670428514,7.987051964,-98.89916229,-52.24319077,-19.45280838
2.4332359999998516,-26.39842606,9.416205406,-147.4061279,-3.615932703,4.953848362,16.67390442,-89.00891876,-46.24624634,-15.19046879
2.441568999999845,-27.09273529,8.987594604,-147.3643036,-1.278307319,2.960211515,8.228754997,-84.99365234,-48.93098831,-18.52341843
2.449901999999838,-27.65426064,8.679445267,-147.3021393,-4.606445789,1.813701391,9.662626266,-69.31239319,-36.69206619,-10.89834023
2.4582349999998314,-28.10689735,8.315660477,-147.2482758,-1.746542573,2.779537916,5.109838486,-56.14844513,-42.38653946,-14.51922703
2.4665679999998247,-28.46106148,8.068651199,-147.2083435,-5.959284782,1.581411362,15.66633797,-43.965065,-28.81515121,-10.3121767
2.474900999999818,-28.77355194,7.757886887,-147.140564,-0.267351955,3.433722734,12.98762226,-39.50139236,-37.45495987,-10.4790802
2.4832340000000386,-29.03488922,7.533371925,-147.1075134,-6.030752182,2.868377924,13.3437376,-32.66814804,-25.9503479,-10.02567005
2.491567000000032,-29.21519279,7.304186344,-147.0518036,-1.21465373,0.173712745,2.344570875,-23.39931297,-28.19353485,-7.155512333
2.499900000000025,-29.28774834,7.154176712,-147.0299835,-4.737726688,0.891035259,11.89830399,-9.814367294,-17.44044685,-6.971852303
2.5082330000000184,-29.33614159,6.969386101,-147.0002136,-0.408383876,2.891590357,9.16974926,-7.114575386,-21.91791916,-7.508214474
2.5165660000000116,-29.32941055,6.830347538,-146.974472,-4.128328323,-0.117814571,12.62007999,-0.344601125,-16.51281929,-5.942925453
2.524899000000005,-29.33943558,6.706956387,-146.970459,-0.852239668,0.768779337,8.230148315,-2.129247665,-13.99788761,-6.565557003
2.533231999999998,-29.25276184,6.604757786,-146.9814301,-2.727822065,0.875822425,5.816506863,9.774521828,-10.52157402,-7.583646297
2.5415649999999914,-29.13990593,6.498611927,-146.980423,-2.91438365,0.634859204,15.51923275,12.66301441,-12.01580715,-5.864982128
2.5498979999999847,-29.04912949,6.393007278,-146.9990082,-2.375801325,0.436672211,11.77916813,10.36433983,-10.46127796,-8.54082489
2.558230999999978,-28.92567062,6.358683109,-147.04216,-2.919049978,0.072823785,9.069925308,14.53126526,-1.914728522,-6.307801247
2.566563999999971,-28.78469849,6.271839619,-147.0687256,-2.49138093,-0.01646548,12.19122696,16.48917007,-8.063658714,-8.247286797
2.5748969999999645,-28.63664436,6.207404137,-147.105957,-3.135632753,-0.401389092,9.087852478,17.39678383,-5.432127953,-7.458086014
2.5832299999999577,-28.49633408,6.203222275,-147.1731262,-2.027700186,-0.016889926,11.88257694,16.93026924,2.925863743,-7.719479084
2.591562999999951,-28.3710556,6.133479595,-147.2109528,-2.899625063,-0.756253183,11.08899689,14.67765141,-5.929094315,-7.917297363
2.5998959999999443,-28.25971603,6.115488052,-147.2800751,-1.684943318,-1.203276515,7.049588203,13.46694374,1.547176957,-8.726963997
2.6082289999999375,-28.13274956,6.107091427,-147.3472443,-1.663121819,-0.348002285,10.55192184,15.24393272,2.160100222,-7.464437962
2.6165619999999308,-28.04141617,6.071594238,-147.3932648,-2.769743443,-0.357059002,14.26304436,10.76876354,-1.638683796,-7.29069519
2.624894999999924,-27.98280716,6.067015171,-147.4623413,-3.459094524,-1.94715333,8.842072487,7.061538219,2.672282219,-7.501730919
2.6332279999999173,-27.88887405,6.077830315,-147.522644,-1.453302741,0.302020133,12.55381393,11.25953388,4.052633762,-6.192793369
2.6415609999999106,-27.86112213,6.054090023,-147.5777283,-3.673500538,-1.188370824,15.65655518,3.185130596,-0.128058404,-7.164391994
2.649893999999904,-27.87375069,6.092957973,-147.640976,-1.865243316,-2.109249115,4.912703991,-1.491657972,7.183922291,-4.933160782
2.658226999999897,-27.86761475,6.043489456,-147.6924133,-0.268040389,-0.830124676,6.537564278,0.541254461,-3.070442438,-8.208555222
2.6665599999998904,-27.89962769,6.061869144,-147.736908,-2.365618229,-0.564644575,10.2033186,-4.057922363,3.969514847,-4.107178688
2.6748929999998836,-27.94777107,6.062724113,-147.7920074,-3.061181784,-0.845788419,10.40009022,-5.924380779,2.494442225,-5.806094646
2.683225999999877,-27.98379326,6.07916832,-147.8303223,-1.927664757,-1.466432333,14.54531384,-4.616466045,3.421370029,-3.555242777
2.69155899999987,-28.03904343,6.106806278,-147.887146,-3.154499292,-0.137502626,14.31466675,-6.75440979,5.426094055,-4.452970982
2.6998919999998634,-28.12787628,6.156251907,-147.9189453,-1.393105984,-1.290650725,8.494627953,-11.03437233,6.555196285,-0.99551034
2.7082249999998567,-28.2276001,6.104608536,-147.9442749,-0.090137511,-1.219611645,6.643226147,-12.4876709,-4.69727993,-5.668494701
2.71655799999985,-28.32240677,6.158205986,-147.9880371,-2.042006731,-0.838214755,9.535660744,-11.59586239,7.672925472,-1.994055867
2.724890999999843,-28.44914818,6.144490242,-148.0056458,-4.352765083,-0.430506438,16.11787796,-15.83552933,-1.124785185,-2.685844898
2.7332239999998365,-28.58275604,6.183992386,-148.0427399,-0.585053325,-0.486488193,8.071763039,-16.33503532,5.813536167,-2.068900585
2.7415569999998297,-28.67525101,6.207376957,-148.0805969,-3.747561693,-1.196253896,9.497470856,-11.46942806,3.919234753,-2.619581223
2.749889999999823,-28.790802,6.23213768,-148.0767975,-0.483707666,-0.422937155,8.854017258,-14.6954155,1.922937989,1.382759213
2.7582230000000436,-28.91804123,6.194434166,-148.0877991,-0.407677114,-0.797878683,6.650308132,-15.98158264,-4.004389286,-3.398049116
2.766556000000037,-29.02715302,6.213540554,-148.1064758,-3.13105607,-0.500383317,10.2489109,-13.63129807,2.620003939,-1.281800747
2.77488900000003,-29.1551342,6.189182758,-148.1023254,-3.228321552,-0.180281058,15.07991791,-16.26654434,-3.478837252,-1.044126272
2.7832220000000234,-29.27010345,6.20710659,-148.1221008,-2.323277235,-1.029254794,9.83905983,-14.32218838,2.562602043,-1.449471235
2.7915550000000167,-29.36879539,6.227553844,-148.1618805,-4.041852474,0.973894715,18.38294601,-12.1913929,3.762937069,-2.964809895
2.79988800000001,-29.49544907,6.227841377,-148.1439514,-1.972875476,-1.129330635,7.825110912,-16.21111107,-1.487149954,1.437957764
2.808221000000003,-29.60281181,6.239281178,-148.1980286,-0.137694016,-1.40377903,6.616166115,-13.05530643,3.624849796,-4.884288788
2.8165539999999964,-29.69067192,6.203007221,-148.1717224,-2.550906658,0.676203609,11.18503571,-11.66647911,-5.799665451,0.132630542
2.8248869999999897,-29.79417419,6.194966793,-148.1955261,-1.813286781,-1.316839576,7.575227737,-12.98860836,-0.170116961,-2.914144754
2.833219999999983,-29.85041237,6.17325592,-148.1688538,-2.285191536,-0.075997904,12.22027588,-7.873010635,-4.307713032,1.023365617
2.8415529999999762,-29.94559479,6.146437168,-148.1726532,-1.968220234,0.34343639,15.311306,-12.25104809,-3.31070447,-1.961372137
2.8498859999999695,-30.02152634,6.145295143,-148.1594849,-4.822640896,-1.887858629,6.602118492,-10.06033802,-1.368607283,0.849906087
2.8582189999999628,-30.0750351,6.119771004,-148.1367493,0.774409413,0.630110323,12.06651688,-7.594250202,-4.764977932,0.860868871
2.866551999999956,-30.16232491,6.100656509,-148.1289825,-4.521695137,-1.345236659,8.085795403,-11.35344791,-2.916167974,-0.789955914
2.8748849999999493,-30.20723534,6.089069843,-148.1237335,0.028846735,-0.32741037,5.398383617,-6.35170269,-2.327168465,-0.019582083
2.8832179999999425,-30.2472229,6.074843407,-148.0954895,-3.872816563,-0.50343132,12.54613876,-5.936880589,-3.637285709,1.610853672
2.891550999999936,-30.31028557,6.075100422,-148.1122894,-0.259694725,-0.427852899,7.55892086,-8.255866051,0.205554232,-1.543705821
2.899883999999929,-30.32242966,6.059966564,-148.0907898,-5.244473457,-0.788417578,13.86015797,-2.507979631,-3.329018116,0.85556674
2.9082169999999223,-30.3554039,6.103197098,-148.1107025,-0.034644146,-0.219632447,12.01717281,-4.611113071,4.822826862,0.776956558
2.9165499999999156,-30.38016891,6.087855816,-148.1064453,-6.198720455,-1.28070271,12.09732246,-3.80549407,-2.310186386,-0.935137331
2.924882999999909,-30.38381958,6.109698296,-148.1152344,1.124875069,-0.617933512,10.27741146,-1.244557261,1.883568525,0.713971257
2.933215999999902,-30.39896584,6.15344429,-148.1474609,-6.126532078,-0.119854726,11.04154301,-2.183984995,6.007332325,-1.101732373
2.9415489999998954,-30.41214752,6.1235466,-148.1279449,1.521665692,-0.992555976,9.230078697,-2.747395754,-5.138125896,0.411979347
2.9498819999998886,-30.41724396,6.186650753,-148.1829987,-4.24490881,-1.159445167,8.695950508,-0.682529688,9.391997337,-2.27350688
2.958214999999882,-30.4205761,6.169111252,-148.1666565,-0.22477603,-0.256044209,9.957419395,-1.539453864,-3.732391119,0.941630483
2.966547999999875,-30.42759132,6.209832191,-148.2112274,-3.371246338,-1.505895734,9.915934563,-1.044766188,6.442312717,-2.552368641
2.9748809999998684,-30.38655853,6.21224165,-148.1846466,-1.352517366,0.437442183,11.98009872,3.631612062,-2.364591122,3.342222452
2.9832139999998617,-30.38986588,6.262279987,-148.2329407,-4.018598557,-1.350687146,10.33391666,-0.546671927,7.628739834,-2.372761965
2.991546999999855,-30.34361839,6.270755291,-148.2098694,-1.072149634,-0.595636308,9.98017025,4.295814514,-1.517809987,3.341069937
2.9998799999998482,-30.33059692,6.302206516,-148.2367706,-3.257567883,-0.929629862,13.59494591,1.13714397,4.412538528,-1.302343011
3.0082129999998415,-30.31998825,6.338073254,-148.2249298,-1.79105711,-1.52739799,5.724040031,0.167593941,2.023780823,3.801639318
3.0165459999998347,-30.29568672,6.326521397,-148.2470856,-0.66654247,-1.211098909,7.891028404,2.431149483,-0.327977508,-3.422151804
3.024878999999828,-30.27575302,6.383573055,-148.2558899,-2.99678731,0.085939921,11.41783619,1.564337969,5.486005306,2.919331074
3.0332119999998213,-30.26098251,6.354177475,-148.2588196,-1.881624818,-1.588013053,9.254036903,1.032100081,-3.337752581,-2.518173933
3.041545000000042,-30.23261642,6.435917854,-148.2849731,-1.778889775,-0.820500076,12.27886391,2.813570023,9.113417625,2.576561689
3.049878000000035,-30.22139931,6.393564224,-148.2881775,-3.132239342,-0.858129203,11.2319994,0.608338177,-4.662213802,-3.331964016
3.0582110000000284,-30.19525909,6.472933292,-148.3053284,-3.636540651,-2.320240021,13.04442692,2.431303263,8.353365898,3.312843084
3.0665440000000217,-30.17619324,6.468700409,-148.3226318,-0.573569119,0.490899682,11.13793755,1.74384284,0.133322105,-2.47993207
3.074877000000015,-30.16403198,6.510785103,-148.3234558,-3.006679773,-2.438439846,8.294484138,0.528652191,3.505615711,2.748433352
3.083210000000008,-30.15624809,6.498072147,-148.35495,-0.613192916,-0.637754619,10.59236908,0.582313955,0.10319975,-4.454558849
3.0915430000000015,-30.16430092,6.566655159,-148.3591919,-3.067192316,-1.315774202,11.83422565,-1.855328918,6.440315723,4.026942253
3.0998759999999947,-30.16677094,6.511878967,-148.37117,0.230063319,-0.995602489,6.382079124,-0.911802709,-5.431562424,-4.977806091
3.108208999999988,-30.15581512,6.568919182,-148.3926697,-4.129719734,-2.166113615,11.01381683,0.655442655,6.253305912,1.593128681
3.1165419999999813,-30.16362572,6.557120323,-148.4068451,-1.966640353,0.018305428,12.93549919,-1.522112966,-0.840569615,-2.613407612
3.1248749999999745,-30.17243195,6.596373558,-148.4269257,-3.91552186,-2.593164206,9.79128933,-1.731663108,4.342612267,0.632415473
3.133207999999968,-30.16959572,6.588356972,-148.4358521,-0.365846038,0.479280144,11.79374313,-0.313966513,-0.76375246,-1.843648672
3.141540999999961,-30.19054985,6.647693634,-148.4515381,-3.45311904,-3.173930645,4.869545937,-3.246898651,6.179946423,2.268575907
3.1498739999999543,-30.18462181,6.579068184,-148.432312,1.959680438,0.249278903,6.158885479,-0.33356145,-8.736849785,-2.598884583
3.1582069999999476,-30.19283867,6.623961926,-148.4618988,-6.14860487,-2.925958872,13.02542496,-1.538378119,5.458803654,0.058861516
3.166539999999941,-30.2241478,6.572005749,-148.4316406,-0.307720274,-1.358598232,10.14138412,-4.953883171,-7.668735981,-0.459813982
3.174872999999934,-30.2464695,6.608875751,-148.4781952,-4.44689846,-0.770893037,11.49038696,-2.991191626,5.66269207,-2.199481487
3.1832059999999274,-30.25624657,6.573210716,-148.4633331,-1.519683838,0.180040702,15.91475868,-2.15729475,-5.053982735,-1.067281127
3.1915389999999206,-30.29510689,6.636478901,-148.5058899,-5.040000916,-2.73518157,11.29362679,-5.021914959,8.207185745,-0.27042231
3.199871999999914,-30.29936409,6.567493916,-148.4654999,1.84050107,0.422656089,8.804227829,-1.847567439,-10.04168987,-0.45919916
3.208204999999907,-30.32480049,6.61779356,-148.4997864,-5.539399624,-2.615112066,10.51379681,-3.527887344,6.365829468,-0.198523134
3.2165379999999004,-30.3516674,6.549442768,-148.4586334,1.312766075,-1.360942245,5.389418602,-4.569182873,-10.02153111,-0.349109262
3.2248709999998937,-30.37724876,6.617468357,-148.493103,-5.735485554,-1.49298656,13.80129719,-3.536723852,8.222681046,0.846371114
3.233203999999887,-30.39507675,6.569564819,-148.4616699,0.720420539,-0.864952326,10.55164433,-3.353198528,-7.320665359,-0.11522565
3.24153699999988,-30.42034721,6.640792847,-148.4967957,-6.27129221,-1.682676554,11.9858408,-3.491541147,8.592245102,0.982408524
3.2498699999998735,-30.42557716,6.629089355,-148.4696198,1.074055672,-0.237277851,8.845194817,-1.783250093,-3.317901134,1.641052723
3.2582029999998667,-30.4707489,6.677390099,-148.4935455,-5.775174618,-3.52586627,12.07657337,-6.022149563,5.594097614,0.657696724
3.26653599999986,-30.49244118,6.668561935,-148.4670105,1.913615108,-0.315549254,2.744868517,-3.750653744,-2.981689215,1.745481968
3.2748689999998533,-30.5079422,6.744522095,-148.5053711,-4.891561985,-1.910943866,9.073291779,-2.267999887,9.271047592,0.953951061
3.2832019999998465,-30.52995872,6.714375973,-148.4777069,1.739111185,-0.200620413,7.049821854,-3.812435865,-5.255387783,0.563333809
3.29153499999984,-30.53824043,6.800431728,-148.5377502,-7.114364147,-3.076257467,14.19936943,-1.08083117,11.66372395,-0.711704254
3.299867999999833,-30.54606438,6.83616209,-148.516861,-0.426999032,-0.685789764,13.23870373,-2.015417814,1.961819887,3.883143902
3.3082009999998263,-30.56724548,6.910853863,-148.5895233,-4.668456554,-1.649547338,9.839184761,-2.445352793,11.23243332,-2.65920639
3.3165339999998196,-30.55684853,6.953306198,-148.5735779,-0.769645095,-0.306144893,10.92584801,0.237674505,2.956523418,3.782838345
3.32486700000004,-30.57885933,7.052443504,-148.6487274,-3.718151331,-2.192615032,10.09548378,-2.478933334,13.94997597,-1.488405108
3.3332000000000335,-30.5836277,7.042628765,-148.6121521,1.657444358,-0.264035285,3.943914652,-1.889088392,-3.697094679,2.710959435
3.3415330000000267,-30.59435081,7.146490097,-148.7075195,-5.643416405,-2.772270203,13.8181324,-0.812112212,15.66021347,-3.259424686
3.34986600000002,-30.61704445,7.176681519,-148.6737518,-1.696640491,-2.081519604,7.743827343,-4.008153439,0.604547143,4.865654469
3.3581990000000133,-30.6242466,7.289477825,-148.7587433,-4.199985981,-0.595671833,15.45290279,-0.519879401,15.95326424,-1.641655087
3.3665320000000065,-30.62093353,7.341925621,-148.7288513,-1.458996654,-1.345358849,9.00099659,-0.838597238,3.136591196,5.830004692
3.374865,-30.61972046,7.485517025,-148.7918701,-3.704135656,-1.251575351,8.295469284,0.187265709,17.83622169,2.430535555
3.383197999999993,-30.57852173,7.536670685,-148.7526093,0.163374767,0.012465263,5.839843273,3.549570084,2.437681675,6.70762682
3.3915309999999863,-30.52976799,7.687857151,-148.7988586,-3.878347158,-1.11436522,12.22329903,5.647685051,17.59273338,4.620374203
3.3998639999999796,-30.43382835,7.770312786,-148.7540131,-0.649474084,-0.432673693,6.350130558,10.00981331,5.35667944,9.174917221
3.408196999999973,-30.3128643,7.963981152,-148.800293,-3.088638306,0.597993314,10.03500271,14.33406925,22.0023098,7.145787239
3.416529999999966,-30.12274361,8.052475929,-148.7745819,-0.70355463,-0.681571305,4.316408157,21.60692215,7.173601627,7.544188023
3.4248629999999594,-29.88225937,8.243004799,-148.8104401,-3.830234051,0.34814018,14.20755005,28.53743935,21.15287209,7.803640842
3.4331959999999526,-29.58521652,8.346031189,-148.7974548,-2.043971062,-1.171266794,5.190201759,34.64268494,9.505096436,7.030501842
3.441528999999946,-29.24701309,8.524974823,-148.8137207,-1.36917901,0.820881009,11.75361061,39.96063232,18.95682144,8.796430588
3.449861999999939,-28.8607254,8.623869896,-148.8228455,-2.923286438,-0.608369589,8.218852997,45.74311447,10.43387604,4.376866341
3.4581949999999324,-28.42576218,8.801914215,-148.7970734,-2.076610088,-0.161557227,12.02431774,50.80489349,16.56523132,12.90725327
3.4665279999999257,-27.9415493,8.930575371,-148.8081512,-4.154965401,-0.397116274,7.483421326,57.53588867,13.76408005,5.694522381
3.474860999999919,-27.41640282,9.126656532,-148.7582245,-0.373323739,-0.247101754,9.632202148,61.20721054,17.53093529,15.86041832
3.483193999999912,-26.8506279,9.294692993,-148.7752991,-4.657735348,-0.075704247,8.679569244,67.44458771,18.40367508,6.955113888
3.4915269999999055,-26.2291851,9.491294861,-148.688446,-0.558675945,-0.737432778,10.50961876,72.04351044,16.06945229,19.20836449
3.4998599999998987,-25.57250977,9.712450981,-148.7040558,-4.275323391,0.938104868,7.482936382,78.33989716,24.21466446,9.491513252
3.508192999999892,-24.85765839,9.912895203,-148.6109924,-1.933475733,-0.566206813,8.866939545,83.06532288,16.66406441,19.59655571
3.5165259999998852,-24.09963799,10.17313099,-148.6151428,-2.921312809,-0.300492734,11.23816204,90.27626038,28.15844154,12.05384827
3.5248589999998785,-23.31215286,10.3522625,-148.510025,-1.479866028,-0.040904786,8.617085457,91.4728775,14.35983562,19.21689796
3.5331919999998718,-22.4811039,10.61809731,-148.4994507,-2.745060682,-0.769590795,9.994945526,98.72527313,28.43509102,13.12057972
3.541524999999865,-21.62659836,10.79354382,-148.3869019,-2.053983212,-0.667125404,7.252342701,99.29810333,14.26894855,19.21223259
3.5498579999998583,-20.74377251,11.05051804,-148.3494873,-1.510169387,-1.065064192,13.70743847,104.3178558,26.69478989,14.81506824
3.5581909999998516,-19.86440277,11.18610573,-148.2349701,-1.753399611,-0.913736284,5.733178139,102.1671677,10.33664513,17.20014572
3.566523999999845,-18.95708847,11.43155861,-148.1847992,-1.48148644,-1.628396153,11.21086025,106.9262619,25.35360146,14.9160471
3.574856999999838,-18.06007576,11.55895424,-148.0659027,-2.981813192,-1.555099487,6.914757729,104.124115,9.837961197,16.88389397
3.5831899999998313,-17.13580513,11.78852749,-147.9935455,-0.459937483,-0.87828815,14.70611763,108.3867416,23.22383881,15.99437046
3.5915229999998246,-16.23804092,11.88993931,-147.8752899,-4.024696827,-2.337741137,9.463514328,104.1681824,7.446899891,15.49092579
3.599855999999818,-15.29982758,12.10756969,-147.7837067,-0.786918402,-0.270504832,11.2520628,109.5315475,21.74626732,17.00235558
3.6081890000000385,-14.38805008,12.22718334,-147.6700287,-3.737175703,-1.793789983,7.945347786,105.9040604,10.22187328,15.20432758
3.6165220000000318,-13.42680264,12.37849331,-147.5468597,0.24524945,-1.420858502,12.43437386,111.4304123,13.68784142,17.94413185
3.624855000000025,-12.49508858,12.49108601,-147.4515228,-3.571676731,-0.960372388,10.51926804,108.7085495,10.38719273,12.58381557
3.6331880000000183,-11.54752445,12.59310246,-147.2846222,-1.134736538,-2.011981487,8.855940819,108.5885315,7.436122894,21.23220062
3.6415210000000116,-10.58163643,12.71387577,-147.1899261,-1.013796091,-1.266360998,6.760418415,112.781517,11.78885651,12.34976292
3.649854000000005,-9.61972332,12.78696728,-147.0128326,-2.476464033,-0.313168466,11.40896988,109.9702835,4.533232212,21.50400162
3.658186999999998,-8.648360252,12.90895653,-146.8861847,-2.671570063,-1.964179635,10.10740948,112.5443726,11.75883675,15.67816639
3.6665199999999913,-7.606855392,13.03022003,-146.6893005,-3.239888668,0.314381778,11.73750782,118.9087448,10.68468285,24.41127586
3.6748529999999846,-6.591248512,13.14879608,-146.5544434,-2.233952045,-0.081858963,14.43667889,117.558609,11.79084206,16.18868256
3.683185999999978,-5.509708881,13.30246449,-146.3592682,-4.919462204,-1.850093246,7.794747829,123.6574173,15.46909332,24.1782341
3.691518999999971,-4.411886215,13.43193817,-146.1943054,0.940362215,0.103645422,12.97680759,126.4969635,13.39393044,19.42020416
3.6998519999999644,-3.319172144,13.56617832,-146.022171,-4.133355141,-1.80226326,6.739813805,125.536171,14.25291252,20.68591881
3.7081849999999577,-2.209352493,13.64697647,-145.8643799,0.595553219,-1.487166524,7.171892166,128.0337524,8.349133492,17.8517704
3.716517999999951,-1.066874862,13.78556919,-145.688736,-3.31686306,-1.428554535,13.22284508,131.3315582,15.57390404,20.50428772
3.724850999999944,0.048595358,13.88966846,-145.5330505,-0.901369095,-0.606929421,14.24745464,128.5713806,11.85441971,17.79603767
3.7331839999999374,1.156879187,13.98149109,-145.3490448,-3.001400232,-2.712837696,3.648300648,126.9085388,10.77903748,20.87426758
3.7415169999999307,2.326584339,13.99188137,-145.1883698,1.700014591,-0.470604241,6.290052891,134.8883209,1.341721058,18.21301651
3.749849999999924,3.491478443,14.011693,-145.0020142,-5.655066967,-1.053961039,18.82437897,133.6109619,3.009054899,21.10759544
3.7581829999999172,4.603876591,14.08013248,-144.816452,-0.529654562,-0.457223088,12.79245186,127.2700729,9.24541378,20.51696777
3.7665159999999105,5.711894035,14.09159279,-144.6629791,-4.861670494,-2.857356787,8.376915932,127.7126923,2.508950949,17.22702789
3.7748489999999038,6.847951889,14.11468506,-144.4659882,0.11768613,-2.870424509,7.578413963,129.7575531,4.789217472,22.03759193
3.783181999999897,7.953008175,14.1037817,-144.3362885,-2.022441864,-0.978730679,15.58149529,128.0445557,0.181223348,14.69779015
3.7915149999998903,9.036988258,14.17036724,-144.1535797,-2.331943512,-1.502452612,15.57457924,123.9163818,10.57265472,19.39790726
3.7998479999998835,10.06121922,14.20894337,-144.0116272,-2.786104202,-1.682451248,7.917054176,117.9636917,6.839342117,15.07524204
3.808180999999877,11.08731937,14.17243481,-143.8579865,-0.243340835,-2.03601408,4.308250427,117.8081589,-1.498336315,17.92783356
3.81651399999987,12.11619854,14.1545372,-143.7381287,-4.651094437,-3.184634686,14.06285191,119.1789093,0.234962359,13.65066433
3.8248469999998633,13.10307693,14.13105106,-143.5975189,-1.04130733,-2.419642925,15.28067017,113.5015106,0.352148533,16.13704872
3.8331799999998566,14.03525829,14.12692928,-143.4957275,-3.605513334,-2.561082602,11.38262558,108.1111145,1.831692815,11.18946457
3.84151299999985,14.89525318,14.056283,-143.3519745,1.009907484,-2.521071672,14.00096703,98.20139313,-4.498296261,17.87415504
3.849845999999843,15.71431732,14.09792709,-143.2689056,-6.182720184,-1.881004453,16.53721237,95.09175873,6.906934261,7.566532135
3.8581789999998364,16.48060799,14.01618099,-143.1264038,3.760244131,-4.518634796,0.982742071,87.00943756,-5.294948101,18.21243858
3.8665119999998296,17.17084312,13.96516609,-143.1066284,-4.421658516,-2.872436285,12.14242649,81.48249054,-5.659408092,3.534913301
3.874844999999823,17.83646202,13.9346447,-142.9477081,-1.73797071,-2.518720388,17.89823341,74.48558807,1.607199073,18.30925179
3.8831780000000435,18.42012978,13.91770363,-142.9267578,-2.591639757,-2.996191025,10.54068089,68.66165924,-1.638536334,2.511793137
3.891511000000037,18.94452286,13.82769966,-142.7974548,1.656633139,-3.511850357,9.513008118,58.42140198,-5.873914242,17.28628731
3.89984400000003,19.39107895,13.84613323,-142.7940674,-7.547685623,-2.720843792,19.97879028,52.71396255,1.753196001,-0.794849992
3.9081770000000233,19.81696129,13.78696346,-142.6389465,1.676263452,-3.550524473,5.112950802,45.87770081,-1.08972156,18.96927834
3.9165100000000166,20.1551342,13.73048115,-142.6806335,-4.276299477,-1.923562765,7.525406837,40.99526215,-8.49624157,-2.690331221
3.92484300000001,20.49043846,13.68535328,-142.5282745,-1.63117826,-3.275605679,14.35040188,35.12379837,0.623604953,18.09502029
3.933176000000003,20.75362396,13.7271452,-142.5273285,-5.578401566,-2.06856823,11.67970943,30.77850342,4.267642498,-2.101688385
3.9415089999999964,20.98567772,13.63123703,-142.4033813,2.860073566,-3.688247681,6.505931377,23.55138588,-6.071589947,17.16272926
3.9498419999999896,21.1326046,13.67006493,-142.4155884,-6.148533344,-2.357917786,17.43830681,17.20011711,3.370449781,-3.443233013
3.958174999999983,21.29998016,13.68444252,-142.2450256,0.304607302,-2.047076464,9.71042347,14.47222805,8.339818954,17.47557449
3.966507999999976,21.37447357,13.68746281,-142.2577209,-2.760674,-1.381718755,6.191365719,8.521037102,-0.666239142,-1.949870944
3.9748409999999694,21.46362305,13.65349483,-142.1411591,1.549444079,-3.140259743,6.87451458,6.620922565,0.704263508,13.70323467
3.9831739999999627,21.52692986,13.70468521,-142.142807,-7.252584457,0.598932028,19.49349594,6.865307331,5.178994179,-2.873622894
3.991506999999956,21.61899948,13.72335529,-142.0110168,-0.584904969,-3.05104208,12.41531944,6.529889107,7.268962383,13.02963066
3.999839999999949,21.66443062,13.78232193,-142.0033569,-2.972522736,0.251565456,8.639110565,4.454854012,6.440828323,-2.219794035
4.0081729999999425,21.69116211,13.74667072,-141.9260864,2.552041292,-3.455060005,7.47598505,0.235215545,-1.113130927,9.511207581
4.016505999999936,21.73431015,13.87034512,-141.8819427,-6.865039825,0.434109002,13.34892273,3.13582325,15.22492599,-1.1538831
4.024838999999929,21.80471992,13.86018658,-141.796936,1.650006175,-2.055396557,11.54395771,5.242645741,2.076239109,9.21228981
4.033171999999922,21.85481834,13.94125271,-141.7478943,-4.114665985,-0.830803454,6.843397141,3.817341089,10.69089603,1.248745203
4.0415049999999155,21.91327858,13.86573219,-141.7197266,2.895225763,-0.673855662,6.231860638,5.443665981,-7.650216579,5.985202312
4.049837999999909,21.98107529,13.91043949,-141.6690979,-7.447817326,-2.148775339,15.34985828,5.898318291,6.713645935,3.023530245
4.058170999999902,22.06823158,13.89578247,-141.6052551,2.311273336,-0.780891418,11.58274746,7.860880852,0.696246147,7.117837906
4.066503999999895,22.13843918,13.92895985,-141.5882416,-5.72123909,-0.834693193,12.40052891,7.156309605,3.967952251,-0.102930799
4.074836999999889,22.2363205,13.89782619,-141.541153,2.896516562,-1.493684649,7.210148811,9.631848335,-1.850231409,6.056869507
4.083169999999882,22.31946373,13.89963436,-141.5500031,-5.741000652,-0.20987618,13.43744659,9.454497337,-0.655916572,-1.477493286
4.091502999999875,22.41860199,13.85824966,-141.5105591,2.313457727,-0.991086841,9.057702065,10.00966072,-3.305171967,5.703701496
4.099835999999868,22.53510284,13.89406967,-141.5260773,-7.160201073,-1.03901279,12.6546793,13.64877701,2.815004349,-3.754368544
4.108168999999862,22.66363716,13.86232471,-141.4728088,1.270616055,-0.982112944,11.93984795,13.14251328,-1.594243169,6.758291721
4.116501999999855,22.7645874,13.91379738,-141.4894257,-4.334903717,-2.689285994,7.945912361,11.8139019,4.484157085,-4.610781193
4.124834999999848,22.87994576,13.84272957,-141.4542389,2.555063009,-0.887118876,4.928403378,12.08372307,-6.730948448,6.654041767
4.133167999999841,22.9848671,13.88176346,-141.4975891,-4.142385483,-0.061392702,11.92851353,13.0581913,1.881596565,-6.917728424
4.141500999999835,23.1121006,13.81102943,-141.4463654,-2.027822495,-1.388957739,14.92949581,13.05283737,-5.934858322,8.382336617
4.149833999999828,23.21624374,13.87471581,-141.4822083,-3.900411844,-0.817065239,14.3730545,12.74838734,4.917396069,-7.288646698
4.158166999999821,23.32409859,13.83963299,-141.4378052,-2.512827396,-1.848085642,9.863594055,10.92616367,-2.283880949,5.982410431
4.166500000000042,23.39990807,13.87416458,-141.4784698,0.314446181,-2.066622972,9.127671242,9.487104416,1.459550619,-6.431875706
4.174833000000035,23.47052574,13.83228874,-141.4578705,-2.10550952,-2.902311563,8.198874474,7.141325951,-4.113812923,3.770774126
4.183166000000028,23.50433731,13.85007858,-141.513031,1.146203756,0.328959197,12.83199215,4.863272667,-1.070098758,-7.18857193
4.191499000000022,23.57462692,13.87080288,-141.4705658,-8.013838768,-2.642445087,13.79091454,6.475432873,3.799257755,3.111464024
4.199832000000015,23.62009239,13.86821556,-141.5009308,2.709243298,0.327938586,12.20261383,5.550886154,-2.165978193,-3.559008121
4.208165000000008,23.66333008,13.88016987,-141.4697113,-7.436321259,-3.08395052,7.25128746,3.556357384,2.314553738,2.326822758
4.216498000000001,23.67390442,13.82142639,-141.5145721,6.779736996,0.082993865,2.921769381,1.778294206,-9.019784927,-2.398427725
4.224830999999995,23.70148659,13.81749058,-141.5230103,-8.804050446,-3.11699152,13.5740242,2.820075989,-1.285642624,-1.142330885
4.233163999999988,23.7101326,13.75006008,-141.5348816,3.79736495,0.494426489,14.68236732,0.595274866,-8.430068016,1.546331406
4.241496999999981,23.71498489,13.78274822,-141.5553131,-8.737831116,-2.209671259,17.52344322,0.436364084,2.177671194,-4.190527439
4.2498299999999745,23.69670677,13.71931458,-141.5431366,5.522593975,-0.161062032,7.014812469,-3.319105625,-6.865242958,3.92013073
4.258162999999968,23.66670418,13.72097111,-141.6170807,-6.946626186,-3.356672764,11.14940548,-2.224251032,-3.736002922,-8.40307045
4.266495999999961,23.63712502,13.62226009,-141.5728912,4.484352589,-0.02038613,7.910655975,-5.581356525,-9.248701096,9.029917717
4.274828999999954,23.57750511,13.62478161,-141.6790924,-7.2354002,-1.846186399,12.51455402,-4.878757477,-5.136743546,-11.89887714
4.2831619999999475,23.5533371,13.54246426,-141.6065674,-0.60434407,-1.124490619,12.77980804,-5.723643303,-6.138645172,11.26352978
4.291494999999941,23.49205399,13.58244228,-141.6976776,-5.662696838,-0.712052643,16.1614418,-5.512119293,-0.299315155,-12.09036732
4.299827999999934,23.4402504,13.49637413,-141.6168518,-0.996054649,-1.709460735,7.247439861,-9.267450333,-6.184213161,12.32193661
4.308160999999927,23.34930992,13.52657127,-141.7154846,-0.10552422,-1.177702308,4.972818375,-8.867431641,-1.701925159,-12.43057728
4.316493999999921,23.30221748,13.44329929,-141.6605225,-2.904269218,-0.737487733,6.128931046,-7.968501091,-7.101970673,9.405086517
4.324826999999914,23.21596336,13.464818,-141.7471313,0.800274551,-1.077353597,13.55703163,-8.65363121,-2.073716164,-10.73307228
4.333159999999907,23.16777802,13.40403843,-141.7019043,-6.006752968,-2.514024258,14.53950024,-7.822830677,-5.091764927,7.283228874
4.3414929999999,23.08395004,13.46386242,-141.747757,2.250108957,1.572510362,13.20778275,-9.498976707,4.045077324,-8.168879509
4.349825999999894,23.0204277,13.41096687,-141.7341919,-7.408843517,-2.253291368,13.22458363,-8.781674385,-5.686629295,3.504693508
4.358158999999887,22.95668602,13.42722321,-141.7503052,3.309514761,-0.146583393,8.446249008,-7.915272236,0.604880095,-2.924543619
4.36649199999988,22.9034996,13.35138607,-141.7850189,-5.236147881,-1.705357552,8.415035248,-6.197581768,-10.42577457,-0.625947833
4.374824999999873,22.84434319,13.31597424,-141.8037415,1.898498535,-1.049694061,8.58993721,-7.29610014,-5.220655441,-0.790365696
4.383157999999867,22.79052925,13.25167465,-141.8578339,-4.541313171,-1.377160192,12.18425655,-5.745388508,-10.02816677,-3.271719456
4.39149099999986,22.72868156,13.21349049,-141.8609619,-0.787158906,-0.390910685,15.12653542,-8.050286293,-4.821252823,1.009380341
4.399823999999853,22.66064835,13.18959713,-141.8999329,-3.907618999,-0.614903629,10.57891273,-7.875699043,-4.867460728,-3.53400898
4.4081569999998464,22.58343315,13.14984798,-141.9172974,-0.550195038,-0.712428987,11.09972286,-9.503534317,-5.636809826,-0.464450151
4.41648999999984,22.50570488,13.15686512,-141.9432831,-4.756678581,-2.502240658,7.922229767,-9.3976717,-0.853632867,-3.5697155
4.424822999999833,22.42307854,13.06912804,-141.9736633,1.789867759,-0.080966942,8.075925827,-9.799176216,-11.5409174,0.31449163
4.433155999999826,22.33647156,13.07590771,-142.0175629,-4.417984486,-2.522480249,8.349908829,-9.982469559,-1.666833639,-5.494420052
4.4414889999998195,22.24822235,12.99163437,-142.0437012,2.379892349,1.017460823,7.669201851,-10.59244919,-10.97136021,0.581187129
4.44982200000004,22.15453148,13.0230608,-142.0989227,-6.379215717,-1.745637774,15.63135147,-10.53184414,0.585567117,-7.84170866
4.458155000000033,22.07906532,12.9798851,-142.068573,-0.658568919,-0.058244266,12.60853672,-10.58547878,-3.918222189,4.810558319
4.466488000000027,21.99729729,12.99101734,-142.1469116,-4.524080276,-1.018449903,12.49060059,-8.480144501,-2.663355827,-9.43094635
4.47482100000002,21.95888138,12.9846344,-142.094162,-3.30354166,0.055782277,13.22128773,-6.740244389,1.141908288,5.57811451
4.483154000000013,21.86738968,12.97041321,-142.1826172,-0.750478268,-1.493639946,11.23315144,-9.3761549,-5.908473969,-9.399054527
4.4914870000000064,21.811306,12.98926926,-142.1340485,-3.38424015,-0.858680129,8.60740757,-8.746123314,3.757915974,4.002480984
4.49982,21.727314,12.96920586,-142.2171021,1.868144631,-0.212492794,7.908906937,-8.619768143,-6.304957867,-8.56789875
4.508152999999993,21.66747475,13.00876045,-142.1914215,-4.069357395,-2.034916401,9.744915009,-8.582242012,5.067750931,0.609285831
4.516485999999986,21.58286476,12.96604156,-142.2502289,-0.417737871,-0.060285259,9.887329102,-9.345444679,-7.766583443,-4.943740368
4.5248189999999795,21.52927589,13.01388264,-142.2417755,-3.26708889,-1.974624634,11.66395187,-7.366283894,5.248485565,-1.616117597
4.533151999999973,21.47731018,13.00863457,-142.2835999,-2.492587328,0.862664163,14.85850906,-5.885729313,-2.843014002,-4.758574963
4.541484999999966,21.41564941,13.04182243,-142.2616272,-2.732494354,-0.697473526,11.64623165,-8.69975853,4.191155434,0.509159744
4.549817999999959,21.34851837,13.06850719,-142.2888794,-2.271234989,-0.140252247,10.12624931,-8.096136093,1.354557633,-4.574664116
4.5581509999999525,21.28762627,13.05804253,-142.2974243,-1.422987223,-2.784816742,3.557843924,-7.780337811,-1.987805724,-0.902018249
4.566483999999946,21.24140167,13.08227634,-142.3363342,-1.236331105,0.95611465,9.431721687,-5.269297123,0.59399426,-5.732940197
4.574816999999939,21.19430542,13.05083084,-142.3522644,-3.392668247,-2.130825043,11.97310448,-5.927633762,-4.645078182,-0.794156611
4.583149999999932,21.1303997,13.11918545,-142.3615723,0.535486519,1.123161554,9.186056137,-8.195135117,6.791257381,-4.416163921
4.591482999999926,21.06783104,13.09989357,-142.4034424,-5.291540146,-1.166413784,12.7327261,-7.074203968,-4.375667572,-4.157511234
4.599815999999919,21.02721786,13.15159798,-142.3929291,-1.709925652,-1.915542483,10.49030876,-5.939031601,5.765302658,-1.52334249
4.608148999999912,20.99480629,13.15803432,-142.4318695,-2.291261435,-0.510085464,14.10958385,-3.527758837,-1.367889762,-4.951782227
4.616481999999905,20.91391563,13.19680119,-142.4555054,-1.236620307,-0.336959749,11.48489094,-9.84072113,2.8915658,-4.683115482
4.624814999999899,20.81236267,13.24944592,-142.4980469,-3.319473028,-2.459857702,7.798778534,-11.72295761,3.680100441,-7.317462444
4.633147999999892,20.67846107,13.25199127,-142.5513916,0.020311207,-1.928490162,9.283255577,-15.38113403,-2.388181925,-6.377266407
4.641480999999885,20.48308945,13.27663612,-142.6442108,-3.760777473,-3.88236475,10.82601833,-21.59308052,-1.49685812,-11.61194897
4.649813999999878,20.21939659,13.31349754,-142.7198334,-1.113557577,-2.102009296,14.56001186,-30.33789444,0.610233963,-10.26095486
4.658146999999872,19.87475204,13.41227341,-142.8319702,-6.532000065,-3.787467718,18.1275425,-38.95013046,6.192789078,-16.78673935
4.666479999999865,19.40540695,13.44981384,-142.9203339,3.16044116,-3.878560305,0.623285532,-54.64329147,0.310342938,-11.66594601
4.674812999999858,18.82756424,13.43705273,-143.1437225,-5.533922672,-3.195376873,15.16866112,-63.81277084,-10.4393425,-24.55743027
4.6831459999998515,18.19969368,13.59250832,-143.2070007,-2.294115782,-3.520039558,13.61887169,-74.35558319,14.87900066,-13.36566639
4.691478999999845,17.4180584,13.55966473,-143.4743347,-3.717612505,-2.111005306,14.62048626,-86.96869659,-13.74433136,-28.90825272
4.699811999999838,16.59494972,13.79942894,-143.5224915,-2.124072552,-3.777919054,13.34653282,-98.19389343,25.40458488,-14.22454739
4.708144999999831,15.59217453,13.77198505,-143.8202515,0.573291302,-3.963646412,3.185045958,-112.5221329,-13.23761082,-32.84990311
4.7164779999998245,14.59096146,13.99377918,-143.8722839,-9.089342117,-1.253460407,29.01673889,-119.4358444,23.65214348,-13.2244091
4.724810999999818,13.44150543,14.12345982,-144.1291962,4.453706264,-4.429460526,-7.364138603,-131.150238,7.40122366,-33.20399857
4.733144000000038,12.21732807,14.06360722,-144.2698212,-2.119107008,-2.056681871,10.71542168,-143.5837555,-11.10370636,-14.80457211
4.741477000000032,10.93178749,14.37142849,-144.5004578,-5.890871525,-1.49590075,26.6525898,-148.1719971,30.35030746,-34.11500168
4.749810000000025,9.535835266,14.28051949,-144.627655,1.163217783,-4.303932667,-0.739158273,-164.5316772,-13.82862759,-13.05651855
4.758143000000018,8.069184303,14.41646004,-144.8922119,-3.311113358,-0.012913465,22.40428543,-168.8358917,10.95831299,-33.3107872
4.7664760000000115,6.498223782,14.48257828,-145.0405273,-2.591181993,-3.484913349,6.880906105,-184.870636,5.220314503,-18.54300308
4.774809000000005,4.895963192,14.50375462,-145.2927246,-0.217579678,0.441975892,13.41707802,-185.4051666,-0.836266696,-29.82656479
4.783141999999998,3.181531906,14.5321207,-145.500412,-2.487859488,-3.365903616,3.317727804,-200.2827759,1.231499553,-24.74575996
4.791474999999991,1.458018661,14.47563362,-145.7479553,-2.559683323,0.820850968,26.05182838,-200.0912628,-8.392743111,-28.88297462
4.7998079999999845,-0.332210243,14.58937263,-146.0129547,-3.581791401,-2.387935162,1.60837853,-207.6463928,12.88102913,-31.35764503
4.808140999999978,-2.14375186,14.36773491,-146.2450104,4.493010044,0.674809575,6.172874451,-210.9528961,-26.45018959,-28.65901947
4.816473999999971,-3.994078159,14.44231606,-146.5556946,-9.638177872,-1.472594738,26.2949276,-213.5632935,10.40501022,-36.0217247
4.824806999999964,-5.761820316,14.34266853,-146.7337341,-0.010229496,4.035775185,8.98750782,-207.3224945,-10.53982925,-22.88105965
4.833139999999958,-7.5864048,14.23525429,-147.0533447,0.272300094,0.874415517,6.139409542,-210.2829437,-8.948322296,-38.85404587
4.841472999999951,-9.342921257,14.08528328,-147.2080688,-0.500356495,1.259383678,3.758278608,-206.7041931,-15.45779419,-21.88158035
4.849805999999944,-11.03144264,13.89378452,-147.4651947,-4.868015289,1.482773066,18.26992607,-195.9618378,-17.78700829,-33.97351456
4.858138999999937,-12.66961956,13.74967766,-147.6084595,-1.534365892,2.380874634,17.11041641,-192.9075928,-13.70995045,-21.46893692
4.866471999999931,-14.29602432,13.55954361,-147.8571777,-1.910964251,1.756437778,5.971942425,-188.9176178,-15.89213943,-33.96421432
4.874804999999924,-15.81291389,13.29905987,-147.958786,-0.64113307,2.792590857,7.894659519,-179.6437683,-27.25517845,-21.13014984
4.883137999999917,-17.32757759,13.00603104,-148.1589661,1.813165784,2.350723743,9.27048111,-177.0894012,-27.49828529,-32.88906479
4.89147099999991,-18.73654175,12.77256966,-148.2459106,-5.58005619,1.578136683,11.98859882,-167.2463226,-23.62864304,-19.74086761
4.899803999999904,-20.01381302,12.49773312,-148.3766632,-2.840235949,4.183331966,12.65059376,-150.6321716,-26.49855423,-25.82829094
4.908136999999897,-21.22028351,12.221488,-148.4142151,-3.846380711,3.376968622,16.16115379,-144.3863831,-29.67160988,-16.91436958
4.91646999999989,-22.37636185,11.96854973,-148.4947205,0.143282548,3.858864784,6.147428036,-137.4958649,-25.13969803,-20.48274422
4.9248029999998835,-23.44189835,11.70316315,-148.5040588,-1.761302471,1.406502962,4.502374172,-128.2771149,-29.17743492,-14.27494335
4.933135999999877,-24.31908226,11.41589832,-148.5363007,-1.67768836,3.817131996,4.540932178,-105.2748489,-30.45223427,-17.8611908
4.94146899999987,-25.08228874,11.12026119,-148.492981,-2.652163744,3.878329992,13.21302032,-93.30361938,-34.73128128,-10.81259632
4.949801999999863,-25.81521988,10.81064892,-148.4933929,-0.525742292,3.713896036,14.48368359,-88.72937012,-33.99250793,-16.45101738
4.9581349999998565,-26.46819878,10.50542259,-148.427475,-2.924883604,1.212131977,5.982885838,-80.58453369,-36.79101944,-9.531289101
4.96646799999985,-26.99012756,10.240942,-148.420929,-1.112324715,2.993650198,7.619151115,-63.55524063,-29.15787315,-14.02824783
4.974800999999843,-27.39744377,9.928313255,-148.3571472,-3.681147099,1.092529297,6.992238045,-51.07526779,-37.53420258,-10.35962486
4.983133999999836,-27.71196747,9.670934677,-148.3183594,-3.484859467,4.68230629,18.93707848,-39.3178978,-29.96903992,-10.6611414
4.99146699999983,-28.02074242,9.357754707,-148.2628326,-1.06384778,0.89587909,7.793968201,-38.98354721,-36.9452095,-11.82644367
4.999799999999823,-28.23955536,9.146585464,-148.2146759,-4.264192104,2.127058506,11.85573959,-27.96794891,-25.50219345,-7.357352734
5.0081330000000435,-28.39999199,8.887768745,-148.1578674,-0.900941014,0.294548094,4.427247047,-21.14699936,-31.18261719,-8.891981125
5.016466000000037,-28.49048042,8.681867599,-148.1180725,-3.460885286,1.883486748,15.22307301,-12.3682642,-24.43818474,-8.061969757
5.02479900000003,-28.60101128,8.440487862,-148.0487823,-0.895197511,1.078465819,10.16757107,-15.32500172,-30.01401329,-6.723423481
5.033132000000023,-28.66973686,8.269156456,-148.0196075,-3.354630709,0.911238134,11.25533962,-9.535478592,-20.16874695,-7.254889488
5.0414650000000165,-28.67832565,8.095385551,-147.9889832,-2.835638046,0.21000433,5.355282307,-2.386594772,-20.70892715,-6.869523048
5.04979800000001,-28.63398933,7.908362865,-147.932251,-1.764087796,2.365831614,14.92088127,3.594933987,-23.39350319,-5.286613464
5.058131000000003,-28.63619232,7.766998291,-147.9331207,-3.155609846,-0.246606529,11.12030792,-1.074914336,-15.47103977,-8.345567703
5.066463999999996,-28.55562782,7.626306534,-147.9284363,-3.012515545,0.445866823,6.916787148,8.813298225,-15.55472469,-8.033459663
5.07479699999999,-28.46546555,7.506783485,-147.9149323,-3.497885466,0.19607304,15.09303188,9.774342537,-14.0283432,-5.512760639
5.083129999999983,-28.41173744,7.392381191,-147.9453125,-1.749137044,-0.115389071,8.048201561,6.141372204,-10.8153944,-10.15769768
5.091462999999976,-28.3103981,7.323867798,-148.0014191,-3.967414379,-0.054071061,12.2636137,12.19476223,-4.692670345,-9.911702156
5.099795999999969,-28.23567772,7.240880966,-148.0133362,-3.193286657,-0.350531131,11.29824066,8.37014389,-8.563825607,-6.406876087
5.108128999999963,-28.16792488,7.19167614,-148.098526,-1.78077054,-0.865480006,7.864618778,8.587634087,-1.025709271,-11.88801575
5.116461999999956,-28.0758152,7.160635471,-148.1384583,-3.22906208,0.457538188,12.80765152,10.87344933,-1.510177135,-6.387947559
5.124794999999949,-28.02729416,7.114035606,-148.1907654,-2.424822569,-2.27007103,8.034768105,5.778469563,-2.599934816,-8.326355934
5.133127999999942,-27.9724369,7.114146233,-148.2541504,-1.348151684,0.140958771,9.795608521,6.745177269,3.089922667,-7.096822262
5.141460999999936,-27.92620277,7.073172569,-148.3059082,-2.251187801,-0.577102065,11.18637943,5.491205215,-2.042901993,-7.961737156
5.149793999999929,-27.90717125,7.078472614,-148.360199,-2.731201649,-1.169595599,6.894083023,2.307996035,3.123348713,-5.855426788
5.158126999999922,-27.86501884,7.067764282,-148.4045258,-1.552137733,-0.142417088,12.43244457,4.886095047,0.743094623,-5.473928928
5.1664599999999155,-27.86375618,7.065006256,-148.4594574,-2.29272151,-0.45562768,13.74345398,0.18116948,2.300004244,-6.37939167
5.174792999999909,-27.86543083,7.078121185,-148.5135956,-4.401876926,-1.357001424,8.635360718,-0.233691454,3.805840015,-5.156414032
5.183125999999902,-27.85783577,7.09228611,-148.5511169,-0.372921169,-0.07462132,15.38935661,0.688075244,3.124783278,-3.595534086
5.191458999999895,-27.90599442,7.109181881,-148.6101074,-4.231980324,-1.256683588,11.94735432,-5.735860348,4.500524044,-5.498032093
5.1997919999998885,-27.94721794,7.135422707,-148.6628418,-1.676256657,-0.807988644,8.280028343,-4.9420228,5.257654667,-4.513624668
5.208124999999882,-28.00506592,7.147675037,-148.6924286,-1.699395418,-0.698955894,9.94978714,-7.331318378,2.37477231,-2.663278103
5.216457999999875,-28.09401894,7.182815552,-148.7618561,-1.093146205,-1.867866993,7.600196362,-10.41694069,7.143940449,-5.751588345
5.224790999999868,-28.15024948,7.178686142,-148.7793274,-3.555043697,0.252650589,10.72552109,-7.32015276,-0.03308079,-2.310033083
5.2331239999998616,-28.22751808,7.243514538,-148.8308258,-0.508570433,-0.365279883,13.14482021,-9.274852753,9.285725594,-2.166798353
5.241456999999855,-28.31729889,7.23499155,-148.8495941,-4.189370632,-1.228775144,12.40264988,-11.3292408,-0.418574989,-2.696013689
5.249789999999848,-28.41887474,7.256384373,-148.8778687,-0.040193599,-0.128078401,10.85556316,-12.54179382,3.393886566,-2.18506074
5.258122999999841,-28.53205681,7.29161787,-148.9091339,-3.570417643,-1.250371814,5.95311451,-13.94153786,4.933636189,-1.538685918
5.266455999999835,-28.64526558,7.234838009,-148.8895264,0.829284489,-0.98629415,8.2367239,-14.66373348,-7.564053059,-1.652618289
5.274788999999828,-28.75377083,7.263408661,-148.9190063,-2.781038761,0.070749693,8.010834694,-13.41285801,4.124097824,-1.696418285
5.283121999999821,-28.84240723,7.222670078,-148.8992767,-2.460965872,-0.721195459,11.22280598,-11.71353245,-5.882758141,-0.736499012
5.291455000000042,-28.92670822,7.23405838,-148.9119568,-2.680172682,-0.463379741,16.19213676,-10.76862335,1.348564148,-0.909190297
5.299788000000035,-29.01729774,7.226897717,-148.9101715,-2.752172709,-0.207174242,11.96018505,-11.67751789,-1.321143985,-0.67056793
5.308121000000028,-29.09752846,7.195280075,-148.9072418,-2.74216938,-0.537454426,10.17779064,-10.51534843,-4.056693077,-1.804433346
5.3164540000000216,-29.16782379,7.232057095,-148.9125977,-1.228531599,-0.389833003,10.40613747,-9.135048866,3.700284004,1.150873184
5.324787000000015,-29.24953079,7.165660858,-148.8952484,-2.391606331,-0.069324955,10.28486347,-10.91042519,-8.525201797,-2.366845608
5.333120000000008,-29.31591606,7.193476677,-148.8947754,-1.10872519,-1.604240656,6.724760532,-8.753268242,2.419853926,1.240420699
5.341453000000001,-29.36460304,7.167984962,-148.8961334,-2.687234879,0.413109124,10.69033527,-6.673700333,-3.180430651,-1.870313287
5.349785999999995,-29.4103508,7.153600216,-148.8746338,-1.498300791,-1.483985543,9.662800789,-6.590914249,-3.225690603,0.941681802
5.358118999999988,-29.42700386,7.14487505,-148.8760376,-2.460787535,0.458188683,13.32312202,-2.832614183,-1.420731902,-0.894180119
5.366451999999981,-29.46903229,7.117883682,-148.8532867,-2.482881784,-1.211276531,10.71389008,-6.160877705,-4.617337704,0.326043636
5.374784999999974,-29.4833622,7.125833988,-148.8557281,-2.205808401,-0.242203459,13.07446671,-2.545581341,0.36223653,0.015214855
5.383117999999968,-29.51705551,7.093768597,-148.8236389,-2.581341743,-0.531952441,10.43263626,-5.297985077,-5.694800854,0.989426851
5.391450999999961,-29.53632355,7.101269722,-148.8234253,-2.602447987,-1.707887173,6.755377769,-3.179841042,0.157758087,0.266234368
5.399783999999954,-29.54419899,7.095993996,-148.8056488,-0.918916285,-0.845908105,10.7156868,-1.987779737,-2.060344934,1.090500474
5.408116999999947,-29.56269455,7.091759682,-148.7975464,-2.938300133,-0.327600271,6.714846611,-3.206018925,-1.538660049,0.402988791
5.416449999999941,-29.54900742,7.064534664,-148.7746429,-0.857873797,-1.429287791,10.84909248,0.524528325,-4.653582096,0.321279377
5.424782999999934,-29.57276344,7.10258007,-148.786087,-2.671453714,-0.514494061,11.25153255,-3.552015781,4.006194592,0.909664035
5.433115999999927,-29.58223534,7.041300297,-148.7775116,-1.553589582,-1.412845135,8.854382515,-2.043798208,-7.365411282,-3.182325125
5.4414489999999205,-29.58407593,7.081486225,-148.793335,-3.860533714,-1.493749738,13.94157696,-0.862034321,4.476933002,0.603292108
5.449781999999914,-29.6089592,7.098100662,-148.8112335,-3.669844151,-0.838590622,13.80084324,-3.499429464,2.320957184,-1.308900237
5.458114999999907,-29.63589096,7.102823734,-148.8265076,-0.895894051,-0.611213863,7.761582851,-3.885334015,0.736434937,-1.432642817
5.4664479999999,-29.63450813,7.143387794,-148.8626556,-3.337895632,-1.386391521,14.0378952,-0.075677261,5.89255476,-1.773183942
5.4747809999998935,-29.65968323,7.152423382,-148.8492279,-0.467083961,-0.686262488,6.363741875,-4.104335308,-0.508532226,1.802704453
5.483113999999887,-29.67923927,7.158154488,-148.8781128,-1.669515371,-1.475432634,10.04845047,-2.69355464,1.835106492,-3.08911562
5.49144699999988,-29.70269966,7.156579018,-148.8646698,-1.850689411,-1.118073583,9.04430294,-3.898089647,-1.613761067,1.168905735
5.499779999999873,-29.74651146,7.208993912,-148.906601,-4.323409081,-1.46963191,12.39004421,-5.407742023,7.471930027,-1.656101346
5.508112999999867,-29.76986885,7.217761517,-148.8973083,-2.019140482,-0.970034301,10.35246372,-3.833976984,-0.318551421,1.398152947
5.51644599999986,-29.79256821,7.289859295,-148.96138,-3.371406555,-0.64036268,12.13523674,-2.532620192,10.83177376,-2.764378071
5.524778999999853,-29.84020233,7.311515331,-148.9645081,-1.581093907,-1.393562198,4.701744556,-6.556334972,1.770045996,0.858102441
5.533111999999846,-29.87086296,7.35914135,-149.018158,-0.782754958,-1.673222899,8.577399254,-3.636773586,7.669645309,-3.132787943
5.54144499999984,-29.90413857,7.346065998,-148.9986877,-1.860708237,-1.361388683,10.15499306,-5.179519176,-3.178329945,1.105561733
5.549777999999833,-29.96708298,7.402752876,-149.0591736,-2.395506144,-0.713203609,8.629255295,-7.401964188,9.022256851,-3.283655643
5.558110999999826,-29.98495102,7.411217213,-149.0577698,-3.302630901,-1.666255951,11.8754282,-3.060299158,0.103148527,0.580341756
5.566443999999819,-30.01702118,7.493389606,-149.1329956,-2.637301922,-0.826444268,16.83526993,-3.456551552,12.55038738,-3.26252389
5.57477700000004,-30.06622314,7.513843536,-149.129837,-3.2440207,-0.87770474,8.35427475,-6.860274315,1.207455039,1.540414572
5.583110000000033,-30.10790062,7.570719242,-149.1914215,2.03481555,-1.794766545,6.730488777,-4.810827732,9.114109993,-3.357501507
5.591443000000027,-30.15227318,7.548628807,-149.1881714,-4.189750195,-1.409115076,8.736627579,-6.280161858,-3.19894886,-1.037901521
5.59977600000002,-30.22108841,7.600607395,-149.2294159,-0.874872923,-1.597192287,11.51247406,-8.385755539,7.394061565,-1.546728492
5.608109000000013,-30.23998642,7.605083466,-149.2262268,-3.982137918,-0.507083356,11.27289009,-3.244004726,-0.520494163,0.693761647
5.616442000000006,-30.28377151,7.654351711,-149.2738342,-0.445823401,-0.713727057,10.45326996,-5.274445057,7.494520664,-2.352655172
5.624775,-30.29762077,7.617739201,-149.2529907,-3.487402678,-1.700195789,6.384284973,-2.916884899,-5.817978859,-0.016559601
5.633107999999993,-30.32181931,7.68670702,-149.2865753,0.308854848,-1.679015279,10.98074818,-3.146798611,8.694190025,0.289825112
5.641440999999986,-30.35671425,7.576414585,-149.2457733,-2.18425107,-1.509722352,5.269785881,-5.77981472,-14.72650909,-2.304372311
5.649773999999979,-30.37711334,7.635187626,-149.2714996,-0.595588028,-1.02597332,12.83413029,-2.817553282,7.167478561,0.484006673
5.658106999999973,-30.41281509,7.526049614,-149.228714,-3.961635828,-2.010787964,7.165233135,-5.90073967,-14.71085835,-2.066953897
5.666439999999966,-30.42134285,7.57587862,-149.2445221,-1.38804388,0.16736123,19.78169632,-1.553465128,5.643917561,0.964734435
5.674772999999959,-30.4731617,7.494010925,-149.238266,-2.987589598,-2.872914314,6.746897697,-7.25289011,-9.662958145,-4.206614017
5.6831059999999525,-30.46396637,7.492359161,-149.198822,-2.236442327,-0.623707116,12.10179424,-0.292322457,-3.018214941,3.506845236
5.691438999999946,-30.4811821,7.476960182,-149.2408752,-1.168549538,-0.857946754,5.699288368,-2.358264446,0.067698427,-5.018610001
5.699771999999939,-30.48036575,7.37420702,-149.1614075,0.048803605,-1.412387252,12.31505108,-1.914369941,-15.89000988,1.455631614
5.708104999999932,-30.48567963,7.420315266,-149.24646,-4.754524708,-1.619442821,10.71629333,-0.28053993,9.001791,-5.642342567
5.7164379999999255,-30.47873878,7.309218407,-149.1359253,1.262474298,-1.581578493,4.127894878,-1.646086335,-18.62763786,4.13313961
5.724770999999919,-30.4828434,7.365705013,-149.2370605,-4.87404108,-1.263343811,17.70261002,0.107221209,11.06609344,-6.696342945
5.733103999999912,-30.50152779,7.273981571,-149.1397247,-0.894488215,-1.668832541,4.602326393,-4.509834766,-15.82920265,3.958040476
5.741436999999905,-30.50154114,7.302881718,-149.1977539,-5.414620399,-0.950378358,18.6055584,-0.070989855,5.599322796,-3.930901051
5.749769999999899,-30.51701546,7.296112537,-149.1529083,0.520988524,-2.046880722,3.332715273,-3.318977118,-3.875804901,3.746645212
5.758102999999892,-30.51516914,7.219023228,-149.1480713,-3.339151144,-0.592832565,12.87920475,-0.799458683,-9.133844376,-3.980798244
5.766435999999885,-30.51638031,7.281199455,-149.1444702,-0.881307602,-1.889453173,3.256229162,-0.980141461,5.743761539,3.718879223
5.774768999999878,-30.52881241,7.135722637,-149.1000671,-2.02340436,-1.837424278,9.930999756,-3.114166737,-18.61839104,-4.053107738
5.783101999999872,-30.52204895,7.250530243,-149.1447449,-2.987827301,-1.663038969,16.38916397,0.703085303,14.10291862,1.974601746
5.791434999999865,-30.54842186,7.114450932,-149.1085358,-0.277431905,-0.89535445,7.449235439,-4.654684067,-17.1192646,-4.375463009
5.799767999999858,-30.56009102,7.224374771,-149.1377106,-6.785083771,-2.369385004,18.72135544,-1.743906856,12.65883923,3.274831533
5.808100999999851,-30.59409142,7.175683975,-149.1549072,1.546860099,-2.23707056,0.338514745,-4.769715786,-4.859647751,-4.523845196
5.816433999999845,-30.60848236,7.150225639,-149.123291,-3.636454821,-0.586831272,17.14594269,-2.980767012,-5.009875298,1.243161201
5.824766999999838,-30.64079285,7.205954552,-149.2001038,-0.566433609,-2.012470484,5.517827511,-3.68290472,9.504240036,-4.187735558
5.833099999999831,-30.67214394,7.10411644,-149.1077271,-2.7405231,-1.996336818,7.503485203,-5.922358513,-16.58666801,2.790569305
5.8414329999998245,-30.70995903,7.19472599,-149.2081757,-1.602592945,-0.764335573,16.05958939,-3.99296546,14.55744362,-4.479430676
5.849765999999818,-30.75713539,7.108424187,-149.1201935,-3.374185085,-1.559048414,4.055207253,-7.754595757,-14.72177124,3.273141384
5.858099000000038,-30.76076508,7.202469349,-149.1846313,-3.459443569,0.158774406,18.4671154,-0.426899701,12.7206974,-0.563756585
5.866432000000032,-30.77251625,7.22998333,-149.1525116,-1.271769166,-2.378460646,5.491325378,-2.674369574,0.414515138,4.535871506
5.874765000000025,-30.76956558,7.202121258,-149.131012,-1.561716676,-0.521312296,11.15581703,-0.912852883,-5.015203476,0.63159579
5.883098000000018,-30.75762558,7.31948328,-149.1503448,-2.108660698,-1.807917714,5.091264725,0.947035193,12.81272793,4.787044525
5.891431000000011,-30.76782799,7.237268448,-149.0782166,0.121909164,-0.798101246,8.194169044,-3.238677263,-13.60534954,2.313375711
5.899764000000005,-30.77180481,7.393894196,-149.1461945,-4.009858131,-2.214898825,17.32637405,-0.218784049,19.82217216,2.22528863
5.908096999999998,-30.79906845,7.342020512,-149.072113,1.164250493,-0.906079292,4.477184296,-5.327749252,-10.58717155,4.35144949
5.916429999999991,-30.78598213,7.474944592,-149.0903015,-8.064096451,-1.843142271,17.72040558,1.071085095,14.34343624,5.87024641
5.9247629999999845,-30.7704258,7.57779026,-149.0831299,1.880227804,-0.056814454,4.013208389,0.805157959,9.32903862,7.197113991
5.933095999999978,-30.70952415,7.640304565,-149.04599,-5.989861012,-0.939846337,15.78957462,5.939864159,3.723925829,7.191453457
5.941428999999971,-30.61818123,7.846583843,-149.0772858,-1.152649045,-0.071845762,9.293393135,10.51121807,22.33114433,9.609930038
5.949761999999964,-30.47408104,7.894989491,-149.0114288,-3.180827856,0.28373909,9.480150223,15.43165874,0.558518529,9.253196716
5.9580949999999575,-30.295681,8.122286797,-149.0326538,-0.416539967,0.030058667,8.827865601,20.81581688,23.99472237,11.73245907
5.966427999999951,-30.03927231,8.196690559,-148.975296,-2.603726625,0.967184901,4.378987789,29.01465416,3.829510927,9.938946724
5.974760999999944,-29.71774292,8.410651207,-148.9445343,-2.598998785,0.786517739,16.09521866,37.13611603,19.7608757,15.85774803
5.983093999999937,-29.34365082,8.568772316,-148.910965,-2.003447771,-0.317441285,1.346835613,43.51996994,14.08073521,12.37894821
5.991426999999931,-28.85927773,8.79233551,-148.8765717,-3.654284716,1.976619363,13.99115944,56.59646225,20.81337929,16.455513
5.999759999999924,-28.32925415,9.01307106,-148.8510284,-1.19137311,0.230051637,4.013917446,62.35493469,21.34186745,14.89583874
6.008092999999917,-27.69102859,9.267910004,-148.8239288,-4.623538494,1.379038215,13.19795132,75.19902039,24.95839882,16.84120178
6.01642599999991,-26.9688549,9.52167511,-148.8036041,-0.488933921,0.493469745,4.473381996,85.48986053,25.48235321,15.68032837
6.024758999999904,-26.15685463,9.821545601,-148.7807465,-5.408669949,1.888911247,13.3946743,96.16030884,30.58867836,17.87738991
6.033091999999897,-25.26348305,10.09329987,-148.759552,0.513718307,0.765669525,6.401020527,105.994812,27.82932091,15.96306705
6.04142499999989,-24.27929878,10.34897709,-148.706955,-4.755240917,0.662364244,10.51928711,116.1916809,24.92235374,17.72694206
6.049757999999883,-23.23588371,10.67513084,-148.6940002,-0.607268035,0.746766686,8.612910271,124.1571884,34.74063873,16.72777557
6.058090999999877,-22.12593842,10.91372776,-148.5942535,-4.026760578,-0.437207103,9.660339355,130.230545,21.6703434,20.80344009
6.06642399999987,-20.95797539,11.24830151,-148.5597382,1.107842326,-0.173110604,8.134214401,138.590744,35.38586807,18.08272552
6.074756999999863,-19.74002266,11.47198105,-148.4450684,-3.986870527,0.769215107,9.29222393,142.7783508,20.31446457,20.67340469
6.0830899999998564,-18.44992828,11.79366684,-148.3613129,-0.332200676,-1.685940146,11.23279476,152.0184937,32.7929039,21.49073029
6.09142299999985,-17.12546921,12.04019928,-148.2093506,-3.470660925,2.109732389,9.174549103,154.5263062,22.53771591,24.65206146
6.099755999999843,-15.73027039,12.3295517,-148.0907288,1.819741726,0.115153655,10.89151287,163.6534271,28.90435982,22.72546196
6.108088999999836,-14.27803993,12.56222725,-147.9035339,-5.928534031,0.636057973,9.179980278,168.8058014,21.08034706,26.97920227
6.1164219999998295,-12.76734543,12.82693577,-147.7475433,-0.275807321,0.140435323,14.25197411,176.4061737,26.14875603,24.74303246
6.124754999999823,-11.24585819,13.0622797,-147.5366364,-4.534835339,-1.14884901,10.43277454,176.2791595,22.21232414,28.63236046
6.133088000000043,-9.702776909,13.27824688,-147.3788452,0.304963201,-0.045850128,10.38225746,180.091568,21.66710281,22.40081978
6.141421000000037,-8.132178307,13.48386383,-147.1477966,-3.867423773,-1.325542331,11.25304031,181.4118958,19.85011864,29.19424057
6.14975400000003,-6.608695984,13.67251301,-146.9683838,0.190402329,-1.167806745,5.924312592,177.0004272,19.30066872,23.2193737
6.158087000000023,-5.023522854,13.81285191,-146.7435608,-1.796576023,-1.241311312,8.552117348,183.1385956,13.6920681,26.65065193
6.166420000000016,-3.461991549,13.99591541,-146.5595245,-1.65476644,-0.417098761,17.76728821,181.3134308,19.85653877,22.56389046
6.17475300000001,-1.920765996,14.12600899,-146.3178406,-3.628896952,-2.66601038,12.08904839,177.0649719,13.79932117,28.3771553
6.183086000000003,-0.377628893,14.20222759,-146.1199799,2.89116025,-1.517306566,8.224020004,178.6035309,8.216486931,22.76181793
6.191418999999996,1.140360475,14.26695442,-145.904068,-5.974321842,-2.227690697,19.68444824,174.9555206,7.460837841,24.6035347
6.1997519999999895,2.577066183,14.34382057,-145.6694336,0.039049912,-1.442094684,13.08133984,164.6835632,9.638462067,26.531847
6.208084999999983,3.984069109,14.35282803,-145.473175,-3.710468292,-3.022234917,3.996951103,162.1734467,1.913863897,22.26249695
6.216417999999976,5.393638134,14.32602692,-145.2615051,0.50348109,-2.538537979,7.342816353,162.0939026,-1.659239888,24.34924126
6.224750999999969,6.800565243,14.32199383,-145.0749512,-3.318994761,-2.419062614,17.88113785,162.4684143,1.349543452,21.1655674
6.2330839999999625,8.120453835,14.31085968,-144.8841095,0.24138017,-1.13826108,16.87887192,151.9589233,1.090702415,21.73479462
6.241416999999956,9.338914871,14.25996876,-144.7260895,-1.426007628,-3.264085531,10.69301414,140.7129974,-3.716473341,18.63811874
6.249749999999949,10.53992653,14.24431992,-144.5701904,-3.514142513,-2.836902142,13.59501362,138.7491608,0.813829541,17.74336433
6.258082999999942,11.69310093,14.14663887,-144.4253235,-0.88183701,-4.664280891,4.242244244,133.3000183,-8.722286224,18.34771919
6.266415999999936,12.80836582,14.00043583,-144.3236694,-1.473638058,-1.06916976,14.38366222,130.0979919,-15.09906769,14.8450098
6.274748999999929,13.85821724,13.93879509,-144.1965027,-4.158132553,-3.775847912,13.77073765,121.4847946,-4.250802994,15.66789913
6.283081999999922,14.82014942,13.77628136,-144.1236725,2.357584238,-2.498650312,9.651474953,112.5692062,-17.25718689,12.60936737
6.291414999999915,15.68608952,13.68966866,-144.0167694,-7.34017992,-4.068749428,21.76667976,100.0583267,-7.216965675,14.30826759
6.299747999999909,16.47400665,13.58000469,-143.9440918,4.928159237,-3.25237608,3.243085623,91.72331238,-10.76311874,11.34873009
6.308080999999902,17.17972565,13.39176655,-143.914978,-6.907123566,-3.60966897,11.88024998,83.06694794,-21.10313034,9.3428545
6.316413999999895,17.86985779,13.37548733,-143.8036804,1.784809589,-2.118378639,15.3495636,78.95063019,1.585196853,12.54008102
6.324746999999888,18.44868279,13.17771721,-143.8016663,-3.575960875,-4.405192852,5.556577682,68.60562897,-22.94291496,7.172427654
6.333079999999882,18.97270012,13.11321926,-143.7291412,-0.412795573,-2.012519121,27.00100327,60.12841034,-5.077795506,10.07016659
6.341412999999875,19.42185211,13.04928875,-143.687027,-3.927833319,-3.927913189,-0.312008083,51.96006012,-6.090503693,6.727723598
6.349745999999868,19.84244728,12.86774254,-143.6553955,0.604723215,-1.359749317,19.12986183,48.8441925,-19.74049377,10.36462212
6.3580789999998615,20.20820045,12.94389248,-143.5810852,-7.76397419,-4.640460968,11.44110775,41.11032486,11.09687233,4.593766689
6.366411999999855,20.51909828,12.72854137,-143.5750732,3.115448475,-1.871568561,3.718458891,36.37212372,-24.44781876,9.211202621
6.374744999999848,20.78265381,12.88406754,-143.4531708,-8.921011925,-3.403764725,24.30427361,27.59765244,22.03254509,6.325263023
6.383077999999841,20.95679665,12.77534962,-143.4004974,4.630043507,-2.19856596,-9.08784008,18.71535492,-10.46061516,9.967758179
6.3914109999998345,21.13534355,12.84214878,-143.3351898,-6.3822155,-2.661636114,19.20245552,18.90653992,9.761793137,3.810657024
6.399743999999828,21.31502914,12.91353321,-143.186203,-0.016266694,-0.979780614,4.714708805,16.80130577,13.82892609,12.70474339
6.408076999999821,21.44034958,12.81449318,-143.1903839,1.004586697,-1.395394921,15.47363949,14.37053871,-11.70861816,3.438405275
6.416410000000042,21.57443047,12.98948288,-142.9835052,-7.04087925,-1.543950677,21.69143486,9.769508362,27.94174767,14.37390137
6.424743000000035,21.61163902,12.87338066,-142.9823914,6.244377613,-2.185167789,-1.508108854,3.66378355,-13.37115574,4.809431553
6.433076000000028,21.71389771,12.98855495,-142.8121796,-11.03562832,-0.907799304,24.54056358,6.921379089,19.72901726,12.95814419
6.4414090000000215,21.80353928,12.96091557,-142.7734375,9.073432922,-0.510504961,-5.212564945,8.946540833,-1.864216924,5.000565052
6.449742000000015,21.86476135,12.90120125,-142.7048035,-8.228254318,-2.817665815,18.41798782,4.724750996,-4.13146162,9.67767334
6.458075000000008,21.96099091,12.97877502,-142.63237,1.822717547,-0.209056258,11.64324474,8.836453438,11.33696556,3.948333025
6.466408000000001,22.00594139,12.79032421,-142.6117554,-3.296056747,-1.397541046,3.134591341,4.063008785,-20.5325489,10.26224613
6.4747409999999945,22.07330704,12.79292202,-142.575882,2.68497324,-0.064896502,17.79665565,6.369236469,1.405581355,3.337125301
6.483073999999988,22.18212891,12.72533607,-142.5242767,-6.606143951,-2.310515165,0.032444865,10.91266537,-5.704073429,8.209414482
6.491406999999981,22.28419685,12.48507023,-142.5603333,5.579986572,0.539920092,16.70824242,12.43567085,-28.74740601,6.564191341
6.499739999999974,22.36236763,12.47240639,-142.5106354,-10.34768295,-2.973216772,16.05750084,7.312326431,0.341130376,5.525374889
6.508072999999968,22.43748283,12.24228287,-142.5238953,9.31010437,-0.663476765,-2.362052917,8.601036072,-26.58281898,8.65139389
6.516405999999961,22.51831245,12.11487293,-142.5552368,-10.74715805,-1.566733718,16.97988319,9.714662552,-15.99905205,2.0089252
6.524738999999954,22.59554291,11.90002823,-142.5485077,5.912173748,0.634423792,13.99239922,8.348708153,-23.96434593,10.18304729
6.533071999999947,22.67211914,11.82278919,-142.5890808,-10.79024696,-3.173542261,8.590351105,9.41213131,-10.85548019,-1.270658255
6.541404999999941,22.75702858,11.54759789,-142.5818024,8.742069244,-0.018205745,7.84047699,9.264703751,-30.58892059,13.10748291
6.549737999999934,22.80092049,11.44626713,-142.6746674,-10.05375004,-1.957968235,18.35230446,6.709112644,-15.90558624,-5.800870419
6.558070999999927,22.887743,11.25555611,-142.5945435,4.731431484,0.170701727,8.579722404,7.784221649,-17.88693237,17.13849449
6.56640399999992,22.93876648,11.09869576,-142.7217102,-5.58604002,-1.14974308,6.048264027,8.300989151,-23.63100433,-6.90033865
6.574736999999914,23.04611969,10.81228161,-142.6726379,3.334467649,-0.287523299,8.975273132,11.0240202,-29.83840179,18.31166267
6.583069999999907,23.11025238,10.68971825,-142.8081207,-6.56826067,-1.407783031,16.47058487,9.950802803,-20.25747681,-9.370267868
6.5914029999999,23.2136364,10.49671936,-142.7076569,-0.068676978,-1.434144378,11.31049061,9.453476906,-17.08712769,19.57356453
6.5997359999998935,23.27083015,10.33937836,-142.8809204,-1.651456118,-0.654157698,10.37946129,9.843763351,-25.88414192,-11.77877903
6.608068999999887,23.35395813,10.12559891,-142.7974548,-0.398985237,-1.729097843,8.614951134,7.463223934,-20.11296272,18.7687912
6.61640199999988,23.40076828,10.03789711,-142.9344025,-3.333711624,0.312738866,14.7021904,7.715395451,-16.54586983,-11.11539173
6.624734999999873,23.52485847,9.878615379,-142.8409424,-4.947545528,-1.862034082,13.31805801,12.22296524,-13.59103584,17.31036568
6.6330679999998665,23.61142731,9.774794579,-142.9568176,-0.313421637,0.732550323,10.22846127,11.98208809,-17.36268044,-8.015299797
6.64140099999986,23.68091583,9.666078568,-142.8510895,-2.022753,-3.753742456,4.953469753,5.472841263,-7.391564846,16.25261879
6.649733999999853,23.73324966,9.581313133,-142.9809875,0.167824209,-0.647799492,7.553733349,8.105857849,-15.95778942,-10.41937542
6.658066999999846,23.83154678,9.498930931,-142.8760223,-5.76702404,-1.649215579,15.96870899,8.985527992,-4.491367817,14.92039776
6.66639999999984,23.88623047,9.50693512,-142.9490204,-0.630392253,1.296557784,15.41631126,7.228594303,-3.082378864,-8.730036736
6.674732999999833,23.97092056,9.50021553,-142.8440399,-5.357695103,-3.800700665,7.564554214,7.365913391,3.845466137,11.25062084
6.683065999999826,24.01724434,9.418925285,-142.929718,2.315210819,1.238973737,9.516331673,6.46833849,-13.50099659,-5.737499714
6.691398999999819,24.0364151,9.392608643,-142.8546448,-3.725773573,-4.350493431,10.29420567,0.112907536,0.277197242,8.971077919
6.69973200000004,24.05778694,9.374691963,-142.8790283,-1.322164297,1.031130552,13.80041313,2.261481285,-3.604422808,-2.197919369
6.708065000000033,24.07383919,9.362218857,-142.8022919,-3.205673933,-3.335979462,9.824731827,-0.281000942,1.87939322,8.47167778
6.7163980000000265,24.02049065,9.292784691,-142.8434296,2.308586597,-0.158229694,4.572833538,-6.383491039,-10.05851936,-1.490453959
6.72473100000002,23.99956322,9.269351006,-142.8113861,-2.435078859,-2.43133235,4.612967014,-3.83907485,-1.483281851,4.177860737
6.733064000000013,23.9873333,9.199286461,-142.8303223,-4.063216209,0.81815052,20.80753708,-1.883658409,-9.057617188,0.931538641
6.741397000000006,23.93875885,9.199991226,-142.8079681,-2.371732473,-3.231277466,12.88592052,-6.962910175,0.694017708,1.954468727
6.74973,23.90187073,9.195178032,-142.7937927,-3.991357803,1.302701354,9.290266037,-5.479256153,-0.312455237,1.3311975
6.758062999999993,23.8484745,9.151885986,-142.8153534,2.536909103,-3.117008209,6.616220951,-6.696420193,-6.242920399,-0.661218762
6.766395999999986,23.7791748,9.127577782,-142.8213043,-3.619703531,-0.031599175,13.02716255,-8.982926369,-3.419615984,0.091878273
6.774728999999979,23.72407913,9.142866135,-142.8365173,-0.203931794,-1.817913532,11.21182442,-7.020772934,0.496429563,-2.816041946
6.783061999999973,23.68803215,9.121094704,-142.8256226,-6.922529697,0.920504868,17.84076691,-5.311329365,-2.340308666,1.790768027
6.791394999999966,23.61232376,9.103608131,-142.8589478,2.403090477,-2.161006689,7.143395901,-9.145780563,-3.965327024,-3.201152086
6.799727999999959,23.5351181,9.122990608,-142.839447,-5.976021767,-0.387478292,6.46148777,-10.41532612,2.590444565,0.747602761
6.808060999999952,23.43933487,9.093966484,-142.8734741,3.809138298,-2.757613182,8.411221504,-11.54081535,-5.261510849,-2.737534761
6.816393999999946,23.3391819,9.103383064,-142.8740387,-5.622590542,0.998428464,10.20483112,-12.78715515,0.544917345,-0.949225366
6.824726999999939,23.26917458,9.156030655,-142.8710785,-0.181837738,-1.182533264,10.31000423,-9.145499229,5.480114937,-2.60531354
6.833059999999932,23.2743454,9.204161644,-142.844986,-7.630684853,0.524394989,17.41202545,-0.659912348,6.062197685,0.118056007
6.8413929999999255,23.25315475,9.221369743,-142.8684692,1.434640765,0.117786817,13.4879694,-2.775289774,0.337441951,-3.795581341
6.849725999999919,23.25020981,9.30173111,-142.8275757,-5.722533703,-0.462513536,9.608090401,-1.923411608,10.30683708,0.20383811
6.858058999999912,23.26651764,9.311621666,-142.8634949,3.304028749,-2.318482876,2.554675579,1.971450925,-1.05068326,-4.799557209
6.866391999999905,23.30570412,9.307494164,-142.8846283,-2.091782093,0.989665031,11.58601952,4.334671021,-1.910758018,-2.546041965
6.8747249999998985,23.35116959,9.323383331,-142.9329529,-0.441989005,-1.387219548,12.10182571,5.714254379,-0.973789275,-6.434488773
6.883057999999892,23.43450928,9.337679863,-142.9157562,-3.466100216,0.926563978,15.04759979,8.888345718,1.915996313,0.748909116
6.891390999999885,23.52643394,9.295404434,-143.0010376,-0.564784944,0.227006719,11.91659546,12.00864697,-9.1344347,-7.663306713
6.899723999999878,23.64745331,9.297163963,-142.9521942,-3.364612341,-1.719093442,7.184561729,12.79653931,2.043631792,4.775287628
6.9080569999998716,23.74600983,9.218253136,-143.0604706,2.916471958,-1.610159993,7.151206017,13.24287128,-14.28681946,-8.361397743
6.916389999999865,23.83898354,9.142425537,-143.0485229,-4.866868019,-1.247214437,8.303356171,10.14879608,-8.219698906,4.529186249
6.924722999999858,23.92744446,9.079668999,-143.1478271,3.132174492,-0.88051039,10.39565754,11.82891464,-12.10945415,-8.136581421
6.933055999999851,24.03212929,9.011155128,-143.1274414,-9.092508316,-2.146789789,18.70233345,11.40169144,-6.996592522,5.108938694
6.941388999999845,24.07043648,8.933455467,-143.2322845,5.375416756,-0.263507724,14.52102089,5.88548708,-14.03715611,-7.967963696
6.949721999999838,24.11960411,8.912432671,-143.213913,-9.533726692,-2.493872881,13.77733421,4.780052185,-1.880405068,2.575870037
6.958054999999831,24.13192177,8.796383858,-143.2861328,7.080752373,0.746242702,9.720567703,2.146370649,-16.67009544,-2.544890165
6.966387999999824,24.12125015,8.739990234,-143.3091888,-8.118447304,-3.492991924,9.398571968,-1.638837576,-7.758284092,-0.169707149
6.974720999999818,24.11473083,8.651358604,-143.3362732,5.203341007,-0.092156522,7.005538464,-0.956269085,-11.47944355,0.990041494
6.983054000000038,24.10579681,8.589435577,-143.3729553,-10.36750698,-1.168141723,18.67441559,-1.192509294,-9.025753975,-1.376931787
6.9913870000000315,24.05195618,8.539783478,-143.3391724,3.016834259,-0.666552782,12.27565289,-7.727956772,-4.263016224,5.667765141
6.999720000000025,23.99267197,8.575733185,-143.3649597,-8.486634254,-2.341472387,10.03074551,-7.433315277,2.228464365,-4.990613937
7.008053000000018,23.92169952,8.499586105,-143.3082428,2.818245411,0.306026667,8.183879852,-10.18899822,-6.077452183,9.436618805
7.016386000000011,23.80055618,8.545484543,-143.3536072,-3.539013863,-2.54671526,6.554067135,-14.51171017,2.393830299,-7.591382027
7.024719000000005,23.71874237,8.552167892,-143.252243,-1.274255633,-0.545888245,7.152023315,-12.28811073,5.120414257,10.26470184
7.033051999999998,23.63282776,8.612628937,-143.2891693,-4.228658676,-0.118084356,18.43827438,-10.42949009,4.420505047,-7.366231918
7.041384999999991,23.52198792,8.657388687,-143.1825867,-1.661308408,-2.229877472,10.76344585,-15.87889767,9.518382072,9.018929482
7.049717999999984,23.41182899,8.76164341,-143.2089844,-0.65776974,-0.172637656,9.555530548,-13.5205164,9.763202667,-8.293622017
7.058050999999978,23.29982758,8.751607895,-143.1407166,-2.355284691,-1.603523016,10.7191143,-15.34937286,1.645381927,7.490014553
7.066383999999971,23.13518715,8.800891876,-143.1911316,2.56223774,-0.322956383,9.183672905,-19.61314964,2.611756802,-8.267318726
7.074716999999964,22.99840927,8.844018936,-143.1388702,-7.974876404,-2.28998208,11.71234608,-18.03602791,6.731603146,3.253546953
7.083049999999957,22.88110542,8.8890028,-143.1576538,2.3276999,1.89682436,16.01098824,-14.50943089,3.63691473,-4.595105171
7.091382999999951,22.74473572,8.931624413,-143.1353302,-7.247040749,-1.780778408,10.68235397,-17.43775558,5.280529976,0.034271859
7.099715999999944,22.63594246,9.035132408,-143.0990143,3.837236404,0.511139989,3.398186207,-14.51632118,12.65399837,-1.260950685
7.108048999999937,22.52296638,9.0426054,-143.1184235,-5.885492325,-1.991746306,10.29393959,-13.85150242,-0.514218628,-2.886788845
7.1163819999999305,22.39519691,9.14474678,-143.0517273,3.326766014,0.561876833,6.11692524,-17.37622833,13.88002586,2.179439068
7.124714999999924,22.30023003,9.229411125,-143.0687714,-8.105917931,-1.549079657,11.98773384,-11.72841549,8.167689323,-6.150964737
7.133047999999917,22.2558403,9.308390617,-142.9692383,0.557145178,0.915730655,16.81603813,-8.030743599,12.77428246,6.875758648
7.14138099999991,22.15250015,9.411414146,-143.0019989,-4.531437874,-0.617534518,14.8278656,-12.41897488,9.516459465,-8.685238838
7.1497139999999035,22.09181404,9.523396492,-142.8932343,-0.374059498,-0.280556321,7.95750618,-10.20944118,16.8317337,6.424922943
7.158046999999897,21.99171448,9.556271553,-142.946701,0.09059117,-0.185229897,8.130096436,-11.60641479,0.819527686,-7.763048649
7.16637999999989,21.89553452,9.650453568,-142.8678894,0.534742177,-1.669176698,7.996128082,-13.89965916,13.50208569,3.986498117
7.174712999999883,21.81420708,9.711587906,-142.9188538,-4.687602043,0.004823655,11.72748661,-9.390294075,4.102760315,-8.744508743
7.183045999999877,21.78936577,9.727469444,-142.8815155,-0.18149507,-0.040971406,10.48451138,-4.51733923,2.944689512,2.952220201
7.19137899999987,21.73060036,9.785928726,-142.9470673,-2.98370862,-0.426024348,11.33459568,-6.376497746,3.179188013,-10.21929932
7.199711999999863,21.68340492,9.750162125,-142.9437256,2.120316744,0.082248181,5.861021519,-6.510998726,-4.307302952,1.514518619
7.208044999999856,21.60181618,9.768460274,-143.0388184,-2.306799889,-0.132308781,9.755703926,-8.51636219,-2.566917896,-11.68171787
7.21637799999985,21.53955841,9.764082909,-143.0147858,-2.774913311,-2.185919285,12.42368031,-8.740692139,0.090956159,2.397851229
7.224710999999843,21.45998764,9.767999649,-143.1247864,-0.788902104,-0.178334966,11.93924427,-7.968781948,-4.791899204,-12.69391727
7.233043999999836,21.40997696,9.782435417,-143.1166992,-4.037056923,-2.279034376,11.07795143,-6.943955421,1.495487213,-0.184793919
7.241376999999829,21.25914574,9.731989861,-143.2138214,2.911747932,-0.99866128,11.98118782,-16.78504944,-10.27716351,-8.912615776
7.249709999999823,21.04983139,9.748851776,-143.2575989,-5.34301281,-3.327927589,12.83698368,-25.010149,-0.447749794,-5.999279022
7.258043000000043,20.79299927,9.733951569,-143.3332367,-0.71704191,-0.875225663,12.445117,-29.9411869,-5.324705124,-8.136382103
7.266376000000037,20.48122025,9.773818016,-143.3925018,-3.955791712,-4.38888979,9.93428421,-36.99137115,1.541364193,-8.683814049
7.27470900000003,20.06684303,9.669955254,-143.4950256,1.328446865,-1.420127273,4.792615414,-48.30462265,-16.35422516,-7.473161697
7.283042000000023,19.60649872,9.736956596,-143.5774841,-4.746798992,-4.249477386,17.55536079,-54.35745621,3.786460161,-12.34344387
7.291375000000016,19.02989388,9.70650959,-143.6598358,-1.085556984,-2.570410967,11.26718044,-68.18010712,-7.130175114,-8.400032043
7.29970800000001,18.38546371,9.774183273,-143.7690735,-2.205801249,-2.847591877,13.18836784,-75.90114594,3.082792044,-15.28223896
7.308041000000003,17.60197449,9.722636223,-143.8782959,-1.311314106,-3.938332796,7.189925194,-92.45644379,-10.33371925,-10.79170609
7.316373999999996,16.75473976,9.828266144,-144.0001678,-5.328955173,-1.425765514,25.39073372,-99.97225952,7.386163235,-17.95319557
7.324706999999989,15.7821579,9.897961617,-144.0966187,0.396876603,-5.011523247,-4.950725555,-115.3828888,4.372478485,-13.70827389
7.333039999999983,14.72676945,9.837245941,-144.2914734,0.712228656,-0.669968963,15.08537674,-123.4305649,-13.55584526,-20.74714279
7.341372999999976,13.59577656,10.01692009,-144.3900452,-7.725705147,-4.509808064,16.87970161,-134.3380737,17.59486198,-16.99126434
7.349705999999969,12.39928341,9.95498848,-144.5482178,3.875083447,0.932087004,13.69446182,-141.0804138,-11.91135788,-16.98199081
7.3580389999999625,11.1123333,10.11259747,-144.6729126,-5.340643883,-4.18695116,5.256342888,-152.4858093,15.05546474,-18.69784737
7.366371999999956,9.766422272,9.992554665,-144.8279266,3.976988792,0.687944531,14.01274967,-159.0553741,-17.95248985,-15.84246826
7.374704999999949,8.382469177,10.22547245,-144.9470215,-10.09545898,-2.777811766,19.32265854,-164.227005,24.92275047,-18.71743584
7.383037999999942,6.926877975,10.11032009,-145.0739594,6.782794476,-0.332806557,-0.760237634,-172.7774963,-16.15756989,-13.4587574
7.3913709999999355,5.428096294,10.17726517,-145.2438965,-6.681017399,-1.504222274,13.40564537,-176.9267426,5.366537094,-21.23734474
7.399703999999929,3.952140093,10.23539162,-145.348114,-0.916817725,0.942324758,11.58079815,-175.6930847,5.480111122,-13.28074265
7.408036999999922,2.439874172,10.25827217,-145.533783,-3.411216736,-0.446005344,19.97618103,-178.0447083,1.015325904,-23.1855011
7.416369999999915,0.890223086,10.32862186,-145.6464081,1.116287351,-0.768794417,5.126406193,-184.338913,7.585755825,-13.97778893
7.424702999999909,-0.687863052,10.27364922,-145.8636017,-1.789176583,1.162324309,8.805736542,-185.210144,-7.106363297,-26.99507141
7.433035999999902,-2.246652365,10.30472946,-145.9917755,-4.611307621,0.071793467,19.54447365,-185.1038208,3.651087523,-15.47196674
7.441368999999895,-3.833755016,10.36867142,-146.2050781,-2.630964994,-0.411512882,8.406988144,-186.3515015,8.586825371,-26.17158508
7.449701999999888,-5.366004467,10.36921406,-146.3737793,-0.474887699,0.418235481,6.885761738,-181.020813,1.195784211,-20.28630829
7.458034999999882,-6.948760509,10.28770828,-146.568573,0.579396009,0.8808375,11.08645821,-186.2133331,-7.600120544,-25.46883583
7.466367999999875,-8.556503296,10.26976585,-146.742569,0.123914577,1.82168901,9.579029083,-189.9994812,0.172722355,-21.08638191
7.474700999999868,-10.07805634,10.2530241,-146.9505768,-6.858332157,0.545768619,12.21391773,-178.6086884,1.726730585,-26.17789459
7.483033999999861,-11.4858551,10.20480442,-147.0830078,-1.284696579,2.649914265,15.68419075,-166.9072571,-3.224386692,-16.88471985
7.491366999999855,-12.91439152,10.11218357,-147.2884369,-0.835246384,3.948061466,13.48208809,-167.5757599,-5.967973709,-27.56232262
7.499699999999848,-14.32204437,10.07146454,-147.4067688,0.692761302,1.325485945,4.964976788,-167.22435,-1.922639847,-15.17782497
7.508032999999841,-15.64406872,9.980453491,-147.5966644,-2.082293987,-0.044772938,1.703149796,-155.2154694,-4.976557255,-25.8069973
7.5163659999998345,-16.79684639,9.881420135,-147.6911316,-3.077026367,2.606636047,14.43149757,-137.168335,-8.75689888,-14.48364544
7.524698999999828,-17.93614578,9.803557396,-147.8348541,-2.825577259,4.272819519,19.60155106,-134.3585052,-4.106784344,-20.07762337
7.533031999999821,-19.09153748,9.774708748,-147.9366913,-1.85934937,2.477130651,9.720736504,-137.3591461,0.075255878,-12.95962238
7.541365000000042,-20.16270828,9.680289268,-148.0415955,-0.08018522,0.868623674,3.589645147,-127.016716,-6.741571903,-16.55250359
7.549698000000035,-21.13449478,9.598485947,-148.1007843,-0.397585779,1.072482944,3.012222767,-116.2123642,-7.182946205,-10.45569134
7.558031000000028,-21.98934364,9.483171463,-148.1624451,-2.028095484,1.449208617,3.055566072,-102.0295715,-10.55320263,-12.54792976
7.566364000000021,-22.76152802,9.387076378,-148.1938019,-0.263316333,2.574016809,14.79404545,-92.83309174,-9.715106964,-8.262922287
7.574697000000015,-23.5360775,9.29591465,-148.2669983,-3.068671942,3.287888527,16.4492321,-92.22614288,-7.067648411,-12.80866051
7.583030000000008,-24.22177696,9.211615562,-148.2673187,-1.700478673,1.688953161,9.03502655,-83.06356812,-9.700874329,-4.569774151
7.591363000000001,-24.84415627,9.129067421,-148.3413086,-2.529200554,3.072858095,13.29732895,-74.07963562,-6.02807188,-12.09265804
7.5996959999999945,-25.39481163,9.025384903,-148.3260345,-1.795395494,-0.263180137,7.220167637,-67.15316772,-12.49883652,-4.083425045
7.608028999999988,-25.84197998,8.927688599,-148.3697205,-0.310275614,2.504104614,8.186859131,-53.65219879,-8.991095543,-9.762495041
7.616361999999981,-26.20970917,8.83932972,-148.3597717,-3.922095776,2.041284323,9.55599308,-45.09511185,-10.51098824,-4.031009197
7.624694999999974,-26.50522041,8.70677948,-148.3520966,1.014058232,3.076007366,12.73336506,-36.44422913,-15.40133762,-6.113959789
7.6330279999999675,-26.7947998,8.601690292,-148.3463135,-4.946141243,1.66108191,14.23638439,-35.6352272,-12.04450893,-5.482133389
7.641360999999961,-27.02729797,8.510577202,-148.3276062,0.426738799,1.204570651,4.379582405,-29.07715988,-11.48459911,-2.879260063
7.649693999999954,-27.19971657,8.454205513,-148.3368225,-3.244021654,-0.675177276,8.258441925,-21.30732727,-5.988008976,-4.496926785
7.658026999999947,-27.30654144,8.358481407,-148.3267975,-0.387574106,2.337929964,9.112927437,-13.79743195,-11.37048244,-4.348465919
7.6663599999999406,-27.38957977,8.277797699,-148.3135223,-2.868409872,0.809660971,16.07095146,-10.97515106,-9.788903236,-3.487801313
