,time,Euler_X,Euler_Y,Euler_Z,Acc_X,Acc_Y,Acc_Z,Gyr_X,Gyr_Y,Gyr_Z
0,0.0,-0.5416136086666666,6.342969735666667,-17.051625600000005,-1.618788878,1.3681990703333333,8.483639399,54.399548849999995,42.290302276666665,6.357206185666667
1,0.0083330000002206,-0.018560951333333336,6.751137574333334,-16.992131533333335,-2.4870583616666666,0.6117475303333334,9.953157108666666,61.33206685333334,48.414700823333334,7.068328698666666
2,0.0166659999999865,0.5709997116666666,7.180773099333334,-16.924764,-2.1451443833333332,1.0221747556666667,11.239779472999999,69.13735707666666,51.062412263333336,7.494739850666666
3,0.0249990000002071,1.2148619093333333,7.633741537666666,-16.8544057,-1.9132301410000003,0.939558819,7.659418583,75.54497019,53.95327250333333,7.265559196333332
4,0.033331999999973,1.9041618506666669,8.122448285333332,-16.786074333333335,-2.0727254946666664,0.6722841860000001,12.084524793333332,80.96582539999999,58.31107839,6.250303586
5,0.0416650000001936,2.648485581,8.616703669333333,-16.700993866666664,-1.890748501,0.4683817476666667,11.836853026666667,87.21140289333333,59.13480123,7.458229542000001
6,0.0499979999999595,3.4282453853333337,9.107467969333333,-16.62019603333334,-0.515347918,0.435725431,7.235708236666667,91.44254048666669,58.7882665,6.174598058000001
7,0.0583310000001802,4.227739413333333,9.628613153333333,-16.527707433333337,-2.059092482,-1.0176251726666667,10.743738172,93.51082611,62.598649343333335,6.486288070666667
8,0.0666639999999461,5.047738393,10.144380252,-16.427426633333337,-1.4877697426666667,-0.4050835173333333,13.043156306666667,95.70213317999999,62.118651070000006,6.5332849820000005
9,0.0749970000001667,5.877436160999999,10.66607253,-16.32414246666666,-2.000076016,-0.5790937243333333,10.448865251666668,96.70047251333334,62.95253880666667,5.917845407999999
10,0.0833299999999326,6.717873255333333,11.201132453333335,-16.215713499999996,-2.135828137333333,-0.7333367766666666,8.348737716666667,97.75920613666665,64.69095357333333,5.393689155333333
11,0.0916630000001532,7.548958460333334,11.725269953333333,-16.10317483333333,-0.7983121673333334,0.2736887496666666,13.132095336666666,96.42316945,63.52460352666666,5.049437046
12,0.0999959999999191,8.389688174,12.259448370000001,-15.989532466666674,-2.0770743289999998,-1.295291841,11.645298639333333,97.42673237999999,64.80290222,4.053203105666666
13,0.1083290000001397,9.238487561666666,12.784001986666667,-15.860399866666663,-0.9760800003333333,-1.0099662716666666,7.044979016,97.87665048999999,63.99389648333334,5.038961331
14,0.1166619999999056,10.041357358666668,13.339771906666668,-15.740079266666669,-1.960708519,-1.1368198393333333,9.096667449,92.44243621666668,67.58444722666667,2.4250215293333333
15,0.1249950000001263,10.829065323333333,13.883842786666667,-15.603871666666663,-1.7984783153333332,-1.9745338556666667,8.828852654,90.07304128,66.55465952666667,3.542949567333333
16,0.1333279999998922,11.557890893333335,14.475300473333334,-15.457695000000001,-1.4356602826666667,-2.017512798333333,15.180891038666667,82.514328,72.40832519666667,2.6245126823333336
17,0.1416610000001128,12.26834964666667,15.01816082,-15.322120666666668,-1.207018866,-2.0993302266666665,9.727368515333334,80.50844828333334,66.46142705000001,1.6884100000000002
18,0.1499939999998787,12.904408769999998,15.612736386666667,-15.1708679,-1.4946772156666668,-2.9447411696666665,9.737376052666667,70.88878631666667,72.92833201333333,1.2494183283333333
19,0.1583270000000993,13.498158773333332,16.157244363333334,-15.0434494,-1.8863717816666667,-1.960628311,7.974239349333334,66.46947733333333,66.44331359666667,-0.8825198806666666
20,0.1666599999998652,14.02337901,16.764169693333333,-14.877560933333337,-2.2478718756666667,-2.4368244806666666,9.379305045666667,56.75510152333334,74.75783793333333,0.9419656496666667
21,0.1749930000000858,14.511905033333335,17.298725129999998,-14.745119733333334,-0.04826993766666665,-1.1719019416666667,8.023890097666667,53.34809367,65.39825312333333,-1.3328708213333333
22,0.1833259999998517,14.93040689,17.882909773333335,-14.5842107,-1.7238521973333334,-3.0274227460000005,14.41832256,43.76574325333333,71.95221710333333,-0.29141944399999997
23,0.1916590000000724,15.323053363333335,18.37714831,-14.450330100000002,-0.6691714523333333,-1.662683574,9.836149216,41.49492518,60.71845118000001,-1.0257449946666668
24,0.199992000000293,15.659946759999999,18.95748774,-14.291676833333327,-2.112917324,-1.8904130063333333,12.294750613,33.730374016666666,71.39818064333333,-1.5079092583333333
25,0.2083250000000589,15.960387866666666,19.424662273333336,-14.165143333333338,0.7925485769999999,-1.6681190133333332,5.497326095999999,30.43099276,57.339333853333336,-1.7260856626666665
26,0.2166580000002795,16.210934956666666,19.9518617,-14.016047166666667,-1.9222180446666666,-2.106060783,8.386964638333334,23.419082006666667,64.92841084666667,-1.639894108
27,0.2249910000000454,16.408569333333332,20.38263194,-13.897877999999997,1.3683678306666665,-1.1967830756666666,11.485898337333333,18.221786820000002,52.83152898,-2.0355987546666667
28,0.2333240000002661,16.59425354,20.83181190666667,-13.759315466666669,-2.330068191,-1.6467903853333332,9.573917864999999,15.842536926666668,55.57769521,-0.644554297
29,0.2416570000000319,16.737174353333334,21.228022256666666,-13.644915266666667,1.0160794903333332,-1.1269179583333333,9.498775325333334,11.598028817333335,48.704542159999995,-1.6860735416666668
30,0.2499900000002526,16.850204469999998,21.54870796,-13.546318066666666,-0.9733915766666664,-1.76339674,9.543213844666667,8.646271942666667,39.49787394333333,-0.8348292213333331
31,0.2583230000000185,16.917928696666667,21.90329488,-13.44193776666666,-1.175670862,-2.315339446,13.560660682333333,2.8788126710000004,43.58084869666667,-1.5277298933333334
32,0.2666560000002391,16.956310273333333,22.169584906666667,-13.368764233333332,-0.2764647206666668,-0.47581681633333334,9.211543718666668,0.6985561846666667,32.415601093333336,-1.8089728156666667
33,0.274989000000005,17.001283646666668,22.457649866666667,-13.276163733333329,-2.106516679333333,-0.19288538899999996,9.008777936333333,0.5914768976666666,35.55018107,-0.5298181173333333
34,0.2833220000002256,17.013601936666667,22.725127536666665,-13.205182366666667,-0.4866723813333332,-1.403005878,11.810181301,-2.3932241600000004,32.47323036333333,-2.1753381493333332
35,0.2916549999999915,17.030965169999998,22.90670586,-13.140207933333329,0.20895421499999997,-0.5455203949999999,9.638987540999999,-1.5561080376666665,22.423053743333337,0.212636704
36,0.2999880000002122,17.026892343333333,23.108484266666665,-13.08888753333333,-1.0829143126666667,-0.14072454966666667,11.311644711666666,-3.5084259910000006,24.28981654,-1.9628967046666668
37,0.3083209999999781,17.017033896666664,23.25685692,-13.029891966666673,-0.9771745103333332,-1.0582041146666665,10.137989359333334,-4.568910598666666,18.42019335333333,0.7090022266666667
38,0.3166540000001987,17.02428945,23.382975896666665,-12.990971900000005,-0.9816457533333333,-0.22238460033333332,8.948880513333334,-1.5867339843333335,15.205760798,-0.5927264886666667
39,0.3249869999999646,17.01396688,23.54125659,-12.9324468,-2.0452193123333333,-0.47465128199999995,10.333525020333335,-4.627174774666667,19.540050348333335,0.295157254
40,0.3333200000001852,17.01016807666667,23.612966536666665,-12.908579500000002,0.19322923799999994,-0.16977437466666667,10.055277346666665,-2.189415196666667,8.479944547999999,-0.27458462133333333
41,0.3416529999999511,17.023211796666665,23.72871526333333,-12.850484233333338,-2.2667664690000002,-0.789075783,9.275591772666667,-1.8420096099999999,14.638264973333335,1.7459946473333332
42,0.3499860000001717,17.023647946666667,23.7948939,-12.827303566666666,0.18357676266666667,0.5004208436666666,12.068992613333334,-1.6883111696666664,7.816970348000001,-0.192619116
43,0.3583189999999376,17.045345306666665,23.840162913333334,-12.79449463333333,-1.699240327,-0.0006366739999999852,8.871160507333334,0.4362573823333334,5.747267206,1.586605478
44,0.3666520000001583,17.06862131666667,23.92074203333333,-12.770502733333336,-1.6430043380000001,-0.9656077323333333,11.510241508333332,1.0132181546666665,9.496679385666667,-0.622976698
45,0.3749849999999242,17.098576863333335,23.939567566666668,-12.746910100000003,-0.538695852,0.3810028283333333,10.869112968333333,1.8630303343333334,2.416506588666667,1.5240683506666663
46,0.3833180000001448,17.137626646666664,23.989351906666666,-12.733683266666665,-2.0757030249999997,-0.46780040833333336,10.019032954666667,3.4517231783333333,5.629172642333334,-0.6388617156666667
47,0.3916509999999107,17.167057673333332,24.030687333333333,-12.702565499999997,-1.0079012113333332,-0.972011487,12.5266037,1.399096807,5.235580760333334,1.470522066
48,0.3999840000001313,17.20980708,24.03282483,-12.697825099999998,-1.7672862806666665,0.35796714133333335,9.257346789333335,4.299264431,-0.11770391366666644,0.16945946466666664
49,0.4083169999998972,17.248191196666667,24.09689967,-12.666086866666666,-2.050410250666667,-0.6504266363333333,10.995301883333335,2.4689436556666666,7.874624887666667,0.7317347526666667
50,0.4166500000001178,17.290626526666667,24.081279753333334,-12.666099566666674,-0.6727850859999999,-0.160932958,11.299564522333334,4.484685977333333,-2.3076035179999996,0.27958357333333334
51,0.4249829999998837,17.35207812,24.115494413333334,-12.645431533333332,-2.100382546666667,0.213177219,8.977531116666666,5.784924109666666,4.098943631,0.65434132
52,0.4333160000001044,17.402626036666664,24.128625869999997,-12.64011126666667,-1.7106316883333335,-0.3604174953333333,12.857025146666667,5.221299807333334,1.1743743420000001,-0.20824799500000002
53,0.4416489999998703,17.482407886666667,24.12983958,-12.621846533333331,-1.198372235,0.03106074799999999,8.935482979666666,8.074904917666666,0.2328336236666666,1.5879290500000003
54,0.4499820000000909,17.562693913333334,24.17391904333333,-12.596084600000006,-2.8479845323333333,-0.20055775233333337,11.490159987333334,7.766843001000001,5.377879778666667,0.8052347896666667
55,0.4583149999998568,17.630890530000002,24.168120700000003,-12.58690136666666,-0.20494083566666665,-0.24981026100000003,10.253387609666667,7.147412935666666,-0.8508025806666666,0.869808177
56,0.4666480000000774,17.726900733333334,24.192282993333333,-12.553133633333331,-2.7854652403333335,-0.450953049,9.428494296,9.270860672333333,3.371351561333333,2.382218162333334
57,0.4749809999998433,17.785509106666666,24.219046276666663,-12.539095533333338,-0.7426238123333334,-0.15565123133333333,12.875653586666667,5.7580124139999995,3.0379044233333334,0.16267178466666665
58,0.4833140000000639,17.8754495,24.19801457666667,-12.511113466666666,-1.6413421023333334,-0.462488676,8.668025650999999,8.853161017333333,-1.9617516199999994,3.4513993263333336
59,0.4916470000002846,17.956366220000003,24.24739774,-12.490267433333338,-1.9160342813333333,-0.11946941433333332,10.253546716,8.078534603333333,5.8376690553333335,0.026007016333333317
60,0.4999800000000505,18.044952393333332,24.208055496666663,-12.476697266666662,-1.0884880026666666,0.3270435533333333,10.973242759666666,9.364113172333333,-4.545221011,2.599213520333333
61,0.5083130000002711,18.131324770000003,24.232236226666668,-12.470369966666667,-1.6825803519999998,-0.566071442,9.391654015,9.484072686,2.488867005,-0.5262957216666666
62,0.516646000000037,18.21650187,24.23211225,-12.457252500000005,-1.2700363,-0.5167247976666666,12.59639295,8.971685092666666,-0.08031767633333324,1.0744317810000001
63,0.5249790000002577,18.303809483333335,24.223704020000003,-12.462275199999999,-1.8052573596666666,0.8781481683333334,8.988275846,10.156450270333332,-1.611438672,-0.4853427513333333
64,0.5333120000000235,18.41688474,24.238691966666664,-12.442181899999994,-2.040044347333333,-0.5774149436666667,10.338027001999999,12.020236333333331,1.9062585433333332,1.2488947336666667
65,0.5416450000002442,18.519828796666665,24.25188446,-12.434036266666672,-1.568073968,-0.336065348,11.294000149333334,11.343846000000001,1.2844471136666669,0.03306370199999999
66,0.5499780000000101,18.646334966666668,24.238457996666668,-12.411257433333333,-1.611053124,-0.21354233199999997,9.062018713666665,13.466686566666667,-1.2438096990000005,2.6162300903333335
67,0.5583110000002307,18.73693657,24.286687213333334,-12.388231933333339,-1.639957269,-0.5233881306666667,12.269197304999999,9.162042299666666,5.811175664333334,0.2131787786666667
68,0.5666439999999966,18.851125083333333,24.225851696666666,-12.376408900000007,-1.2896112206666668,0.2981390083333334,9.314895948,12.530948959999998,-7.003165245666666,3.3193668523333333
69,0.5749770000002172,18.955316540000002,24.299374896666667,-12.34052276666666,-2.5852054756666667,-0.8396561886666666,10.698816059666667,10.172037124000001,9.141944091,0.5619081256666666
70,0.5833099999999831,19.060653050000003,24.25760968333333,-12.322911566666667,-0.4121254780000001,0.008418847999999979,11.755316574666665,11.212403297333333,-4.600620588,3.1714184283333338
71,0.5916430000002038,19.152193703333335,24.28766632,-12.306429533333338,-2.255617324666667,-0.8327366906666667,8.886507947666667,9.580920217666666,3.502965171333333,0.25377302366666665
72,0.5999759999999696,19.231259666666666,24.28032620333333,-12.297167433333328,-1.1371378503333334,-0.24690538633333334,12.02830855,8.429227668666666,-1.0054575596666664,0.926748733
73,0.6083090000001903,19.302783966666667,24.2568175,-12.302691133333331,-1.706736982,0.07700842900000003,9.605251313333333,8.302979310333335,-3.33513101,0.10586373999999998
74,0.6166419999999562,19.38535563,24.270399726666668,-12.283157366666671,-1.8381316960000003,-0.634275633,10.408602713333332,8.354275703666666,1.7389502526666665,1.17644916
75,0.6249750000001768,19.44802602,24.2590154,-12.29440306666667,-1.7750821213333332,-0.06865903699999998,11.98984591,7.518939337666666,-2.168663661,-0.9818662303333333
76,0.6333079999999427,19.518719356666665,24.240257260000003,-12.287295,-1.2322135666666667,-0.1948260763333333,9.413874625333333,7.576558113,-2.3423962196666666,1.2030366209999999
77,0.6416410000001633,19.58853149333333,24.231609343333332,-12.298940000000002,-1.939455529,-0.3189474446666667,10.189915973666666,8.36371867,-1.8979852199999998,-1.1356029013333335
78,0.6499739999999292,19.643148423333333,24.22022438,-12.292243966666666,-1.7173955043333333,0.0012087936666666614,11.814990996666667,5.627131621,-1.5462930986666665,0.8427212413333334
79,0.6583070000001499,19.710419973333334,24.183546066666665,-12.306783033333332,-1.3312793723333334,0.05993889766666668,8.533051647999999,8.245548407333333,-5.147505600333333,-0.27152804533333336
80,0.6666399999999157,19.759119673333334,24.205319723333332,-12.300954200000007,-2.403698961,-1.1665714183333333,12.573344706333335,4.959560791666667,2.171465079333333,-0.5913771959999999
81,0.6749730000001364,19.81277021,24.134967166666666,-12.320627833333338,-0.41329606366666677,0.8038659416666668,9.843865237000001,6.8554674780000004,-9.139074721333335,0.557574966
82,0.6833059999999023,19.85325177333333,24.13676579666667,-12.326471966666668,-2.9221812336666666,-1.3379416466666667,9.974689684333333,4.606921037333334,-0.4875498413333334,-0.9387873906666666
83,0.6916390000001229,19.883576073333334,24.088434853333336,-12.337023433333334,-0.03682548133333333,-0.4093167583333333,12.238638877333335,3.548959434,-6.341300726333333,0.5594021283333334
84,0.6999719999998888,19.90955861333333,24.03138606,-12.361050933333331,-2.788514475,0.513156434,8.408526102000002,3.726735472666667,-7.834107083666666,-0.38860217700000005
85,0.7083050000001094,19.916053136666665,24.018438336666666,-12.375127166666664,-1.1737348236666667,-1.175349732,11.498195964333334,0.907742838,-2.450479985666667,-1.2361473343333333
86,0.7166379999998753,19.91865094666667,23.927712126666666,-12.417160033333326,-1.842823257,-0.17698799566666668,10.903606575,1.7844969830000001,-12.307732341333335,-0.8906583586666668
87,0.724971000000096,19.910449346666667,23.901292800000004,-12.435483300000001,-1.5069830816666665,-0.2030386816666667,9.564945063333333,-0.6451884010000001,-4.1286432799999995,-1.0969039996666667
88,0.7333039999998618,19.87868118,23.843877156666668,-12.473396299999996,-1.935495158,-0.9195995533333333,11.336414653333334,-2.510066976333333,-8.365050632666668,-1.8454248306666667
89,0.7416370000000825,19.842542013333333,23.791109719999998,-12.5016683,-1.7597296633333332,-0.1742555153333333,11.400792124333334,-3.5638753573333335,-7.503276189,-1.0609587533333333
90,0.7499699999998484,19.80432256,23.735846836666667,-12.542193066666664,-2.134818236,0.36514631866666664,9.253996214333334,-3.2011520763333334,-8.244014581,-2.2177148659999997
91,0.758303000000069,19.753959653333332,23.700094859999997,-12.570749899999996,-2.797922015333333,-1.3050720693333333,12.455897650000002,-5.220193624333334,-5.564799547,-1.7901746133333332
92,0.7666360000002896,19.700447083333334,23.639221826666667,-12.606099433333336,-0.66210634,-0.010199726999999992,9.577132542,-5.296516339,-8.685459774,-1.4728699773333334
93,0.7749690000000555,19.638353346666666,23.621376673333334,-12.6262207,-3.6582570076666667,-0.10920285166666666,10.633899371,-7.037063598666667,-3.224204938,-1.6399131663333335
94,0.7833020000002762,19.55609130666667,23.584058123333335,-12.655932133333337,-0.7129401959999999,-0.45093746966666665,11.820330299333333,-8.985773722333333,-5.783477784,-1.870129883333333
95,0.791635000000042,19.50257682666667,23.534390130000002,-12.688824966666667,-2.820966959,0.34162226366666665,7.910837490666666,-5.431956291333333,-7.319209418,-1.6788213250000001
96,0.7999680000002627,19.424879710000003,23.551045736666666,-12.693018600000002,-2.1708285413333335,-0.5161767700000001,12.967951773333334,-9.708979923000001,1.2347033833333334,-1.418409864
97,0.8083010000000286,19.343393963333334,23.477368033333335,-12.738802566666669,-1.332186292,-0.17528412233333338,9.629622142,-8.130536238,-10.476389247333334,-2.0735967156666666
98,0.8166340000002492,19.266539893333334,23.52443440333333,-12.731330866666662,-2.973759492333334,-0.8897255660000001,10.729042687333333,-10.169556299,5.105468432,-1.393226683
99,0.8249670000000151,19.17235883,23.455616629999998,-12.779584266666665,-0.23342434566666684,1.2901912433333333,11.262275535999999,-9.540446440666667,-10.009254933,-2.5800030279999997
100,0.8333000000002357,19.09669749,23.46617380666667,-12.798777266666661,-4.009461720666667,-0.8958440226666666,8.856784900666668,-8.702389875,0.03880564366666691,-2.6666683353333336
101,0.8416330000000016,19.00548935,23.465234753333334,-12.817237833333337,-0.947339222,-0.324547272,11.976611931333332,-10.659276646333334,-1.2660662320000002,-2.2114611466666667
102,0.8499660000002223,18.920445123333334,23.43843651,-12.8585866,-2.5119963089999997,0.6720536553333334,9.165801365333332,-8.814881961,-5.014816919999999,-3.505817493
103,0.8582989999999882,18.817058563333333,23.490088146666665,-12.857986466666665,-2.057812452333333,-1.3743500513333335,12.040925345333333,-12.989558536666665,5.420267740000001,-2.261127233333333
104,0.8666320000002088,18.711523693333334,23.436001463333337,-12.92404176666667,-1.1797721283333333,0.5409125883333333,10.113039177,-10.088268120666667,-8.978544554,-5.052670160666666
105,0.8749649999999747,18.61937396,23.49888166,-12.912106799999998,-3.468223715666667,-0.23340876700000002,10.132826883333333,-12.178020793333333,7.100289464666666,-1.4668722353333334
106,0.8832980000001953,18.4953715,23.48378499333333,-12.969251000000005,-0.5798604486666668,0.113583366,10.156031291666666,-12.691067380000002,-4.186413129333333,-5.663927713666666
107,0.8916309999999612,18.40626208,23.52350934333333,-12.963419600000003,-3.105716466666667,-0.9635041953333333,9.253685950666666,-11.567325590000001,4.228334863666667,-1.1724787913333332
108,0.8999640000001818,18.275773366666666,23.550417579999998,-13.005928033333339,-0.8337032050000001,1.1651109056666666,11.644633611333333,-14.208124159999999,1.1002267183333334,-5.776853402333333
109,0.9082969999999476,18.177166619999998,23.533674876666666,-13.026880900000004,-2.9165415366666667,-0.290688207,8.283402601666667,-11.381492617666666,-3.099506376666666,-1.802824259
110,0.9166300000001684,18.061458586666664,23.59761174666666,-13.039525333333335,-1.7569437026666666,-0.411480228,11.776812076999997,-13.86351744333333,6.365358353333335,-4.030679067333334
111,0.9249629999999344,17.958141963333333,23.54598808333333,-13.078971833333332,-1.3146536673333336,0.7212218443333333,8.794087093333333,-11.064418473666668,-7.70519225,-2.460986614333333
112,0.9332960000001548,17.861884433333334,23.63100687666667,-13.072624233333338,-2.5744892756666666,-0.5778098703333333,12.228418268333334,-12.402711550000001,9.455451489333333,-2.772754748666667
113,0.9416289999999208,17.759012223333333,23.58783531333333,-13.115811666666664,-0.6918129523333335,1.2224908473333334,9.286480425333332,-10.863165857333334,-6.880996386,-3.2197570799999995
114,0.9499620000001414,17.683774313333334,23.640388486666666,-13.108525566666671,-3.4231901466666663,-0.817096452,9.478799390333334,-9.958801587,5.755177736333334,-1.434512496
115,0.9582949999999072,17.589501700000003,23.62533442333334,-13.139623,-0.2144503993333334,0.521406164,10.678291002666667,-10.379192352333334,-3.2308743003333333,-3.0170710483333334
116,0.966628000000128,17.52675438,23.636404673333335,-13.150082899999992,-3.3493239876666667,-0.06266028166666666,8.565005777666666,-7.608359654666667,0.42468102833333293,-1.746348868
117,0.9749609999998938,17.427085876666666,23.64629936333333,-13.1742986,-0.371651684,-0.015259444666666696,12.528195698,-11.365933735666667,-0.14138984366666682,-3.224086642333333
118,0.9832940000001144,17.366092679999998,23.596914929999997,-13.208407099999997,-2.698861519333333,0.5655293166666667,7.757754325666667,-6.224171718,-7.246262233333333,-2.0413569606666666
119,0.9916269999998804,17.283450446666667,23.64713668666667,-13.211619066666666,-2.1090657013333334,-0.299816176,12.760647773333332,-10.360466322333332,5.146566389999999,-2.4608455296666665
120,0.999960000000101,17.2175045,23.566516876666668,-13.254524233333333,-0.9215047756666666,0.2886642316666667,7.850891033000001,-6.437572002333333,-11.134317399333332,-1.8932937579999998
121,1.0082929999998669,17.152750653333335,23.609015146666668,-13.255811066666666,-3.64178747,-0.6847710189999999,13.162293669666667,-8.274623711999999,4.352084797000001,-1.9420842726666667
122,1.0166260000000875,17.083349863333336,23.539656323333332,-13.294303900000003,0.2921033703333334,1.1867331663333334,8.256712434999999,-7.071190357333333,-9.696504592,-1.8803113503333335
123,1.0249589999998534,17.032999676666666,23.54752222666667,-13.311963399999996,-4.401045719666667,-0.4897800086666666,10.509275593,-5.757264931999999,-0.145838812,-2.4123615026666667
124,1.033292000000074,16.965475716666667,23.493922553333334,-13.343925466666667,-0.08032264299999999,-0.0012852610000000052,10.850225766666668,-7.135097821666666,-7.6560916893333335,-1.7729191976666667
125,1.04162499999984,16.91609001,23.46976789,-13.370862333333335,-3.5200030803333333,0.5728869436666666,9.540926933,-5.233189424,-4.137842973000001,-2.2692635856666663
126,1.0499580000000606,16.843090693333334,23.416343053333332,-13.407066366666664,-0.1918111693333333,-0.532089462,11.726987839333333,-7.629862308333333,-7.7922406183333335,-2.258497119
127,1.0582910000002812,16.79411697333333,23.354294459999995,-13.445500700000002,-3.593853791666666,0.07263201366666665,8.370098433333332,-4.611284256,-8.831243037666667,-2.1644029120000003
128,1.066624000000047,16.73233986,23.303320566666667,-13.480204266666666,-1.1635832986666668,0.014161268666666652,11.233447394666667,-6.3663638433333345,-7.459691664666667,-2.2092918756666666
129,1.0749570000002675,16.68661117666667,23.23275121,-13.508644100000007,-2.708140214,-0.11204195766666665,9.064945537666667,-4.703128655666666,-9.494807400666668,-0.8265544376666666
130,1.0832900000000336,16.612925846666666,23.194714863333335,-13.538955699999997,-1.6100003523333335,-0.02834681333333333,12.582959493333334,-7.983126244,-5.809503953666667,-2.207080642333333
131,1.0916230000002545,16.565139136666666,23.110593163333334,-13.56515756666667,-2.5356628496666667,-0.053914145999999975,9.175834020666667,-5.094096819333333,-11.002951306999998,-0.1448314536666667
132,1.09995600000002,16.492931363333334,23.096640269999998,-13.583714799999996,-2.253702869,-0.12276085233333332,10.646557014333334,-8.394893011666667,-2.6893067353333335,-1.8172919353333334
133,1.1082890000002408,16.452239353333336,22.989013036666666,-13.617780066666674,-2.465473056,0.8342482446666667,7.892729520666666,-3.850406090666666,-13.936688108,-0.192759993
134,1.1166220000000069,16.380405426666666,22.99974251,-13.6285909,-2.714062730333333,-1.091137638,13.671463490333332,-8.716291587999999,0.3966039049999992,-1.8340778349999998
135,1.1249550000002273,16.337018333333333,22.893824893333335,-13.6626104,-1.6783762476666666,0.40898694499999994,8.247407279,-4.1890427866666675,-13.739552179,-0.280467451
136,1.1332879999999932,16.264109296666668,22.94505691333333,-13.657946266666661,-3.4098878703333333,-0.30899406966666665,12.358064513,-9.535874365666666,5.562891003333333,-1.5390914279999999
137,1.1416210000002138,16.20696513,22.848130546666667,-13.695254,-1.1144422689999998,0.47799505800000003,6.908571205,-5.7275153,-12.825803636333333,-0.986203909
138,1.1499539999999795,16.14498202,22.88579496,-13.692807500000006,-3.755209272,-0.7939485906666667,12.596664824000001,-8.141796588333333,3.912707488,-1.2952692806666668
139,1.1582870000002004,16.074775696666666,22.803642910000004,-13.72701263333334,-0.9221012890000001,1.1356949113333334,8.467767636333333,-7.420979498666667,-11.008441288999999,-1.1879202623333331
140,1.1666199999999662,16.00299517666667,22.824725470000004,-13.724993366666661,-4.081594626,-1.14166075,11.777695862666668,-9.294765472666667,1.988902588666667,-0.7628431616666665
141,1.1749530000001869,15.922789253333335,22.776160560000005,-13.7537079,-0.105897044,0.22005075233333335,7.525576988,-8.888435046,-6.966795207333334,-1.7574870386666668
142,1.1832859999999528,15.850918136666666,22.76387087333333,-13.762583400000002,-4.171301444,0.40218934933333333,10.668287754666666,-8.774399756000001,-2.173888683,-0.807138761
143,1.1916190000001734,15.761440913333333,22.730775833333336,-13.789581299999995,-0.7170985040000001,-0.17744588666666664,9.870905718000001,-10.106472969,-5.143522738333334,-2.1057550309999997
144,1.1999519999999393,15.676581703333333,22.71457036,-13.804481500000003,-3.9508589903333333,-0.3970575096666667,9.779431343333334,-10.080555758333334,-2.8248575526666664,-1.3342285803333331
145,1.20828500000016,15.589260420000002,22.694595336666666,-13.818827333333331,-0.66415973,0.3175232906666667,9.411793391666668,-10.417980826666666,-3.228063901,-1.186084231
146,1.2166179999999258,15.49534416,22.67026138,-13.844215400000005,-3.0749911466666666,-0.132813719,9.541847546333333,-10.684044996000003,-4.071182489333333,-2.2071533403333334
147,1.2249510000001465,15.389426546666664,22.632947920000003,-13.874809266666668,-0.8377961913333332,0.173910834,10.712278048666667,-11.890980085666667,-5.712099869999999,-2.362251798333333
148,1.2332839999999123,15.260592780000001,22.59332021,-13.913195266666671,-3.1042623123333333,-0.07883036966666666,9.965676305,-14.261851626666667,-6.200845480000001,-3.133881022666666
149,1.241617000000133,15.144536653333333,22.51838748,-13.944419833333333,-0.9911656430000001,-0.430023094,8.776743254333333,-13.114008586666666,-10.095916667,-1.268400113
150,1.2499499999998989,15.004129726666667,22.48662948666667,-13.975524900000002,-2.949351668333333,0.3890822303333333,10.110154152000002,-16.01614666,-5.083412082333333,-2.643151024666667
151,1.2582830000001195,14.870305063333333,22.3881944,-14.014465333333339,-1.1269095340000002,0.42446088699999995,9.126787345666667,-14.873615263333335,-13.023166337333334,-1.4057437576666665
152,1.2666159999998854,14.711680096666667,22.373183566666665,-14.03581236666667,-4.060202280666666,-0.7732445796666667,12.451708552999998,-18.654803593333334,-2.8538116600000003,-2.1344221433333335
153,1.274949000000106,14.574389776666665,22.274764380000004,-14.077329,-0.9246575186666667,1.0145156780000002,7.937547605,-15.187710446666665,-13.087915501333333,-1.7499864496666666
154,1.283281999999872,14.426805496666665,22.278701146666666,-14.097625733333336,-3.5413496493333327,-0.11943607,12.125988163,-17.364138283333336,-0.6014610143333335,-2.600289722333333
155,1.2916150000000926,14.313431106666664,22.18263054333333,-14.142275499999997,-1.0540744066666667,0.9906443656666667,7.801113685,-12.207172075333332,-12.910403965333336,-2.229105433
156,1.2999479999998584,14.184828439999999,22.174641926666666,-14.157437666666661,-3.5071338813333335,0.22209830100000003,12.677107811666668,-15.337153436666668,-1.8536725046666669,-1.693332076
157,1.308281000000079,14.091783843333332,22.10015742,-14.184333766666668,-0.9292580483333334,0.9508097666666666,7.507891895,-10.566740671333333,-9.896278064,-1.0116258859999998
158,1.316613999999845,13.990366616666668,22.063073473333333,-14.202608766666666,-3.0399885970000002,-0.084616126,11.550144514000001,-11.93681113,-5.319688479,-1.1722100973333334
159,1.3249470000000656,13.91036161,22.018998463333332,-14.206657433333339,-1.2518361506666666,0.21140445266666666,9.409743308666666,-10.033298335,-5.742627342333333,0.5271368423333334
160,1.3332800000002862,13.828578313333333,21.939881003333337,-14.242446933333335,-2.834902922,0.942935109,8.748591424333334,-8.782726128666667,-10.667968989333334,-1.856486062
161,1.341613000000052,13.742769879999999,21.935771943333332,-14.240918500000006,-1.802396814,-0.46819798633333337,12.029526077,-10.996077857333333,-0.9539301013333336,-0.035309195666666605
162,1.3499460000002728,13.682607013333334,21.864072163333333,-14.288113899999999,-3.289698441666667,0.8260438643333333,8.05129822,-5.702049891000001,-10.113920010333333,-3.334517171
163,1.3582790000000386,13.614363033333333,21.870850243333336,-14.2856547,-1.4676549036666666,0.35208974333333337,11.265112720666666,-8.912453651333331,0.3510643639999998,-0.23509176600000004
164,1.3666120000002593,13.565789539999999,21.83103370666667,-14.337331166666672,-2.985402504666667,0.806643685,8.551287809333333,-4.124152382,-6.505550623,-4.7568583486666665
165,1.3749450000000252,13.539142290000001,21.82515208,-14.33622233333333,-2.1488451960000003,0.1693774623333333,9.155553816333333,-3.8502166273333334,-1.1608541803333334,-0.001080036333333349
166,1.3832780000002458,13.501655893333334,21.81861687,-14.369562766666666,-2.946061134666666,0.8304720423333333,12.390972773333333,-3.6053447473333335,-2.1299649476666667,-3.7305299440000006
167,1.3916110000000117,13.504731813333335,21.818873726666666,-14.359578466666667,-3.27724727,0.347562879,9.109855335,-0.6977660656666668,-0.22646315833333328,0.7962141433333333
168,1.3999440000002323,13.486022310000001,21.848868050000004,-14.391937266666668,-2.291689098,0.9843893846666667,10.575674057,-1.4159762463333332,2.148518246,-4.657876332333333
169,1.4082769999999982,13.500699679999999,21.865133286666666,-14.371991466666666,-3.0851007303333327,0.235070698,10.925965942666666,0.27707362166666655,1.9088761010000004,1.432215929
170,1.4166100000002189,13.500642776666666,21.906564073333332,-14.406059266666665,-2.4135624763333334,0.7613525786666667,9.143585839666665,0.8988846543333334,3.4387578966666665,-5.156158527
171,1.4249429999999847,13.497763313333332,21.91303444,-14.40945433333333,-2.370416234,0.14467450966666665,11.146299679333334,-0.7889312856666667,0.15897027666666683,-0.825508413
172,1.4332760000002054,13.484548253333335,21.97134717,-14.446868900000004,-2.9510533609999996,0.07904916033333331,8.395047506333333,-0.5174886486666668,5.332632383,-5.9891937576666665
173,1.4416089999999713,13.478518166666666,21.953608193333334,-14.458043400000003,-1.5887841580000002,0.49109191933333335,8.788287320333334,-0.8300166330000001,-2.8784419693333336,-0.9884449343333332
174,1.449942000000192,13.449487053333334,22.025808333333334,-14.484461466666668,-2.8612985509999995,0.629560113,10.091963768666666,-2.921308010666667,7.230511187,-5.19058458
175,1.4582749999999578,13.466102283333333,22.010359443333332,-14.48750306666667,-1.7155096829999998,0.01766964166666667,9.875818729333334,1.5322908856666666,-2.3913116443333338,-0.16962175566666668
176,1.4666080000001784,13.46203677,22.048240023333335,-14.49760436666667,-2.109908367,1.1115593013333334,7.632097562000001,-0.659374376,3.648599148,-2.464682986333333
177,1.4749409999999443,13.479764623333333,22.059179943333334,-14.489214566666666,-2.3889321486666666,-0.3397249726666667,10.350323199333333,1.1456435223333334,0.9865238766666667,0.3183294536666667
178,1.483274000000165,13.510157586666665,22.111454006666666,-14.464874233333333,-3.296104193,0.35725965099999996,8.689259052666666,1.9440482456666668,6.226778269,0.8670077123333333
179,1.4916069999999308,13.524171196666666,22.123523076666668,-14.439094533333337,-2.186654488333333,-0.04925152266666668,9.711279868,-0.10378884266666666,1.5603338976666665,2.1601339183333335
180,1.4999400000001517,13.531427703333334,22.21846072,-14.399846366666665,-3.089064002,-0.08855035899999997,10.529543240333332,-1.536068559,11.583877880666668,1.2620137333333334
181,1.5082729999999174,13.553686140000002,22.258682250000003,-14.364138300000002,-3.3407227990000004,0.46459500000000004,9.716673850333335,0.4575383863333333,5.1098403516666675,2.448332468666667
182,1.516606000000138,13.56792291,22.350156783333333,-14.325505566666664,-2.0875537410000002,0.327518046,7.912233194,-0.6803824156666666,11.164376892333332,1.2897408403333335
183,1.524938999999904,13.577542303333333,22.408908843333336,-14.295801766666662,-2.2113941313333334,0.31513543933333327,11.11679109,-0.8007479706666668,7.114909172333333,1.2650143706666668
184,1.5332720000001243,13.589909873333333,22.485942206666664,-14.275568633333341,-2.498051007666667,0.3928125896666667,7.887179534666667,-0.05641072966666657,9.007647674333334,-0.28870668000000005
185,1.5416049999998904,13.605384826666667,22.52290662,-14.251820900000004,-1.8828082433333335,0.8593333663333333,7.283984025333333,0.155166934,4.410618206,1.233637214
186,1.549938000000111,13.603746413333333,22.60850334,-14.236249300000003,-2.458602349,0.09129098066666667,9.497986318,-1.537084619,9.874032495,-1.0440747493333333
187,1.558270999999877,13.629941306666666,22.64224815,-14.217748033333331,-1.560561736333333,0.35780034966666663,8.782297452333333,1.6875426456666665,3.9070033873333334,0.763146301
188,1.5666040000000976,13.630756060000001,22.692728680000002,-14.202150966666665,-1.4344034223333333,0.534612899,8.272149880666666,-1.2499534213333334,5.7792677076666665,-0.057461331333333344
189,1.5749369999998637,13.647818883333334,22.71766789666667,-14.203257233333332,-2.169822772666667,-0.12750058366666664,9.446777661,1.4952225486666666,2.3678828676666663,-1.1047421096666665
190,1.583270000000084,13.670781136666667,22.742212929999997,-14.186703999999997,-1.9291789533333332,0.6994373996666666,9.063464164,1.3773499726666667,2.788241942666667,0.7853154043333332
191,1.59160299999985,13.681735673333334,22.734493253333337,-14.189921066666665,-2.1497761806666666,0.5320730493333333,10.907865207333332,0.8455129863333334,-1.5059889553333334,-0.41659849633333335
192,1.5999360000000706,13.698942183333335,22.749172213333335,-14.178494800000001,-2.546294441,0.15542452533333334,9.820444583,0.9057235716666666,1.49651591,0.5085577716666666
193,1.6082690000002913,13.719656943333334,22.703984576666667,-14.188474,-1.5318990053333332,1.283205668,9.406373023333332,2.3453631796666667,-6.0414677459999995,-0.07440496499999982
194,1.6166020000000572,13.732203166666666,22.71325938,-14.178629566666663,-3.0901206679999995,-0.023066851,10.331219674,0.4260799986666666,0.822170019,0.4922842383333333
195,1.6249350000002778,13.752392133333332,22.63661003,-14.195877099999995,-0.705523332,0.6502792043333333,9.503683567333333,2.610248706,-9.899881202333333,0.04220372933333331
196,1.6332680000000437,13.75097815,22.62495803666667,-14.194709800000007,-3.1648669293333334,0.03768973766666667,10.899022103,-0.8383538649999999,-1.8347988726666664,0.1601273616666666
197,1.6416010000002643,13.761585873333333,22.531183243333334,-14.219223033333341,-1.2776134806666668,0.8232612709999999,9.428261915,1.7837458846666667,-12.096968334333333,-0.25623599666666674
198,1.6499340000000302,13.752846396666667,22.476633073333332,-14.2197571,-3.1274364393333336,-0.5733237066666667,10.455438218333333,-1.6449974230000002,-6.890293279333334,1.2076470056666666
199,1.6582670000002508,13.73950259,22.408820473333332,-14.252588933333334,-1.6158483923333333,1.4563551346666668,9.317617575666667,-0.7151410380000002,-9.282433668333333,-1.910382429666667
200,1.6666000000000167,13.726731936666667,22.320943196666665,-14.253659566666665,-3.318751573666667,-0.18854384966666668,10.085166454000001,-2.0998170576666664,-10.789994367333334,2.1116378306666665
201,1.6749330000002374,13.693964323333333,22.28287379,-14.262486766666663,-2.1623530586666666,0.4603741863333333,9.909706433,-4.154327114333333,-5.1826845409999995,-0.18953688933333335
202,1.6832660000000033,13.670216556666666,22.20144399,-14.256912200000002,-3.8397269250000003,0.680631476,8.752533277,-3.707639694333334,-9.859648383666666,2.6500748393333335
203,1.691599000000224,13.621973673333335,22.202242533333333,-14.24929046666667,-2.2068493763333334,0.516264687,9.848248800666667,-6.765100479,-0.2267765989999999,0.47732978200000004
204,1.6999319999999898,13.572958946666667,22.17418671,-14.237884533333329,-2.9198079113333333,-0.07372701166666669,11.562401455666667,-7.0179551433333325,-3.495243232,1.7455419696666665
205,1.7082650000002104,13.512451173333334,22.187527340000003,-14.23781076666667,-2.930568218,1.3193671253333334,7.533518791666666,-7.883102098666668,1.0467391016666667,-0.67700994
206,1.7165979999999763,13.43235556,22.19185956,-14.236246766666673,-2.4364287853333333,-0.32730031,10.322850860333334,-10.302358468000001,0.0283976396666669,-0.23417391133333335
207,1.724931000000197,13.344640096666668,22.24276288333333,-14.227389033333338,-3.3553759260000002,0.5855368623333334,10.778816063,-11.544648965333336,5.655640639333332,-0.7648796436666667
208,1.7332639999999628,13.234265646666666,22.27907308,-14.222040800000002,-3.0277563733333337,0.13672731333333332,8.715721766,-14.101240156666668,3.8659100933333335,-0.7046988903333333
209,1.7415970000001837,13.119030953333334,22.36048952666667,-14.204030366666672,-2.4843708676666667,1.1477561416666668,10.651889484,-15.283467293333333,9.448462682666667,-0.5937765389999999
210,1.7499299999999494,13.009950320000002,22.421827316666665,-14.182449333333338,-3.1104463736666665,1.2591724,10.79696973166667,-14.688678423333334,7.190746147,0.38208321733333345
211,1.75826300000017,12.920211789999998,22.480980553333335,-14.167289733333334,-1.6510099963333331,0.8393273950000001,8.323413372,-12.094587008,6.7814038593333335,-0.2597540766666668
212,1.766595999999936,12.836497623333335,22.534976323333336,-14.153948433333332,-1.672964533,1.9262275296666667,8.418514888999999,-11.267315865333332,6.128172556333333,-0.2867771386666666
213,1.7749290000001563,12.759684246666666,22.583147683333333,-14.144371033333329,-1.7757190266666667,1.4388022623333334,11.597408293333332,-10.288160324333333,5.357602348,-0.554364423
214,1.7832619999999224,12.715940473333333,22.62825902333333,-14.13583123333333,-2.8666411239999996,0.4459810806666667,7.1275118189999995,-6.249451160333334,4.978340755333333,-0.5464798609999999
215,1.791595000000143,12.709347406666666,22.675718943333333,-14.106524133333329,-2.3782531023333333,2.057462334666667,9.859729926333333,-2.778790275,5.747527599333334,1.606426822666667
216,1.799927999999909,12.693120636666668,22.722899119999997,-14.095362366666672,-2.4137255349999998,1.1720329523333333,12.229867936666665,-3.0806882879999997,5.275491476,-0.32869897266666664
217,1.8082610000001296,12.712493896666667,22.760133106666668,-14.076794933333332,-1.9669260383333331,1.097291092,9.758703076000002,0.8332825503333332,4.296489477333334,0.7112988630000001
218,1.8165939999998957,12.750204086666665,22.781206766666667,-14.06821443333333,-2.246824423666667,1.1678105196666666,7.389421145,3.5213556686666667,2.155340393333333,0.09478531300000004
219,1.824927000000116,12.793874423333333,22.803014116666663,-14.046376533333335,-1.8018470603333334,1.5051773783333333,9.385445275333334,3.592396815666667,2.572296778333333,1.4614928563333331
220,1.833259999999882,12.831140836666668,22.847239176666665,-14.049502066666667,-2.7571885983333337,0.26148097699999995,10.982575415,4.009891827666666,4.5866521203333335,-1.7901449996666667
221,1.8415930000001024,12.908943809999998,22.897263210000002,-14.018938699999998,-3.1782734396666665,1.0263267953333333,9.681142331666667,7.2770988946666675,6.0826082223333335,1.6418129950000002
222,1.8499259999998685,12.97033596,22.95388667,-14.016400633333328,-3.618440071666667,0.44349331533333336,9.077265262333333,6.632508516333334,6.166380763333333,-1.5258573493333334
223,1.8582590000000887,13.043833096666667,23.032190323333335,-13.981681833333331,-1.900556326,1.6848498980000002,9.675746599333335,6.565979480666667,9.502481620666666,1.3098908366666666
224,1.866591999999855,13.106820106666667,23.09832573,-13.967905666666667,-1.7773573,0.818490565,9.589954215999999,6.295953353333334,7.553885660333333,-0.5992535950000001
225,1.874925000000076,13.195223490000002,23.14741834333333,-13.945330300000004,-1.2993657586666667,0.35655748833333334,6.388832172000001,8.917409498666666,5.789611736666667,0.7812895973333333
226,1.8832579999998416,13.263055166666668,23.184451423333332,-13.935640966666663,-1.768210113,0.669258823,6.923190752666667,7.0789384843333325,4.057752503333334,-0.2508574726666666
227,1.8915910000000624,13.321803413333335,23.220691046666662,-13.90921276666667,-2.805331349333333,0.4428076343333333,13.139979676666664,5.165546258333333,4.380422353666667,1.5278677939999998
228,1.8999240000002828,13.374382016666667,23.262997306666666,-13.9055837,-2.341778477,0.9434525370000001,8.512206397666667,5.518134594,4.512763143333333,-1.0699492493333336
229,1.9082570000000487,13.457199096666669,23.286345166666667,-13.888921099999996,-1.935543835,1.691637953,8.249389331000001,8.527491409,2.6343515959999997,0.8371500866666667
230,1.9165900000002691,13.538903873333334,23.303586323333334,-13.870620700000003,-1.0329176983333335,1.2655324936666668,7.8863719293333325,8.314860026,1.9628787736666669,1.184393823
231,1.9249230000000352,13.637750943333335,23.32727432333333,-13.862124099999994,-2.806042989,1.0779539943333332,9.739640236,10.834514777,2.46827354,-0.05606102999999999
232,1.933256000000256,13.741298036666668,23.35041427666667,-13.846318599999995,-2.0451743206666664,0.11658438566666667,8.452254136666665,11.060075124333332,2.597116867666667,0.7473551283333334
233,1.9415890000000215,13.843894003333334,23.381727220000002,-13.831298799999999,-2.795900424333334,0.743803829,9.394416650666665,10.966855524666665,3.5220394133333337,0.40348824866666666
234,1.9499220000002424,13.926009176666668,23.430390040000002,-13.821350099999995,-2.568300406,0.23134704166666667,9.436436016,8.760205585666666,5.410571973666666,-0.62401398
235,1.9582550000000083,14.030548733333333,23.4578832,-13.807268766666661,-1.964090625,0.664744844,9.965562502666666,11.251241841,3.0599497953333334,0.4009268783333333
236,1.966588000000229,14.11798509,23.45197486666667,-13.795249933333329,-0.7549041289999999,0.7099627453333334,7.470956007333332,9.295389969333334,-0.8852448463333337,1.1723722716666665
237,1.9749209999999948,14.195933023333332,23.47006098333333,-13.783859233333331,-2.1369807323333334,0.4562529423333333,10.060519536,8.186063608,1.8949721653333336,0.3692677393333333
238,1.9832540000002157,14.273574196666667,23.417305626666664,-13.78694663333333,-1.4248998759999998,-0.5265073476666666,8.025653998000001,8.856506823666667,-6.734214148,0.9622073766666667
239,1.9915869999999811,14.335569699999999,23.38715299,-13.772018433333335,-1.6288625203333333,0.9261891243333332,10.716554960333333,6.092577218999999,-3.622192463333333,2.163643221
240,1.999920000000202,14.371354740000001,23.32507642,-13.800231933333336,-3.1444580156666664,0.337488933,11.25014782,5.0209199983333335,-8.507462659,-1.4319425423333332
241,2.008252999999968,14.409433043333332,23.27035459,-13.809600833333334,-1.9304465653333331,0.8693353336666666,10.280424752,4.390784065,-7.133596698000001,0.3138469856666667
242,2.0165860000001885,14.427596093333333,23.150966006666664,-13.8540853,-1.738768508,0.5590689926666667,9.585217316333333,3.6711100736666666,-15.611202557333334,-1.4612711666666665
243,2.0249189999999544,14.439662613333333,23.09472529,-13.876887000000005,-3.289324522,0.7355318266666666,10.75186062,1.8931864993333332,-7.685411451666667,-1.064327116
244,2.033252000000175,14.43861135,22.954358420000002,-13.927207966666666,-1.0211171110000001,1.029789706,8.492811919666666,1.6103849486666668,-18.219124156666666,-1.4692458313333336
245,2.041584999999941,14.426678023333332,22.899133046666666,-13.937522866666663,-3.6299361886666666,-0.19712614033333334,11.088399490333336,-1.5692433713333334,-7.218693734666666,0.24477392466666667
246,2.0499180000001616,14.416106540000001,22.75751622333333,-13.983871466666661,-1.3386916816666667,1.9683120250000001,8.663237412333332,0.2586999136666668,-18.25485610666667,-1.0307939053333335
247,2.0582509999999274,14.39301459,22.685214993333332,-13.998191833333337,-3.5998676616666665,0.43591713400000004,9.118241786999999,-2.7174189290000004,-9.314523535666666,0.3384237686666666
248,2.066584000000148,14.361967723333331,22.58936119,-14.028335566666664,-1.8375724949999999,0.4932114893333333,10.392157077,-2.9634315173333334,-12.485086599333334,-0.6920028876666667
249,2.074916999999914,14.310369173333333,22.496915816666668,-14.05197906666667,-3.952532053,0.01957775166666668,8.376949390999998,-5.724232355666667,-11.919393023,-0.06353186566666669
250,2.0832500000001346,14.233233130000002,22.438569386666668,-14.074200966666671,-1.9010441303333332,1.701581915,10.675244329666667,-8.873818715,-7.913192069666667,-0.9865068793333333
251,2.0915829999999005,14.142841976666666,22.391836166666668,-14.09929909999999,-4.447433948333333,-0.4670746923333334,10.110290367333334,-10.307216326,-6.635368667999999,-1.5996435286666666
252,2.099916000000121,14.052800496666665,22.350633623333334,-14.103940333333336,-2.255964716,0.565286579,10.048969905666667,-11.235237599,-5.442176539666666,0.3872662786666667
253,2.108248999999887,13.914744376666667,22.326630273333336,-14.130867000000004,-3.147969444333334,0.8181356193333333,8.532031535333333,-15.947499276666667,-4.03194642,-2.485947410333333
254,2.116582000000108,13.781577426666667,22.30768458,-14.12185413333333,-2.3041451376666666,0.761121869,11.388392765333334,-17.024262426666667,-2.483881830666667,1.2013380526666666
255,2.124914999999873,13.634154323333334,22.298995973333334,-14.143702199999993,-2.943227092333333,1.0145455996666668,5.580412705666666,-17.315614699999998,-2.107659022,-2.391243179666666
256,2.133248000000094,13.503709156666668,22.28661728,-14.130144766666666,-2.0395244123333334,1.3105288346666668,9.038703601666667,-16.90499306,-1.6140046366666667,1.5068984826666665
257,2.14158099999986,13.346987726666667,22.294972736666665,-14.146375033333337,-2.197650035,0.7735513546666666,10.202877840666668,-18.686976753333333,0.04247694499999999,-2.2791083253333335
258,2.1499140000000807,13.22238954,22.29274368333333,-14.138598133333332,-3.4709920086666664,0.9762213329999999,9.898339271666666,-15.937494276666667,-0.5840133179999999,0.6003253856666667
259,2.1582469999998466,13.087069196666667,22.313542683333335,-14.157780966666664,-3.032366216333333,1.1691557366666667,8.232716719333334,-15.978252726666668,1.4308669966666665,-2.933761219333334
260,2.1665800000000672,12.96663316,22.300522486666665,-14.140314766666663,-2.4627248096666663,1.5749111969999998,10.907953896333334,-15.875924426666666,-1.6012016186666667,1.9412134486666666
261,2.174913000000288,12.811852136666667,22.336574553333335,-14.170522066666669,-2.1656755110000003,0.8820232003333333,10.153596399000001,-17.826219876666666,2.948899522333333,-4.533981323333333
262,2.1832460000000538,12.70101579,22.304312386666666,-14.165476466666666,-1.9182260036666667,0.9796063703333333,7.537261168000001,-14.153964360000002,-4.175513863666667,1.114518373
263,2.1915790000002744,12.55394141,22.317062376666666,-14.202669766666668,-2.0263458489999997,1.545340836,8.089027564,-16.577198346666666,0.07572835666666666,-4.666577101000001
264,2.1999120000000403,12.419882456666665,22.28640556666667,-14.220532733333338,-2.8138654229999998,0.7613725266666668,11.821704864333332,-15.901632943333333,-4.543628931,-1.4356696753333333
265,2.208245000000261,12.265396433333331,22.275224050000002,-14.269182866666663,-2.9328494866666666,0.2979255416666667,8.868615944333333,-16.944806736666667,-2.9792647359999997,-5.2835986613333334
266,2.216578000000027,12.113007543333334,22.221105573333332,-14.297274266666667,-2.217925359666667,1.7439080873333335,9.416590053666667,-17.629844666666667,-7.524119853999999,-1.9769456040000002
267,2.2249110000002474,11.919665969999999,22.213806786666666,-14.362558999999996,-2.7508371670000002,0.47681870066666665,9.032125472333334,-20.864575066666664,-2.887429833666667,-7.210141340999999
268,2.2332440000000133,11.747278213333333,22.139641443333332,-14.403322833333329,-1.3554693213333333,0.33024995533333334,7.960080304666666,-19.468573886666665,-10.161816917666668,-2.896548549333333
269,2.241577000000234,11.516688346666667,22.09985924,-14.47685753333333,-2.240971247333333,1.2513973316666667,9.028460344333334,-24.96885299666667,-6.8396503116666665,-7.349971294333334
270,2.24991,11.291382786666667,22.024041493333332,-14.538220700000002,-2.370711684333333,-0.111808886,10.115716298666667,-24.899030686666666,-10.791007518999999,-5.180068652
271,2.2582430000002205,11.043940546666667,21.954601923333332,-14.626548766666664,-2.682119131,0.839372337,8.387291590333334,-26.34270986,-10.591651598333334,-8.324354966333333
272,2.2665759999999864,10.769779206666668,21.872085569999996,-14.695472700000002,-2.4180447656666666,0.6910188126666665,11.937731105666666,-30.43448893333333,-11.692886986666664,-5.960834821
273,2.274909000000207,10.476075173333333,21.798306146666665,-14.798093166666666,-3.1831757623333328,0.7187785206666666,9.216017246333333,-31.29883639,-11.330033299999998,-9.901021957333333
274,2.283241999999973,10.163602513333332,21.709466296666665,-14.878122999999997,-1.9002469780000002,0.18233958866666666,7.609700044,-34.56074142333333,-12.607136726666667,-7.161014398
275,2.291575000000193,9.814601261999998,21.64305814333333,-14.979288733333334,-3.0397649606666666,0.25163723666666665,11.031275746666667,-38.02619171333333,-10.323554673666667,-10.029467899333333
276,2.2999079999999594,9.45178318,21.572484333333335,-15.071576433333334,-2.4123678206666668,0.6472647883333333,7.7456846236666665,-40.08877818,-10.592745146666667,-9.029335021666666
277,2.30824100000018,9.048165957333334,21.50605774,-15.189175933333326,-2.124702056333333,0.020975440999999966,10.300058998666666,-43.878041583333335,-10.491614659333333,-11.966544786666667
278,2.316573999999946,8.627511660333333,21.465789793333332,-15.286198933333333,-3.2082470256666666,-0.08020779266666667,10.80871773,-46.83577474,-6.956751743333332,-10.265203477666667
279,2.3249070000001666,8.186313947,21.408805846666667,-15.41580203333334,-3.0045068263333334,0.9788123766666667,8.667884191,-47.89909108333334,-9.402661323333334,-13.614846229999998
280,2.3332399999999325,7.713593483,21.369274776666668,-15.527811699999996,-2.77396663,0.13872787333333333,10.838285444666667,-52.44932174666667,-6.951135952333334,-12.043199856666668
281,2.341573000000153,7.225737730666666,21.327664693333332,-15.66110736666667,-3.322324991,0.26721092566666665,10.115847905666667,-53.34716415666667,-7.403630415666666,-14.418800353333333
282,2.349905999999919,6.729907513000001,21.271909713333333,-15.772491433333334,-2.5250117776666667,0.613125021,8.26716423,-55.27615483666667,-8.678678355333332,-11.841285706666667
283,2.35823900000014,6.182906151,21.22210502333333,-15.920567833333331,-2.34301277,0.631696771,9.126846471999999,-59.826305389999995,-8.31509606,-16.08728377
284,2.366571999999905,5.648229758,21.174853643333332,-16.02751413333333,-2.9254542986666667,0.22694407633333333,8.111355940666668,-60.137575786666666,-7.389427978333333,-11.603693006666667
285,2.374905000000126,5.071308612999999,21.094971973333333,-16.175682066666667,-1.5094769796666665,-0.265912883,7.908626079666667,-63.46386719,-11.617214838333332,-15.917339960000001
286,2.383237999999892,4.464745521666667,21.044052126666667,-16.295059233333337,-2.6397716203333332,0.04902246,10.137247403666668,-68.26145426333333,-7.720477185333333,-13.1202542
287,2.3915710000001127,3.829428593333333,20.95821317,-16.458531700000005,-2.4051324923333333,0.0040318059999999885,8.833351452999999,-69.84027862666666,-12.114671389999998,-17.815684
288,2.3999039999998786,3.156206051333333,20.853544233333334,-16.584762566666665,-2.0856540403333335,-0.9239642123333334,10.909332912666665,-76.00785573333333,-13.922509513333333,-13.662701606666666
289,2.408237000000099,2.415015379666667,20.75542640666667,-16.771736133333334,-2.6411182086666667,-0.3260424903333334,10.761998655,-81.61574809000001,-13.29833444,-20.681444170000002
290,2.416569999999865,1.6717043319999998,20.613151546666668,-16.907513966666667,-3.0453810889999997,0.09436334166666671,8.906518300333333,-84.05099487666666,-18.11716938,-14.902971266666666
291,2.4249030000000857,0.8401444553333333,20.479674656666663,-17.0951716,-1.4807966153333334,-0.305840435,9.657643477333334,-92.53069305333334,-17.00506846,-21.045120236666666
292,2.433235999999852,0.004551077999999986,20.3086675,-17.247105899999998,-2.3138537006666664,-0.5096226133333334,6.976734002666667,-94.54457092333332,-21.164988833333336,-17.227254233333333
293,2.4415690000000723,-0.913215041,20.10650825333333,-17.443079633333326,-0.444250107,-0.07645495733333335,10.895400684333334,-102.64755246666668,-24.603202183333334,-22.579500196666668
294,2.449902000000293,-1.8595323960000003,19.893973033333335,-17.608212766666668,-3.5746094386666667,-1.2629837696666666,12.01293278,-107.40316516666667,-25.56561788333333,-19.52008756
295,2.458235000000059,-2.844937563,19.610391616666664,-17.79326123333333,-1.4949070813333332,0.72592626,8.687830289333332,-111.39006806666667,-33.67041460666667,-22.585969289999998
296,2.4665680000002794,-3.879400650666667,19.364459993333334,-17.97194163333334,-3.492672840666667,-0.1834735073333333,12.059480510999999,-117.5962194,-28.78480593333333,-22.207725526666668
297,2.4749010000000453,-4.908174673666667,19.03150749,-18.137929299999996,-1.71743385,0.3760918376666667,7.461133321000001,-117.55158996666665,-38.93030802333333,-22.117109933333335
298,2.483234000000266,-5.989839553666666,18.705565136666667,-18.302447,-0.897015333,0.31466961433333335,12.091402369999999,-124.03605143333334,-37.67958005333333,-22.622015
299,2.491567000000032,-7.0821844736666675,18.327496210000003,-18.462504066666668,-2.961424310666667,0.04394246133333335,10.943661054000001,-125.62600453333334,-43.53080622666666,-23.552012763333334
300,2.4999000000002525,-8.179710865,17.91813469,-18.610173533333338,-1.7099221993333333,0.8111064633333332,8.980775832666666,-126.81446326666666,-46.96597544333333,-23.5133489
301,2.5082330000000184,-9.306526184333332,17.51524035,-18.746744800000002,-2.866090556,-0.02398065733333334,12.919238728666668,-130.8699239,-45.9484876,-23.087865193333332
302,2.516566000000239,-10.410289763333333,17.074012120000003,-18.87399036666667,-3.225017667000001,1.023248941,9.917820137,-128.5401179,-50.177134196666664,-23.720221836666667
303,2.524899000000005,-11.518154143333334,16.622144699999996,-18.979965200000006,-2.1859424513333336,1.3710280656666667,8.920981566,-129.90161643333332,-51.45601018333334,-22.57357152333333
304,2.533232000000225,-12.64099566,16.163883209999998,-19.079978933333326,-2.4435823363333333,0.5954533816666667,14.154480296666668,-131.9750061,-51.883702596666666,-23.06740125
305,2.5415649999999914,-13.743454933333334,15.696756363333334,-19.168874133333333,-2.6398728486666667,0.8239088356666665,12.150000253333333,-130.00865936666665,-52.766089120000004,-23.075800576666666
306,2.549898000000212,-14.824042319999998,15.197126706666666,-19.243886333333332,-2.094636261333333,1.2986890276666667,8.898384572,-127.8971278,-56.474740346666664,-23.48869768666667
307,2.558230999999978,-15.898741719999999,14.711795173333334,-19.296376533333333,-3.4966890016666667,1.0717341903333333,11.704284987000001,-127.97892506666666,-55.08123525,-21.601374306666667
308,2.5665640000001986,-16.97528966,14.227050463333333,-19.369766233333333,-2.9689327476666665,1.791498989,15.134144466666667,-127.60560863333335,-53.89171473333334,-24.92703437666667
309,2.5748969999999645,-18.00485166,13.75870355,-19.401596100000003,-4.041576385666667,0.5309724263333333,12.969319341333332,-123.26277156666667,-53.02341461333333,-20.720097226666667
310,2.583230000000185,-18.996264773333333,13.285668373333332,-19.448969500000004,-3.3271486363333334,2.1098076503333334,7.1349595390000005,-118.27413176666666,-52.59792073333333,-23.551567079999998
311,2.591562999999951,-19.947423936666663,12.834979693333333,-19.454274499999997,-1.8319875596666666,2.371427178333333,8.244625568000002,-114.62845613333333,-51.30836105,-18.907140096666666
312,2.599896000000172,-20.875891366666668,12.358582813333333,-19.474609366666666,-3.445766608,2.1166475216666667,13.085934956666668,-111.5280787,-53.27093633333334,-22.474903743333332
313,2.608228999999937,-21.748631156666665,11.922231673333334,-19.45391593333333,-2.5420854090000002,2.421285112666667,13.450476010000001,-105.87297566666666,-50.18496195666666,-17.06183147333333
314,2.616562000000158,-22.546943030000005,11.463360153333333,-19.432772333333332,-3.2984337010000004,3.4210437930000004,13.17120997,-96.94765472333332,-52.45904032333333,-18.75240008333333
315,2.624894999999924,-23.268268586666665,11.02919261,-19.380241400000003,-1.8616076110000002,2.2946229776666667,10.117470106,-88.41841634000001,-50.92296600333333,-14.879806516666667
316,2.6332280000001447,-23.900621413333337,10.604990005666666,-19.320269266666667,-3.1473825773333335,2.2405463456666666,9.766245209,-77.87276458666666,-50.00445683666667,-14.188326516666669
317,2.6415609999999106,-24.473396303333335,10.217709225333333,-19.2617213,-3.225313971333333,3.7159666216666665,13.829971946666666,-70.61947377333333,-45.746136983333336,-13.031688053333333
318,2.649894000000131,-24.966307956666665,9.811778386,-19.180567433333334,-2.3254415793333334,2.844163815,9.23618698,-61.47488911666667,-48.78163528333334,-11.955507913333335
319,2.658226999999897,-25.389822006666666,9.444483439333332,-19.119944266666668,-2.2866718176666665,2.044936577333333,11.841501870666667,-52.67170588333334,-43.459237413333334,-12.557683943333336
320,2.6665600000001177,-25.73590406,9.082884470333333,-19.02075703333333,-4.460825602333333,2.1134359836666667,11.949128786666668,-44.076182046666666,-44.728850050000005,-8.416785877
321,2.674892999999884,-26.036593120000003,8.787812868333335,-18.980402600000005,-2.7930075723333334,2.5034280816666663,11.904270174666669,-37.45712916,-34.47129694666666,-11.456996599999998
322,2.683226000000104,-26.272274653333337,8.466068585666667,-18.876800533333334,-3.695364753333333,1.636941711333333,11.161896388,-30.787046436666667,-40.593283336666666,-6.282473564
323,2.69155899999987,-26.454378126666665,8.215639273333334,-18.84792073333334,-1.8549720446666669,2.9447216986666667,10.441948573333333,-23.01120694333333,-29.044341403333334,-10.426462969
324,2.6998920000000908,-26.574267703333334,7.958093802333333,-18.765309666666667,-5.229157406666666,1.700499405333333,12.182729403333333,-16.41864554333333,-32.55229568666667,-5.30566593
325,2.7082249999998567,-26.64949417,7.758731683333334,-18.762893699999996,-1.8884243963333336,2.1049942573333333,12.902788796666668,-9.685281116666665,-22.046548843333337,-10.761874041666665
326,2.7165580000000773,-26.668237683333334,7.561286449333333,-18.705467233333334,-5.234383662333333,1.3993541596666665,7.775607109333333,-3.8214795986666665,-24.754393896666667,-4.818360090333333
327,2.724890999999843,-26.671836216666666,7.405563036666667,-18.719360366666663,1.0961756310000002,1.3028840423333332,8.166986307333334,-0.8638446430000001,-16.55854416,-10.020808063333334
328,2.733224000000064,-26.66077296,7.266642729333334,-18.7098287,-7.17668438,0.9392843146666667,12.478805540666665,0.532131663,-15.919897718333333,-6.749092420666666
329,2.7415570000002845,-26.64056714333333,7.147633393666666,-18.73085023333333,1.8434202273333333,1.1389277776666666,12.265200296666668,2.1114245653333334,-12.243808826,-8.808357555666666
330,2.7498900000000503,-26.600911460000003,7.009503364666666,-18.72450256666667,-5.839490413333333,0.8937271486666667,11.117757161999998,4.010429779666667,-15.670985220333334,-7.036509355333333
331,2.758223000000271,-26.556615193333332,6.877374967000001,-18.72116086666666,2.4548289776666667,0.6402642826666667,9.565066339,4.63859427,-14.969918408666667,-6.896569650666667
332,2.766556000000037,-26.519313173333334,6.754484653333333,-18.718457533333332,-7.0861299833333335,0.1632072463333333,10.301417352333333,3.7622666356666667,-13.838034948333336,-6.580400823666667
333,2.774889000000257,-26.483069736666664,6.640670299333333,-18.723492933333336,0.6198935696666666,0.750170678,13.381197929999999,3.8167179823333335,-12.49852101,-6.943751710666667
334,2.7832220000000234,-26.451535543333335,6.548144976333333,-18.7195511,-6.4190796216666675,0.5804377796666667,10.220775763333334,3.059877058,-10.6538798,-4.814452448333333
335,2.791555000000244,-26.408259076666667,6.419835567333333,-18.722297666666666,2.890921275,0.3596491613333333,7.850841841333334,4.612642641,-14.257651965666668,-7.3013646
336,2.79988800000001,-26.381068546666665,6.3192261059999995,-18.69846343333333,-5.3753023146666665,-0.23554436633333334,8.921259880000001,2.2875352303333334,-12.587303162666666,-3.104060848333333
337,2.8082210000002306,-26.381849923333334,6.178934733000001,-18.711308799999998,0.8140039643333333,0.20825177333333342,11.742145220333333,-0.5656820136666667,-15.011829695333333,-9.010128734333334
338,2.8165539999999964,-26.400466283333333,6.088202476666667,-18.696683266666664,-7.152407646333333,-0.4352850316666667,13.25153669,-3.0926894546666666,-11.039410272333333,-3.5593675769999997
339,2.824887000000217,-26.438826876666667,5.987888495,-18.7300237,0.4309824703333334,0.7632283966666668,12.806799887666665,-4.828361043,-9.615401902666667,-9.071236132666666
340,2.833219999999983,-26.48300489,5.882806778,-18.707074500000004,-3.550770640333333,-0.001364350333333375,9.938378653666666,-6.232602675,-13.028526942666666,-3.455963095
341,2.841553000000204,-26.541904446666667,5.768352667666666,-18.72836813333333,0.28115006299999995,-0.8617869416666667,9.787566503666666,-7.463908672,-11.75940037,-8.544752439
342,2.849885999999969,-26.626357396666666,5.652581532666666,-18.69074756666667,-2.3150520623333333,0.056640072333333326,10.248224414333334,-11.209164935999999,-14.957075436666669,-2.495924393
343,2.85821900000019,-26.740126926666665,5.530841986333333,-18.709571866666664,-2.978478749666667,0.003979044666666677,10.993700343666667,-14.118457793333334,-12.645261765333332,-8.703554313666666
344,2.866551999999956,-26.85611025333333,5.450888951333333,-18.685895266666673,-3.240053018,-0.6307395696666667,10.963179906333332,-14.809707956666665,-10.365977603666666,-2.0980371236666664
345,2.8748850000001767,-26.978473663333332,5.338972409666667,-18.696718866666668,-2.5720582106666665,0.867423932,11.995225427666668,-15.244833629999997,-11.985259693333333,-7.371322314333334
346,2.8832179999999425,-27.098413466666667,5.257437865,-18.666982033333337,-1.1013057033333336,0.31061550766666673,8.730382760333335,-15.322966576666667,-10.863270284333334,-1.58098795
347,2.891551000000163,-27.21253013666667,5.139348030333333,-18.64962513333334,-1.9564815163333336,0.2108782716666667,9.552838644,-14.56592846,-14.149414696666668,-4.755113681
348,2.899883999999929,-27.326257706666667,5.057202975,-18.626055433333335,-2.3631441690000003,0.565749993,10.434726398333334,-14.512539546666666,-10.591092267333334,-2.3141349950000003
349,2.9082170000001497,-27.446677526666665,4.973053455666666,-18.609486866666668,-3.726072470333333,0.13940871766666665,11.998550416666665,-15.333204270000001,-10.466181594666667,-3.017203529333333
350,2.916549999999916,-27.557973226666665,4.928039233,-18.624231966666667,-2.533605297,0.5608240266666668,12.768234570999999,-13.820090613333333,-4.516648769333333,-4.358664512000001
351,2.924883000000136,-27.658395130000002,4.873244126666667,-18.5934474,-2.729036063,0.33484721566666664,10.333542029,-13.052714982666666,-8.125618299000001,0.08119281133333327
352,2.933215999999902,-27.750606536666666,4.813432852333333,-18.61997223333333,-0.6602697373333334,1.4347013036666667,8.107170582333334,-11.410850523666667,-5.417787969,-6.44625934
353,2.9415490000001228,-27.831577936666665,4.758503913666666,-18.569610599999994,-2.4904596606666662,-0.6949764193333333,9.511106492666668,-10.898282371,-9.239751816,2.127385775333333
354,2.9498819999998886,-27.929992676666668,4.728212515333333,-18.616711933333338,-1.9637607336666665,0.4858040513333333,11.824600856666665,-11.974106150000003,-1.1119144756666666,-6.982027054666666
355,2.9582150000001093,-28.02324740333333,4.6868886949999995,-18.579615266666664,-3.9500256379999996,0.45886506633333335,13.375179926666666,-12.231563567666667,-7.064052262333334,1.459264517
356,2.966547999999875,-28.120984396666667,4.679408709333333,-18.64351143333333,-2.7834750016666665,-0.04322694000000001,11.514307339666667,-11.750706990666666,2.276363035,-7.465751965666667
357,2.974881000000096,-28.190457663333333,4.650455236333333,-18.62305956666667,-2.153630654,0.24226298933333332,7.953141053666667,-9.182137330666666,-4.833334128,0.396500071
358,2.9832139999998617,-28.266251246666666,4.646427869666667,-18.674911466666668,-1.3962557713333332,1.735191067,7.926892916666667,-9.243303616666667,1.9825335343333332,-5.992429733333334
359,2.9915470000000823,-28.349899929999996,4.622162501,-18.66143293333333,-1.4960289003333334,-1.0843945246666666,10.080681007,-10.808717728333335,-3.9439438186666664,-0.09342365500000001
360,2.999879999999848,-28.432522456666664,4.608438173666667,-18.69931793333333,-2.890143116333333,-0.7301702499999999,12.949696219666668,-10.208737533666667,0.18378643166666667,-5.0655439693333335
361,3.008213000000069,-28.506608963333335,4.610721429333334,-18.7053121,-3.585039416666666,0.9818382859999999,12.452465376666666,-9.500743071333334,-0.03474991533333357,-0.6355020923333332
362,3.016546000000289,-28.584953310000003,4.621322234666667,-18.744595833333335,-2.6786145366666667,-0.3491669693333334,10.656197389666668,-9.686873437333333,2.8427961269999997,-3.816517194
363,3.0248790000000554,-28.650906876666667,4.64892292,-18.775672900000004,-2.8556942343333334,1.0939289506666665,11.985976380333334,-8.269877117333333,4.067515055333334,-1.8056672610000002
364,3.033212000000276,-28.70202891,4.669143517999999,-18.797142033333326,-1.214152992,1.0226164226666665,9.154445965,-6.577305475666667,2.8409008183333335,-1.3893288313333334
365,3.041545000000042,-28.736924489999996,4.690725485666667,-18.832928966666667,-1.9880774023333334,-0.3651519680000001,7.670691172333332,-4.502414981666667,3.7054150500000005,-2.633062382666667
366,3.0498780000002625,-28.76482454666667,4.706396738333333,-18.84058636666667,-1.06542101,-0.10583190099999995,9.720714727999999,-3.9116397700000003,1.5642314753333333,-0.20196399099999998
367,3.0582110000000284,-28.79870160333333,4.714855035,-18.85252633333333,-2.6228601136666665,0.6072447843333334,13.883361816666666,-4.631834824999999,0.9589329016666667,-0.8841948213333333
368,3.066544000000249,-28.828682580000002,4.719793637666666,-18.871798200000004,-2.278946081666667,-0.09869013233333339,13.384547553333334,-4.052287181333333,1.1029276053333332,-2.033851266
369,3.074877000000015,-28.838406879999997,4.725092093,-18.877680466666664,-3.381272475,-0.09114969866666665,11.725907484333334,-1.7800099850000002,0.2729153806666667,-0.43224021300000004
370,3.083210000000236,-28.837348303333332,4.731775760333334,-18.8845571,-2.031500121,0.604185611,9.320697627,-0.46366890266666666,0.5789754986666666,-0.6352886256666667
371,3.091543000000001,-28.82112057666667,4.720583121000001,-18.892776499999997,-1.904813369,0.7372707326666667,9.212852319,1.3708523709999998,-1.3324141256666666,-1.6286471683333332
372,3.099876000000222,-28.806097033333334,4.70436732,-18.876584333333337,-1.669679165,0.03427069900000001,7.868270238333333,0.9917661946666666,-3.1589653490000003,0.4645697276666667
373,3.108208999999988,-28.79864502,4.682514667333333,-18.87856293333334,-0.5971937900000001,0.19636092566666666,12.222174010666668,0.25060552366666666,-2.8089597623333336,-1.593926827
374,3.1165420000002086,-28.78298759333333,4.649446010666666,-18.854120899999998,-2.874574820333333,-0.7992435793333333,14.0168616,0.9929106033333333,-5.411404927333333,0.3524690023333333
375,3.1248749999999745,-28.756106059999997,4.630181948333333,-18.851753266666673,-2.200851440333333,-0.4095262536666667,8.952897071,2.518523852,-2.7880794210000004,-0.979689022
376,3.133208000000195,-28.72409629666667,4.593243281,-18.82737476666667,-2.928930362333334,0.8196221586666667,9.365953923333334,2.9518016179999997,-5.8154427213333335,0.126444648
377,3.141540999999961,-28.707352959999998,4.569015662,-18.816777533333337,-2.559834083,-0.23759939266666666,13.33726438,1.2138457696666667,-3.778881033333333,-0.40450007699999996
378,3.1498740000001817,-28.686994553333335,4.556257486333333,-18.810239133333337,-3.0423217613333335,-0.36867284766666675,13.380796436666666,1.739872694,-2.2447034123333336,-0.3405583353333333
379,3.158206999999948,-28.646782556666665,4.523721138333333,-18.797897366666664,-1.8540623386666664,0.7218185563333334,8.402043821,4.0219645900000005,-4.759513656333334,-0.7017147886666666
380,3.166540000000168,-28.61301422,4.494335015666667,-18.78490703333333,-2.1433288256666665,-0.10360154,11.452659606666666,3.277998844666667,-4.364704211333334,-0.6213202676666667
381,3.174872999999934,-28.582640966666663,4.438896497333333,-18.763605733333332,-1.6669061183333334,-0.114646544,11.886870703333335,2.7725789543333335,-7.685616017,-1.0745557053333334
382,3.1832060000001547,-28.547665913333333,4.396963755000001,-18.740565000000004,-2.0900569756666667,0.20912843433333336,11.837222416666668,3.346303542333333,-6.262924354,-0.2793957936666667
383,3.1915389999999206,-28.510258993333338,4.348000764666667,-18.717775999999997,-1.8497704066666667,-0.5393417290000001,11.996260960999999,3.5972123566666667,-7.088129678666667,-0.5386161506666667
384,3.1998720000001413,-28.467174530000005,4.297604401666667,-18.680458066666663,-2.476057251333333,-0.07989055933333333,9.140276751333333,4.180798530666666,-7.972555319333334,0.7342362936666668
385,3.208204999999907,-28.435898463333334,4.247626304333333,-18.648111966666665,-2.1769070623333335,0.03478501233333333,11.146680513666666,2.7684381009999997,-7.739816665666667,0.4310235976666667
386,3.216538000000128,-28.418401720000002,4.211083809333333,-18.6171595,-2.5165439446666666,-0.431324979,11.223748366999999,1.1781780323333333,-6.149803002666666,0.8699235120000001
387,3.2248709999998937,-28.38487625,4.172084569666667,-18.583709699999996,-2.019000431,-0.04032147433333335,10.613855996666667,3.0488198796666666,-6.6445759136666664,1.1754030683333334
388,3.2332040000001143,-28.351884206666668,4.131797949333333,-18.560541766666663,-2.941119035,-0.07024871333333338,11.482595443666666,3.0931027333333336,-6.097405115666667,-0.15690428999999997
389,3.24153699999988,-28.322709403333334,4.095692714,-18.532880133333332,-1.689475775,-0.291743706,8.127698898333334,2.5867731569999997,-6.013996283,0.740025165
390,3.249870000000101,-28.313222886666665,4.062099615666667,-18.5132497,-2.6500181753333334,-0.20152714866666668,11.994145867999999,0.3205411633333333,-5.186921596666666,-0.1360116103333333
391,3.2582029999998667,-28.31368637,4.052214781333333,-18.5091858,-3.085076491,-0.446339369,16.164440156666668,-0.7597098350000003,-1.9063136179999998,-0.24932041266666663
392,3.266536000000088,-28.30632972666667,4.053744475,-18.505411800000005,-3.0158341726666666,-0.8616232176666667,10.250273704333333,0.20140878566666665,-0.5777078073333334,0.17468478766666662
393,3.2748689999998533,-28.297979353333336,4.057525635,-18.511466999999993,-3.9572427273333335,0.3685187076666667,8.979553859333334,0.3576429486666666,0.11758649333333333,-0.5412928163333334
394,3.283202000000074,-28.31873512333333,4.104105472666666,-18.537734999999994,-2.5748287836666663,-0.196611623,8.696414311333333,-2.920471163333333,5.8816604613333325,-0.420730874
395,3.29153499999984,-28.355904900000002,4.159298181666667,-18.56165823333333,-1.9948669873333333,-0.29340590533333333,11.207808972333334,-4.928303559333333,6.566218535,0.5054414966666667
396,3.2998680000000604,-28.383122763333333,4.241448958666667,-18.612281800000005,-2.2497073013333333,0.2793858983333333,11.153368952333333,-3.482810974,11.024453479666667,-0.9515219776666667
397,3.308201000000281,-28.40327771666667,4.325582186333333,-18.646787,-1.6516672373333332,-0.5789356133333333,9.246879102333333,-2.790219267,10.214958826333332,1.046768586
398,3.316534000000047,-28.427590053333333,4.413088878,-18.693031333333334,-2.493953943333333,-0.6214919586666666,9.182904561,-3.1624149483333333,11.342300413333334,-0.16528866666666672
399,3.324867000000268,-28.48777198666667,4.520020564666667,-18.75381466666667,-2.708724975666667,-0.4858688416666666,11.602698645333334,-7.339449087666668,14.115085286666664,-0.3931358856666667
400,3.333200000000033,-28.54232152333333,4.631164789333334,-18.81174976666667,-3.1139438150000003,-0.8394615253333333,13.507989883333332,-6.646754424000001,14.502928733333334,-0.02814145400000001
401,3.341533000000254,-28.578938166666664,4.727206548,-18.8727315,-3.4012041883333333,0.695043981,9.608692962333334,-4.511641263666667,12.981074650666665,-1.0154978833333332
402,3.34986600000002,-28.620939256666663,4.832612037666666,-18.936843866666663,-1.472951844,0.37698352333333335,7.9374848999999985,-5.043627262,14.243113833333334,-0.9719836116666668
403,3.3581990000002406,-28.660303753333334,4.917969385666667,-18.976409899999993,-1.1331902646666665,0.21585176366666667,12.095964750666667,-5.001423756333334,10.6323514,0.6409322816666666
404,3.3665320000000065,-28.682482403333335,4.986869017333333,-19.0252838,-1.3965831796666663,-0.20963917933333334,12.198188146666666,-2.810309251333333,9.528027851,-1.465539992
405,3.374865000000227,-28.696683246666666,5.021178722666666,-19.031107566666666,-1.9221593636666665,-0.37311545,6.826295853,-2.333247542,3.312150955,1.2490396846666667
406,3.383197999999993,-28.729142506666665,5.065619309666666,-19.054761233333327,-1.219613016,-0.490717952,12.732964198666666,-4.312809785333333,5.512892246333333,-0.2176059533333333
407,3.3915310000002137,-28.752672829999998,5.076267242666667,-19.065015166666665,-3.293620427333334,-0.09187333033333332,12.010432244999999,-3.4189454710000002,1.0719854036666667,-0.5719060503333334
408,3.39986399999998,-28.75970967666667,5.097219149000001,-19.0680669,-2.121621171333333,-0.07291735966666667,7.599775473,-1.4886139036666668,1.8553030493333331,0.5874752996666667
409,3.4081970000002,-28.78967158,5.078356742666666,-19.0672175,-1.5419964990000004,-0.15034290166666667,11.658321061,-4.285880724666667,-2.6640940509999997,-1.1178351443333334
410,3.416529999999966,-28.804261526666664,5.074769815,-19.060839333333337,-3.049324194666667,-0.7515494626666667,13.452581406666667,-2.486305594666667,-1.2688438196666667,0.15882958966666663
411,3.4248630000001867,-28.81342888,5.024394989,-19.05393473333333,-2.2595374186666666,0.261209647,8.711407660333334,-1.8532367943333332,-6.331458648000001,-2.311420123
412,3.4331959999999526,-28.840542476666666,5.003727277,-19.02431993333333,-2.0195326013333332,-0.6523934403333334,13.532541273333331,-4.217268626,-4.403595129666667,1.6053681373333333
413,3.4415290000001733,-28.859756466666663,4.942326863666667,-19.022789,-3.0598773956666663,-0.12173756433333334,11.908205033333333,-3.0165035726666667,-7.174295743333334,-3.519033591
414,3.449861999999939,-28.860069910000004,4.901726246,-18.97870636666666,-2.490482529,-0.04976053033333331,7.696921348666667,-1.1483672956666666,-7.340984345666667,1.9570899356666667
415,3.45819500000016,-28.88019561666667,4.841095765333333,-18.958455399999995,-1.9093165796666665,-0.16147538933333333,12.426520349999999,-3.3171842596666665,-8.174437998333334,-1.4981339376666665
416,3.4665279999999257,-28.88562711,4.798537254333334,-18.9242452,-3.260180314333333,0.10551019500000001,10.144953091333333,-1.6527245043333332,-6.9811221759999995,0.8103192253333334
417,3.4748610000001463,-28.874804813333338,4.744625727333333,-18.900032033333336,-2.0618415273333333,-0.24679072699999993,7.333115418999999,0.3555981913333333,-7.699668725333335,-0.6998406546666667
418,3.483193999999912,-28.889935813333334,4.710582733,-18.85685983333333,-2.3027534086666672,-0.25062337533333334,12.466879206666666,-2.8922359146666667,-6.600229581000001,2.2471711236666665
419,3.491527000000133,-28.888505300000002,4.682816187333334,-18.852839133333333,-2.759015133,-0.8629693589999999,11.214107831999998,-0.5654427446666667,-3.782944957333333,-1.304464499
420,3.4998599999998987,-28.87309392,4.668054898666667,-18.807647700000004,-3.2522991500000002,0.07513061166666668,8.669845263666666,0.7600042423333333,-4.696450710333333,3.572476784333334
421,3.50819300000012,-28.882255553333334,4.662585735666667,-18.79694876666667,-2.3314078649999996,-0.6059515176666667,12.061046916333334,-1.9088581973333334,-1.8197932440000002,0.6922290723333334
422,3.516525999999885,-28.876523970000004,4.685444673,-18.7915497,-3.3880627949999997,-0.8235013286666666,12.305488586666668,-0.0035431973333333033,1.5534266146666669,1.5866609810000003
423,3.524859000000106,-28.854811986666665,4.706376711666667,-18.785550433333338,-3.6903423469999996,0.12878573933333334,8.796459993,1.8368267863333332,1.2229260106666666,1.7240770506666665
424,3.533191999999872,-28.839708963333333,4.740298748,-18.780153900000002,-2.0925921996666665,-0.18118619899999996,11.765520731999999,1.1003063916666667,2.722929795666667,2.2263807453333335
425,3.5415250000000924,-28.809555053333337,4.780112584333334,-18.79779053333333,-3.2484982413333334,-0.4243458836666667,11.886435188333335,3.1002577046666673,4.566958109333333,0.34836636000000004
426,3.5498579999998583,-28.757063543333334,4.822761535666667,-18.795791633333327,-3.4561778706666666,0.16300363333333334,8.162790298666666,5.610473633000001,3.8356465909999997,2.3709091643333333
427,3.558191000000079,-28.719516119999998,4.863006115,-18.806765233333337,-2.2792555093333333,-0.429375917,12.246794386666666,3.9186877803333338,4.234878301333333,1.060570081
428,3.566523999999845,-28.662147523333335,4.910634517666666,-18.817738866666662,-3.3084367913333335,-0.226953834,11.554501216333334,6.3418289009999995,5.110731760666666,1.2929171123333332
429,3.574857000000065,-28.592757543333335,4.958122412333334,-18.837643933333336,-2.6969005266666666,-0.21031390633333333,8.041761239333335,7.829435030666666,5.503739357000001,0.529254165
430,3.583190000000286,-28.538868586666666,4.997040272,-18.8379771,-2.111500541333333,-0.42563553666666665,13.735589663333334,5.827392498666666,3.589407980666667,1.900482456
431,3.591523000000052,-28.471706389999998,5.039897759333334,-18.86940766666667,-2.7616770663333328,-0.551976065,11.222309430666668,7.689530374,5.6784710883333345,-0.9553256033333334
432,3.5998560000002726,-28.392400106666667,5.067604542,-18.86781313333333,-2.6690044006666667,-0.22492300500000004,9.031016667666668,8.856976509,2.2920430499999997,1.4424017266666667
433,3.6081890000000394,-28.332441966666668,5.105762799333333,-18.875152599999996,-2.5222098033333333,-0.7852110486666666,12.862357456666667,6.569616159,3.821404933666667,1.2947869303333333
434,3.616522000000259,-28.25807381,5.143651167333332,-18.890291833333325,-3.6236380340000003,-0.29000991333333337,10.335951804333332,8.438739301,4.320942958000001,0.25859306266666654
435,3.624855000000025,-28.18611780666667,5.189820766666666,-18.890164700000003,-2.554603974,-0.47301983833333333,8.488196055333333,7.928725083333333,4.2439893086666665,2.517290572333333
436,3.6331880000002457,-28.131245296666666,5.245402813000001,-18.89903006666667,-2.692165136333333,-1.1586242020000002,12.980719883333334,6.0337583226666665,5.847611268333334,1.9131871759999999
437,3.641521000000012,-28.056115469999998,5.316287517666667,-18.910982766666674,-3.335527817333334,0.0020488900000000068,7.854834079333333,8.441402913,7.5439481740000005,2.6340231496666666
438,3.649854000000232,-28.002758663333335,5.368491173,-18.923764566666666,-1.8331135513333334,-0.7138078223333332,8.708149592666667,5.900768597999999,5.707902272666668,1.2934122283333334
439,3.658186999999998,-27.95775159333333,5.464312076333333,-18.9345805,-2.9893151123333332,-1.257971292,13.452038126666665,4.830290873666667,10.132985274333334,4.148580293
440,3.6665200000002183,-27.891740796666667,5.527656078333333,-18.967483533333336,-2.4229915539999998,-0.019357283999999957,9.068126996,7.648710171666667,8.019272008666666,-0.22227191933333326
441,3.6748529999999846,-27.84260177666667,5.6286605199999995,-18.975893633333328,-3.181726137666667,-0.9181311180000001,10.916616282333331,5.305613915333333,10.552434923333331,4.671396970666667
442,3.683186000000205,-27.784831366666666,5.7167541186666675,-19.024004633333334,-2.2041951416666667,-1.0129026870000002,13.653181713333334,6.848350684,11.497334957999998,-0.4568982523333333
443,3.691518999999971,-27.704860686666667,5.800780773333333,-19.020673099999996,-3.646444916666667,-0.22555536,7.035007953666667,8.844622452666668,8.106232960333333,4.940705140666666
444,3.699852000000192,-27.670191446666667,5.898375193,-19.076538066666668,-1.7532743016666668,-0.9715861079999999,10.894895234666668,4.195936958,12.935149193333332,-0.7657889923333334
445,3.7081849999999577,-27.608750663333335,5.9845212299999995,-19.082293200000006,-3.314817547666667,-1.2192816236666666,9.839197478,6.735878625666667,8.840037344666667,4.080621481
446,3.7165180000001774,-27.570022583333337,6.060923258666667,-19.13944243333333,-1.806175252,0.09489578033333333,9.517477034,4.707307776,10.751533824333334,-2.093746116
447,3.724850999999944,-27.540049233333335,6.162820497999999,-19.16453806666667,-2.5844361386666663,-1.7082910536666667,9.220916910333335,3.2371015946666666,11.589204152666667,2.8946565786666665
448,3.733184000000165,-27.501885733333335,6.211128552666666,-19.2143682,-1.6121509573333332,-0.37085574899999996,10.653682707333333,4.551171223333333,7.356451033,-2.901883880333333
449,3.7415169999999303,-27.47761789666667,6.300169468,-19.22985586666667,-2.8706938823333332,-0.8702918193333334,12.456266083333333,2.4483627476666667,9.697619359,3.1889897186666665
450,3.7498500000001513,-27.428473789999998,6.357873281,-19.276906300000004,-3.067740758333333,-0.5891416593333333,8.821084658,5.844614267333333,8.202669819333332,-2.1011487643333333
451,3.758182999999917,-27.380116779999998,6.430153210666667,-19.275784833333333,-2.6891644200000004,-0.457289974,10.474493662333332,5.08946383,6.999576251,4.015185276666667
452,3.766516000000138,-27.332316716666668,6.4902707736666665,-19.3131612,-2.499209324666667,-0.8440032403333334,11.669938086666667,5.587378977666667,7.922236124666668,-0.9481109179999999
453,3.774848999999904,-27.24820963666667,6.552133559999999,-19.2920685,-2.4777783946666667,-0.505434898,5.2835230829999995,9.099031607,4.8101487553333335,5.539147059333334
454,3.783182000000125,-27.20516459,6.6004150710000005,-19.32108053333334,-1.5939891736666667,-0.7971237203333335,12.315139773333334,4.914885362000001,6.203776438999999,-0.7276448906666667
455,3.7915149999998894,-27.135866800000002,6.647065321666666,-19.30374396666667,-2.939852516,-1.0483135186666666,9.297664007333333,7.389648833666667,3.3954321543333337,4.290795167
456,3.799848000000111,-27.093725203333335,6.688655853333334,-19.320976266666662,-2.2987431683333335,-1.0610047973333334,10.837210974000001,4.641717752000001,4.854089657666667,0.1476745803333334
457,3.808180999999877,-27.052735643333335,6.755924225,-19.324640900000002,-3.818898678,-2.220546325,11.897766429999999,4.280113299666667,6.747874102333334,3.173552553
458,3.8165140000000974,-27.00700505333333,6.786839008333334,-19.33601636666666,-2.427022735,0.30508850000000004,9.990361849666668,4.977183262666666,3.3934381006666663,0.17932947466666668
459,3.8248469999998633,-26.98593330333333,6.880827744666667,-19.358006800000002,-3.132612387333333,-2.0051490066666666,10.802019198000002,2.169653654333333,10.594107944,2.6867836913333334
460,3.833180000000084,-26.927239099999998,6.905899047999999,-19.3521703,-2.0172988176666666,-0.418408488,7.905170759666667,6.259701410999999,1.8476530113333334,1.679213842
461,3.84151299999985,-26.910479863333336,6.976756413666667,-19.37378946666667,-2.125981132,-0.7108733850000001,12.758840243333333,1.6710901856666667,8.102825203666667,1.4512387116666667
462,3.8498460000000714,-26.861080169999997,6.994699001666667,-19.35988873333333,-2.6776609419999997,-1.8184728620000001,7.661381085666666,5.0369626683333335,0.6508151293333332,2.1411153076666665
463,3.858179000000291,-26.854387279999997,7.050412654666666,-19.361605333333333,-1.7612894376666668,-1.325723956,13.624137243333331,0.17298573299999997,5.415554126666667,2.734639942333333
464,3.866512000000057,-26.82890574,7.069903850666667,-19.354726133333333,-3.7812738416666662,-0.966064334,9.322405019000001,2.2749415633333334,1.1936403860000004,1.47494034
465,3.8748450000002777,-26.82501539,7.1352941193333335,-19.36536406666666,-3.05366834,-0.5800848006666667,10.104653041,-0.039565478666666674,6.928993066333334,2.315488537
466,3.883178000000044,-26.815402346666662,7.183869362,-19.370300299999997,-3.101216674,-2.0875304936666668,10.517629944000001,0.5481233596666666,4.9451403213333345,1.7933168013333332
467,3.891511000000264,-26.793554940000003,7.22469155,-19.375142433333327,-2.279928227333333,-0.028024147,8.408275287333334,2.0126685500000003,3.988204995666667,1.601611296333333
468,3.89984400000003,-26.800958636666667,7.301000277333333,-19.394302366666665,-2.6890959543333337,-1.2135265863333333,9.654301165333333,-1.253287375,8.677197613666666,1.785922646666667
469,3.9081770000002503,-26.78493754333333,7.3208944,-19.401156133333334,-1.7082656619999999,-1.63841184,7.787207046333333,1.337122922,1.856613676,0.2474164166666665
470,3.9165100000000166,-26.803367613333336,7.402199904333334,-19.41771443333333,-3.196239869,-1.2900233366666667,15.013254483333332,-2.5939877826666664,9.069932421999999,2.342135854
471,3.924843000000237,-26.79323705,7.438522974666667,-19.440635666666665,-2.8283339143333333,-1.012512803,6.7791006566666665,0.8605995176666665,4.480967403,-0.5731187659999999
472,3.933176000000003,-26.81159274,7.523543993666666,-19.467908233333336,-3.0135751566666666,-1.4356568256666666,12.535966237333332,-2.420630941666667,10.044828970666666,1.4049024183333334
473,3.941509000000224,-26.79120954,7.567156156,-19.494239799999992,-3.058341105666667,-0.7396887940000001,9.844583036333333,2.151796211666667,5.443390072000001,-0.5479570229999999
474,3.9498419999999896,-26.79030037,7.6529421803333335,-19.519106533333332,-2.4792279006666664,-1.1714381576666668,9.215697923,-0.14060068133333328,9.996290207666666,1.7063563266666666
475,3.9581750000002094,-26.76302782666667,7.703620751666667,-19.55443826666667,-2.0385675033333333,-0.6787586313333334,6.578995387,3.136599858666667,6.6867501423333335,-1.1230476896666668
476,3.966507999999976,-26.751301446666663,7.758832931666667,-19.571375533333327,-1.9681690930000002,-1.3734124503333334,12.877835276666667,1.040352146,6.290992796666667,0.8894201813333332
477,3.974841000000197,-26.731572466666666,7.836925188666666,-19.616511033333328,-3.700317939333333,-1.6036000150000003,11.336451053,2.4175019663333335,10.148455617333333,-0.6885918679999999
478,3.9831739999999622,-26.694223403333336,7.8886772789999995,-19.622586566666666,-1.7992201746666667,-0.3039098333333334,8.824318726,3.927054802666666,5.343223095,1.844890912333333
479,3.9915070000001833,-26.67170016,7.974216938333332,-19.680175766666665,-3.9061642486666663,-2.1089381773333336,12.171249627666667,2.9603573083333337,11.610755603666666,-1.6119340260000001
480,3.999839999999949,-26.606184003333336,8.024573167333333,-19.681442266666664,-2.0681930283333334,-0.20555724666666664,6.528863828666666,7.2283287849999995,4.936606009999999,2.274757544333333
481,4.00817300000017,-26.575828553333334,8.110877195999999,-19.73789976666666,-2.6918470263333334,-1.1767104143333333,9.743805009333334,3.9073580903333336,11.627788543666666,-1.4622613193333336
482,4.016505999999936,-26.511617023333333,8.139480432,-19.730776466666658,-1.3369701903333333,-2.2105679513333336,8.064071654000001,6.925851027333334,2.161034862333333,1.9926511050000002
483,4.024839000000156,-26.48513158333333,8.232459863,-19.775377899999995,-2.966818630666667,-1.0817052723333334,12.826224009999999,3.269674698333333,11.716167053666666,0.13733081999999994
484,4.033171999999922,-26.423969906666667,8.242218812333332,-19.76032256666667,-1.5481300003333331,-1.055871864,9.281736691333334,6.413992643,-0.28059530233333313,1.8158698876666666
485,4.041505000000143,-26.40962791666667,8.331757545333334,-19.8059769,-4.385167360666666,-2.308194756666667,12.315714676666667,1.825257977,11.400871435666668,-0.167918404
486,4.049837999999909,-26.364217120000003,8.347691853999999,-19.792419399999996,-1.607360691,-1.1901935633333334,7.218569914666666,4.535675446333333,0.4690225926666667,1.9848046699999997
487,4.058171000000129,-26.373737333333334,8.441559155666667,-19.84790803333333,-2.5944727260000002,-2.2929478883333334,9.446770060666667,-0.8401553633333334,12.387788293,-1.0022978783333334
488,4.066503999999895,-26.361027399999998,8.429645538333334,-19.839691166666665,-0.7696479556666666,-1.5066937210000002,9.752124307999999,0.7137107293333335,-2.2467010816666666,-0.06614460566666673
489,4.074837000000116,-26.395777383333336,8.503985087,-19.876858999999996,-3.691638854666666,-1.890105645,12.521142641333334,-4.182347814333333,9.325144606666667,-0.09621129433333338
490,4.083169999999882,-26.40074793333333,8.465007464000001,-19.847173066666667,-0.8294418256666666,-1.1192033886666666,6.559418806,-1.7922494413333332,-6.285140391666666,0.7719020943333333
491,4.091503000000103,-26.452357606666666,8.523726939999998,-19.884585033333334,-4.45359991,-2.0209350586666663,12.057451485666666,-6.217049598666667,7.651323318333334,-0.9393637973333333
492,4.099835999999868,-26.483886083333335,8.487867196333333,-19.8622996,-0.6795965433333334,-0.814848433,7.236801305,-4.8392973543333335,-5.559223970000001,0.14624021166666668
493,4.108169000000089,-26.54489009,8.538937250666669,-19.89327493333333,-3.7530206840000004,-2.430952231333333,9.940240681666667,-7.4486160266666674,6.4857127666666665,-0.645376404
494,4.116501999999855,-26.596301396666664,8.476775010333334,-19.859306333333336,0.659909089,-0.684908251,10.605064708666667,-7.414242267666666,-9.004766941333333,-0.031748838999999994
495,4.124835000000076,-26.665768940000003,8.487271785999999,-19.86015066666667,-4.45519793,-2.1995877426666666,10.167984327,-8.995382784666667,0.6363257963333333,0.17589719099999998
496,4.133167999999841,-26.734082540000003,8.429228941666667,-19.82252759999999,-0.09679818166666669,-1.2492269873333333,11.000143926333331,-9.494562626,-8.757710853333334,0.5603883166666667
497,4.141501000000062,-26.807484943333332,8.428508122666667,-19.825648,-5.281989097666667,-1.639009674333333,9.246304034666666,-9.473816077333334,-0.5510055213333335,-0.46870667233333335
498,4.149834000000283,-26.885711666666666,8.380018552000001,-19.8022461,0.16801251233333334,-0.35612120233333333,10.475455602,-10.420792579999999,-6.973394117333334,-0.4444625676666667
499,4.158167000000049,-26.951691943333334,8.35449632,-19.782371533333333,-3.72410659,-2.567024946,7.762772876666666,-8.990389188,-4.437445323333333,0.6140672713333333
500,4.166500000000269,-27.040325163333332,8.303879738,-19.748550433333335,-0.164052745,-0.317934839,13.817839306333333,-11.826049168666666,-7.766572195666668,0.5323707746666667
501,4.174833000000035,-27.127158480000002,8.255115986,-19.714597066666673,-4.379511992,-1.7251960039999998,9.658230303666667,-11.724769592000001,-7.681165694000001,0.8115403356666667
502,4.183166000000256,-27.22671763,8.219027201333333,-19.682070433333326,-1.5571193693333332,-1.9173132576666667,12.384001256333335,-13.118125913333335,-6.144444942333332,1.1650937399999999
503,4.191499000000022,-27.30144500666667,8.176708062333333,-19.652681999999995,-4.896451949999999,-0.9977674149999999,9.487537223999999,-10.197666327,-6.750276246666666,0.6569497683333333
504,4.199832000000242,-27.405366263333335,8.182193756000002,-19.638537099999997,-2.045388340666667,-0.7019328276666666,10.599667549333333,-13.325269380000002,-0.7153770113333332,1.5056096513333335
505,4.208165000000008,-27.486569083333336,8.157637596,-19.611770633333336,-3.64878273,-1.466169158666667,7.5482090306666665,-10.924248059666667,-4.718853313333334,1.3490979273333332
506,4.216498000000229,-27.584940593333332,8.163774331333334,-19.599484766666667,-1.681776166,-1.3285487096666666,10.861125945,-12.631829263333335,-0.551592189333333,1.3479409366666666
507,4.224830999999995,-27.66877619666667,8.182777087,-19.597340900000003,-3.6617686746666664,-0.54779612,9.055535634,-10.805917422666667,1.2588809793333329,1.1825497149999997
508,4.233164000000215,-27.7415568,8.197570006,-19.590016700000007,-1.3099680046666666,-1.503138423,10.989970842,-9.478970844666668,0.6355789493333331,1.2978819213333332
509,4.241496999999981,-27.816206613333332,8.245708465333331,-19.615837099999997,-4.614751339,-0.7036344753333333,12.544396082666665,-9.178636233666667,6.00564301,-0.323661508
510,4.249830000000202,-27.854146956666668,8.282728036333333,-19.623438500000002,-1.8378707566666665,-0.7361207406666667,8.838989417,-5.071384191333333,3.822258711,0.9757829013333333
511,4.258162999999968,-27.91497167,8.352956454000001,-19.680419900000004,-3.6850229103333336,-2.033649921333333,10.356158732333332,-7.005600768666667,9.976558368333334,-2.143335421666667
512,4.266496000000188,-27.939778646666667,8.393153985333333,-19.6872101,-1.6991066286666665,-0.1515415536666667,7.9146664929999995,-3.520062252666666,4.109722972666667,1.244962876
513,4.274828999999954,-28.00776609,8.488303502333332,-19.743631999999995,-2.9345277153333336,-2.5321174460000004,11.898391881,-7.839993795333335,12.590322335333333,-0.661214597
514,4.283162000000175,-28.017802556666666,8.531057198666666,-19.754465733333333,-1.1982863746666668,-0.28747010233333337,6.244252364,-1.675922522666667,4.605204858666666,0.967274631
515,4.291494999999941,-28.063069663333334,8.623947143666667,-19.79642486666667,-3.0182373523333332,-0.869666964,11.460126877999999,-5.341230551333333,11.540111898666666,0.7455963393333334
516,4.299828000000161,-28.05913225666667,8.668309211666667,-19.809148166666663,-2.2108702263333333,-1.95563066,9.939303079666667,0.031701604666666494,4.879048505666667,0.859519859
517,4.308160999999927,-28.08492724,8.758817672666668,-19.848347999999998,-2.6033346256666667,-0.7029513643333333,10.399830976333334,-3.0413111843333334,11.135609390333334,0.9078582896666667
518,4.316494000000148,-28.07301203333333,8.795514107,-19.8484675,-2.3965523246666667,-0.7468526849999999,7.599086283333333,0.7471122343333333,3.362384477333334,1.7472325563333335
519,4.324826999999914,-28.09176318,8.868481636,-19.88523353333333,-2.282097558,-2.1356265543333333,11.746261280333334,-2.2365413903333335,9.146669865,0.17295153933333332
520,4.333160000000135,-28.06308746666667,8.897569656333333,-19.877052333333328,-1.9305556216666666,-0.34998761599999995,6.0068817139999995,2.6141378383333334,2.092804113333334,2.1867727836666666
521,4.3414929999999,-28.06536674666667,8.958140055333335,-19.894432066666667,-1.8216747146666668,-1.7083239153333334,12.820139246666665,-0.5914413206666665,6.74846999,1.5016433596666665
522,4.349826000000121,-28.01791509,8.966405233,-19.891520200000006,-2.525903761,-0.7673184176666666,6.935297409666667,4.952034870666666,0.1852513946666665,0.4596602966666666
523,4.358158999999887,-27.999820709999998,9.028907140333333,-19.914098133333336,-2.278305185333333,-1.2315534750000001,13.181029,1.9553822873333335,7.24426651,1.0572149553333334
524,4.366492000000108,-27.93048223,9.010779380666667,-19.899658200000005,-2.3845737476666664,-1.6857080260000001,8.767206191,7.343330143999999,-3.2531461699999995,0.18121234566666664
525,4.374824999999873,-27.909037273333336,9.075501124,-19.931198100000003,-3.4685825109999997,-1.2290913463333333,12.213140568666667,2.5260295273333333,7.973359423333334,0.24418049033333336
526,4.383158000000094,-27.848151523333332,9.035716692666666,-19.903813700000004,-0.9879870216666665,-1.4108782013333334,5.366639178333334,6.076356053666667,-6.260496776666666,0.3202634106666666
527,4.39149099999986,-27.82546997,9.101458549666667,-19.940361033333335,-3.412678698666667,-2.3048176766666666,13.655256113666667,2.8110562563333334,8.460055353333333,-0.42825302233333323
528,4.399824000000081,-27.76098315,9.053929646666667,-19.90632376666667,-0.7069979113333332,-0.395882542,7.737613042333334,6.4027740159999995,-7.456817946666667,0.593264252
529,4.4081569999998464,-27.72652499,9.112357457666667,-19.93542736666667,-4.063819249333333,-1.7360965013333332,11.220008534000002,4.071229616666667,7.281551836333333,-0.08466786400000004
530,4.416490000000067,-27.640822093333338,9.050347963666667,-19.89232126666667,-0.041975497999999924,-1.375865996,9.166798987666667,8.806815147333333,-9.491104920666666,0.7583949466666665
531,4.424823000000288,-27.60113271333333,9.095573425333333,-19.920778900000002,-5.178003291333334,-1.597999851,10.959624134333334,4.650059381999999,5.839447816,-0.7698315880000001
532,4.433156000000054,-27.564175923333334,9.043812116,-19.883145666666664,0.06273647166666667,-2.007606347333333,9.510109881666667,3.084154705333333,-8.098927499333334,0.7717996253333332
533,4.441489000000274,-27.531776429999997,9.061731338333333,-19.901018766666667,-5.184593677333333,-2.4338679313333333,8.661766767333331,3.552225093,2.353009024666667,-1.190165440333333
534,4.44982200000004,-27.51224390666667,9.045362154666668,-19.884419800000003,0.03696884733333331,-0.526460111,8.554747424,1.4132013916666668,-3.1844949526666664,0.537356881
535,4.458155000000261,-27.474689483333336,9.04081885,-19.886624666666666,-4.28835543,-1.8444162606666668,8.565506935,3.848718802,-0.8871126166666669,-0.7931535816666666
536,4.466488000000027,-27.46723048,9.055634816666666,-19.892835,-0.24064065,-1.92632846,12.226138431666667,0.4412000576666668,1.3823235833333332,-0.12307214500000001
537,4.474821000000247,-27.445714313333337,9.015988031666666,-19.88894143333333,-3.4194077650000003,-1.3454331956666667,6.46762832,1.751787861333333,-5.073146820000001,-1.8844741433333334
538,4.483154000000013,-27.46534729,9.058819770666666,-19.90644326666666,-2.480567078,-2.2613097033333336,14.073818206666667,-2.599952817,4.986932753333334,0.2349895240000001
539,4.491487000000234,-27.43255615,9.016105334,-19.889320366666663,-2.8589825233333332,-1.2290649813333334,4.981893857333334,2.8825715783333337,-6.009707770000001,-0.875887677
540,4.49982,-27.449917476666666,9.084363619333333,-19.9359156,-2.7765555583333335,-0.659948756,13.123107752000001,-1.7933852276666666,9.280197143333334,-1.41307352
541,4.50815300000022,-27.409474053333337,9.052951812666667,-19.92802683333333,-2.173094541,-0.9085654813333334,6.244419297333333,3.9566146530000004,-4.410003026666666,-1.0164968173333333
542,4.516485999999986,-27.406347276666665,9.145593325333332,-19.979581200000002,-3.144771814333333,-2.295245687,11.519606628333333,0.7657592693333334,12.146347520666666,-0.5957532376666667
543,4.524819000000207,-27.369759239999997,9.106813112666666,-19.965716066666662,-0.6111559866666668,-0.8012886943333334,8.811565400333334,3.438412706,-5.418401720666668,-0.9946563643333333
544,4.533151999999973,-27.370992023333333,9.191635449333333,-20.012845366666667,-3.819335897666667,-2.626756708,11.498991967,0.13616116833333347,11.076920457999998,-0.5766148763333333
545,4.541485000000193,-27.343217213333332,9.170716920666669,-20.00282543333334,-1.063988288,-1.0309341950000002,9.641642172666666,2.4734343473333333,-3.3047955036666665,-0.40716819499999996
546,4.549817999999959,-27.34017181333333,9.241024336333334,-20.042561833333327,-5.066975275666667,-1.606840829,9.735761326333334,0.4735174576666666,9.124439875333334,-0.610314597
547,4.55815100000018,-27.325708386666665,9.254670462333332,-20.047218333333333,-0.2793161966666668,-1.6314782003333332,7.7899016523333335,1.202759117,1.1777042546666667,-0.036107560333333344
548,4.566483999999946,-27.304247540000002,9.304087319666666,-20.06641643333334,-3.67944327,-2.0064639446666668,8.703994601666666,2.263406078,5.787700334333333,0.39209002266666665
549,4.5748170000001664,-27.320327759999998,9.315953573333333,-20.088963833333338,-0.12805999333333343,-0.8724530936666666,11.916137376,-2.097652197,1.9526720050000008,-2.0089244843333334
550,4.583149999999932,-27.312304179999998,9.329577763666668,-20.090207399999993,-3.3104089496666664,-2.273694754,6.889131784666667,0.2925444666666667,0.9960371669999996,0.31278820333333335
551,4.591483000000153,-27.333157856666663,9.368869464666666,-20.116546633333332,-1.917116344,-2.5193633636666664,14.491799039999998,-2.6148426136666667,4.985329310000001,-0.7048696976666667
552,4.599815999999919,-27.30087789,9.328297934,-20.0925522,-2.801378329666667,0.155656055,6.5256908733333345,2.6841889323333334,-6.15521304,-0.024342124666666676
553,4.60814900000014,-27.31349373,9.394591968333332,-20.135442100000002,-3.1912775636666666,-2.2069670756666664,13.422749203333334,-1.263311356,8.863617896666666,-1.1493922269999999
554,4.616481999999905,-27.27331225,9.333121934,-20.0937907,-1.0444345673333333,-1.5790729919999997,7.355676016333334,3.300613085,-9.33857727,0.6851766306666668
555,4.624815000000126,-27.281047819999998,9.419406891666666,-20.139635733333336,-4.786456734,-1.3611927430000001,9.992219231,-0.6472630896666667,11.152437288666667,-0.3694682916666667
556,4.633147999999892,-27.26132647333333,9.377140364333334,-20.105326333333334,0.2514910299999999,-2.391156952,9.631542842666667,1.0369924406666666,-6.895220527666666,0.9779387516666667
557,4.6414810000001125,-27.258804960000003,9.442793529666666,-20.146166466666667,-4.973003526666666,-1.0736781956666668,8.743773243,0.44639253600000006,8.683269182666665,-0.9853540706666667
558,4.649813999999878,-27.260368346666667,9.447331428666667,-20.129641233333334,-0.4955550033333334,-1.8769330579999999,11.252266009000001,-1.1396413253333333,-0.9418052930000003,1.6836362830000002
559,4.658147000000099,-27.234466553333334,9.477938969999999,-20.144246433333326,-4.744910875666667,-1.989405791,8.737869660666666,2.7074167730000003,3.526673317666667,-0.16277003266666665
560,4.666479999999865,-27.26158587333333,9.547208469,-20.164108300000006,-2.189551274,-1.429627756333333,8.654184023666668,-3.449576298333333,7.936356226666667,1.4308326443333337
561,4.674813000000086,-27.259705226666668,9.565443358666668,-20.169113166666673,-2.540759245333333,-2.5189478396666662,8.177647431666665,-0.3843797050000002,1.6880022693333327,0.14657300499999995
562,4.683145999999852,-27.286525726666667,9.645984331333333,-20.194737733333337,-2.340008418,-2.1211023353333336,8.436931648,-3.3022433120000003,9.45057678,1.4499026263333332
563,4.691479000000072,-27.286097206666668,9.650403974666666,-20.187677999999995,-0.4680834613333332,0.6212003826666667,8.072131516333334,-0.7712403136666667,-0.44457832833333316,0.6762671273333334
564,4.699812000000293,-27.29870987,9.734956106666667,-20.207310966666668,-3.770863827,-3.214005391,10.506540456666666,-1.753687064,9.554699739999998,2.295069674666667
565,4.708145000000059,-27.30897967,9.741258303333334,-20.20167033333333,-0.5722055583333333,-1.556532542,9.204011917999999,-2.0138893126666666,-0.2666438423333335,0.8254699186666666
566,4.716478000000279,-27.315990446666664,9.791186015666666,-20.19602206666666,-4.881952444666666,-2.0272743303333334,8.677046141,-1.6446261206666666,4.490895589666668,3.036448478666667
567,4.724811000000045,-27.365178423333333,9.856716157333333,-20.22811636666667,-1.070492208,-2.0560455323333335,11.257251264666666,-5.888069430666666,8.103163722,0.12115109933333335
568,4.733144000000266,-27.38190333,9.872531572666666,-20.207244900000003,-2.337471654,-1.1973919666666666,6.291551113,-3.126913448,0.024026869000000655,2.753650268
569,4.741477000000032,-27.40943845,9.955471037666667,-20.230867999999997,-2.7014372943333336,-1.3093335776666666,10.720169862666665,-3.4506603476666666,9.588575046,1.8084078633333334
570,4.749810000000252,-27.422289533333338,9.971432367333334,-20.21088916666666,-1.74691242,-0.8996593206666667,10.476572992000001,-2.593377133333333,0.07736768333333337,2.672597716
571,4.758143000000018,-27.42493884,9.990489640333333,-20.2082494,-1.618046999,-2.0433216093333333,9.370649972333334,-1.0446424483333334,1.361874977666666,1.025239547
572,4.766476000000239,-27.44494057,10.034588494333333,-20.213839200000006,-3.2383547623333335,-2.619842569,10.789304257666666,-2.896496415333333,4.469492593999999,1.5533242823333335
573,4.774809000000005,-27.461276373333334,10.019214949333334,-20.198165900000003,-2.1822566983333336,-0.9531373776666667,10.184877871,-2.9409279823333336,-3.0214507183333335,0.4878572176666667
574,4.783142000000225,-27.471296943333332,10.042042732,-20.1954956,-2.5896280606666666,-2.540131489333333,9.679326058666666,-1.915778418333333,1.752521753,1.2472040656666668
575,4.791474999999991,-27.472174326666664,10.033745766666668,-20.188596099999994,-2.307810376,-1.110109667,9.422605673,-0.9561452966666669,-1.8898184299999998,0.1676579316666668
576,4.799808000000212,-27.48963483,10.00369517,-20.180870033333335,-2.6776337426666665,-1.6131729286666667,10.805239359333333,-2.885473489666667,-4.159722348,-1.1574987173333333
577,4.808140999999978,-27.469278333333335,9.946953454333334,-20.139968900000003,-2.2083893416666664,-2.004895687,8.181254227333334,0.9100312690000001,-8.792242369999999,0.8432505133333333
578,4.816474000000198,-27.477110546666665,9.933889072333335,-20.134231600000003,-3.5560710830000004,-2.784886837,7.849135796333333,-1.6827912333333332,-2.240042011,-0.42013323300000005
579,4.824806999999964,-27.47847493333333,9.878541946666665,-20.098620099999994,-1.590509057,-0.6929721733333333,11.035851956666667,-1.555245399333333,-8.358280339666667,0.3610881963333332
580,4.833140000000185,-27.480573653333334,9.833792686,-20.07945503333333,-1.4561940233333335,-2.287998358333333,7.398173966999999,-1.2897022563333334,-6.345495382999999,-0.7672572930000001
581,4.841472999999951,-27.45807266,9.799022673,-20.04858656666667,-3.801058610333333,-0.9945186476666666,10.226669946666666,1.3951690196666666,-5.910625537333334,1.0137643816666666
582,4.849806000000172,-27.456424076666668,9.773395219666666,-20.037256866666663,-1.965644772,-1.3469117183333335,11.388720196666668,-0.6332948776666666,-3.884040514,-0.5306159456666667
583,4.858138999999937,-27.42182096,9.712662695666667,-19.991190599999996,-2.4142994086666665,-2.0740393003333333,9.135680040333334,2.48972103,-9.602889457333333,1.3627758026666665
584,4.866472000000158,-27.409014383333332,9.706151643,-19.98496246666667,-2.5534714856666665,-2.477797548,9.279578606,0.7886323926666666,-1.568091035,-0.0035604636666666245
585,4.874804999999924,-27.391712823333336,9.678592046,-19.952916466666668,-3.6519021193333336,-1.7580174603333332,9.466458796666666,0.7769822573333333,-5.2070541383333335,1.5431510210000001
586,4.8831380000001445,-27.376902263333335,9.649769465,-19.93550876666667,-1.9166558983333333,-1.3999650876666667,10.956864833666666,0.7874032456666668,-4.554471651666667,-0.06512836633333323
587,4.89147099999991,-27.35390599333333,9.644971211666666,-19.92487336666667,-3.1301797629999997,-2.4956392446666666,9.856258550333333,1.8602724869999998,-1.6116816996666667,0.5486867626666667
588,4.899804000000131,-27.346714019999997,9.650022189333333,-19.931793233333334,-2.3599366346666666,-1.6601293083333335,11.197074890000001,0.3899295330000001,0.37757460266666626,-0.7489945093333333
589,4.908136999999897,-27.310385386666667,9.628265380666667,-19.89672596666666,-2.3312064013333336,-1.886411369,9.310629209333333,2.9837512769999996,-4.749443372333333,2.176689366666667
590,4.916470000000118,-27.28595479,9.649485905333334,-19.904502866666665,-3.075095017666667,-1.9911030930000002,7.527632872333334,2.4577757916666667,2.153897206,0.04943975333333336
591,4.924802999999884,-27.276870093333333,9.655936241666668,-19.889233900000004,-2.9981900849999996,-2.306932886333333,12.112284023,0.1412453653333333,-0.6688644093333335,1.6496720813333334
592,4.933136000000104,-27.250109353333333,9.681938490333334,-19.8858948,-2.465603043666667,-0.9534440439999999,7.920724550999999,2.494100918333333,2.0610834286666666,1.4793160406666666
593,4.94146899999987,-27.22902616,9.749004681666667,-19.896395366666667,-4.550777435333333,-2.1388181846666665,10.040904520333333,2.0373180706666667,7.088765303333333,2.4819940726666667
594,4.949802000000091,-27.21681531333333,9.780625661666667,-19.91870626666667,-2.1916129043333332,-1.732969483,13.151000340000001,1.3008917473333332,4.0485137296666664,-0.912656531
595,4.9581349999998565,-27.18989626666667,9.825638771666668,-19.928489699999997,-2.3022149403333336,-2.0076591573333333,7.0587169329999995,2.7110617956666663,4.701292625,1.3346809743333334
596,4.966468000000077,-27.148792903333334,9.865063986666668,-19.95243836666667,-2.924048543,-1.973667423,9.990029654666666,4.767329931,4.973687172,-0.6570435366666667
597,4.974800999999843,-27.13998413,9.930812836333333,-19.978797933333336,-3.202615499666667,-2.607640227,8.690953890333335,0.9285035133333333,7.806076146666666,0.7261252503333333
598,4.983134000000064,-27.103208543333334,9.942092578999999,-19.987477633333327,-1.0298285486666667,-1.7465084393333334,8.226603191666667,3.926824331,1.146373749,-0.5998939026666666
599,4.991467000000284,-27.084552130000002,10.005100567666666,-20.006708766666673,-2.7805831629999997,-2.143458366666667,8.197382530333334,1.936662723666667,7.136049428333334,1.3149751226666666
600,4.99980000000005,-27.06328519,10.043559073666668,-20.019930533333333,-2.9931533336666667,-1.9752068716666666,11.787628810000001,2.1904438336666665,4.289513508333333,0.41070287433333336
601,5.008133000000271,-27.043043136666665,10.094822565666666,-20.022435533333333,-2.0774612473333334,-1.0187998016666666,10.251407625666667,1.8160919943333333,4.982609589,2.4165238143333334
602,5.016466000000037,-27.018579483333337,10.111046791999998,-20.029668166666667,-2.3709963960000002,-3.2602805296666664,10.94319121,2.4112175503333333,1.5970734743333335,-0.18073407833333333
603,5.024799000000257,-27.01331393,10.170130092666668,-20.04664103333333,-2.5230798523333333,-2.559109211,9.732386588333334,0.3233671186666667,6.590265749333334,1.3359873096666668
604,5.033132000000023,-27.025526046666666,10.188180287333333,-20.06514996666667,-3.9781491756666667,-1.9058785043333335,10.070963224,-1.7256437936666666,2.3942564726666666,-1.2652961613333333
605,5.041465000000244,-27.02727763,10.225677808,-20.070449800000006,-1.5266203583333333,-2.2282954453333335,10.296966075333334,-0.7455791236666668,3.7576253413333336,1.1875185766666667
606,5.04979800000001,-27.031034469999998,10.242044131333332,-20.09292856666666,-2.669681350333333,-1.4977221290000002,7.777960378,-0.6606040303333335,2.4233074980000002,-1.7703577873333334
607,5.05813100000023,-27.0504837,10.269553818,-20.111056,-2.859637578333333,-2.586643934,10.366525967333333,-2.5626406373333332,3.3822018306666664,-0.7007799656666666
608,5.066463999999996,-27.066793439999998,10.261295321,-20.11537423333333,-2.393155296666667,-2.4169826506666667,10.684564269666666,-2.5111898183333334,-1.1796419916666665,-1.214981417
609,5.074797000000217,-27.073174793333333,10.267756145,-20.115071600000004,-2.5953510206666666,-0.970362887,7.515220642,-1.4321857293333335,0.1417836350000002,0.07793986800000001
610,5.083129999999983,-27.09407615666667,10.295932133,-20.1371333,-3.3886506159999996,-1.8692580656666664,11.002396267333333,-2.67514652,3.668265879,-1.0821459343333333
611,5.091463000000204,-27.10206159,10.303236325666667,-20.14573416666666,-2.995866894666667,-1.5548919836666666,10.465794881,-1.4514136313333335,0.6047520043333334,-0.6064596176666667
612,5.099795999999969,-27.119826633333332,10.340523401333332,-20.171506266666665,-3.099412560333333,-1.4218461413333332,8.389031410666668,-2.2441829839999996,4.837526519333333,-0.9819815396666667
613,5.10812900000019,-27.13997459333333,10.427885372,-20.22205096666666,-4.511795758999999,-3.740199725,9.142030558333333,-1.9732825556666667,11.524520873333332,-0.8313783109999999
614,5.116461999999956,-27.184405010000003,10.596419652333333,-20.321284000000006,-4.711375077333334,-1.476461927,9.766945044000002,-3.7758512693333333,22.80638980666667,-1.4821469386666666
615,5.1247950000001765,-27.20073127666667,10.769593873333335,-20.393562333333335,-2.0922906896666666,-1.0315248516666666,8.150843144666666,-1.0416077176666667,21.851178173333334,1.6061329940000002
616,5.133127999999942,-27.223049166666666,11.038634616666664,-20.51484426666666,-3.102233857,-2.4984457096666666,5.666361491000001,-0.5557430586666666,34.718619663333335,1.7519646086666667
617,5.141461000000163,-27.21811803333333,11.280289333333334,-20.597544366666664,-1.8649951416666666,-0.7077128256666666,10.701320966666666,1.8617764636666667,29.709063213333337,4.302170594333333
618,5.149793999999929,-27.198239009999998,11.548058826666667,-20.692995699999997,-1.988492866333333,-0.44921701166666667,6.209520419333333,3.9925713540000003,33.17678705666667,4.396969318333333
619,5.15812700000015,-27.15920257666667,11.864390056666666,-20.79734293333333,-4.219134728,-2.386997223333333,7.948184331333333,6.572399934333333,38.84259542,6.135505517333333
620,5.166459999999916,-27.104518889999998,12.200448353333334,-20.893671666666673,-0.4049705266666666,-0.9402753313333333,11.454743067,8.353361606666667,40.513137816666664,8.025490761
621,5.174793000000136,-26.99783198,12.496367773333333,-20.965072600000003,-3.475970943666667,0.03967493533333333,5.200271209333334,13.940301576666664,34.90667089,8.383952299999999
622,5.183125999999902,-26.88505872,12.85917282,-21.064758300000005,-1.415610393,-1.9902621109999998,11.869420530666666,15.53875414333333,43.566977183333336,9.026039441333333
623,5.191459000000123,-26.697608946666666,13.132191656666668,-21.106213900000004,-0.7563676040000001,0.688740236,8.379296938000001,22.944955186666665,30.901971183333334,10.133372941
624,5.1997919999998885,-26.46482595,13.435011543333333,-21.158800733333337,-2.2394833760000004,-0.8095072306666666,7.838715872666666,28.700593946666668,34.71386655333333,10.467362403333333
625,5.208125000000109,-26.179416656666664,13.722499846666665,-21.18833413333333,-2.2890971896666668,-0.8093883583333333,11.800031664,34.44729296666667,31.922794343333333,11.914059956666668
626,5.216457999999875,-25.825743989999996,13.97728443,-21.18415326666667,-1.1011213856666666,0.5696784853333333,9.149002552666666,41.67659378,26.7351017,13.535653113333334
627,5.224791000000096,-25.403387069999997,14.248738923333335,-21.17255656666667,-2.4229736523333334,-0.6999775119999999,7.764578184333334,49.67308807333333,28.265465419999998,14.99480756
628,5.2331239999998616,-24.93400256,14.53559684666667,-21.1515732,-3.0410491226666667,-0.7494977116666667,10.011928558666668,55.05611547,29.58841006,16.539685566666666
629,5.241457000000082,-24.42407353666667,14.851190566666666,-21.122385699999995,-3.8332140446666667,-0.9103964866666666,11.350003245666668,59.654374440000005,32.46902847,18.58259455
630,5.249789999999848,-23.873535790000002,15.16053327,-21.080884300000005,-2.4219987790000004,-1.104349191,11.769298873333334,64.12119293333335,31.36665026333333,19.26213201
631,5.258123000000069,-23.27935282333333,15.503719646666667,-21.031224566666666,-2.9920868076666665,-1.711752971,11.766214053666666,69.06521097666666,34.92573547666667,21.438518523333332
632,5.266456000000289,-22.656761806666665,15.84204324,-20.980112699999996,-2.5982961259999997,-1.7213749886666665,10.664454777666666,72.40685526333333,34.54685465666667,20.981482823333334
633,5.274789000000055,-21.99409230666667,16.178085646666666,-20.912259400000007,-2.8656028506666664,-0.892743647,10.032740909333333,76.62434896,33.795218150000004,22.251120886666666
634,5.283122000000276,-21.30578549666667,16.506938299999998,-20.838208499999997,-1.3146573103333334,-1.025365494,12.056479453333333,79.46127319333333,33.00142097666667,22.176702496666667
635,5.291455000000042,-20.58466466333333,16.85264015,-20.769694033333327,-3.06664896,-1.8931989666666666,10.306371691333334,83.52475992666666,35.39097213666667,21.887111663333332
636,5.299788000000262,-19.85390345,17.20164871333333,-20.720344533333336,-2.8369849523333333,-1.438903093333333,10.482988357,85.2881546,36.81967798666667,19.478993733333333
637,5.308121000000028,-19.103988013333332,17.575647989999997,-20.672938033333335,-3.352789560666667,-2.152693907333333,11.616134643333334,87.66299947333333,39.96063105,19.78941281666667
638,5.316454000000249,-18.314090093333334,17.944256463333332,-20.624804199999996,-0.9472103613333333,-0.7223802803333332,9.737084706666666,92.37184397333333,39.60942077666667,19.08889389
639,5.324787000000015,-17.489620210000002,18.33227857,-20.57036843333334,-3.0298444233333335,-0.8845343936666668,10.387115162,96.25962575333334,41.86015574,19.913029990000002
640,5.3331200000002354,-16.62172762333333,18.71673266,-20.494410199999994,-3.1109457016666666,-1.1779596406666666,12.718546233333333,100.60145823,41.04991404,21.48863856
641,5.341453000000001,-15.713229500000002,19.116050086666664,-20.39117433333334,-1.5497546193333331,-0.9207824466666666,10.563815434333334,104.36319226666667,42.22083028333333,24.282827373333333
642,5.349786000000222,-14.78525003,19.521382650000003,-20.271344533333338,-4.4157561460000005,-2.3942224183333334,8.126627604,105.90947466666667,42.84714889666666,25.58074188333333
643,5.358118999999988,-13.8781325,19.982130053333336,-20.15395356666667,-2.2918187033333335,-3.132336537,11.221122423666666,103.4819921,49.743954976666664,26.226282756666667
644,5.3664520000002085,-12.950026513333334,20.392684936666665,-20.016433699999997,-2.848976513,-2.4356316726666667,8.199738979666666,105.00791929999998,43.812600453333324,26.203429540000002
645,5.374784999999974,-12.065371193333334,20.899387360000002,-19.91098023333333,-3.439223369,-2.607144435,9.665994167000001,101.07203163666667,56.242952986666666,24.44000435
646,5.383118000000195,-11.177131973333333,21.336303076666667,-19.794283533333328,-1.2702452936666666,-2.3614482083333335,11.186707338,100.88879396333333,48.20895131333333,23.040498096666667
647,5.391450999999961,-10.298333170333335,21.787439346666662,-19.68794503333333,-1.4915778736666667,-2.760420163333334,9.290966987333332,100.12680818000001,50.43073654333333,21.45656713
648,5.3997840000001815,-9.435328483666666,22.21643829333333,-19.564224266666667,-2.107751836333333,-2.578498602,10.187363942,97.32781220333334,47.844781239999996,22.058689116666667
649,5.408116999999947,-8.591964085999999,22.620567320000003,-19.444213900000005,-2.620368838333333,-3.164373398,11.091358819333331,95.09248352333333,45.26783625666667,20.455797193333336
650,5.416450000000168,-7.763570308666666,23.036656696666665,-19.29121143333333,-2.2420664626666666,-3.080637057666667,11.867172876666666,91.63561248666667,46.49468612333333,23.54588445
651,5.424782999999934,-6.952823479666667,23.41076723666667,-19.1662496,-2.1451760133333333,-1.9264036813333334,9.521654844999999,90.72520447,42.22435506333333,19.120426176666665
