,time,Euler_X,Euler_Y,Euler_Z,Acc_X,Acc_Y,Acc_Z,Gyr_X,Gyr_Y,Gyr_Z
0,0.0,-5.744192600333332,17.76881981,-37.875142399999994,-2.1026125749999998,-1.6096698196666666,0.8799849750000001,-14.75581932,41.11848068333333,2.2073903083333337
1,0.0083329999997658,-5.8744648296666675,18.06152661333333,-37.9023768,0.03560710699999999,0.6389635406666666,10.126780827,-15.117459616666666,34.65324592333334,0.13548199333333302
2,0.0166659999995317,-5.994050185,18.358150483333333,-37.9222234,-0.9975786156666667,-0.6056021896666667,5.911482334,-13.992330551666667,35.048931759999995,1.1570113500000003
3,0.0249990000002071,-6.104858239666666,18.604225796666665,-37.93580883333334,0.9425332846666666,0.559025695,1.1245371403333333,-13.264557200666667,28.920945486666668,1.2575870356666663
4,0.033331999999973,-6.21889019,18.864674253333334,-37.95306396666667,-1.281180912,-1.4290974536666665,1.0091576776666666,-13.403592426666668,30.701464336666664,1.0762674013333333
5,0.0416649999997389,-6.310650666666667,19.080636976666668,-37.960586533333334,0.7239700256666667,-0.26518625,6.044605652666667,-11.193718431999999,25.24676768,1.6628559430000003
6,0.0499979999995048,-6.371499379666667,19.258792243333332,-37.968070966666666,-1.0256316886666665,0.05532228966666667,7.380505720666666,-7.389235972999999,20.76413790333333,1.1913816133333335
7,0.0583310000001802,-6.4248509406666665,19.387399676666664,-37.9786199,0.03342223133333322,0.7134477893333333,7.508754252333333,-6.4655973913333336,14.865690550000002,0.21646189666666663
8,0.0666639999999461,-6.469103336,19.452711106666666,-37.970204666666675,0.7475135326666668,0.02373652633333334,2.5718412550000003,-6.016648269333334,7.10101962,1.5085972149999998
9,0.0749969999997119,-6.486695130666667,19.489613213333335,-37.98021696666666,0.40607216000000007,0.45044698299999997,1.1161800223333334,-2.2043828876666667,3.919251521333333,-0.9498615263333331
10,0.0833299999994778,-6.458549022666666,19.466486613333334,-37.96170553333332,-0.03313128166666668,-0.5178606323333333,7.445224126333334,2.2663989066666663,-3.565104961333333,1.5019168853333331
11,0.0916630000001532,-6.414013226666667,19.355113346666666,-37.949379,0.5380124000000001,0.8942476113333333,10.907955805999999,4.355829874666667,-14.05271117,-0.4296538036666669
12,0.0999959999999191,-6.353442033333334,19.2583491,-37.934333800000005,-0.9928726950000001,-0.1334530313333334,3.260574619,6.320407548333333,-12.287257193666669,0.08240509033333332
13,0.108328999999685,-6.2616434100000005,19.07120005333333,-37.90048216666667,1.3143785399999999,0.17591579733333332,4.746674060666666,9.178235053666667,-23.349486029999998,1.0107046759999998
14,0.1166619999994509,-6.166831811333334,18.862860996666665,-37.891947433333335,-2.8608840306666665,-0.9462722936666667,5.316692511333333,10.68410682666667,-25.52390988666667,-2.069007516
15,0.1249950000001263,-6.023188114333333,18.64061737,-37.83644356666667,1.9621895553333335,0.5437457956666667,9.170416672333333,14.629548706666668,-27.797935483333333,3.1227194666666667
16,0.1333279999998922,-5.887328148000001,18.341203053333334,-37.83555856666666,-3.333206137,-0.3401277266666667,9.450619060333333,15.867921509999997,-36.30617841,-3.980487346666667
17,0.1416609999996581,-5.71246624,18.093492506666667,-37.7692973,1.7744741836666666,0.5197852453333333,7.243795156666668,18.07322089,-30.934173583333337,4.210370064
18,0.1499939999994239,-5.5671712556666675,17.726921083333334,-37.76365659999999,-2.8593961,-1.0118544176666666,6.5924932159999985,16.775110246666667,-44.40768051,-4.064718445
19,0.1583270000000993,-5.379699230333333,17.525698979999998,-37.706103,-1.3618718186666667,0.04071940966666667,7.208924450999999,20.006821946666665,-25.243356706666663,3.942221363
20,0.1666599999998652,-5.195146560666667,17.110776903333335,-37.6894201,0.12004784733333336,-0.665758373,6.871439416666665,21.091113410000002,-50.33990732666666,-3.0474170839999997
21,0.1749929999996311,-5.010129611,16.931311286666666,-37.63159686666666,-4.916557868333332,-0.5272355076666667,12.005694308999999,19.794769923333334,-22.62101237,4.359010616666666
22,0.1833260000003065,-4.846902688,16.601682666666665,-37.6161626,2.0411084293333333,-1.0065540076666666,8.585471152666665,18.568918226666668,-40.14035288666667,-1.9825379053333334
23,0.1916590000000724,-4.661142985333332,16.31917254,-37.54874676666666,-5.985501488333334,-0.5905001163333333,5.503911257666666,19.62331899,-35.00941658,4.577407916333333
24,0.1999919999998383,-4.487965107,16.196222940000002,-37.54925793333333,-0.5120372173333333,-0.38604865466666666,8.189011097,20.31064542,-15.286406518666666,-1.6095190046666665
25,0.2083249999996042,-4.316132307,15.87412739,-37.49378203333333,-1.9913183846666669,-1.2004315556666667,11.440422853333333,18.41454124666667,-39.590774536666665,3.1080980303333328
26,0.2166580000002795,-4.173511902333334,15.750727333333332,-37.48062386666667,-1.5031893153333336,-0.578850496,11.091177941666666,16.19160366,-15.478096646666666,0.005354245666666202
27,0.2249910000000454,-4.033973296666667,15.6027743,-37.460083,-4.818155767666666,-1.1036194810000002,8.099098047,15.699216526666666,-18.459164936666667,0.8008366426666663
28,0.2333239999998113,-3.9066069920000004,15.439332643333335,-37.42075343333334,1.8925557930000003,-0.9761846263333332,5.835907459333334,13.552939733333332,-20.460570020000002,2.780648986333334
29,0.2416569999995772,-3.806255261,15.347949663333333,-37.42934926666666,-6.532808542333334,-0.8002361953333335,11.987310408666668,11.903996783333334,-11.463819184333332,-2.033932964
30,0.2499900000002526,-3.6945157846666667,15.324092866666666,-37.39337413333334,1.0107243063333333,-0.3173324863333334,10.583424886333333,11.835806847666666,-3.697104324666667,3.583223104333333
31,0.2583230000000185,-3.6013793149999995,15.23326969,-37.399882,-3.8482182223333337,-1.3216663996666667,7.959410826,10.926621434666666,-11.415959676666667,-1.7632842066666667
32,0.2666559999997844,-3.5153795083333335,15.210143726666667,-37.358222966666666,-0.3251164753333334,-0.5655895373333334,10.892037391,8.614759444999999,-3.6404703460000003,4.2604074873333335
33,0.2749889999995503,-3.4529015223333333,15.246865593333334,-37.38108830000001,-5.390276193666668,-0.7202400066666668,10.667110126333334,7.745882036,3.9550859929999995,-2.6864130100000003
34,0.2833220000002256,-3.3976649443333335,15.276510873333331,-37.328875233333335,0.9524180886666667,-2.009887129,6.053893329,4.620172163,2.6382573443333333,5.792752819666667
35,0.2916549999999915,-3.386343558666667,15.274840356666667,-37.36336263333333,-3.110709110666667,-0.7638620736666666,9.289259276333333,1.9502892493333335,-0.5755818089999999,-4.314261436333333
36,0.2999879999997574,-3.3554556366666666,15.373632113333334,-37.31908166666667,-2.1728281976666666,-0.4476721286666667,11.974410533666665,1.9556724216666668,10.987428347666667,5.443026066666667
37,0.3083209999995233,-3.3410665986666666,15.441379546666667,-37.34027353333334,-1.579358419,-0.6494297136666667,9.435324669666668,1.8843541493333333,7.643685738666666,-2.2998127936666664
38,0.3166540000001987,-3.3317303656666666,15.480364159999999,-37.31525926666667,-1.9652856586666667,-1.0847278633333335,7.0194416036666665,-0.00937493533333339,3.960242430333333,2.721312204999999
39,0.3249869999999646,-3.3397153216666666,15.566373823333334,-37.32277426666667,-1.283722505,-1.0230750246666667,11.213224090666666,-1.216432929,9.739967983,-0.5861557326666667
40,0.3333199999997305,-3.3459107876666665,15.695012409999999,-37.30376176666667,-3.0145850976666666,-0.939117839,11.781461396666666,-1.6956887246666665,14.7412529,2.6559705736666666
41,0.3416529999994964,-3.373833895,15.74389394,-37.299352033333335,1.718883454666667,-0.48629808399999996,9.275927066666666,-3.993071228333333,5.212804238,0.5353296599999998
42,0.3499860000001717,-3.3942882216666668,15.792649903333333,-37.28113556666666,-4.026942094,-0.6843662263333333,9.110038123666667,-3.3934894403333336,5.176142454,2.014743646
43,0.3583189999999376,-3.3998080096666663,15.931809743333332,-37.2635854,-0.698964159,-0.09961543966666668,7.0288530976666665,-1.7275014716666668,15.953872043333334,2.6893323316000006
44,0.3666519999997035,-3.4172255196666668,16.009661036666667,-37.26864366666667,-2.9555566313333332,-1.0414130686666667,9.040381431333333,-2.3080777226666664,8.797900835666667,-0.3919450443333332
45,0.3749849999994694,-3.450011015,16.070271809999998,-37.241292300000005,0.7930359050000001,-0.8490233323333333,12.045869827333334,-5.293494224333333,6.4661693573333325,3.2803897459999996
46,0.3833180000001448,-3.481845061,16.17874972,-37.26053363333333,-3.542326370666667,-0.7262992163333334,8.953099092,-3.604256153,12.576386133333335,-1.8127238749999999
47,0.3916509999999107,-3.490495682,16.279682476666665,-37.244778933333336,-1.285886109,0.4267473023333333,8.896169979666668,-2.003942847333333,11.378690400333333,2.239188313666667
48,0.3999839999996766,-3.529912631,16.312706946666665,-37.2511927,-0.5671407900000001,-1.4733705620000002,10.361351649,-4.9402650196666675,3.445520828333333,-0.855378906
49,0.4083169999994425,-3.5581206479999996,16.39814186,-37.2447637,-2.3354325293333336,-0.860858227,8.970734279666667,-4.034724851666667,9.603358109666667,1.0630462963333331
50,0.4166500000001178,-3.577856461,16.48898506,-37.256515500000006,-1.283044934,0.24149853000000002,9.989501317333334,-2.3938001989999997,10.396405217333333,-1.0534154176666666
51,0.4249829999998837,-3.594594717,16.547658286666664,-37.250701899999996,-1.0743415356666668,-0.48471504933333326,9.856765429,-2.6328787006666667,6.3878277143333335,0.8163512943333333
52,0.4333159999996496,-3.6125545503333334,16.56825447,-37.245656333333336,-0.582369119,-1.6567376853333335,7.971051693,-2.7576841863333335,1.8785479466666668,0.3494933943333333
53,0.4416489999994155,-3.6383357046666664,16.608463283333332,-37.24888613333333,-2.3242841166666666,0.01919718566666669,11.557200113666667,-3.4141174156666665,4.2401637286666665,-0.3651992876666666
54,0.4499820000000909,-3.6535824933333334,16.681642216666667,-37.243830366666664,-2.663071155666666,-0.864306549,10.124525071666666,-2.4175526896666666,8.181673367666667,0.7620747886666667
55,0.4583149999998568,-3.661405086666667,16.69566218,-37.23190309999999,0.7293456196666668,-1.149472177,7.768567720999999,-1.7989817066666667,1.005986293333333,1.169896146
56,0.4666479999996227,-3.6969913643333334,16.677015623333332,-37.24421436666666,-2.0225740273333335,-0.23653852933333333,11.445267359666667,-4.265935898,-2.7034246523333327,-1.9300198953333332
57,0.4749810000002981,-3.711931944,16.729535423333335,-37.23358916666666,-2.0291954276666666,0.00047794966666662536,9.044892627666666,-2.5873538650000003,5.6119596959999996,1.3182025343333332
58,0.4833140000000639,-3.7168946266666665,16.755022366666665,-37.24471026666667,-2.621386627333333,-0.4851129306666666,10.264176051666666,-0.6496026416666667,2.5901627543333334,-1.4654074110000002
59,0.4916469999998298,-3.749247551,16.785028456666666,-37.23519136666667,-0.5848069626666667,-1.154522558,10.230823835666667,-4.622814734666666,2.925098777,1.038008372
60,0.4999799999995957,-3.772162596333333,16.789319356666667,-37.263669300000004,-1.3849766153333334,-1.3514914313333335,5.818117618333333,-2.2165875833333333,0.18255262566666666,-3.616862336666667
61,0.5083130000002711,-3.7695912516666668,16.804197313333333,-37.24662779999999,-2.4229917426666665,0.3313963366666666,11.588900408,-0.6818039913333332,1.0792516566666668,1.7777434186666667
62,0.516646000000037,-3.789353927,16.850533170000002,-37.261296566666665,-0.8022965913333334,-0.4215631086666667,13.846707026666666,-2.3240221543333335,5.092152277333334,-1.6983688670000001
63,0.5249789999998029,-3.8013164996666666,16.839287436666666,-37.26066336666666,-2.703897555333333,-1.1862256526666666,8.405011337,-1.862274329,-1.9444536616666668,-0.3120540779999998
64,0.5333119999995688,-3.8282193343333333,16.829838433333332,-37.253400166666665,0.521428744,-0.063255269,8.330205439333334,-3.923396667,-1.7303785479999998,0.3838975033333334
65,0.5416450000002442,-3.851324955666666,16.87243716,-37.27419283333334,-3.9749235310000004,-1.1564053346666665,7.8165758463333335,-2.474928697,4.6636481283333335,-2.3454271953333334
66,0.5499780000000101,-3.8545022010000003,16.90756989,-37.26912436666667,-0.19777349733333338,-0.27548152233333334,8.186660130666667,-0.9813752223333333,3.6305527890000007,0.485624527
67,0.558310999999776,-3.8701313336666665,16.86520957666667,-37.276451099999996,-1.1924261649999999,-0.649614046,10.479988732,-2.059141236,-5.593410253666668,-1.4736339450000002
68,0.5666439999995418,-3.888997077666667,16.870543163333334,-37.26908876666667,-2.4323276679999997,-1.150809422,9.339232763,-2.9339399136666664,0.026544889000000033,0.49902501699999996
69,0.5749770000002172,-3.9114829700000002,16.929494860000002,-37.292088799999995,-3.2138288816666667,-0.300063605,11.157412528,-2.3425883056666668,6.637860616,-2.4615747926666667
70,0.5833099999999831,-3.9501260916666667,16.93931071,-37.2762324,-0.011164496333333348,-1.2756863633333333,12.214630763333332,-5.591232856,0.5192048353333334,1.5334687433333334
71,0.591642999999749,-3.992136637333333,16.922056833333333,-37.28353883333333,-0.6554328106666667,-0.34346150866666664,6.621844927333334,-5.245957712333333,-2.609582742333333,-1.2865775426666668
72,0.5999759999995149,-4.004150390666666,16.941922506666668,-37.281552633333334,-3.6042719283333327,0.042506384333333334,7.058303039666666,-1.912730217,1.8357337713333333,0.010284046666666638
73,0.6083090000001903,-4.017957289666667,16.973780313333332,-37.27250163333334,-0.8691387386666666,-0.629210323,11.895978610333335,-2.4238707623333333,3.161863883666667,1.0038646756666667
74,0.6166419999999562,-4.047688802333334,16.979534786666665,-37.2745387,-1.1127450966666668,-1.0960659583333332,8.743356785,-3.902699828333333,0.15511988099999993,-0.5528149643333334
75,0.6249749999997221,-4.071316878,16.964464823333333,-37.27238466666666,-1.5127922496666668,-0.8520641623333334,7.413414478666667,-3.3536930083333334,-2.4208010533333333,-0.19411322466666667
76,0.633307999999488,-4.079496065666667,16.988770803333335,-37.26654813333333,-2.018377338666667,0.5015984526666667,12.210324128333333,-1.5991309286666666,2.335600078,0.5028714786666667
77,0.6416410000001633,-4.0916263263333335,16.990719476666666,-37.256843566666674,-2.1371341946666664,-1.086298863,9.532297770333333,-2.2372967006666666,-0.4459268249999999,0.8233995040000001
78,0.6499739999999292,-4.120021979,16.95449511,-37.25582380000001,0.018374462999999935,-0.9899426103333333,7.677440007333334,-3.8680826029999995,-4.871588707000001,-0.5724056563333333
79,0.6583069999996951,-4.137383461,16.954924266666666,-37.256034866666674,-3.3889054853333334,-0.2556919653333333,10.846963244666668,-2.5069077413333334,-0.5208781559999999,-0.31632736833333336
80,0.666639999999461,-4.1298415660000005,16.97413317666667,-37.249359133333336,-0.29899997500000003,0.26009119033333333,8.456028938666666,0.24727145833333322,1.6944371063333332,0.544695268
81,0.6749730000001364,-4.123575687333333,16.937082926666665,-37.26346586666667,-2.3933663590000003,-0.8676688276666665,9.497045835,0.8016273973333333,-4.916657050333334,-2.243597865
82,0.6833059999999023,-4.124546209666666,16.904817583333337,-37.24703473333334,-0.4000833233333334,-0.8161633413333332,9.806744895,-1.0874608866666666,-4.517557631000001,1.2438231309999999
83,0.6916389999996682,-4.122644742333333,16.930148443333334,-37.27000426666666,-3.4683109123333336,-0.3565001683333333,8.642917949333333,0.5645207563333333,2.6166266006666667,-2.7312459146666668
84,0.699971999999434,-4.099865357,16.924287796666665,-37.26117706666667,-0.9156224329999999,-0.6752043716666667,9.107664108,2.0359645286666663,-1.2891558806666668,0.5867325463333333
85,0.7083050000001094,-4.0915064013333335,16.85464541,-37.2604421,-0.3712940613333333,-0.38885821800000003,10.840971628333333,0.5107180476666666,-8.921093147666666,-0.8121850493333332
86,0.7166379999998753,-4.074760675666667,16.842718123333334,-37.25504303333333,-3.732049862666667,-0.42774899800000005,8.678987502,1.4340515930000002,-2.009116649666667,0.1314094463333332
87,0.7249709999996412,-4.045480171666667,16.86683781666667,-37.25737256666667,-1.2801853616666667,-0.541636795,7.843747455666667,3.1373083593333333,2.302421093,-0.3729348580000001
88,0.7333040000003166,-4.0224151610000005,16.83005968666667,-37.25482686666667,-1.3496363313333333,-0.30192950366666665,10.998563766333334,2.275619904333334,-4.936712742,-0.3856778143333333
89,0.7416370000000825,-4.000499407666666,16.785678230000002,-37.24188996666666,0.09887397300000005,-1.2834023233333334,9.055619556,1.7321159836666666,-6.019170761333334,0.7995015086666667
90,0.7499699999998484,-3.9698359169999997,16.787829079999998,-37.25752003333333,-4.396550059333333,0.12982629,9.333830517333334,3.802441994,-0.13041921433333337,-2.166277011
91,0.7583029999996143,-3.9367288746666667,16.798406600000003,-37.23231763333333,-0.30981280433333336,-0.7890790503333333,9.848193806,2.673225323333334,0.4961392283333333,2.682805121
92,0.7666360000002896,-3.9368305206666663,16.751924833333334,-37.24904886666666,-1.079644408,-1.7030940053333332,8.345977228333334,0.12766567866666648,-5.978319724333333,-2.6855201720000004
93,0.7749690000000555,-3.915141185333333,16.73193582,-37.2382431,-2.9208250443333337,0.4153985416666666,7.790583292,1.8147388,-3.0721120833333333,0.763504664
94,0.7833019999998214,-3.8877617516666665,16.74112002,-37.2422485,-1.9853458803333333,-0.6753991346666667,10.919235068333334,2.985791564,0.61305964,-0.7726875939999998
95,0.7916349999995873,-3.8807167213333336,16.72798347666667,-37.23178863333334,-1.6092411276666667,-1.5215102036666668,9.87338098,0.07756857099999988,-2.247342149666667,0.8017724353333334
96,0.7999680000002627,-3.881446918,16.684872306666666,-37.24123893333334,-0.019488737000000016,-0.6369814176666666,7.864593188333333,-0.2155096530000001,-5.605765581,-1.834636767666667
97,0.8083010000000286,-3.8622134523333336,16.69390773666667,-37.234250366666664,-4.145713110666667,0.11246586833333333,11.888029736333335,1.6600542066666666,0.4635450863333333,0.579752604
98,0.8166339999997945,-3.852367957666667,16.674243926666666,-37.21906536666666,1.207166473,-0.716180086,9.236909867000001,0.21727720866666664,-3.016473273666667,1.2014956973333335
99,0.8249669999995604,-3.854673067666667,16.607188543333333,-37.22579193333333,-3.2871460119999996,-1.2364611276666666,7.725812592333334,-0.4710799903333334,-8.571842672333332,-1.6200534856666666
100,0.8333000000002357,-3.8591666223333334,16.597970009999997,-37.2008311,-0.8418171653333334,-0.3179413663333333,10.643508434333333,-1.8024010163333335,-1.8056242463333334,2.4076526166666667
101,0.8416330000000016,-3.8531751633333333,16.59815979,-37.21852113333334,-3.058400869333333,-0.6991466506666667,7.318949063666667,0.8669307229999998,-0.4409958323333334,-2.3378412623333333
102,0.8499659999997675,-3.8325556916666668,16.543023109999996,-37.1980947,-0.08667124833333334,-0.5199102760000001,7.350044886333333,1.3758259813333333,-7.263945579666665,1.523991426
103,0.8582989999995334,-3.830960273666667,16.46312205,-37.20263163333333,-2.0115303796666666,-0.9997987149999998,11.85566870333333,-0.11506344866666662,-10.104564668333333,-1.4578086136666668
104,0.8666320000002088,-3.8294196130000002,16.479946456666667,-37.18974813333333,-3.583458264666667,-0.817558984,12.288222946666666,-0.6430628299999999,1.3849232993333331,1.2177307606666663
105,0.8749649999999747,-3.8312659260000004,16.453253110000002,-37.197652166666664,-0.14809914433333335,-0.4246602453333333,9.553245227,-0.41839134666666666,-3.7394265336666668,-1.430281798
106,0.8832979999997406,-3.8483730953333333,16.379680633333333,-37.18727363333333,-1.8984881043333333,-0.9145093759999999,9.963531176666667,-2.7976297336666662,-9.387652235333334,0.2300157946666667
107,0.8916309999995065,-3.858510573666667,16.343564033333333,-37.18692013333333,-0.8534269779999999,-0.32536382966666666,7.886928717666667,-1.6935281753333336,-4.931069215,-0.5646234353333331
108,0.8999640000001818,-3.8456466196666668,16.324994406666665,-37.19549306666667,-4.291143814666667,0.13616141166666665,8.146327814000001,1.4346660773333335,-2.653630396,-1.527560393
109,0.9082969999999476,-3.8386460146666663,16.302567479999997,-37.18066913333334,0.05231741900000005,-0.6945004886666667,9.993594010333334,-0.09987417866666666,-3.3706455230000003,1.2304779293333334
110,0.9166299999997136,-3.8419606686666667,16.235899926666665,-37.19056703333334,-1.0965257659999998,-1.940450797666667,8.325799145,-0.48608982566666664,-8.43835783,-2.0646055936666667
111,0.9249629999994796,-3.8355582553333334,16.197034196666664,-37.18532566666667,-3.0101693866666666,0.4126706816666667,10.384927750333333,0.16027689966666658,-5.291930834333333,-0.020478606333333316
112,0.9332960000001548,-3.828187227333333,16.179085096666668,-37.182945233333335,-1.7766890130000002,-0.36025860400000004,12.061666171999997,0.38214730466666663,-2.668448130333333,-0.25039617200000003
113,0.9416289999999208,-3.8275473913333333,16.134693463333335,-37.172248833333335,-1.8062957923333334,-1.8769569000000004,6.957250674666668,-0.706850449,-5.994802951333334,0.573686282
114,0.9499619999996868,-3.833674431,16.06578636,-37.176605200000004,-0.019119640333333354,-0.16218135266666667,7.76841863,-1.026170413,-8.720140457333333,-1.4441905023333337
115,0.9582949999994526,-3.8217693169999998,16.035808566666667,-37.175008133333336,-3.96983393,-0.04309503000000001,13.346867876333334,0.9508089816666668,-4.164674281999999,-0.3536173006666665
116,0.966628000000128,-3.796653827,16.01966254,-37.16615043333333,0.22979017100000002,-0.17602639433333334,9.195563317666666,2.2947067886666668,-2.534067452,0.5026537699999999
117,0.9749609999998938,-3.7760659853333336,15.936081569999999,-37.1786423,-2.56313324,-1.1298954886666668,7.573838393999999,2.445920705666666,-10.511080423000001,-2.409535686
118,0.9832939999996596,-3.762335459333334,15.88619296,-37.15876003333333,-0.528490588,-0.5196237213333333,10.245054879666666,0.601097867,-6.618424217666667,1.512285928
119,0.9916269999994256,-3.7539815903333333,15.87116019,-37.179028833333334,-3.5070861580000003,-0.8715185523333333,10.421045303333335,1.199907303,-2.249642729666667,-2.7689501843333333
120,0.999960000000101,-3.725530624333333,15.833058036666666,-37.16345213333333,-0.6193262716666667,-0.7422829916666666,8.613597869000001,2.510673245,-5.170818487666667,1.1170070966666665
121,1.0082929999998669,-3.719108343333333,15.728013036666667,-37.16928356666667,-1.2942339576666666,-0.18174790366666663,10.253370921,0.48994505399999994,-13.106433232333336,-1.7940384549999997
122,1.0166259999996328,-3.7080125013333336,15.701433816666665,-37.15992736666667,-3.335607131333333,-1.3949839076666668,9.115318935333333,0.6502004463333334,-3.7726478580000005,0.4826958183333332
123,1.0249590000003082,-3.690848748,15.695221263333332,-37.16993713333334,-1.7639995016666667,-0.3724120063333333,8.886569817,1.9188948126666665,-1.273279396,-1.5170071126666667
124,1.033292000000074,-3.6832935016666664,15.639465646666666,-37.15089416666666,-1.4154886753333333,-0.5020142693333334,10.808458010333332,-0.09455488866666666,-7.305833102333334,1.3885773816666667
125,1.04162499999984,-3.693570057666667,15.55235863,-37.150347366666665,0.25566772633333334,-1.2986207406666666,9.602811336,-1.7244190176666667,-11.040979703666666,-0.9160932699999998
126,1.0499579999996058,-3.693105141333333,15.557490033333332,-37.153800999999994,-6.392018477000001,-0.2845261196666667,9.499765556333335,-0.22353971000000014,0.15832157933333324,-0.7607512176666669
127,1.0582910000002812,-3.692732969666667,15.543360389999998,-37.13498686666666,1.7518695393333334,-0.6520618300000001,9.972745099333332,-1.020594897,-2.4038321573333334,1.7571665546666664
128,1.066624000000047,-3.7236855823333337,15.497069676666664,-37.15885670000001,-3.8422461353333333,-1.6047181686666665,8.976292134666666,-3.359789689333333,-5.8858572643333344,-3.501094897333333
129,1.074956999999813,-3.741415024,15.476989430000001,-37.1410751,0.9879190523333334,0.5083886433333333,8.977747916666667,-3.1245354613333336,-3.137483358333333,1.600078563
130,1.0832899999995789,-3.750009218666667,15.492174466666668,-37.16328686666666,-6.0129201409999995,-0.6107806686666667,10.960834026,-0.7586253483333333,1.4980613390000004,-2.8613448043333336
131,1.0916230000002545,-3.7574810979999995,15.524029413333333,-37.14651236666666,1.1267375153333334,-0.4898120266666666,10.14801534,-1.8492411573333332,3.088461995,1.896781087
132,1.09995600000002,-3.792371988333334,15.483458516666667,-37.178161633333325,-2.6243005196666664,-1.289014399,8.727929591666667,-3.6148645083333335,-5.108404874666666,-4.3612550096666665
133,1.108288999999786,-3.8120150566666666,15.547667503333335,-37.1634496,-1.1616001723333333,0.314329207,8.778269926666667,-3.2397823333333338,7.014937082666666,1.9043287433333338
134,1.116621999999552,-3.821618556666667,15.570129713333335,-37.20104473333334,-3.225639681,-0.1663398443333333,9.822385150666666,-0.4033900896666667,2.453459864,-4.563714504333333
135,1.1249550000002273,-3.835651398,15.573718069999998,-37.166892999999995,0.3235504229999999,-1.5996681056666666,9.567160766333332,-3.160322706,-0.4249657593333333,3.6847058933333336
136,1.1332879999999932,-3.8811415833333336,15.589934986666668,-37.2095108,-2.5351763166666665,-0.17199581100000003,9.670012632333332,-4.570830782333333,1.7754719656666669,-5.1889748576666666
137,1.141620999999759,-3.8847075306666667,15.672299383333334,-37.189158133333336,-2.7972803909999997,-0.255074501,7.974071979333334,-1.4465218386666667,9.114392121000002,2.7308753330000006
138,1.149953999999525,-3.886461337666667,15.65298716,-37.20292156666666,0.6747492253333333,0.172408243,7.32929039,-0.2564412353333333,-2.702229340666667,-2.1585373876666663
139,1.1582870000002004,-3.8916592599999995,15.663924853333333,-37.19061026666667,-3.745173772333333,-1.6705811720000001,9.434732754,-1.3849875926666666,0.666239262,1.225448608333333
140,1.1666199999999662,-3.895745198,15.719231923333334,-37.19767253333334,-0.164987871,0.4647728203333334,13.658070881999999,-0.7409772476666666,6.141406536000001,-0.7777338026666664
141,1.174952999999732,-3.895848512666666,15.732111293333332,-37.185106899999994,-3.2572383086666665,-1.2339528403333333,9.344235103333334,-0.8006587826666669,0.8571081953333334,1.2661252019999998
142,1.183285999999498,-3.8983108200000003,15.682078043333334,-37.18649546666667,1.4439819456666667,-0.18203963833333336,6.363484541666668,-0.7123234620000001,-6.471295992333332,-1.0498506230000004
143,1.1916190000001734,-3.8790935676666667,15.736152330000001,-37.18712616666667,-6.608713785666667,-0.4314271536666667,9.094608465666665,1.9570983646666669,5.894331296333334,0.08062895166666628
144,1.1999519999999393,-3.852722327,15.743175506666667,-37.176846833333336,3.905493984333333,0.12110859433333328,9.665496827,2.3580210803333332,0.26224271466666665,0.851425806666667
145,1.2082849999997052,-3.819957176666667,15.689824103333331,-37.197802200000005,-5.491538445,-0.7104197643333334,6.346089363333334,4.2070488133333335,-6.812636375,-3.1464148759999997
146,1.216617999999471,-3.7719883123333333,15.691051483333334,-37.156878133333336,1.9902951716666666,-0.21986181533333338,11.254994074,4.02444458,-0.6505375106666668,4.254272699666667
147,1.2249510000001465,-3.7577795983333337,15.718364396666667,-37.194925966666666,-6.0354452929999995,-1.0166287423333333,15.123270986666666,2.4983444610000003,2.9626878496666667,-4.475212574333334
148,1.2332839999999123,-3.7302197613333337,15.718848866666667,-37.14388023333333,2.676730182,-0.7118250133333334,8.639510074,1.2575907706666662,-0.8053030173333333,5.5228224993333335
149,1.2416169999996782,-3.711414019333334,15.648465793333335,-37.16723126666666,-3.854451298666667,-0.10929767299999993,6.755293369,2.527783830666667,-8.856776236666667,-3.566253503
150,1.249949999999444,-3.6688137849999998,15.686900773333335,-37.12188976666667,-1.477039317,-0.31477245466666665,8.690853992333334,3.286173979333333,3.7962814569999996,5.141622543333333
151,1.2582830000001195,-3.651310920666667,15.673659006666666,-37.1466395,-1.9689967633333332,-0.9491228826666666,8.834973018666666,2.4009717306666665,-1.973905777,-3.2627797126666667
152,1.2666159999998854,-3.6181867123333333,15.624717080000002,-37.0989278,0.27997531033333334,-1.0894273173333333,6.650077740666667,2.0812166133333334,-6.716113091333334,4.743329763333333
153,1.2749489999996513,-3.5940443676666667,15.572873433333333,-37.12720743333333,-3.137272000333334,0.7492781976666666,11.393951733333333,3.2947166956666663,-6.615667105333333,-3.9836970963333322
154,1.2832819999994172,-3.563615481,15.606904983333335,-37.08608246666666,-3.5002455513333337,-1.3396445909999999,13.811315853333333,1.9962454636666667,3.3217480179999996,4.629966419333333
155,1.2916150000000926,-3.559020281,15.552615486666667,-37.0956014,2.0039273106666666,-1.4877999223333334,6.98261408,0.3358709813333336,-7.050690332666666,-1.8219833376666668
156,1.2999479999998584,-3.537647088,15.506081263333334,-37.08618163333333,-4.585940966666667,0.5612927473333333,6.839227517333334,1.9129822653333333,-6.099599440666666,0.348178068666666
157,1.3082809999996243,-3.507686853333333,15.480784096666667,-37.07280223333334,0.6757214466666667,-0.044925679666666656,13.806638558666668,2.6720002493333332,-3.6969118119999997,1.0496455830000002
158,1.3166140000002995,-3.481097459666666,15.473588306666665,-37.07290396666667,-5.173756361,-0.9591071803333332,10.391863503666665,2.824230641333333,-1.3621699813333334,-0.47114435833333346
159,1.3249470000000656,-3.462494453,15.437089603333334,-37.05865223333334,1.9830981093333329,-0.669574837,7.989843367333333,1.312682651,-5.078218778,1.0717636693333332
160,1.3332799999998317,-3.457006295333334,15.36913999,-37.06498716666667,-3.3904972076666664,-1.0898924643333334,9.915853817,0.494128466,-8.554493584666666,-1.6925800643333335
161,1.3416129999995974,-3.422072808,15.324900626666667,-37.039283766666664,0.09187587100000005,0.011709034333333332,9.910559971666666,2.9199205636666665,-6.0811311403333335,2.335890213666667
162,1.3499460000002728,-3.3965578080000003,15.23034382,-37.04980216666667,-2.987943490333333,0.12200525933333334,14.82627455,2.9777319429999998,-11.721258958,-2.290156126
163,1.3582790000000386,-3.3582600753333334,15.187405586666666,-37.0241216,-1.3494181633333333,-0.22558307666666666,12.44816367,3.363106727666667,-5.915518442,2.3592162233333336
164,1.3666119999998043,-3.3405876953333333,15.03836886,-37.01546733333333,-2.103910326666667,-1.4368754623333333,11.295961380333333,1.4362885156666667,-18.378590266666667,-0.5148549079999999
165,1.3749449999995704,-3.3190592926666667,14.95202255,-36.989756233333324,-0.44136230166666657,-0.8616456536666668,7.903309186333334,1.3733926116666668,-11.113586744333332,2.0840386946666665
166,1.3832780000002458,-3.2786088786666667,14.757031123333334,-36.983428966666665,-1.7492786249999999,-0.31862392033333337,11.670946756666666,4.243141413,-23.865444819999997,-1.097054243
167,1.3916110000000117,-3.2293185393333332,14.662351290000002,-36.944101999999994,-1.7295178573333334,-0.831206287,13.707907357333333,4.313288212,-12.194434800000002,3.6183782220000005
168,1.3999439999997776,-3.1822388963333332,14.414262453333334,-36.924853033333335,-1.6300340693333333,0.3212195833333333,13.414711000000002,4.643505413000001,-30.31318919,0.07335007200000006
169,1.4082769999995437,-3.104813735,14.323173203333335,-36.893918366666675,-2.611657023333333,-0.38890611633333333,13.496974783333334,7.961076736666668,-11.705634435666667,2.6868100960000003
170,1.4166100000002189,-3.0714725653333335,14.034568470000002,-36.87743123333333,-1.0264543586666668,-1.372847418,14.350518385333332,3.0957776110000004,-35.14598401333333,-0.43785067400000005
171,1.4249429999999847,-2.9843819936666662,13.908206620000001,-36.84506986666667,-4.189627170333333,0.04080467899999999,14.221558966666668,9.095600764,-15.936333019333333,2.6301900556666666
172,1.4332759999997506,-2.941810767,13.693408963333333,-36.842079166666664,-0.29063963866666664,-0.666314572,18.271271389666666,4.596613486666667,-26.219835283333335,-1.4445158639999998
173,1.4416089999995163,-2.8668568926666667,13.427558583333331,-36.806831366666664,-3.0379558406666667,-0.056479861333333346,13.284964563333332,7.587038198999999,-32.663335163333336,2.1748849949999998
174,1.449942000000192,-2.7749439876666666,13.322028156666667,-36.80943046666667,-3.5180149869999995,-0.04543350133333335,9.242132186666668,10.672297477999999,-13.093573569999998,-1.4232423303333332
175,1.4582749999999578,-2.694712003,13.118374189999999,-36.80105336666667,-0.3802956256666667,-0.9255347003333333,17.207302413333334,8.983678180666667,-25.050674439999998,-0.4772149126666667
176,1.4666079999997237,-2.64370807,12.904305776666668,-36.809262600000004,-3.3883487383333333,-0.5678566693333335,21.46147728,5.907706262333334,-26.076370236666666,-2.6630792020000005
177,1.4749409999994896,-2.558048328,12.804566383333333,-36.8044205,-5.305177688666666,-1.2700906196666668,8.167245309333333,9.750769775666667,-12.57397588,-0.27671519899999986
178,1.483274000000165,-2.4520395596666664,12.650335313333334,-36.8000158,-0.6711744390000001,0.17035798233333335,8.984378813666668,12.172640642333334,-18.97412364,-0.7641073069999998
179,1.4916069999999308,-2.3523912433333334,12.48200162,-36.784281400000005,-2.5879406133333336,-1.7062168716666666,18.767532983333332,11.139020601,-20.85014724666667,0.7053438026666666
180,1.4999399999996967,-2.242992361666667,12.380752880000001,-36.760403966666665,-3.008306145666667,-0.05221685733333333,21.353075660000002,12.087112746666667,-12.713308333,1.8248269356666666
181,1.5082729999994626,-2.1303130390000002,12.32283179,-36.749872833333335,-4.169053157333333,-1.4248977896666668,10.454620201,12.831757545333334,-7.584820747333333,0.670981765
182,1.516606000000138,-2.0170765716666668,12.177212396666667,-36.7295812,-1.074668765,-0.16210420433333336,15.09979248,12.643955863333332,-18.010887143333335,1.3028557596666668
183,1.524938999999904,-1.9407800833333333,12.092825253333332,-36.730573,-5.1540783249999995,-1.25290368,19.068172773333334,8.733931699666668,-10.714932440666667,-0.7924662009999999
184,1.5332719999996698,-1.881108642,12.056887946666668,-36.723744733333334,-1.0672483890000002,-2.0628194509999997,12.094762486666667,6.573143165333334,-4.796756744333333,0.2535339616666667
185,1.5416049999994357,-1.8162887093333335,11.9146506,-36.71589913333334,-1.5005553536666667,-0.6654818756666666,9.912956711666666,7.138561249000001,-17.68727111666667,0.06596093533333332
186,1.549938000000111,-1.7710763213333334,11.939929963333332,-36.72548166666667,-5.675349394666667,-0.6081520913333334,13.047717093333333,5.246333519666667,2.6080717246666665,-1.478628834
187,1.558270999999877,-1.786777417,11.91134135,-36.74779766666666,-1.7953834533333335,-1.9335632323333334,15.635143441000002,-1.7817861236666666,-3.9470727046666667,-3.011965115666667
188,1.5666039999996428,-1.7692863543333335,11.878953933333333,-36.7685903,-3.2006835143333334,-0.5563405653333333,8.497550089999999,2.1911271313333334,-4.270567576,-2.9941459496666667
189,1.5749370000003182,-1.783832272,12.00103156,-36.80771130000001,-3.446240584,-1.333325982,14.096173605666666,-1.214285632,14.188189188,-4.4168726603333335
190,1.583270000000084,-1.8142169716666665,11.940123876666666,-36.811370833333335,-0.365458707,-0.7351928549999999,16.29390653,-3.9651864366666665,-7.7537761530000004,-1.1116194726666666
191,1.59160299999985,-1.8609588943333335,12.121745746666667,-36.85491943333333,-4.357201814666667,-2.1511597633333337,7.032097976666666,-4.9655395350000004,21.347946163333333,-4.716363907000001
192,1.599935999999616,-1.9207209746666667,12.061315856666667,-36.86472573333334,1.8863015969999999,-0.5082676709999999,15.170411266666667,-7.324122428666667,-7.668429216666667,-1.809368372
193,1.6082690000002913,-2.005068898333333,12.23960368,-36.90160623333333,-7.668831825333332,-0.980099658,17.80091476366667,-9.637998102333333,20.930840174,-3.921452045333334
194,1.6166020000000572,-2.1109623909999997,12.295369146666667,-36.9186961,1.8325773926666669,-1.1997317346666667,11.405055302,-12.673213642333332,6.299577873333334,-2.1655603253333333
195,1.624934999999823,-2.1852988796666666,12.304526963333336,-36.934021,-5.663618723666666,-1.2324141016666668,9.746996402666667,-8.965807438,0.5684316666666666,-2.083731095333333
196,1.633267999999589,-2.2740427256666664,12.478125890000001,-36.93841553333333,-1.4275392093333332,-0.4820715586666667,13.579952238333332,-10.939071655333334,20.377232866666667,-0.13584941633333333
197,1.6416010000002643,-2.387195746333333,12.443322180000001,-36.9569702,0.04605867466666667,-0.8122477926666667,18.563515346666666,-13.543038686666668,-4.6831584773333335,-2.637323141
198,1.6499340000000302,-2.477677901333333,12.489293733333334,-36.953763333333335,-5.207015593666666,-0.5369869669999999,14.81416162,-11.336328347666667,5.040737311,0.14247075700000003
199,1.658266999999796,-2.5584282873333333,12.571917849999998,-36.96524303333334,-2.3914911346666665,-0.5661639896666667,11.778532343333334,-9.829890887,9.365971089,-1.2003686226666668
200,1.666599999999562,-2.646786372,12.564439776666665,-36.952992766666675,-1.2364637056666667,-1.2609289486666666,12.683992545666667,-11.319785116666667,-1.4151524453333335,0.9519359866666667
201,1.6749330000002374,-2.7228039106666664,12.540871619999999,-36.94495899999999,0.266473492,-1.2229520083333334,14.27173964,-9.786914187333332,-3.469875415,0.5128738083333334
202,1.6832660000000033,-2.7991673153333334,12.5147651,-36.937901833333335,-3.918443044,0.22646917900000005,15.71312968,-9.741180421000001,-3.6184037129999997,0.22421850766666665
203,1.6915989999997691,-2.8520136673333334,12.550827663333331,-36.94844056666667,-2.169199864,-1.291706751,13.972562473666665,-6.520751635000001,3.7829787329999998,-1.318292002
204,1.699931999999535,-2.9254016083333334,12.43379593,-36.950655600000005,-1.8801924386666666,-1.2130167086666666,16.501291589999997,-9.145791531,-14.460601806666665,-1.4239512879999998
205,1.7082650000002104,-2.9966483913333337,12.41384093,-36.9576365,-2.421566089,-0.1698042153333333,18.079803786666666,-8.819477239,-2.9492317243333335,-1.2434814770000002
206,1.7165979999999763,-3.06454587,12.272171656666666,-36.956924433333334,-2.277335008,-0.9779001673333334,13.776975633333334,-8.551563101666666,-17.427854540000002,-1.2521221476666666
207,1.7249309999997422,-3.1248122056666667,12.30144405,-36.96148173333333,-4.184217373666667,0.20537112133333335,15.100331467333334,-7.557211876,2.9370527266666673,-0.65730832
208,1.733263999999508,-3.190589905,12.198854446666667,-36.9577535,-1.5848903256666667,-0.8454879670000001,14.554866154666668,-8.382135869666667,-12.760130563333334,-0.6949996946666667
209,1.7415970000001837,-3.248160282666667,12.138880730000002,-36.94012196666666,-4.191642602333332,-0.5163248426666667,13.457694689999999,-7.798917293333333,-7.899008930000001,1.3385318716666665
210,1.7499299999999494,-3.316023111333333,12.08960406,-36.92038473333333,-0.6157972690000001,-1.1191318013333333,14.765934946666667,-9.037364165333335,-6.483748792,1.5243544973333334
211,1.7582629999997152,-3.3731733163333337,12.035340943333333,-36.905723599999995,-4.288103341999999,0.09663737933333331,12.163153647333333,-7.665295441999999,-7.198416470333332,1.017073095
212,1.7665959999994811,-3.382541259,12.059210776666665,-36.9001414,-2.9877125423333335,-1.3400024396666665,11.625773905,-1.6643154223333332,2.373675565,0.362706105
213,1.7749290000001563,-3.4307603036666667,11.906058946666667,-36.888615933333334,-1.519864758,-1.4896048110000002,19.601061503333334,-6.518270016,-19.02377510333333,-0.056368400333333346
214,1.7832619999999224,-3.4667321839999996,11.909554479999999,-36.89051313333332,-3.193732579666667,-0.21123119466666665,19.066847163333332,-4.686448812666667,-0.017234186333333328,-0.6646681626666667
215,1.7915949999996883,-3.516950051,11.834541956666667,-36.902476,-1.9689885379999998,0.5152886313333332,13.719948133333332,-6.157808624333332,-9.494835693999999,-2.2473463216666665
216,1.7999279999994542,-3.571170171,11.865889870000002,-36.920519533333334,-4.0331301690000005,-0.159534037,12.889678957000001,-6.489059289333333,3.438378334333333,-2.3155952096666668
217,1.8082610000001296,-3.652573188333333,11.779563269999999,-36.93447113333334,-1.6708439190000002,-1.6555541256666666,11.978629587666667,-9.861636639666665,-10.831263223333332,-2.58638068
218,1.8165939999998957,-3.698762019666667,11.818242073333332,-36.941444366666666,-6.175561587,-0.3262404603333333,11.062654973333332,-5.777897835,4.238353730333333,-1.0062553486666665
219,1.8249269999996611,-3.7542660236666667,11.845190046666668,-36.95881906666666,0.27170447499999995,-1.2460781336666669,11.964251675,-6.662024100666668,2.76165108,-2.106591781
220,1.8332599999994272,-3.785050630666666,11.819285073333333,-36.96606193333334,-3.0782326683333334,-0.8510924653333333,14.46164163,-3.9186538856666666,-3.4893084416666666,-1.5582335389999997
221,1.8415930000001024,-3.8156823313333335,11.825328826666668,-36.966565433333336,-2.109079018,-0.24787431466666665,12.702988306666668,-4.093402465,0.13000480333333334,-0.30752025766666663
222,1.8499259999998685,-3.828155517666667,11.935005823333334,-36.97991436666666,-3.3077083430000003,-0.37878579900000003,14.355566340666664,-1.570225378,12.794398148,-1.212053001
223,1.8582589999996344,-3.8594663936666667,11.911365506666668,-36.97695160000001,0.33676139533333344,-0.504426102,13.956790766666666,-4.258802652333333,-3.449725240333333,-0.1308246753333333
224,1.8665920000003096,-3.871720473,11.94819641,-36.97657773333333,-6.679869413333333,0.36768905300000004,12.913051765,-1.8868468400000002,3.964942933,-0.17636251933333336
225,1.874925000000076,-3.8905975023333332,12.03922558,-36.97173816666666,-0.648707867,-1.0606211623333335,11.165756546666666,-2.8115425506666667,10.262036799666667,1.01536116
226,1.8832579999998416,-3.904415766333333,12.043929096666666,-36.97207133333333,-2.4949266113333333,-0.9672665546666667,13.89282036,-2.0525412856666665,0.12524922666666663,-0.5333908003333333
227,1.8915909999996077,-3.928306023333333,12.027328806666667,-36.97151183333333,-2.3044730623333334,0.0496620933333333,14.801371893333332,-3.319331963666667,-2.5903081893333333,-0.3842562536666667
228,1.8999240000002828,-3.926070928666667,12.141193073333334,-36.9827347,-3.070647080666667,-0.7738725243333334,10.527860163,0.15376229100000002,13.281175613333332,-0.8881566919999999
229,1.9082570000000487,-3.9406576156666664,12.093249640000002,-36.971577966666665,0.6669198076666666,-1.2456218006666668,10.876482167333334,-2.4651144346666665,-6.426992257666668,0.6173714696666667
230,1.9165899999998144,-3.934620300666667,12.123181979999998,-36.96302796666667,-3.3430931569999998,0.33977176733333336,13.030013245666666,0.11226291933333336,3.072414501666666,0.7331903973333334
231,1.9249229999995805,-3.9390205540000003,12.159624736666666,-36.9618047,-1.460979640333333,-0.4169596633333333,12.666966756666667,-0.9894866146666668,3.7558237413333333,0.152776102
232,1.933256000000256,-3.9235912163333335,12.1395429,-36.96426643333333,-1.275265515,-0.5825049976666666,10.618981519333333,1.5012931026666667,-2.827427635333333,-0.9451738199999999
233,1.9415890000000215,-3.903665304333334,12.098880133333333,-36.95316056666666,-3.2051212786666667,-0.19129606366666665,11.204454740000001,1.6880077919999998,-5.552240132999999,0.6604076226666665
234,1.949921999999788,-3.87237223,12.170167923333333,-36.9654388,-2.996597647333333,-0.736733069,15.470233599333334,3.6563001870000007,8.189354260666667,-1.374763161
235,1.958254999999553,-3.8548118273333336,12.070826846666668,-36.964563999999996,-0.6723061796666668,-0.39742700266666664,12.313958010666667,1.6543509663333333,-12.496836978666666,-0.9915783606666667
236,1.966588000000229,-3.7908027173333334,12.037190756666666,-36.95992533333334,-3.641307672,-0.19376822300000004,8.333856254999999,7.160447120666667,-4.503571748666666,-0.25534408266666664
237,1.9749209999999948,-3.74320666,11.989463803333335,-36.955800366666665,-1.1918972436666666,-0.5350142173333333,14.570283256666665,5.179053306666667,-6.344454527000001,-0.19249523200000004
238,1.9832539999997607,-3.6919710633333334,11.927729923333333,-36.955156966666664,-1.6198450326666667,-0.43477038533333334,14.154710766666668,5.727138678,-7.837141514333332,-0.9123407800000001
239,1.9915869999995264,-3.64425381,11.784712156666666,-36.95032246666667,-1.3682762683333332,-0.7664186556666666,11.61370341,5.1675147610000005,-17.76124636,-0.836142719
240,1.999920000000202,-3.578280051666667,11.773549716666666,-36.9590734,-4.550396283666667,-0.123146037,10.340649764666667,7.722307841,-1.7132764856666665,-1.5924412806666666
241,2.008252999999968,-3.530271768666667,11.66291682,-36.95235953333333,0.03793138266666668,-1.27393354,10.995602848333334,5.166324297666667,-13.896113716666667,-0.3253947546666667
242,2.0165859999997338,-3.4662552676666665,11.534514743333332,-36.94730126666667,-2.8661435446666665,-0.7336989836666667,12.584010125666666,7.153238455333333,-15.856330556666668,-0.8805322499999999
243,2.0249189999995,-3.417610089,11.501689593333333,-36.9523468,-3.3767953713333334,-0.5436874093333333,11.3967851,5.530985037000001,-4.492963473333334,-1.1281492613333333
244,2.033252000000175,-3.3636885483333336,11.364146233333335,-36.94925946666666,-0.034146909666666635,-0.7995681149999999,10.448215485,5.984925588,-16.939399719999997,-1.096853117
245,2.041584999999941,-3.319793224666667,11.261590006666665,-36.945760099999994,-4.2142562869999995,-0.8052776653333332,12.525434176666666,4.75206097,-12.906469664333335,-0.6327827423333333
246,2.049917999999707,-3.2859010693333333,11.246043206666668,-36.95289863333333,-1.9009432396666668,-1.1776125433333333,10.769181248333334,3.8309592406666666,-2.255269522666667,-1.4412746429999999
247,2.0582509999994727,-3.2593243916666665,11.090832073333333,-36.939000433333334,-1.362396121,-0.7621614136666667,13.113025347333334,2.431683749,-19.284104026666668,0.26716084300000004
248,2.066584000000148,-3.218515952666667,11.062914846666667,-36.93408713333333,-4.440526326666667,-0.3851958710000001,8.040791988666667,4.379189570666667,-3.819270690333333,-0.15469288833333333
249,2.074916999999914,-3.1918814183333333,11.017650603333331,-36.9365209,0.2793812156666667,-0.7828507223333334,12.029626688999999,2.8105900286666667,-6.006047249999999,-0.8720493716666667
250,2.08324999999968,-3.181635141333333,10.897455533333334,-36.94328306666667,-3.246447086,-0.8226558963333335,13.35101064,0.9739989043333335,-14.799290656000002,-2.1345840693333336
251,2.0915829999994457,-3.152051449,10.961896896666667,-36.95160930000001,-3.958553473,-0.731396109,8.155176479666666,3.31685551,7.180634975666666,-0.8506402326666667
252,2.099916000000121,-3.1431271236666665,10.858523686666667,-36.945243833333336,0.023593383666666662,-0.8747718733333333,12.661359309666667,0.5135955863333334,-12.871219953333332,-0.4714641173333333
253,2.108248999999887,-3.1216957566666665,10.878804526666668,-36.94897463333333,-4.585281133333333,-0.3808380863333333,10.007105507666667,2.2320073443333333,1.8586369653333332,-0.627450531
254,2.116581999999653,-3.1109651726666665,10.878207843333334,-36.9629593,-0.28360691666666676,-1.2930614363333333,12.022761188333334,1.186583678,-0.4278048676666664,-2.139757792333333
255,2.124914999999419,-3.0938904286666666,10.811656953333333,-36.958305333333335,-4.021120866333333,-0.006912325333333302,11.68061765,1.5188477736666668,-8.599353154666666,-0.21477127066666668
256,2.133248000000094,-3.090799013666667,10.9124581,-36.980979933333344,-2.0015976033333334,-0.9929297166666666,10.596809705666667,0.46775441366666665,11.774446487666665,-2.5133755006666667
257,2.14158099999986,-3.0819750626666664,10.780319532666667,-36.97423806666668,-1.2052805423333335,-0.43765447533333335,13.117758114999999,0.48191481833333355,-16.471103986666666,-0.3672184600000001
258,2.149913999999626,-3.0661292870000003,10.889915146666667,-36.98269906666666,-4.411454876333334,-0.825309346,5.996316712,1.687243839,12.739710490333335,-0.8113437493333334
259,2.1582470000003013,-3.063662926333334,10.788844108,-36.9865087,1.1004076153333333,-0.7199690366666668,12.019744236666668,-0.06022761266666669,-12.685952185333333,-1.3791261113333333
260,2.1665800000000672,-3.0524133046666666,10.820508636666666,-37.00076040000001,-5.495667139666666,-1.1623963913333333,14.104684830666665,1.277804469,3.4418918303333332,-2.0548209346666666
261,2.174912999999833,-3.075122435666666,10.8190616,-37.00256093333333,0.209646945,-0.5431575276666667,11.690874658666667,-3.118004004,-0.7592486936666667,-0.49326613299999994
262,2.183245999999599,-3.063331445333333,10.752442676666666,-37.00283559999999,-2.9106060666666664,-1.022080759,5.748966257999999,1.0121511416666669,-8.428075016,-0.9973073703333334
263,2.1915790000002744,-3.091492414333333,10.799146016666667,-37.01439666666666,-1.3365588536666666,-0.7964348250000001,10.593884149333334,-3.549160162333333,5.073190172333333,-1.3362264236666668
264,2.1999120000000403,-3.1082696120000004,10.687031427,-37.012776699999996,-2.2017409006666666,-0.4930081366666666,11.261749903666669,-2.4626425106666665,-13.891661961333334,-1.0567922843333333
265,2.208244999999806,-3.1244150003333337,10.768773714,-37.024225866666676,-2.419093887,-1.0850965183333334,10.486532054333333,-2.1152151226666667,9.270471098,-1.104272465
266,2.216577999999572,-3.12246569,10.675510088000001,-37.024141900000004,-1.9851803383333335,0.5119708973333333,10.351544063333334,-0.17314370433333348,-11.620970091333334,-1.1339892346666667
267,2.2249110000002474,-3.1299406686666664,10.768800415666666,-37.03682453333334,-3.016049901666667,-1.0906748323333333,7.851498922333334,-1.0543289583333333,10.661755562666665,-1.1817597943333333
268,2.2332440000000133,-3.115682522666667,10.693255743,-37.03757476666667,-0.9462863600000001,-0.11022039766666665,13.326922416666667,1.324452321,-9.494662922,-1.1007674336666666
269,2.241576999999779,-3.1158216,10.78044923,-37.05132293333333,-4.208669265,-0.1207660733333333,12.291169804666668,-0.14431059333333338,9.939886888666665,-1.3527689973333334
270,2.249909999999545,-3.0943952399999994,10.721664745,-37.045511866666665,-1.2896801629999999,-1.2286995649999997,9.193291347,2.0358621676666666,-7.529040019,-0.24492756500000004
271,2.2582430000002205,-3.0775058269999995,10.79810524,-37.06019846666667,-2.3850859703333334,-0.9657939923333334,8.762145997666666,1.9242439073333335,8.656506379666668,-1.5347794493333333
272,2.2665759999999864,-3.057890415333333,10.749146142666666,-37.0744349,-1.150734862,-0.7124438286666667,10.770752270666668,2.257937431333333,-6.2273887,-2.5065451463333335
273,2.2749089999997523,-3.048429966,10.794699353333334,-37.080396,-2.7415271203333336,-1.4966086943333334,9.321864924333333,0.8499316373333333,4.902432283,-0.7056124809999998
274,2.283241999999518,-3.0205948353333327,10.749642373666667,-37.09598033333334,-1.02256763,-0.34943525,9.011317253,3.2610126336666667,-5.757721742,-2.635939558
275,2.291575000000193,-3.0045386950000004,10.797807689999999,-37.115554800000005,-3.3575765290000006,-0.7615823513333334,9.633823077,1.9497128326666668,5.301420847666667,-2.298010945333333
276,2.2999079999999594,-2.9816281,10.789976439999998,-37.13815053333333,-2.626238187333333,-0.36321051899999995,9.889782428,2.829169313,-1.2550892433333334,-3.230262120666667
277,2.3082409999997253,-2.9866707326666666,10.8362058,-37.1595815,-2.6387589376666667,-1.6516150633333335,12.510081609666665,-0.5374336539999999,5.0790559449999995,-2.5243214566666663
278,2.316573999999491,-2.9678950306666665,10.838954293333336,-37.17806243333333,-1.5467367966666667,-0.7470789426666666,9.942499794666666,2.249895056,-0.015091260333333226,-2.6781517763333333
279,2.3249070000001666,-2.9888410566666663,10.850548743333334,-37.1966095,-1.4080608979999998,-1.349283596,6.988271833,-2.507684956,0.9104198616666666,-2.395072172
280,2.3332399999999325,-3.0000890096666666,10.851922036666666,-37.222396833333335,-1.8645293516666666,-1.2416267793333333,7.3342383700000005,-1.1963727076666666,-0.13383410366666645,-3.5491385023333333
281,2.3415729999996984,-3.023091157333333,10.86909326,-37.23331453333334,-2.9947925803333333,-0.7763565036666668,14.571461676666667,-2.920735836,1.5335411233333331,-1.4657148693333335
282,2.3499059999994643,-3.0441491603333333,10.91867256,-37.243418366666674,-1.838249842333333,-0.291431335,9.203377724000001,-2.722289562,5.5463399110000005,-1.4005694786666665
283,2.35823900000014,-3.097674767333334,10.906354266666668,-37.265757266666675,-2.064670423666666,-1.9051312009999999,7.197710991,-6.342840830666667,-1.9291447403333335,-2.999875426333334
284,2.366571999999905,-3.1459136806666668,10.903039293333334,-37.271596300000006,-0.67030855,-1.4861512183333332,7.451784611,-6.059939384333333,-0.8156853023333334,-1.2083643276666667
285,2.3749049999996714,-3.1991234620000006,10.860472363333335,-37.2841619,-2.1889454126666665,0.4516084913333333,11.796394033333334,-6.542051155999999,-5.615925550333333,-2.0676708223333335
286,2.3832379999994373,-3.261653582333333,10.87606303,-37.299753833333334,-2.445057233,-1.35682112,9.652465661333332,-7.552814722,1.5173362293333332,-2.2220650116666665
287,2.3915710000001127,-3.3114884693333333,10.899577143333333,-37.32003783333334,-4.414707899333333,-0.4550583163333333,8.819316545,-5.962358236,2.3575730323333333,-2.5396216710000004
288,2.3999039999998786,-3.3889253139999997,10.875096319999999,-37.32423143333333,0.6343523660000002,-1.2159668403333332,12.427725475333332,-9.587541582333332,-3.358683904,-1.1764234900000001
289,2.4082369999996445,-3.456322193,10.87552579,-37.3513158,-3.6739129223333333,-1.509384632,7.967073917333333,-7.917617480333334,-0.3551070693333334,-3.495814244
290,2.41657000000032,-3.5322970549999995,10.855892816666667,-37.35265096666667,-1.0046203733333334,0.22455647099999998,8.365537961666668,-9.474001407333333,-2.796562433333333,-0.78829516
291,2.4249030000000857,-3.6166289643333336,10.883137386666666,-37.37720996666666,-4.4206033546666665,-0.99864614,11.020128886,-10.018697421,2.845323244333333,-2.9946248133333335
292,2.433235999999852,-3.6684441566666663,10.887627286666666,-37.3719762,-0.8865608423333332,-0.7155578436666667,9.385562259333334,-6.711710929666666,0.04575125400000002,0.13172968233333338
293,2.441568999999617,-3.75075078,10.887025196666665,-37.39648183333333,-2.1358232496666667,-0.9812722303333334,8.604087511666668,-9.785821277333334,-0.48568878600000004,-3.1910770713333334
294,2.449902000000293,-3.8202031453333327,10.885600723333335,-37.409497566666666,-1.0977212466666668,-1.0964629053333332,5.644962469666667,-8.416492144000001,-0.5212112986666667,-2.0475208163333334
295,2.458235000000059,-3.876139084666667,10.86613019,-37.423721300000004,-2.568891386,-0.022275634,11.392962138333333,-6.845182577666667,-2.8188124099999996,-2.1444024943333333
296,2.4665679999998247,-3.9378408593333334,10.925950686666667,-37.43446096666667,-2.5262288253333334,-0.22319514533333332,10.194427648333333,-7.542167504333334,6.795363108666666,-1.2659324456666667
297,2.4749009999995906,-3.9715496700000004,10.947254813333332,-37.45179493333334,-2.866161863,-0.4492124913333333,8.154438337666667,-4.107187430333333,2.092713038,-2.1810991416666665
298,2.483234000000266,-4.013538042666667,10.965075173333332,-37.44944,-1.527422746,-0.5326369106666666,12.653324446666668,-5.462069273,1.661616842,-0.09346214966666662
299,2.491567000000032,-4.0495401226666665,10.993397713333335,-37.45180763333334,-1.835100929,-1.2443261343333332,9.069847422333334,-4.716848731,2.8102106253333337,-0.34936960499999997
300,2.4998999999997977,-4.0736709436666665,11.003736813333333,-37.46347553333334,-2.131030798,-0.15779512133333334,6.109557787666667,-3.0197346806666663,0.8799514663333334,-1.7817391156666667
301,2.508232999999564,-4.095292329666667,11.04974397,-37.461354566666664,-3.3609350723333336,-0.38936291399999995,11.872717538333333,-3.0797661143333332,4.892857074666667,0.3359904786666666
302,2.516566000000239,-4.1043431759999995,11.102585473333333,-37.46186573333333,-1.7094132996666669,-0.501706779,8.700767833666667,-1.4751151003333332,5.869441906333333,-0.10510800800000002
303,2.524899000000005,-4.130662679666667,11.10655975,-37.475812299999994,-2.020561253,-1.0146406293333334,7.440930366666667,-3.2806840740000003,-0.005097249999999979,-1.9090417623333333
304,2.533231999999771,-4.143709182333333,11.140929543333334,-37.47891236666667,-1.6592906513333334,-0.8185152213333332,7.110681853333333,-1.8840294680000003,3.6819909413333334,-0.546706006
305,2.5415649999995367,-4.1404544513333335,11.174680709999999,-37.48215736666666,-2.5488936106666666,-0.22835196833333335,10.003513973333334,0.015675803000000006,3.4659564846666666,-0.4098704656666667
306,2.549898000000212,-4.1541996003333335,11.240762709999998,-37.50158943333333,-2.0410985946666664,-0.6716227730000001,11.404049872333333,-1.593273798666667,7.613482476333334,-2.173278331666667
307,2.558230999999978,-4.133717457333333,11.300162633333334,-37.508872966666665,-2.6612749,-0.340682874,6.518801689333333,2.1869477033333333,6.574158547333333,-0.6547084449999999
308,2.566563999999744,-4.121856530666666,11.32030074,-37.50986733333333,0.116165042,-0.40999950966666665,10.835552531666666,1.0477033453333333,1.9553097186666666,-0.4116677343333333
309,2.5748969999995097,-4.125477075333333,11.340005873333334,-37.519462600000004,-2.4774351913333335,-1.911617597,9.350469429333332,-0.644232154,1.8419878883333334,-1.2608735163333333
310,2.583230000000185,-4.105614503,11.37133503,-37.523531600000005,-2.638564428,0.02281660066666667,8.001574833000001,2.0784158756666664,3.323895494333333,-0.6889973133333333
311,2.591562999999951,-4.102193276,11.403155323333332,-37.51164243333333,-1.7991735086666667,-0.4598794403333333,13.23985259,-0.3010739586666667,3.1122446059999995,1.3704596660000001
312,2.599895999999717,-4.107698599333333,11.421235403333334,-37.51150006666666,-2.4395798843333334,-1.819624980333333,8.357174239333332,-1.0736036300000003,1.699474414,-0.313142558
313,2.6082289999994828,-4.121195475,11.398108800000001,-37.50621543333333,-1.2795619169999999,-0.6719962556666665,7.1359413463333325,-2.1773592633333334,-3.409212072666667,0.12537739166666664
314,2.616562000000158,-4.122031768,11.437121073333332,-37.50689186666667,-2.589794795,-1.018042763333333,7.876394906000001,-0.49625019233333334,4.209050973,-0.19358386566666672
315,2.624894999999924,-4.115057150666666,11.42295615,-37.506899499999996,-2.258154213333333,-0.015373786333333342,10.030030252666666,0.40072623899999993,-2.291654326,-0.43089546733333334
316,2.63322799999969,-4.110736449666667,11.468024573333333,-37.517865500000006,-2.0843875406666665,-0.5008964786666666,10.854862212,0.3667489093333333,5.019331058,-1.3615032483333334
317,2.641560999999456,-4.089768171,11.46187687,-37.52404023333334,-1.6835259793333333,-0.943673869,9.742457866333334,2.232993404,-1.2791621086666665,-1.0879134436666666
318,2.649894000000131,-4.08402888,11.443163553333335,-37.530637133333336,-1.0013425249999999,-0.4604255583333334,9.844780285666667,0.43406736833333337,-2.6531740276666667,-1.3745282096666667
319,2.658226999999897,-4.060556968,11.430044809999998,-37.540969866666664,-1.9125165940000002,-1.510530129,7.84066391,2.6244175333333333,-2.0805887579999998,-1.632536133333333
320,2.666559999999663,-4.047824223666667,11.406670890000001,-37.545107533333336,-2.0481994153333334,0.4971726043333334,10.483680724333333,1.2218329806666668,-3.229361693,-1.143423756
321,2.674892999999429,-4.020354906666667,11.437562306666665,-37.557431533333336,-3.2130789760000003,-0.9829269446666666,7.999136449333334,3.1500898996666664,3.204562982,-1.491905411
322,2.683226000000104,-3.9861598013333333,11.41730086,-37.5488739,-1.8399811980000003,-0.88038973,11.675814626666666,3.498426437333333,-2.961274314666666,0.35470164099999996
323,2.69155899999987,-3.9824976126666662,11.438255306666667,-37.5439733,-1.5834641653333332,-1.5678825576666666,10.614447434666667,-0.10661494733333325,1.8726481296666666,0.453282277
324,2.699891999999636,-3.9621609050000006,11.410657883333334,-37.54583743333334,-1.573585968333333,-0.7325794596666667,4.277664502333334,2.0657667716666666,-3.758141914666666,-0.9055656393333331
325,2.7082250000003114,-3.949851036,11.417011896666667,-37.53592426666666,-2.862757643,-0.9450323979999999,12.159035842,0.8224518003333333,0.08724212633333354,0.9178476336666668
326,2.7165580000000773,-3.947217067,11.45529588,-37.53313193333333,-2.7652255696666668,-0.374886843,10.001291592333335,-0.1818952560000001,4.086243311333334,0.20944754266666674
327,2.724890999999843,-3.9591407776666667,11.441969873333335,-37.54088086666667,-1.7089093326666667,-1.5472486913333334,9.042711257999999,-1.6795596136666668,-2.1278258163333335,-1.3178566496666666
328,2.733223999999609,-3.9658334256666667,11.470040323333334,-37.54126486666667,-2.493113081,-0.979158166,9.726055941333334,-1.1996341543333333,2.8934050399999998,-0.23608209799999993
329,2.7415570000002845,-3.9800076486666662,11.450210573333331,-37.537493366666666,-1.3454769053333333,-0.900903473,9.137933094,-2.232220729333333,-3.002402385,-0.03413523233333334
330,2.7498900000000503,-4.01061511,11.497179033333333,-37.54723103333333,-2.578023989666667,-0.8654476406666668,8.557508787333335,-3.8532902399999998,5.230119069333333,-1.1569736003333333
331,2.758222999999816,-4.007091919666666,11.533970199999999,-37.550730400000006,-3.2055330276666667,-0.294846736,8.717626414333333,0.06998231033333335,3.837350289,-0.41847679499999996
332,2.766555999999582,-4.03305769,11.569786386666665,-37.5434672,-1.091322422,-1.5393472113333335,10.732001941,-3.70437781,3.7517170109999998,0.755133271
333,2.774889000000257,-4.075551669,11.59093952,-37.55629726666667,-1.6514412066666668,-1.4395614066666667,4.832247034000001,-5.2308322983333335,2.0406434140000003,-1.6266362266666665
334,2.7832220000000234,-4.095457633333333,11.640674906666666,-37.55680086666666,-3.2731856903333334,-0.30169586033333334,8.061295349333333,-2.7795329093333336,5.487141052999999,-0.08457821866666666
335,2.7915549999997893,-4.131809632,11.748548826666669,-37.55837506666666,-2.105513334333333,-1.0150362453333335,13.136418657666667,-4.759804328333334,12.32783413,0.4443558106666667
336,2.799887999999555,-4.163945913333333,11.801437063333333,-37.55601246666667,-1.4541093903333333,-0.8721468053333333,5.5292348066666674,-4.323401848333333,5.8354189100000005,0.30044645566666667
337,2.8082210000002306,-4.209287961333334,11.832150460000001,-37.562240599999996,-1.4232835573333336,-1.287107607,6.8557384809999995,-5.731701692000001,3.1319804586666664,-0.7658741723333332
338,2.8165539999999964,-4.26601394,11.908249220000002,-37.5580368,-2.653919140333333,-1.0295776126666667,13.330991426333332,-7.320557435333334,8.594417094999999,0.7918727006666666
339,2.8248869999997623,-4.320272525333333,11.991176923333333,-37.5676829,-2.975970347666667,-0.450059424,9.730803328666667,-6.724484338333333,9.410004618,-0.6995162963333333
340,2.833219999999528,-4.408008575666667,12.01223437,-37.571914666666665,-0.6688473620000001,-1.5445411606666666,5.599583943666667,-10.821678160333333,2.082527001666667,-0.7229063706666666
341,2.841553000000204,-4.480584304000001,12.064081826666667,-37.587972,-2.7784916959999997,-1.0804016193333335,6.301947593666668,-8.752295017333333,5.751753807333333,-1.707261542333333
342,2.849885999999969,-4.540968894666666,12.131397246666666,-37.59420013333334,-2.0361677406666665,-0.16807595899999997,10.273364703,-7.491810639666666,7.635314623666667,-0.503618683
343,2.8582189999997354,-4.628100077333333,12.181423186666668,-37.60850013333333,-1.4592609803333334,-1.3374214373333333,9.474538643666667,-10.53940169,5.520346800333333,-1.4917434056666667
344,2.8665519999995013,-4.692131360333334,12.185689926666667,-37.616617833333336,-0.11061624699999999,-0.9778256216666666,5.042717814666667,-7.882238388,0.11122129366666667,-1.307465752
345,2.8748850000001767,-4.748836676333333,12.20016702,-37.62668353333333,-3.2545704840000003,0.4252382643333333,11.063243707333333,-6.9946638740000004,1.2322711646666666,-1.3519493936666667
346,2.8832179999999425,-4.813509941333333,12.264287946666668,-37.625394199999995,-2.1548248530000005,-0.8305817839999999,9.909575145333333,-8.201699257,7.1751872699999995,0.4417303003333333
347,2.8915509999997084,-4.873232523666667,12.26471583,-37.637888600000004,-1.8512298663333333,-1.4808584053333333,3.4867313306666667,-7.303656736666667,-0.42211399466666677,-1.7620291116666664
348,2.8998839999994743,-4.915562947666667,12.282239913333333,-37.63385263333333,-2.7331459519999997,-0.12327006366666667,7.317598661333332,-5.592202106999999,1.5714078746666669,0.3238835336666667
349,2.9082170000001497,-4.973930517666666,12.405765213333334,-37.661122666666664,-3.0249491533333335,-1.1103957093333332,11.256536801333333,-6.762330611666667,14.443584123333332,-2.2111194783333334
350,2.916549999999916,-5.027550538333333,12.382170993333332,-37.66812643333333,1.124454419,-0.288733769,4.391221046333334,-6.669336261000001,-3.233443061666667,-1.3611533343333333
351,2.924882999999681,-5.086080551333334,12.499807356666665,-37.68159736666667,-6.022489389,-0.6087777813333334,4.336389066333333,-7.124862909333333,13.603069863,-0.6648604596666666
352,2.933215999999448,-5.170769214333333,12.641950290000002,-37.71494546666667,-0.027814110000000003,-2.660258730333333,6.296791870666667,-9.730812549666666,16.847299575333334,-2.6326789856666664
353,2.9415490000001228,-5.226703643666667,12.67547989,-37.748725900000004,-3.6031699976666665,0.7320067286666667,7.98845911,-6.281498750333334,3.7672486296666663,-3.9068374636666667
354,2.9498819999998886,-5.294041951666666,12.925842286666665,-37.841659566666664,-2.27371041,-0.8547974030000001,3.4242705306666665,-6.064811229666667,30.418502173333334,-8.349116485666666
355,2.9582149999996545,-5.376506010666667,13.034202576666667,-37.91605123333333,-2.000763059,-0.8666865676666666,9.216789880666667,-8.326640766,13.160190503000003,-7.770264149
356,2.9665479999994204,-5.486267248666667,13.248557093333332,-38.036527,-2.549843987,-0.6226469526666666,3.072518666666667,-10.347984313666666,26.442809420000003,-11.88209947
357,2.974881000000096,-5.589801152666666,13.501029966666666,-38.133941666666665,-1.8948192993333333,-1.003012657,0.6943328776666667,-10.134347441666668,30.692248026666665,-8.688839117999999
358,2.9832139999998617,-5.701012293333334,13.734996156666666,-38.264729833333334,-2.6352565686666662,-0.8073211343333333,6.404577096666666,-10.127908071333334,28.90187518,-12.686858495666668
359,2.991546999999628,-5.798451900666667,14.000611943333334,-38.35951996666666,-0.5997872103333334,0.3089064356666667,3.983301262,-9.359006721666665,32.22608757,-8.075811387
360,2.999880000000303,-5.900780677666667,14.236118316666667,-38.47480773333333,-0.9655985036666666,-0.21739596133333336,2.1565676136666667,-9.386170547333334,28.9776605,-10.736905257333333
361,3.008213000000069,-6.025525729000001,14.549953463333333,-38.55547586666666,-2.91091609,-1.3066156506666669,3.5074161690000003,-12.965847653333332,37.83686765000001,-5.710260550666667
362,3.0165459999998347,-6.150032520333333,14.807856240000001,-38.63745116666667,1.4027866520000003,-0.835646073,3.077669382,-12.901796976666667,31.28348287,-6.513941049666667
363,3.0248789999996006,-6.25317049,15.08036963,-38.7199173,-3.1884360189999996,-1.1873219596666666,4.206377029333333,-10.239997227666667,32.98359044333333,-6.268318415666667
364,3.033212000000276,-6.347318648999999,15.281621933333334,-38.77805583333333,2.5508126416666665,0.45118894166666673,7.082484722,-9.893448828333334,24.211420059999995,-4.370725711333333
365,3.041545000000042,-6.454869588333334,15.480863570000002,-38.87092846666667,-3.374864796666667,0.08166521766666666,7.2089389960000005,-10.395347117,24.362237926666666,-8.319312254666668
366,3.049877999999808,-6.575814724000001,15.634393693333331,-38.91890973333333,3.225306699666666,-0.02418658166666665,4.572109937666666,-13.384054978,18.44187418666667,-3.7496569156666664
367,3.0582109999995737,-6.671677430666667,15.750304540000002,-39.0145696,-3.166986465666666,-0.5690698326666667,-0.1960494616666666,-8.861337344666666,14.494237263333332,-9.690701166666665
368,3.066544000000249,-6.704627355,15.786759376666666,-39.049224833333334,3.038886327333333,-0.07158271466666677,1.457124273,-3.1975631310000003,4.321167946666667,-3.7756377063333333
369,3.074877000000015,-6.724200407666667,15.78186067,-39.13659413333334,-3.780290881666667,0.05963559933333329,9.030310631,0.020444393000000005,0.02937100299999999,-10.400836311
370,3.083209999999781,-6.7359503106666665,15.739288013333331,-39.15956370000001,3.471137965666667,0.9172532160000001,9.638192652666666,-1.0250687200000002,-5.278227965333333,-3.5365920166666664
371,3.0915429999995467,-6.781213124333334,15.668414113333334,-39.25310773333334,-4.117334207,-0.501471738,3.8902611733333337,-2.9103492099999997,-7.777871449,-12.076955796
372,3.099876000000222,-6.774128118999999,15.558032990000001,-39.26659393333334,3.1872464716666666,-0.37976614599999997,-2.5608989993333333,0.948866685,-13.450887918333331,-3.412836909333334
373,3.108208999999988,-6.741442521333333,15.397261616666668,-39.36654663333333,-4.299369256,-0.76713715,0.9584357739999999,6.588238916333332,-18.405423483333333,-14.087494212666664
374,3.116541999999754,-6.6717236836666665,15.20868333,-39.375178033333334,2.518548369666667,0.2375824653333333,9.909249307333333,8.343904851666666,-22.822537104333332,-3.900267283333333
375,3.12487499999952,-6.617923736333334,15.016107240000002,-39.475774099999995,-3.835947513666667,0.3753816686666667,9.65747436,9.028547127666666,-22.193298343333336,-14.608521064333331
376,3.133208000000195,-6.570340315666667,14.815407120000001,-39.496490466666664,1.0756970643333335,0.2243136366666667,3.8890539806666666,6.045566341000001,-24.14794286,-5.4465602723333335
377,3.141540999999961,-6.530969460666667,14.657016753333336,-39.58749896666667,-3.6471114156666666,-0.7838474113333334,-2.100051125,6.952425162333334,-18.288179396666667,-13.018137334666664
378,3.149873999999727,-6.469136397000001,14.480288823333334,-39.62135823333333,-0.00012222933333339014,-1.275110307,-2.0940294063333336,8.114833355,-21.098351476666668,-6.607822039666666
379,3.158206999999493,-6.36770614,14.279828706666668,-39.68488313333333,0.07812877466666664,-0.18774610766666666,3.2311789989999995,13.552212318666667,-23.690850576666666,-10.362234592333332
380,3.166540000000168,-6.248913765,14.030903816666665,-39.720364866666664,-1.5223979156666665,-0.47975607733333336,10.705846786666667,14.955078763333333,-29.70054181333333,-7.68440485
381,3.174872999999934,-6.144505818666667,13.862376213333334,-39.769648233333335,-2.877505541,0.20412225166666667,8.894020398666667,13.451554613333334,-20.06193892,-8.234651407666666
382,3.1832059999997,-6.026353836333333,13.682221413333332,-39.807545966666666,-0.5434057959999999,0.06722444033333334,0.7519614993333333,14.89934222,-21.534786543333336,-6.995726666
383,3.191538999999466,-5.918141364999999,13.494144756666666,-39.84363303333334,-0.5749453309999999,-0.21205027866666662,2.0585854846666662,13.517707190000001,-22.615390143333332,-6.869805415666668
384,3.1998720000001413,-5.832862536333334,13.308839800000001,-39.8841578,-2.090740879333333,-1.6025096026666665,4.091978311666668,10.973042487,-22.11268361666667,-7.317372162000001
385,3.208204999999907,-5.7309454283333325,13.167462983333335,-39.91772463333333,-1.2152017753333333,1.1084882416666666,2.9863668283333333,12.691594760000001,-17.08533986666667,-5.938291549666666
386,3.216537999999673,-5.621605873333333,13.021573386666667,-39.9645233,-1.0848102073333334,-1.3451436159999999,1.8126237193333334,13.984465283333334,-17.363081933333333,-7.510451157666666
387,3.224870999999439,-5.549227555333334,12.886142413333333,-39.97200266666667,-2.297991951333333,-1.5257142386666667,7.046754519333334,8.45346101,-16.649051983333333,-2.776614308333334
388,3.2332040000001143,-5.473671594999999,12.777484893333332,-40.01417796666667,-0.451736033,0.8038965863333333,3.9466824529999998,9.754239878,-13.032581648666666,-6.517983277666667
389,3.24153699999988,-5.386660575666667,12.689510663333332,-40.030698133333324,-3.580386638666667,-1.3784160216666665,-0.6818583506666666,10.466896694,-10.915414967666669,-3.2381097873333338
390,3.249869999999646,-5.32336394,12.603724159999999,-40.04603323333333,1.1371914546666666,-2.038841048666667,2.8245934246666664,7.564806779,-10.577446458333334,-3.1101020573333327
391,3.258203000000321,-5.256578763333334,12.520258586666666,-40.06892396666666,-3.9090939263333326,0.8833030066666668,7.834050496333333,8.180172284333333,-10.319418429,-3.9135615030000004
392,3.266536000000088,-5.203504880333333,12.484937350000001,-40.089510600000004,-0.07458802066666663,-1.4322005110000002,1.7179705503333331,6.478608927,-4.494542916666666,-3.1457739670000002
393,3.2748689999998533,-5.151227792,12.41700649,-40.09848026666667,-1.4221898316666668,-1.44205002,2.063458368,6.073255539000001,-8.585444131666668,-2.090980013
394,3.283201999999619,-5.133830706333334,12.378332136666666,-40.12918346666666,-1.8763260443333334,0.037825345999999906,5.606192589,2.443577090666667,-4.827434301666667,-4.3875436783333335
395,3.2915350000002945,-5.109078566333333,12.378990806666666,-40.145688366666676,-1.2109440166666667,-0.9661968550000001,1.0618725416666666,2.9751449423333334,-0.34182647866666666,-2.227546692
396,3.2998680000000604,-5.101758479666667,12.334718703333332,-40.168177299999996,-0.01174895199999996,-2.021645268,2.4673109253333334,1.0313272673333334,-5.550481438666666,-3.477666179333333
397,3.3082009999998263,-5.1192315420000005,12.337462426666667,-40.176984166666664,-2.7602979543333332,0.42037284366666666,5.785416126333334,-2.30393217,-0.1765037376666664,-1.3193167546666666
398,3.316533999999592,-5.139228343666667,12.340627033333334,-40.21169026666667,-0.18033097166666665,-1.364796718,1.770078421,-1.9334816139999997,0.2485949199999998,-4.406232992666667
399,3.324867000000268,-5.174145698333334,12.349016823333335,-40.202580766666664,-1.809683998333333,-0.8787940393333334,2.5524637303333333,-4.837560176666667,0.3452930453333334,0.8429349263333333
400,3.333200000000033,-5.217337449666666,12.35653178,-40.23235573333333,-0.05952274799999987,0.744812747,5.441956202333333,-4.855157216333333,0.6855736573333336,-3.807419657666667
401,3.3415329999998,-5.26478529,12.435038246666666,-40.23314156666667,-4.2788900136666665,-2.055627703666667,2.1732373833333334,-6.0775160643333335,8.79960998,0.4570777416666667
402,3.349865999999565,-5.318388779666667,12.442042353333335,-40.23231503333333,3.3817230859999996,0.19523473566666652,4.868667523,-6.875979423666667,0.32997576266666623,-0.24560205133333332
403,3.3581990000002406,-5.3849255246666665,12.525420503333335,-40.24825796666667,-6.623621782,-0.20841602000000004,5.781908829999999,-8.001279116333334,9.542975585333334,-1.2510334053333334
404,3.3665320000000065,-5.453962644,12.594420433333333,-40.24207813333333,3.6641677616666666,-1.1391169133333334,2.00511986,-8.847524802666666,7.678845444999999,1.08064352
405,3.3748649999997724,-5.518257459,12.639089266666666,-40.25272880000001,-3.133378466,-0.478054563,5.275978922666667,-7.875912507333333,4.888831059333333,-1.042256184
406,3.3831979999995383,-5.6101999283333335,12.644143103333334,-40.22927856666667,2.018560757,0.3820593706666667,9.1127429,-12.039413769666666,-0.18229699133333335,2.352812767
407,3.3915310000002137,-5.708438078666667,12.715258916666665,-40.242487566666675,-5.497637351666666,-1.337163965,3.2995990516666662,-11.894784293,8.048370637666666,-1.0231737046666667
408,3.39986399999998,-5.775500615333333,12.754523276666667,-40.22427366666667,3.3114658296666666,0.1544739803333334,-0.31383426966666667,-8.910617350666667,3.980879665333333,2.1661959883333335
409,3.408196999999745,-5.817805925999999,12.745045343333333,-40.22980496666667,-3.50261875,-0.47879799200000006,4.183889866,-5.385141293,-1.663593431,-1.0797253450000002
410,3.416529999999512,-5.811600526333334,12.682995163333333,-40.197957366666664,3.2947502933333337,-0.25512471800000003,10.494482043333333,-0.4526844023333331,-8.273067154333335,2.5364887316666667
411,3.4248630000001867,-5.825925509,12.587395986666666,-40.1866989,-3.989175518333333,1.2310012183333334,12.67715708,-2.4845211106666665,-12.120782216333334,-0.17808699633333314
412,3.4331959999999526,-5.827546119666667,12.46383985,-40.15081023333333,3.6364825563333336,-0.36872971033333357,3.736435493,-1.5034546850000003,-15.692152976666668,2.2415793733333333
413,3.4415289999997185,-5.814197540333333,12.301225026666666,-40.131169633333336,-4.110574722333333,-0.7390070606666668,5.636483669333333,0.6414789359999999,-20.243949253333337,-0.012286156333333334
414,3.4498619999994844,-5.795300642666667,12.093848543333332,-40.08873493333333,2.516576925666666,0.0346162716666667,8.163792927666668,0.8189693293333334,-25.752731326666666,2.018992573
415,3.45819500000016,-5.734047571666667,11.874321303333334,-40.059193933333326,-3.8999010723333334,-0.8558767239999999,5.839974403666666,6.1590754190000006,-27.155263900000005,0.47676257266666666
416,3.4665279999999257,-5.655621052,11.598464646666669,-40.0145162,2.033555587333333,0.063172559,9.173333960999999,7.966643808666666,-33.939573286666665,1.4172676676666665
417,3.474860999999692,-5.5671281813333335,11.337006886666666,-39.97423043333333,-3.9578904310000005,-0.5596685806666667,8.238917350666666,9.196060182333333,-32.286429090000006,1.3094103236666665
418,3.483193999999457,-5.4841721853333345,11.033613203333333,-39.92647553333334,1.741271973,-0.48691843966666665,10.313030561666666,8.479450225666668,-37.261341730000005,1.5594226320000002
419,3.491527000000133,-5.363023917,10.799959819,-39.8836492,-5.341330468666666,0.05154920633333334,6.729453087,13.12159284,-28.98389689,2.038762450333333
420,3.4998599999998987,-5.251409371666667,10.473799705333333,-39.836657233333334,2.2891658146666667,-0.6070443143333334,8.133292834,11.961943625333333,-39.97512308666666,1.3686471086666667
421,3.5081929999996646,-5.118240197333333,10.300074258666667,-39.7986908,-6.680723372666666,-0.22500977400000002,13.880644322666667,14.73396365,-21.75413036333333,2.233382602333333
422,3.5165259999994305,-5.007239182666667,9.953303337333333,-39.750844333333326,4.035825888333334,-0.6196869436666667,8.559365471666666,11.891595204666666,-42.453379946666665,1.4521363776666665
423,3.524859000000106,-4.889478047666667,9.834116617000001,-39.725158666666665,-10.333344302333332,-0.7656258939999999,6.965126583,13.190386136666667,-15.093977926666668,1.428915103333333
424,3.533191999999872,-4.7879021963333335,9.659507432,-39.69953920000001,3.4916998146666667,-1.023005059333333,8.639149816666666,11.23331674,-21.645993230000002,0.727008462
425,3.5415249999996377,-4.729342620000001,9.494606655,-39.6819763,-8.311698278666666,-1.8997270266666666,9.329597713,6.272683937333333,-20.473846434333336,0.06204020933333343
426,3.549858000000313,-4.669989427000001,9.592300414,-39.681012466666665,-0.15173379066666662,-0.3130578173333334,6.121870676666667,6.673781871666667,11.160295329999999,0.49877794599999997
427,3.558191000000079,-4.616782506333333,9.411419233000002,-39.672709133333335,-0.6960202756666667,-0.8207806846666666,7.361840884,5.814276377666666,-22.29741796,-1.0733483136666668
428,3.566523999999845,-4.575470765333333,9.449665706,-39.67047373333334,-3.3354001043333334,0.0728598333333333,13.862979095333335,4.4827132223333335,4.036987701666667,0.00903304400000001
429,3.5748569999996107,-4.561129093333332,9.542337737,-39.705731699999994,-4.4350221953333335,-2.1920602419999997,10.126623949333334,2.005766154333333,10.830938180333334,-3.556951423333333
430,3.583190000000286,-4.558335463333333,9.534504256,-39.692667633333336,1.0461304186666667,-1.196397106,1.4131120046666663,-0.33752735466666667,-1.5784984629999999,0.8735436399999998
431,3.591523000000052,-4.587660948333333,9.773570059333332,-39.755188,-9.291772524999999,-0.9364859663333333,8.378695248666666,-2.6960322856666665,28.597724916666664,-5.411501646333334
432,3.599855999999818,-4.632506846999999,9.941720325666667,-39.7404302,5.306174119666667,-0.9821245323333332,11.175633509,-6.06143562,19.45412,2.7904329696666665
433,3.608188999999584,-4.6481846173333325,10.025928497333334,-39.80234526666666,-5.173810879666667,0.9105222126666667,5.603743632666666,-1.051626856,10.069341502999999,-6.792644659333333
434,3.616522000000259,-4.629217624333333,10.291769661333333,-39.7709198,-0.5643477636666667,-0.8336146870000002,12.675504524666666,1.2532670496666667,30.98062388,5.714548826333332
435,3.624855000000025,-4.677370548,10.477227847,-39.844080600000005,-1.9364032326666667,-1.9048937956666665,14.623876254999999,-4.678596695333334,22.279094696666665,-7.097978354000001
436,3.633187999999791,-4.683081627,10.634615581666667,-39.80446116666666,-0.9036645889999999,0.4232805036666667,6.699857553,-1.887615839666667,17.934539476666668,5.601087490666667
437,3.641520999999557,-4.705495675333334,10.951366743333333,-39.86658476666667,-3.7354491253333335,-1.6641407806666668,2.6859809893333337,-1.787410587,37.875689189999996,-4.494886080666666
438,3.649854000000232,-4.750488758,11.037822086666667,-39.82617696666667,1.9731622140000002,-0.6002960106666667,13.248898189999998,-6.636141459333333,9.440085571,5.059891859666666
439,3.658186999999998,-4.774029255,11.270173393333335,-39.86599986666666,-4.020267248333333,0.5879379706666666,12.066439153333333,-2.411062081666667,27.564786913333336,-2.700597445333333
440,3.666519999999764,-4.766338030666667,11.414040566666666,-39.83752693333333,0.9530340236666669,-1.4931480089999998,3.4945662023333335,-0.053845246333333284,16.416512490666666,4.2577223779999995
441,3.67485299999953,-4.7616138459999995,11.49386438,-39.846043900000005,0.24343959466666623,-0.02195763566666664,9.502409140333333,0.2645866276666667,9.018257142666668,-0.537451585
442,3.683186000000205,-4.726347764333333,11.606459616666667,-39.828269933333324,-3.2519850733333335,0.2214324473333333,14.955654780000001,3.473956903,12.784145040333334,2.6596412660000004
443,3.691518999999971,-4.706570625666667,11.62968318,-39.804130533333336,2.2324997583333337,-1.5330623039999998,8.516787291666667,1.3191035986666666,1.9371575813333333,2.754482587
444,3.699851999999737,-4.689354101666667,11.622473716666667,-39.798825599999994,-2.6007260083333334,-0.6296493609999999,7.635674635333333,1.573294612,-1.4318354926666668,-0.013631035666666605
445,3.708184999999503,-4.640579382666667,11.675356546666668,-39.78084566666667,-0.8535611526666668,0.8387737813333332,11.343628565000001,4.969964504666667,5.555416499666666,2.3040859696666667
446,3.7165180000001774,-4.593199253,11.57372411,-39.763819366666674,-0.4879392780000001,-1.611483375,11.208338421666667,4.889979521333333,-12.843990165,0.476962708
447,3.724850999999944,-4.560352007666666,11.541064579999999,-39.737546300000005,-1.3745593630000001,-0.9352068203333334,6.847612858000001,2.8873219093333327,-4.734035889666667,2.4590518673333333
448,3.73318399999971,-4.5187191963333335,11.502457616666666,-39.73039753333334,-2.7988703250000007,-0.21753453200000003,12.273679257,4.4019557633333335,-5.236028512333333,0.014962792333333308
449,3.741516999999476,-4.4838005700000005,11.445082663333332,-39.67799886666666,-0.4259516793333333,-1.0818836889999999,12.584947267333334,2.530247132,-7.938275337333334,5.295043627666667
450,3.7498500000001513,-4.461598793666666,11.322262763333333,-39.67137653333334,-1.307613661,-0.43503933533333333,6.429762841333333,2.073011557,-15.295224348666666,-0.9149154820000002
451,3.758182999999917,-4.4133590856666665,11.32264773,-39.63345083333334,-4.504334926333333,-0.42575579900000005,7.752033789333333,4.519388516999999,-0.8803653716666666,4.14072903
452,3.766515999999683,-4.386375427333333,11.270724933333334,-39.634521500000005,0.41687846666666667,-0.39054063966666663,14.341755866666668,2.7774285323333334,-6.761898676,-1.0526687303333333
453,3.774848999999449,-4.3723794620000005,11.174439746666666,-39.61321509999999,-2.869570612666667,-1.8265429733333336,8.580264727666666,0.8017515740000002,-12.293362936333333,1.3138600986666666
454,3.783182000000125,-4.346501986000001,11.202911376666668,-39.620485933333335,-3.506796727333333,-0.6755413363333332,2.996230153666667,2.8208616573333334,2.9222470920000005,-1.168094317333333
455,3.7915149999998894,-4.341591517333334,11.2812891,-39.628036533333336,-2.5836897886666668,-1.7663596473333334,9.94783449,0.37513762199999995,8.861493586666667,-0.4637498063333334
456,3.799847999999656,-4.371750831666667,11.209866523333332,-39.627059933333335,0.00931634533333329,-0.6876986386666667,12.939759891333333,-4.079933802333334,-9.10724036,-1.0810742380000005
457,3.808180999999422,-4.405013322666667,11.391899426666667,-39.64977009999999,-5.839664379666666,-0.08768231700000001,8.675041596,-3.860311825999999,21.396193186666665,-1.3193204403333334
458,3.8165140000000974,-4.423804362666666,11.419128420000002,-39.651713066666666,3.2953859169999995,-0.7263562083333333,2.6717700956666666,-2.6230897903333332,2.726687113333334,-0.46727621599999997
459,3.8248469999998633,-4.4888308839999995,11.461751936666666,-39.6512985,-7.120360851333333,-2.3543608186666667,7.200421254999999,-8.236048857,4.514942169666667,0.09581025433333323
460,3.833179999999629,-4.608040809666666,11.797035536666664,-39.66968029999999,-1.3137280543333334,-1.5620843966666669,11.415644645,-14.282260260666668,39.71256510333333,0.6154003143333334
461,3.8415130000003046,-4.7058305743333335,11.741102853333333,-39.662900300000004,0.04712320366666667,-0.3803376256666667,3.8719573813333334,-12.329644839000002,-7.349595945333334,-0.07200163600000005
462,3.8498460000000714,-4.800992171000001,12.157762846666666,-39.700785333333336,-5.426914850666667,-0.5725377996666666,9.765164693,-10.878095308666667,49.64874267666667,-0.8572939436666666
463,3.858178999999837,-4.909074306666667,12.113999999999999,-39.6822688,3.1661865709999995,-1.2370417913333334,7.47002824,-13.851343792,-6.009880385,1.4496169883333334
464,3.8665119999996014,-5.048460801666667,12.536928176666668,-39.715484633333325,-8.547634283666667,-1.369053006,6.9162163733333335,-16.29761028333333,50.3463281,-0.052982370000000056
465,3.8748450000002777,-5.183336575666666,12.601970353333334,-39.7008667,5.794928074,-0.5111105,3.687768936666666,-16.969861346666665,7.027140535666667,2.1550837360000004
466,3.883178000000044,-5.321530183,12.924447376666665,-39.7370682,-8.399537881333332,0.42842031033333333,14.087675532,-16.04392751,38.37336858333333,-1.2876501876666666
467,3.8915109999998094,-5.396951198666667,13.01475493,-39.72532906666667,7.839029947999999,-0.07707436633333331,1.368240993,-9.763233821333333,10.066619398,2.1406028666666663
468,3.8998439999995753,-5.474857806999999,13.204346020000001,-39.751108800000004,-7.519130150333333,0.26865772399999993,12.165642858666667,-9.092268943999999,22.375749428666666,-1.374565045
469,3.9081770000002503,-5.563394864666667,13.29727141,-39.74464673333333,4.062747379,-0.7432867086666667,11.273516417333333,-11.194471995999999,10.435779730333334,1.5985453923333335
470,3.9165100000000166,-5.6292368569999995,13.35703373,-39.752349833333334,-4.062115033333334,0.99206837,9.669706541666665,-8.113613843666668,6.674650509,-0.7998052436666668
471,3.9248429999997834,-5.635535398999999,13.447930653333332,-39.7638397,1.6794732213333334,-1.0472075443333335,-1.6763620773333336,-0.8320831853333334,10.394946097,-0.5216947393333333
472,3.933175999999549,-5.630393187,13.36183103,-39.74146273333333,-0.4483837186666666,0.6625726993333333,14.132807730000001,-0.403172652,-11.087307533999999,1.005619375
473,3.941509000000224,-5.601630846666667,13.37977918,-39.74861653333333,-1.8091366686666668,-0.2214945456666667,10.071331976666665,3.2247726123333336,1.6307562999999998,-0.9045283496666666
474,3.9498419999999896,-5.554854551999999,13.210314113333334,-39.712351466666654,1.2440761326666667,0.11850594099999996,5.8009105540000006,4.221735636333333,-21.205128986666665,1.8165753086666667
475,3.958174999999756,-5.459146022666666,13.063241640000001,-39.70331573333333,-2.4654694399999997,-0.29298910499999997,7.174199342333334,10.778098424,-18.270055133333333,-0.978634993333333
476,3.9665079999995214,-5.3708125749999995,12.977788926666667,-39.693598433333335,-1.3812372983333334,-0.5869966346666667,12.383753459333334,9.981335321333335,-10.856415270333335,-0.35917123166666665
477,3.974841000000197,-5.229644934666666,12.587857246666667,-39.659464500000006,2.6571946143333336,0.14604987699999997,5.911980509666667,15.57484023,-47.55677922666666,-0.6374132633333334
478,3.9831739999999622,-5.096348762666666,12.503884633333334,-39.65993243333334,-7.530169805,-0.501464665,11.404712361666668,15.62753423,-10.584633826333333,-1.4438284236666667
479,3.991506999999729,-4.977487405,12.166597363333333,-39.62138876666666,5.579501549333333,-1.3940191866666665,15.167662541333334,12.833130834333334,-41.31448364,0.6842038786666667
480,3.9998399999994954,-4.844512144666667,11.85719522,-39.601081833333346,-6.720908642,-0.20874261866666668,7.017307680333334,15.04768753,-37.74743016666667,-1.3049370943333332
481,4.00817300000017,-4.693090597666667,11.639579136666667,-39.565480533333336,0.9753186703333333,-0.5141487693333333,6.118360161666666,16.870378493333334,-26.970453263333336,1.7182299296666665
482,4.016505999999936,-4.5464835169999995,11.336824733333332,-39.554161066666666,-4.228784521666667,-0.6369040213333333,11.141124726333333,16.913130443333333,-36.87244288,-2.0705342493333334
483,4.024838999999702,-4.402183373666667,11.020697593333333,-39.50276183333333,2.5508195163333336,-0.16222467066666668,9.141078311666666,15.685040790000002,-38.88487498,2.7781797249999998
484,4.033171999999468,-4.2799167633333335,10.777523678,-39.52272543333333,-8.081698417666667,-1.7147812593333331,10.028690655333333,14.691302616666666,-29.48435529,-5.048817634333333
485,4.041505000000143,-4.151394605666667,10.580690063666667,-39.476155600000006,2.6818593343333332,-0.493104617,14.1348629,13.975148516666666,-24.554334643333334,3.4501417080000003
486,4.049837999999909,-4.062638998,10.318589529,-39.512746166666666,-5.037870407333334,-1.2381124696666668,11.361377078666669,10.998258907333332,-31.626070656666666,-7.112336477666667
487,4.058170999999675,-3.957627376,10.085327784,-39.47124483333334,0.24254267400000004,-0.4543272056666667,7.089804410666667,11.338052431,-28.85251681,2.6315842469999997
488,4.066503999999441,-3.8933304943333327,10.007196108999999,-39.5202306,-7.954226493999999,-1.8209320306666665,7.855945506,8.278284231333332,-9.525446494666665,-6.987116137999998
489,4.074837000000116,-3.871540785,9.901900926000001,-39.50279486666667,0.486809158,-1.843814894333333,10.522216323,1.8726186753333334,-13.333368299999998,0.9132289093333336
490,4.083169999999882,-3.878658612666667,9.821070354,-39.54885353333333,-3.743335485333333,-2.190045754,8.194040616666667,-0.3648145596666669,-9.879690012,-6.678920452
491,4.091502999999648,-3.866897980333333,9.816855746666667,-39.54882556666667,-2.4384969076666665,0.657023947,9.247882524666666,1.0279590613333334,-1.090953032,-0.3308719793333334
492,4.099835999999414,-3.867161830333334,9.833774883,-39.58106996666667,-1.1135697089999999,-1.7472574906666665,10.189349172666667,0.186125815,1.7101218699999998,-4.218067328333333
493,4.108169000000089,-3.9030975503333334,9.781079291,-39.58402506666667,-0.43057084066666657,-0.8864994246666668,11.033880078000001,-4.649794956,-6.873277187333333,-1.0746837856666664
494,4.116501999999855,-3.933715820333333,9.794114749333334,-39.6084849,-3.893943031666667,0.32118199533333336,10.796142260333333,-3.6037908890000003,1.191232681,-3.351686855333334
495,4.124834999999621,-3.9693498613333333,9.910573640333334,-39.6037903,-3.9474111396666665,-1.9062379600000003,10.570654074,-4.770878672666667,13.313112256333334,1.2063670156666664
496,4.133168000000296,-4.037196636,9.962791760666667,-39.62985483333333,0.06217324733333326,-1.645405988,7.117737890333333,-8.035071215,5.89495492,-3.1847121716666664
497,4.141501000000062,-4.090943892666667,10.030474663666666,-39.62220253333333,-2.3930907446666665,-0.6959630450000001,7.900203069,-7.0036969183333335,7.447732288666667,1.168039083666667
498,4.149833999999828,-4.1089275679999995,10.150735220333333,-39.64288076666667,-2.912336687333333,0.6348762563333332,10.498552321666667,-2.1654406786666667,13.9984471,-1.9839169183333336
499,4.158166999999594,-4.128857215333333,10.208556812333333,-39.61125693333333,0.03689016433333333,-1.5909645556666667,9.333038012333333,-3.432990789333333,6.067222913333333,3.9365078610000004
500,4.166500000000269,-4.180900176333334,10.223998068333332,-39.62741343333334,-0.34504779199999996,-0.194142893,11.948187828,-6.356262604000001,1.4086076939999999,-2.3414322533333336
501,4.174833000000035,-4.178562482333334,10.303033192333334,-39.61250813333333,-3.7286566100000003,0.5632136066666665,8.961225192666666,-0.4124831359999999,8.749413491666667,2.142729123666667
502,4.183165999999801,-4.143510739,10.32211558,-39.60759733333333,0.16160710666666667,-0.6654039323333333,9.00193119,3.646592021333333,1.6626158356666665,0.17848444000000008
503,4.191498999999567,-4.131752809000001,10.307819685,-39.5983251,-1.147256732,-1.4111785493333333,11.541216849,0.835403939,-2.3709602156666665,0.6761345863333336
504,4.199832000000242,-4.120263099333333,10.268760046666666,-39.595410666666666,-0.12979201966666665,-0.22610412033333335,12.300473850000001,0.8756781419999999,-5.277339786333334,-0.5771871406666668
505,4.208165000000008,-4.083101828666667,10.282593407999999,-39.57884726666666,-3.7949794929999996,-0.5139302613333333,10.835822424333335,3.724335909,0.9362129373333331,1.7655673029999999
506,4.216497999999774,-4.027029196333333,10.21192201,-39.56877133333333,0.7370693090000001,0.3416036166666667,12.01057307,6.052175045333333,-9.126084963666667,0.005216916333332951
507,4.22483099999954,-4.003092368333333,10.121579169333334,-39.54539743333333,-3.081414540666666,-1.909415801,10.557117301,2.0245663326666667,-11.582626345666666,1.7161847750000003
508,4.233164000000215,-3.9670476913333332,10.010233561999998,-39.527562466666666,1.3646586936666667,-0.813532253,6.756174723333333,3.4873700139999997,-14.061351143333335,0.5861991246666663
509,4.241496999999981,-3.9121242366666666,9.949547451,-39.522595733333326,-6.191306114,-0.056951324333333275,9.153720217999998,6.118361949666666,-7.879712422333334,-0.2218411763333338
510,4.249829999999747,-3.845828771666666,9.827994345666665,-39.48365783333333,2.0380595326666664,0.4009492396666667,16.80635802,6.6914728483333334,-15.452359199999998,3.051048958333334
511,4.258162999999513,-3.7920610903333327,9.708084743666667,-39.49225616666667,-5.049922227666666,-1.4730147916666667,11.981929143666667,6.2355303766666665,-14.869454383333334,-2.2664593456666666
512,4.266496000000188,-3.7349494300000003,9.550670942333333,-39.46241,2.035772085,-0.6370432773333333,6.629261016666667,5.815244515666667,-19.66421318,1.7512712530000003
513,4.274828999999954,-3.691364844666667,9.432924272,-39.47968293333333,-5.797688802000001,-2.2103555900000003,9.314421972666667,5.159967502,-14.552593863333334,-3.2690004906666665
514,4.28316199999972,-3.657739719,9.319282532666668,-39.451945,1.6105039716666667,0.49046040700000004,15.7434899,3.073384364666667,-14.400902746666667,1.8803541263333334
515,4.291494999999486,-3.632774750333333,9.252971649666668,-39.4849065,-6.994669278333333,-1.696853121,12.953588486666668,3.2059765843333334,-8.278961023333332,-4.718385775666667
516,4.299828000000161,-3.5952041943333337,9.144481659333332,-39.44256846666667,3.2281440893333335,-0.5364474889999999,8.202001253333334,3.2886552016666664,-13.88925012,3.67586565
517,4.308160999999927,-3.5780967873333336,9.041865984666666,-39.48716989999999,-6.100293318333333,-1.440774262,10.456964173333333,2.44443506,-12.551586786666666,-6.361223379666666
518,4.316493999999693,-3.5570178029999995,8.919260978666665,-39.43104043333333,3.1867037613333338,-0.27992685133333345,11.853170076333335,1.1117347973333334,-15.670289356666666,5.242616633666667
519,4.324826999999459,-3.5448203883333336,8.846478462333334,-39.466735866666674,-7.0768750506666676,-1.3603341776666664,9.387532870000001,1.644873907,-9.052831331666667,-5.093125721
520,4.333160000000135,-3.5261349676666662,8.750654538333334,-39.404785133333334,2.085844318,-0.1144756973333333,12.228924116666667,0.7596713406666668,-12.499190172333334,6.120390740333335
521,4.3414929999999,-3.5324665703333333,8.670461813333334,-39.43580626666667,-6.352752367666667,-2.394569039333333,16.075222333333333,-0.6934030093333333,-9.979028384666668,-4.575582345666667
522,4.349825999999666,-3.511653343666667,8.591692924333332,-39.35785416666666,2.251722554666667,0.18880132466666663,13.688637416666666,0.765686154,-10.567090668333334,8.139254442666667
523,4.358158999999432,-3.5237076283333333,8.465239842666668,-39.397913599999995,-4.400798559,-0.6758169033333333,14.22175884,-1.2698049546666665,-15.461935996666666,-5.995786664333333
524,4.366492000000108,-3.5166712600000003,8.414167086333334,-39.32526396666666,-0.5428295546666667,-1.1909438966666668,10.709499995,-0.7313634556666665,-7.206126531,7.740696271
525,4.374824999999873,-3.5199559526666664,8.235473474,-39.35245513333333,-1.9180078903333335,-0.665016311,13.378448483333331,-0.484408041,-21.818510693333334,-4.8618246706666675
526,4.383157999999639,-3.487407764,8.175401528666667,-39.284713733333334,-1.441808959,-1.0438349396666666,12.907905576666666,2.471889456,-8.238465627333333,7.124443054000001
527,4.391491000000315,-3.4634130793333333,7.987635612333334,-39.3033549,-0.8724601863333333,-0.011641323333333342,18.11891047,2.6208755573333335,-22.981271743333334,-3.9001356766666664
528,4.399824000000081,-3.4279940923333334,7.971553802666667,-39.25782266666666,-4.309334079666667,-0.60424002,14.926841099999999,3.2051993210000003,-2.7999436653333327,4.803468386666666
529,4.4081569999998464,-3.3805942536666667,7.756090799666666,-39.267303466666675,-1.9742651783333336,0.3988661863333333,15.966524759999999,5.284519354666666,-26.362459183333332,-2.9747044253333343
530,4.416489999999612,-3.2790708540000004,7.754934946666666,-39.230532333333336,-6.510000864666666,-0.7538239263333333,13.699527421666666,11.284670033666666,-0.943243807,3.8593959813333325
531,4.424823000000288,-3.2179210186666665,7.583782354999999,-39.2498932,2.4413866600000005,-0.9487224816666667,19.175388814333335,7.094242095999999,-21.002248126666668,-3.74891154
532,4.433156000000054,-3.094095309666667,7.461563428333332,-39.2148056,-4.647182861666667,0.38483057899999995,15.69019858,14.002693173333332,-15.424117723,2.877285639666667
533,4.44148899999982,-2.973216613,7.473002275,-39.2302348,-2.5648156803333335,-0.007406194999999949,15.708595280000003,14.214809733333333,0.845291237,-2.070817311666667
534,4.449821999999585,-2.8474393686666666,7.2764403023333335,-39.21340433333334,-3.695132414333333,-1.0798154723333333,14.640269279666668,14.497275033333333,-24.213303883333335,0.3505436576666667
535,4.458155000000261,-2.690214633666667,7.240071614666667,-39.2130559,-1.2467409546666666,-0.40225385633333327,14.078217189999998,18.349070870000002,-4.983341058333333,-0.5054799713333337
536,4.466488000000027,-2.5442998410000004,7.231211662,-39.2069448,-3.1621942120000006,-1.4307953713333335,14.861195566666666,17.077395120000002,-1.6506289243333334,0.23086071000000055
537,4.4748209999997925,-2.397915244,7.107642968333333,-39.20335896666666,-0.7686346099999999,-0.461510897,15.198639233333333,17.006409010000002,-15.453208923333333,-0.5420136450000003
538,4.483153999999558,-2.2359232903333335,7.099311034,-39.22244516666666,-8.564723175,-2.2613812486666665,19.062093416666666,19.34405581333333,-1.4741508166666666,-2.769309322333333
539,4.491487000000234,-2.1028695106666664,7.116540113999999,-39.22963713333333,3.254356849,-0.9545594253333333,17.98226706,15.593070983333334,1.4825568199999999,-1.0732363859999998
540,4.49982,-1.987055500333333,7.013098558,-39.263020833333336,-4.735188861666667,-0.541014537,10.335707823666667,13.984840711333334,-12.839802743,-4.855833530666667
541,4.508152999999766,-1.9096496900000002,7.136851310666667,-39.26662696666667,-3.5559688806666667,-2.556934754,13.818503538000002,8.906694253,14.256519316666667,-0.2399200996666667
542,4.516485999999532,-1.878618439,7.146176179,-39.31520083333333,-1.6379937599999999,-2.9059169293333333,16.592981972666667,4.012435873333334,0.7215404510000001,-6.122993151666667
543,4.524819000000207,-1.8627309799999996,7.1890788080000005,-39.31523133333334,-3.3212904136666666,-0.10438889766666666,15.91520945,1.4847891333333336,4.550930023666667,-0.177878062
544,4.533151999999973,-1.8621440726666665,7.367944399333332,-39.351003033333335,-5.894086679,-1.5889587006666666,14.690333363333332,0.17796343066666673,21.001358033333332,-3.9708611169999997
545,4.541484999999739,-1.8987585306666663,7.4790636699999995,-39.35817719999999,-0.05847116300000003,-0.8199915786666666,17.127407393333332,-4.707453310666667,12.760833581666667,-0.719490893
546,4.5498179999995045,-1.96112295,7.563028494666667,-39.38397726666667,-2.3325177033333335,-2.4261991579999997,12.304818471666666,-7.526368696333335,9.582440216333334,-3.1373771730000004
547,4.55815100000018,-1.999219337666667,7.761850833666666,-39.3755188,-2.417853851,-1.4419924020000001,8.919489543666666,-5.115673700666666,23.213238399999998,1.5225581326666664
548,4.566483999999946,-2.0510123969999996,7.922017733,-39.42599740000001,-3.384593963666667,-2.5037208,13.167185786666666,-5.844363768666667,18.826973596666665,-5.705355247
549,4.574816999999712,-2.115862846666667,8.014882087666667,-39.42179106666667,-1.4123851853333333,-1.0336977440000001,23.22163709,-8.25788959,10.528391840333333,0.596688032
550,4.583149999999478,-2.2007507883333335,8.152114073333333,-39.46695456666667,-4.063029289666667,-0.610758394,22.445686339999998,-9.901327133666667,16.05675856,-5.1486170289999995
551,4.591483000000153,-2.2719614900000002,8.273146629000001,-39.47570293333333,-1.3259797296666667,-1.0949238536666666,14.538441343333332,-8.774119538666666,13.966198603333334,-0.7679025333333334
552,4.599815999999919,-2.3556499483333333,8.432251294333334,-39.5166982,-2.154767156,0.9464308420000002,16.644658404,-9.804438750000001,18.67603143,-4.489435672666667
553,4.608148999999685,-2.4309256073333336,8.533368428666668,-39.5277405,-2.4806918103333335,-1.6463506223333333,12.54862722,-9.224224011999999,11.587543805333334,-1.0992266336666665
554,4.616481999999451,-2.467516263333333,8.614372889,-39.54801940000001,-1.716425518,-1.207596501,11.085731823333333,-4.492536783333333,9.219673793666667,-2.3895948729999996
555,4.624815000000126,-2.506352226,8.634293874333332,-39.53921763333334,-0.5432711886666667,-1.4094458223333335,15.100559552333332,-5.210618654666667,1.7542293863333331,0.8598444463333331
556,4.633147999999892,-2.5391310849999997,8.705534617,-39.53333536666667,-3.417735576666667,-1.375326454666667,20.213301343333335,-4.492963314,7.914670865333334,0.6741751829999999
557,4.641480999999658,-2.576573372,8.738448461,-39.52012886666666,-2.9679157733333335,-2.2699478463333334,12.887696263333334,-5.1329219539999995,3.286729533666667,1.4534072079999998
558,4.649813999999424,-2.6055702366666664,8.768990039666667,-39.49768576666667,-3.205559015,-1.1409249056666666,15.800762176666666,-4.338006099333334,2.946742852333333,2.4143040179999997
559,4.658147000000099,-2.6682225066666665,8.741379261,-39.48706566666666,-0.3258251546666666,-1.5727273923333331,21.301448186666665,-8.130142369666666,-3.959167639666667,0.8231264353333333
560,4.666479999999865,-2.7304983933333333,8.691998799333332,-39.47008006666667,-1.79883492,-1.061128239,15.133915266666667,-8.230669974666666,-6.607667445,1.330335309
561,4.674812999999631,-2.783980131333333,8.671512603666665,-39.45602163333334,-2.6448242266666666,-0.9389152026666667,11.107531389333333,-7.086456616666666,-3.126841147999999,1.260250489
562,4.683146000000306,-2.881497542,8.632235527333334,-39.45457206666667,-4.577595869333333,-1.6294702293333334,19.63760821,-12.188813847666667,-5.3086547243333335,-0.47313737866666655
563,4.691479000000072,-3.0156801543333334,8.615137577333334,-39.45796206666666,-2.9826713799999998,-2.5110452469999998,16.797096253333333,-16.450707753333333,-2.620764096333333,-0.8024979830000002
564,4.699811999999838,-3.1171130339999995,8.564260800666666,-39.472274766666665,-2.0896866419999998,-0.570164067,7.446857612333333,-12.374483746666668,-6.596405587,-2.432644446666667
565,4.708144999999604,-3.208842913333333,8.567491372333333,-39.48323313333333,-2.1328937016666667,-1.884946664,8.613315424,-11.222337087999998,-0.13377873099999996,-1.563621511
566,4.716478000000279,-3.291942358,8.536477725,-39.481999699999996,-3.1386193436666665,-1.268844048,26.36330477333333,-10.435169378,-4.317921281666667,-0.4723433260000001
567,4.724811000000045,-3.400931279,8.533429940666666,-39.493504833333326,-4.490241368666667,-0.9098646243333333,20.923300423333334,-13.295682906000001,-0.876041769666667,-1.6795212353333333
568,4.733143999999811,-3.483882983333333,8.528871695,-39.473663333333334,-1.2799706086666667,-0.8449921610000001,8.782778104,-10.738423505999998,-1.2794651586666668,1.9061345656666664
569,4.741476999999577,-3.6100528240000003,8.580325285333334,-39.4715678,-4.808868726,-2.733627994666667,11.771995545666668,-15.590640066666666,5.556070407333333,0.33266496666666673
570,4.749810000000252,-3.7753270469999998,8.638111114333334,-39.4519094,-0.8901798326666666,-0.19090175600000003,23.820566810000003,-20.628957749999998,6.176811417,2.363716503
571,4.758143000000018,-3.9650292396666664,8.691068013333334,-39.47570796666667,-4.891141732666667,-2.163561582333333,15.146979963333335,-22.777433713333334,5.938706557,-2.6924287476666664
572,4.766475999999784,-4.1248442333333335,8.720271110666667,-39.467302933333336,-0.824449122,-1.365261058,6.735674699,-19.75677998666667,2.8376910636666666,0.819591726
573,4.77480899999955,-4.323738893000001,8.777665456000001,-39.49610903333333,-4.203562577333333,-1.300061856,10.637172698999999,-23.792987186666668,6.526861031999999,-3.212056716333333
574,4.783142000000225,-4.5251267749999995,8.867519378666666,-39.5090917,-1.0646633110000001,-2.4426576696666666,18.905288063333334,-24.328326543333333,10.289526304666667,-1.223375062
575,4.791474999999991,-4.724972566,8.944156329,-39.56613666666667,-4.344794909333333,-1.3076575449999999,13.035535653666665,-23.368097303333332,9.117946147333333,-6.307282447666666
576,4.799807999999757,-4.878221512,9.025892893666667,-39.57999676666666,-1.0744787853333333,0.10549159866666669,11.047147752666667,-18.517608643333336,9.337903179333333,-1.3781615893333334
577,4.808140999999523,-5.060340245666667,9.058561007333333,-39.620135,-4.944011449666667,-1.3717709183333333,20.720750813333336,-21.55373192,3.7223559219999998,-4.711659193333333
578,4.816474000000198,-5.23173968,9.152415593333332,-39.626119,-0.9335587173333333,-0.057003316666666665,20.01245944,-20.825826646666666,10.707374572666666,-0.2658329906666666
579,4.824806999999964,-5.401825905,9.223192851666667,-39.66617073333334,-2.8531876803333334,-0.00475811499999997,7.324849447000001,-20.096295673333334,8.301390012,-4.250321785666666
580,4.83313999999973,-5.531689008,9.336386044333333,-39.667269366666666,-0.8357531823333333,-1.016965568,8.794118961999999,-15.930185,12.961618106666668,0.6065238316666668
581,4.841472999999496,-5.6721485456666665,9.335336367666665,-39.686398833333335,-3.0521777473333334,-1.3913543226666667,13.547498703666667,-16.936498323333335,-0.4980988800000001,-2.5705554286666668
582,4.849806000000172,-5.7859772046666675,9.409892081333334,-39.68068696666666,-3.7702885470000003,-0.7214750896666667,15.332270943333334,-14.153230666666666,8.263598124,1.0133291483333335
583,4.858138999999937,-5.908174514666666,9.433047293,-39.70832063333334,-1.8070128756666668,-1.175925533,14.74542014,-14.581187566666665,2.4989977556666667,-3.2831648349999996
584,4.866471999999703,-6.010109107000001,9.508893966666667,-39.72388456666666,-3.0996807613333335,0.258657694,11.34554895,-12.303476653333334,8.679279167999999,-1.4628377333333333
585,4.874804999999469,-6.116391499666666,9.497792243666666,-39.74000806666667,-0.38164526233333335,-1.0279881753333333,11.417723813999999,-12.891569453333332,-1.720734715333333,-2.3379096890000004
586,4.8831380000001445,-6.211019516,9.550521850333334,-39.7489675,-3.703529596333333,-0.8036390936666667,13.903294246666666,-11.555478733333333,5.839042822666666,-0.9530588093333333
587,4.89147099999991,-6.301019509333334,9.619308153666667,-39.7795817,-1.9117498996666669,-0.19027085600000002,10.300903001999998,-10.635860443333334,8.002319176999999,-3.0076068639999995
588,4.899803999999676,-6.362689018333334,9.668134690333334,-39.79611716666667,-2.17084943,-0.730957488,11.995406150666668,-7.452799321333333,5.474590162333333,-1.8817542393333333
589,4.908136999999442,-6.418103059333333,9.660275459333333,-39.8067678,-0.6860040823333332,-1.0976684166666668,14.195257503333332,-6.8741957346666664,-1.3936325313333333,-1.6521782476666667
590,4.916470000000118,-6.452326139,9.683554966333332,-39.813235,-5.864235480666667,-0.0962804356666666,14.334767976666667,-4.360273043333333,2.300538843,-1.0603824160000002
591,4.924802999999884,-6.464140256333334,9.732385954333333,-39.824094133333325,-0.09931528566666674,-0.5516715583333334,14.17881457,-1.6236481070000002,5.371843550666667,-0.9042209983333334
592,4.933135999999649,-6.472462177666666,9.699733735666667,-39.827191633333335,-3.167791525666667,-0.8512583996666666,13.809928576666666,-1.3239144286666666,-4.411731958666667,-1.4129452506666667
593,4.941468999999415,-6.465626081,9.676298778000001,-39.814272533333344,-0.07999392333333318,-0.31143548066666665,10.685089907666667,0.12212024133333325,-3.5625091393333332,0.9009893143333333
594,4.949802000000091,-6.4531618753333335,9.650305113333333,-39.81179806666666,-3.674291193666667,0.004149501333333351,12.558849653333333,1.0453936510000001,-3.700036187666667,-0.6320141803333333
595,4.9581349999998565,-6.435599327333333,9.698387783333333,-39.815020266666664,-1.0488407613333333,-0.9975467076666665,14.320400236666666,1.7454907496666667,5.181401570666666,-0.030032674666666665
596,4.966467999999622,-6.421165625666666,9.601326307666668,-39.814376833333334,-1.3378491476666667,-0.4072972736666666,9.694953519333334,1.3141126456666665,-12.148491223333332,-1.81116569
597,4.974801000000298,-6.390232404,9.606396675666666,-39.81355026666667,-4.770469506666667,-0.8950554070000001,10.643665234333334,3.2753690083333336,0.003056565999999964,-0.15014634500000001
598,4.983134000000064,-6.371849696000001,9.573904357,-39.81755066666667,-2.5406723816666665,-1.2203374506666667,14.262701033333334,1.8786077503333332,-4.388832807333333,-1.5043837230000001
599,4.99146699999983,-6.330781619,9.572465579000001,-39.82403816666666,-2.6602450213333335,0.2711278896666666,12.124907493333334,4.628876686,-0.6796271006666664,-1.0934418873333334
600,4.999799999999596,-6.286237080666666,9.460111937,-39.82282766666666,-1.269621529,-1.8108185530000005,11.674892903333332,4.907282670000001,-13.988021533333333,-1.9028009773333334
601,5.008133000000271,-6.209040641666667,9.477064450666665,-39.82977803333333,-4.659598827333333,0.035406311666666745,13.033619404666666,8.978823345333334,1.5211869476666664,-0.9267231326666666
602,5.016466000000037,-6.150019486666667,9.446356137333334,-39.84458923333334,0.31958862166666663,-1.5701250536666669,9.095649721333332,6.970402795666668,-4.043519338333334,-2.7327789266666667
603,5.024798999999803,-6.065958340666666,9.356949170999998,-39.8434677,-2.5103857716666664,-0.867791951,11.189196271,9.648312728333334,-11.271601359000002,-1.32191664
604,5.0331319999995685,-5.981409391,9.344915073000001,-39.84965259999999,-3.1167646646666665,-0.26510876433333325,13.242370288333333,9.872444789666668,-1.928137461333333,-1.4719008803333333
605,5.041465000000244,-5.881548563333333,9.311120986666666,-39.8588028,-1.7370536326666668,-0.4431331356666666,12.356312116666667,11.729903223333332,-4.512925704333333,-1.800522963
606,5.04979800000001,-5.765394211,9.220914204333333,-39.849899266666675,-2.2214987676666667,-1.5556050143333335,8.461810589666667,13.372927983333334,-11.442130087999999,-0.6401597063333333
607,5.058130999999776,-5.642651081333334,9.192620914,-39.8381704,-2.464902838,0.23189614199999994,12.349550407333332,14.072386106666668,-4.111349801333334,0.712955187
608,5.066463999999542,-5.545749823333334,9.160110793333333,-39.8472112,-1.080533067,-2.0550786110000003,13.077491761666666,11.399489087,-4.351360241666667,-2.0032170416666664
609,5.074797000000217,-5.451005617666667,9.062127749666667,-39.83522800000001,-1.651826858333333,-1.034619252,11.644966443333333,10.716913541666665,-12.431552886666667,-0.029537598666666682
610,5.083129999999983,-5.355707168666666,9.036602338333333,-39.82955426666666,-3.8406515916666666,-1.1589740913333333,8.21368726,10.930337588999999,-3.6837073166666663,-0.21546699633333333
611,5.091462999999749,-5.269227663666666,9.047606786000001,-39.83032483333333,-2.301646471,-1.0806572433333335,11.960796993333332,9.958968797,0.7292289536666665,-0.26690458466666667
612,5.099795999999515,-5.212283452333334,8.946022033666667,-39.820116666666664,-3.129716038666667,-1.447335303,14.194085123333332,6.240842103666666,-12.82090505,-0.5130958953333333
613,5.10812900000019,-5.143167654666667,9.029346466,-39.83064016666667,-4.048178593333334,-1.4295441706666665,9.489546934333333,8.057215691333333,9.475535871,-0.6609199843333333
614,5.116461999999956,-5.102475961,8.995164871,-39.83410643333334,-0.27465436866666665,-1.0694958963333334,10.880659423333334,4.548934698,-4.620121002,-1.370348821
615,5.124794999999722,-5.050588130666667,8.974222183,-39.8442866,-3.593198935,-0.11661956233333333,11.048087594333333,5.982785383666666,-2.9916059770000003,-1.74906377
616,5.133127999999488,-4.9926479656666665,9.066780408333335,-39.86007943333333,-2.3236269553333333,-0.9051776526666666,13.501984276666667,6.855412006333334,10.656846365666667,-1.4918799793333333
617,5.141461000000163,-4.9458332060000005,8.994249344000002,-39.8575592,-1.1782410943333332,-1.2258186786666667,9.153910676333334,5.135877141333332,-9.291184424,-0.7647941506666666
618,5.149793999999929,-4.872825305,9.067910830333334,-39.859863266666665,-3.3292674226666663,-0.26321331666666664,6.857928515666667,8.409018039666666,8.256271839,-0.10941548533333334
619,5.158126999999695,-4.845546722333332,9.080178261999999,-39.8715617,-0.6348382633333333,-2.2562796573333332,15.571923253666666,3.059816877,0.9899516896666666,-1.5409908689999998
620,5.166459999999461,-4.811404069333333,9.030122439000001,-39.8596649,-3.7198342083333333,-0.0961574913333334,12.142639161666667,3.4847660543333334,-6.675087709666667,0.2590452816666667
621,5.174793000000136,-4.773341814999999,9.179313977000001,-39.873471566666666,-3.1245080033333337,-1.1238102813333335,7.159958521333333,4.394396305,17.381533623333333,-0.43911773966666673
622,5.183125999999902,-4.748417059666667,9.079978625,-39.863082866666666,-0.22206419666666669,-1.5242132546666667,12.434744039333333,2.3811209496666668,-12.561764716666667,-0.26650762533333333
623,5.191458999999668,-4.711520671666666,9.219915073333333,-39.87272133333334,-5.3833379746666665,-0.5642006,11.793363569999999,4.182575146333334,16.234921772333333,-0.08271257066666664
624,5.199791999999434,-4.703459898666666,9.194168410000001,-39.869476299999995,1.5243130523333335,-1.5264851353333337,10.591936388333332,0.5096037513333335,-3.684539159333333,-0.435399254
625,5.208125000000109,-4.6712905566666665,9.188900631333333,-39.87135823333333,-3.976138194666667,-1.017608106333333,9.351673443333334,3.4639968870000004,-1.2071348826666666,-0.6139732996666666
626,5.216457999999875,-4.674238205,9.289468130000001,-39.88535816666667,-1.3984420723333333,-1.2944038109999998,13.715267500000001,-0.4785165786666667,11.589965502,-1.2437463199999998
627,5.224790999999641,-4.683081308999999,9.193017958333334,-39.871856666666666,-2.004505813,-0.9326100350000001,7.358661333000001,-1.754463672666666,-12.260430970666667,0.32552708166666666
628,5.233124000000316,-4.683159510333334,9.329599379666666,-39.89218136666667,-2.1419690350000002,-2.2064902383333336,3.2462967236666658,-0.02570396633333331,15.952642756666668,-1.6331809760000002
629,5.241457000000082,-4.717781384333333,9.223764421333334,-39.89177453333333,-0.7349994576666666,-0.5513519243333334,16.859895073333334,-4.586694717333334,-13.252683006666667,-1.296626877
630,5.249789999999848,-4.738738219,9.334065120333333,-39.89796956666667,-5.499593576,-0.6762816260000001,8.735024374333333,-2.79412965,12.67698272,-0.260881096
631,5.258122999999614,-4.766622066666667,9.321468353333332,-39.90383656666666,0.423557808,-1.5051574706666664,10.281378109666667,-3.6701229813333334,-2.0440926946666664,-1.0908803740000002
632,5.266456000000289,-4.770567735,9.336706797666666,-39.8959554,-4.952552477333334,0.41691585400000014,10.545789560666666,-1.011134724,1.17514666,0.4241546790000001
633,5.274789000000055,-4.815851688333333,9.410712559333334,-39.90224203333333,0.48625151299999986,-2.7404937943333336,9.438833395666668,-5.748642285333333,8.315539866666667,-0.2749090493333333
634,5.283121999999821,-4.819110552333334,9.327933629333334,-39.886861166666655,-1.5419181583333332,-0.09125351933333332,9.40640863,-1.0781330863333334,-10.620966437,0.33492322133333335
635,5.291454999999587,-4.848385811,9.424971261333333,-39.89574686666667,-2.8242639703333334,-0.8661330443333334,9.858917394666667,-3.7735874653333332,11.097795644333333,-0.35374118866666665
636,5.299788000000262,-4.853419303666667,9.308073360333333,-39.874013266666665,-0.7433085736666666,-0.40033686166666654,7.716105619666666,-1.424361070333333,-14.768221856666665,0.7711379626666668
637,5.308121000000028,-4.858522574000001,9.412740708,-39.89035033333333,-3.546343605,-1.5804424683333334,7.306306997666667,-0.7349108503333334,12.083153726666668,-1.1760777233333333
638,5.316453999999794,-4.873801708333333,9.313480377666666,-39.8834152,-1.2780765296666667,0.49140394200000004,14.703592303333332,-2.374124010333334,-12.517401056666666,-0.7047885456666667
639,5.32478699999956,-4.8935039840000005,9.410086311999999,-39.89898680000001,-4.946647007999999,-1.7270110946666666,9.837454318333334,-2.4972643253333335,11.113291741666666,-1.1698065203333334
640,5.3331200000002354,-4.904579003333333,9.343958855333334,-39.887227366666664,0.5558829306666667,-0.8539524176666667,11.817888736333332,-1.9528676866666668,-8.600180148,0.1334245503333333
641,5.341453000000001,-4.918395519333333,9.397718747333332,-39.906186399999996,-4.261304219666667,-0.5162245036666667,6.075362364333333,-1.727398703666667,6.024567367333333,-2.0068457523333336
642,5.349785999999767,-4.935907999333334,9.341563223666666,-39.905469266666664,0.18181604166666665,-1.8510196209999998,9.011279505666666,-2.5001159906666666,-7.2932394746666676,-1.0630206266666666
643,5.358118999999533,-4.939635594666666,9.401566504666667,-39.915095,-3.9220407010000002,-0.9029380183333333,11.709879555999999,-0.697966551,6.676658192666667,-0.8445824783333334
644,5.3664520000002085,-4.959619999,9.378819466000001,-39.910046900000005,-0.45432062933333334,0.5610910953333333,11.687542915999998,-2.894690831666667,-3.3513497513333337,-0.12606472033333335
645,5.374784999999974,-4.959715048333333,9.427765209333336,-39.9073181,-4.465339501666667,-1.9990768633333333,4.194639842666667,-0.50086083,5.2292705386666665,0.49739006633333327
646,5.38311799999974,-4.973685264666667,9.407556216000001,-39.89417016666667,0.7763096093333332,-0.45025358599999993,11.284489473999999,-2.3221995233333335,-3.1238356433333334,0.7629542053333332
647,5.391450999999506,-4.993964672,9.415885924333333,-39.9031423,-4.292523702333334,-1.3422537643333332,9.453107674333333,-2.701845280666667,0.4928224089999998,-1.3030260803333336
648,5.3997840000001815,-5.030701637333333,9.379551569,-39.885821,0.1624916593333333,-1.4182616873333334,9.999082247666667,-5.131432493666667,-5.093852280666668,1.0928912163333335
